"rt","stimulus","response","trial_type","trial_index","time_elapsed","internal_node_id","ses_1","ses_2","ses_3","ses_4","ses_5","ses_6","ses_7","ses_8","ses_9","ses_10","coreself_1","coreself_2","coreself_3","coreself_4","coreself_5","coreself_6","coreself_7","coreself_8","coreself_9","coreself_10","SGPS_1","SGPS_2","SGPS_3","SGPS_4","SGPS_5","SGPS_6","SGPS_7","SGPS_8","SGPS_9","NPI1","NPI2","NPI3","NPI4","NPI5","NPI6","NPI7","NPI8","NPI9","NPI10","NPI11","NPI12","NPI13","NPI14","NPI15","hsns_1","hsns_2","hsns_3","hsns_4","hsns_5","hsns_6","hsns_7","hsns_8","hsns_9","hsns_10","subj_idx","friend_name","ParticipantID","value","success","user_agent","responses","item_order","radio_event_ids","radio_event_times","key_event_times","mouse_event_times","straightlining","zigzagging","honeypot","timeout","failed_images","failed_audio","failed_video","version_attrib","version_target","correct","IAT","screen_id","task_id","RT","condition","word","varname","summary","version_attrib2","version_target2","time_stamp","view_history","response_type","key_press","avg_frame_time","center_x","center_y","correct_response","identity","Image","question_order"
"215813","
   <p><div style = ""color: white;font-size:25px;"">您好，欢迎参加本次实验。</div> </p>
   <p><div style = ""color: white;font-size:25px;"">为充分保障您的权利，请确保您已经知晓并同意《参与实验同意书》以及《数据公开知情同意书》。</div></p>
   <p><div style = ""color: white;font-size:25px;"">如果您未见过上述内容，请咨询实验员。</div></p>
   <p><div style = ""color: white;font-size:25px;"">如果您选择继续实验，则表示您已经清楚两份知情同意书的内容并同意。</div></p>
   <p><div style = ""color: red;font-size:30px;"">请确保您记得day0的实验编号，您将在本次实验输入该编号，若您忘记，请咨询实验员后作答。</div></p>
   <p> <div style = ""color: green;font-size:25px;""><按空格键至下页></div> </p>
   "," ","html-keyboard-response","0","215815","0.0-0.0","4","4","4","4","4","4","4","3","4","4","5","5","5","5","5","5","5","5","5","5","1","1","2","1","1","2","1","4","1","0","1","0","0","0","1","0","0","0","0","0","0","1","1","0","5","1","2","1","1","2","4","5","2","1","558332507964047360","刘","447","","","","","","","","","","","","","","","","","","","","","","","","","","","","","","","","","","","","","","","",""
"","","","call-function","1","215817","0.0-1.0-0.0","4","4","4","4","4","4","4","3","4","4","5","5","5","5","5","5","5","5","5","5","1","1","2","1","1","2","1","4","1","0","1","0","0","0","1","0","0","0","0","0","0","1","1","0","5","1","2","1","1","2","4","5","2","1","558332507964047360","刘","447","","","","","","","","","","","","","","","","","","","","","","","","","","","","","","","","","","","","","","","",""
"21544","","{""friend_name"":""刘"",""ParticipantID"":""447""}","survey-html-form","2","237361","0.0-1.0-1.0","4","4","4","4","4","4","4","3","4","4","5","5","5","5","5","5","5","5","5","5","1","1","2","1","1","2","1","4","1","0","1","0","0","0","1","0","0","0","0","0","0","1","1","0","5","1","2","1","1","2","4","5","2","1","558332507964047360","刘","447","","","","","","","","","","","","","","","","","","","","","","","","","","","","","","","","","","","","","","","",""
"","","","fullscreen","3","239904","0.0-2.0","4","4","4","4","4","4","4","3","4","4","5","5","5","5","5","5","5","5","5","5","1","1","2","1","1","2","1","4","1","0","1","0","0","0","1","0","0","0","0","0","0","1","1","0","5","1","2","1","1","2","4","5","2","1","558332507964047360","刘","447","","true","{}","","","","","","","","","","","","","","","","","","","","","","","","","","","","","","","","","","","","",""
"25255","","{""Q01"":""4"",""Q02"":""4"",""Q03"":""4"",""Q04"":""4"",""Q05"":""4"",""Q06"":""4"",""Q07"":""4"",""Q08"":""3"",""Q09"":""4"",""Q10"":""4""}","survey-template","4","265160","0.0-3.0","4","4","4","4","4","4","4","3","4","4","5","5","5","5","5","5","5","5","5","5","1","1","2","1","1","2","1","4","1","0","1","0","0","0","1","0","0","0","0","0","0","1","1","0","5","1","2","1","1","2","4","5","2","1","558332507964047360","刘","447","","","","{""Q01"":""4"",""Q02"":""4"",""Q03"":""4"",""Q04"":""4"",""Q05"":""4"",""Q06"":""4"",""Q07"":""4"",""Q08"":""3"",""Q09"":""4"",""Q10"":""4""}","[0,1,2,3,4,5,6,7,8,9]","[""Q01"",""Q02"",""Q03"",""Q04"",""Q05"",""Q06"",""Q07"",""Q08"",""Q09"",""Q10""]","[12111.5,13038.900000000373,15034.799999998882,16600.599999999627,17790.299999998882,19085.199999999255,19612.599999999627,22104.699999999255,23288.199999999255,23819.299999998882]","[]","[12111.5,13038.900000000373,15034.799999998882,16600.599999999627,17790.299999998882,19085.199999999255,19612.599999999627,22104.699999999255,23288.199999999255,23819.299999998882,25254.299999998882]","0.5","0.5555555555555556","0","","","","","","","","","","","","","","","","","","","","","","","","","","","",""
"18213.699999999255","","{""Q01"":""5"",""Q02"":""5"",""Q03"":""5"",""Q04"":""5"",""Q05"":""5"",""Q06"":""5"",""Q07"":""5"",""Q08"":""5"",""Q09"":""5"",""Q10"":""5""}","survey-template","5","283378","0.0-4.0","4","4","4","4","4","4","4","3","4","4","5","5","5","5","5","5","5","5","5","5","1","1","2","1","1","2","1","4","1","0","1","0","0","0","1","0","0","0","0","0","0","1","1","0","5","1","2","1","1","2","4","5","2","1","558332507964047360","刘","447","","","","{""Q01"":""5"",""Q02"":""5"",""Q03"":""5"",""Q04"":""5"",""Q05"":""5"",""Q06"":""5"",""Q07"":""5"",""Q08"":""5"",""Q09"":""5"",""Q10"":""5""}","[0,1,2,3,4,5,6,7,8,9]","[""Q01"",""Q02"",""Q03"",""Q04"",""Q05"",""Q06"",""Q07"",""Q08"",""Q09"",""Q10""]","[2147.800000000745,3425.5,4466.800000000745,5831.5,7739.4000000003725,9235.199999999255,10567.199999999255,12823.5,14967.099999999627,17276.300000000745]","[]","[2147.800000000745,3425.5,4466.800000000745,5831.5,7739.4000000003725,9235.199999999255,10567.199999999255,12823.5,14967.099999999627,15483.099999999627,16752,17276.300000000745,18213]","0.6","0.7777777777777778","0","","","","","","","","","","","","","","","","","","","","","","","","","","","",""
"","","","preload","6","283763","0.0-5.0","4","4","4","4","4","4","4","3","4","4","5","5","5","5","5","5","5","5","5","5","1","1","2","1","1","2","1","4","1","0","1","0","0","0","1","0","0","0","0","0","0","1","1","0","5","1","2","1","1","2","4","5","2","1","558332507964047360","刘","447","","true","","","","","","","","","","","false","[]","[]","[]","","","","","","","","","","","","","","","","","","","","","","","",""
"20771","
    <h3>词语分类任务</h3>
    <p>在接下来的任务中，你需要对一系列词语进行分类。</p>
    <p>请先熟悉这些词语，这有利于你完成接下来的任务。</p>
    <table align=""center"" border=1 cellpadding=3 cellspacing=0>
    <tr> <th>类别</th> <th>词语</th> </tr>
    <tr> <td>&emsp;积极&emsp;</td> <td>&emsp;能干、全能、全才、高效、精干、天才&emsp;</td> </tr>
    <tr> <td>&emsp;消极&emsp;</td> <td>&emsp;无能、低能、废物、拙笨、愚钝、蠢笨&emsp;</td> </tr>
    <tr> <td>&emsp;自我&emsp;</td> <td>&emsp;我、我的、自己、自己的、本人、本人的&emsp;</td> </tr>
    <tr> <td>&emsp;他人&emsp;</td> <td>&emsp;他、他的、别人、别人的、他人、他人的&emsp;</td> </tr>
    </table><br/>","0","html-button-response","7","304535","0.0-6.0-0.0-0.0","4","4","4","4","4","4","4","3","4","4","5","5","5","5","5","5","5","5","5","5","1","1","2","1","1","2","1","4","1","0","1","0","0","0","1","0","0","0","0","0","0","1","1","0","5","1","2","1","1","2","4","5","2","1","558332507964047360","刘","447","","","","","","","","","","","","","","","","","1","1","","","","","","","","","","","","","","","","","","","","","",""
"4945","
    <div class=""tag-bottom"">
    <p> —— 任务1：对“自我”词和“他人”词分类 ——<p/>
    不同词语会出现在屏幕中央，类别标签将始终显示在屏幕上方<p/>   
    <span style=""color:#FFD866""><b>请根据上方标签的提示，尽可能正确并且快速地做出按键反应</b></span><p/>
    当按键错误时屏幕中会出现<span style=""color:red""> X </span>，需要按另一个键纠正才能继续<br/><p/>
    请把双手食指分别放在键盘的“E”键和“I”键上<p/>
    按<空格键>开始
    </p></div>"," ","html-keyboard-response","8","309482","0.0-6.0-0.0-1.0","4","4","4","4","4","4","4","3","4","4","5","5","5","5","5","5","5","5","5","5","1","1","2","1","1","2","1","4","1","0","1","0","0","0","1","0","0","0","0","0","0","1","1","0","5","1","2","1","1","2","4","5","2","1","558332507964047360","刘","447","","","","","","","","","","","","","","","","","","","","","","","","","","","","","","","","","","","","","","","",""
"null","","null","html-keyboard-response","9","309733","0.0-6.0-0.0-2.0-0.0","4","4","4","4","4","4","4","3","4","4","5","5","5","5","5","5","5","5","5","5","1","1","2","1","1","2","1","4","1","0","1","0","0","0","1","0","0","0","0","0","0","1","1","0","5","1","2","1","1","2","4","5","2","1","558332507964047360","刘","447","","","","","","","","","","","","","","","","","","","","","","","","","","","","","","","","","","","","","","","",""
"601","<p style=""color:rgb(150, 250, 100); font-size: 35px;"">自己的</p>","e","categorize-html","10","310336","0.0-6.0-0.0-2.0-1.0","4","4","4","4","4","4","4","3","4","4","5","5","5","5","5","5","5","5","5","5","1","1","2","1","1","2","1","4","1","0","1","0","0","0","1","0","0","0","0","0","0","1","1","0","5","1","2","1","1","2","4","5","2","1","558332507964047360","刘","447","","","","","","","","","","","","","","","","","","","true","1","1","ability","601","self","自己的","","","","","","","","","","","","","","",""
"null","","null","html-keyboard-response","11","310588","0.0-6.0-0.0-2.0-0.1","4","4","4","4","4","4","4","3","4","4","5","5","5","5","5","5","5","5","5","5","1","1","2","1","1","2","1","4","1","0","1","0","0","0","1","0","0","0","0","0","0","1","1","0","5","1","2","1","1","2","4","5","2","1","558332507964047360","刘","447","","","","","","","","","","","","","","","","","","","","","","","","","","","","","","","","","","","","","","","",""
"509","<p style=""color:rgb(150, 250, 100); font-size: 35px;"">我</p>","e","categorize-html","12","311098","0.0-6.0-0.0-2.0-1.1","4","4","4","4","4","4","4","3","4","4","5","5","5","5","5","5","5","5","5","5","1","1","2","1","1","2","1","4","1","0","1","0","0","0","1","0","0","0","0","0","0","1","1","0","5","1","2","1","1","2","4","5","2","1","558332507964047360","刘","447","","","","","","","","","","","","","","","","","","","true","1","1","ability","509","self","我","","","","","","","","","","","","","","",""
"null","","null","html-keyboard-response","13","311349","0.0-6.0-0.0-2.0-0.2","4","4","4","4","4","4","4","3","4","4","5","5","5","5","5","5","5","5","5","5","1","1","2","1","1","2","1","4","1","0","1","0","0","0","1","0","0","0","0","0","0","1","1","0","5","1","2","1","1","2","4","5","2","1","558332507964047360","刘","447","","","","","","","","","","","","","","","","","","","","","","","","","","","","","","","","","","","","","","","",""
"499","<p style=""color:rgb(150, 250, 100); font-size: 35px;"">本人</p>","e","categorize-html","14","311850","0.0-6.0-0.0-2.0-1.2","4","4","4","4","4","4","4","3","4","4","5","5","5","5","5","5","5","5","5","5","1","1","2","1","1","2","1","4","1","0","1","0","0","0","1","0","0","0","0","0","0","1","1","0","5","1","2","1","1","2","4","5","2","1","558332507964047360","刘","447","","","","","","","","","","","","","","","","","","","true","1","1","ability","499","self","本人","","","","","","","","","","","","","","",""
"null","","null","html-keyboard-response","15","312102","0.0-6.0-0.0-2.0-0.3","4","4","4","4","4","4","4","3","4","4","5","5","5","5","5","5","5","5","5","5","1","1","2","1","1","2","1","4","1","0","1","0","0","0","1","0","0","0","0","0","0","1","1","0","5","1","2","1","1","2","4","5","2","1","558332507964047360","刘","447","","","","","","","","","","","","","","","","","","","","","","","","","","","","","","","","","","","","","","","",""
"647","<p style=""color:rgb(150, 250, 100); font-size: 35px;"">别人的</p>","i","categorize-html","16","312750","0.0-6.0-0.0-2.0-1.3","4","4","4","4","4","4","4","3","4","4","5","5","5","5","5","5","5","5","5","5","1","1","2","1","1","2","1","4","1","0","1","0","0","0","1","0","0","0","0","0","0","1","1","0","5","1","2","1","1","2","4","5","2","1","558332507964047360","刘","447","","","","","","","","","","","","","","","","","","","true","1","1","ability","647","other","别人的","","","","","","","","","","","","","","",""
"null","","null","html-keyboard-response","17","313001","0.0-6.0-0.0-2.0-0.4","4","4","4","4","4","4","4","3","4","4","5","5","5","5","5","5","5","5","5","5","1","1","2","1","1","2","1","4","1","0","1","0","0","0","1","0","0","0","0","0","0","1","1","0","5","1","2","1","1","2","4","5","2","1","558332507964047360","刘","447","","","","","","","","","","","","","","","","","","","","","","","","","","","","","","","","","","","","","","","",""
"1760","<p style=""color:rgb(150, 250, 100); font-size: 35px;"">他</p>","i","categorize-html","18","314761","0.0-6.0-0.0-2.0-1.4","4","4","4","4","4","4","4","3","4","4","5","5","5","5","5","5","5","5","5","5","1","1","2","1","1","2","1","4","1","0","1","0","0","0","1","0","0","0","0","0","0","1","1","0","5","1","2","1","1","2","4","5","2","1","558332507964047360","刘","447","","","","","","","","","","","","","","","","","","","true","1","1","ability","1760","other","他","","","","","","","","","","","","","","",""
"null","","null","html-keyboard-response","19","315012","0.0-6.0-0.0-2.0-0.5","4","4","4","4","4","4","4","3","4","4","5","5","5","5","5","5","5","5","5","5","1","1","2","1","1","2","1","4","1","0","1","0","0","0","1","0","0","0","0","0","0","1","1","0","5","1","2","1","1","2","4","5","2","1","558332507964047360","刘","447","","","","","","","","","","","","","","","","","","","","","","","","","","","","","","","","","","","","","","","",""
"763","<p style=""color:rgb(150, 250, 100); font-size: 35px;"">他的</p>","i","categorize-html","20","315776","0.0-6.0-0.0-2.0-1.5","4","4","4","4","4","4","4","3","4","4","5","5","5","5","5","5","5","5","5","5","1","1","2","1","1","2","1","4","1","0","1","0","0","0","1","0","0","0","0","0","0","1","1","0","5","1","2","1","1","2","4","5","2","1","558332507964047360","刘","447","","","","","","","","","","","","","","","","","","","true","1","1","ability","763","other","他的","","","","","","","","","","","","","","",""
"null","","null","html-keyboard-response","21","316027","0.0-6.0-0.0-2.0-0.6","4","4","4","4","4","4","4","3","4","4","5","5","5","5","5","5","5","5","5","5","1","1","2","1","1","2","1","4","1","0","1","0","0","0","1","0","0","0","0","0","0","1","1","0","5","1","2","1","1","2","4","5","2","1","558332507964047360","刘","447","","","","","","","","","","","","","","","","","","","","","","","","","","","","","","","","","","","","","","","",""
"495","<p style=""color:rgb(150, 250, 100); font-size: 35px;"">他人的</p>","i","categorize-html","22","316523","0.0-6.0-0.0-2.0-1.6","4","4","4","4","4","4","4","3","4","4","5","5","5","5","5","5","5","5","5","5","1","1","2","1","1","2","1","4","1","0","1","0","0","0","1","0","0","0","0","0","0","1","1","0","5","1","2","1","1","2","4","5","2","1","558332507964047360","刘","447","","","","","","","","","","","","","","","","","","","true","1","1","ability","495","other","他人的","","","","","","","","","","","","","","",""
"null","","null","html-keyboard-response","23","316773","0.0-6.0-0.0-2.0-0.7","4","4","4","4","4","4","4","3","4","4","5","5","5","5","5","5","5","5","5","5","1","1","2","1","1","2","1","4","1","0","1","0","0","0","1","0","0","0","0","0","0","1","1","0","5","1","2","1","1","2","4","5","2","1","558332507964047360","刘","447","","","","","","","","","","","","","","","","","","","","","","","","","","","","","","","","","","","","","","","",""
"484","<p style=""color:rgb(150, 250, 100); font-size: 35px;"">自己</p>","e","categorize-html","24","317259","0.0-6.0-0.0-2.0-1.7","4","4","4","4","4","4","4","3","4","4","5","5","5","5","5","5","5","5","5","5","1","1","2","1","1","2","1","4","1","0","1","0","0","0","1","0","0","0","0","0","0","1","1","0","5","1","2","1","1","2","4","5","2","1","558332507964047360","刘","447","","","","","","","","","","","","","","","","","","","true","1","1","ability","484","self","自己","","","","","","","","","","","","","","",""
"null","","null","html-keyboard-response","25","317510","0.0-6.0-0.0-2.0-0.8","4","4","4","4","4","4","4","3","4","4","5","5","5","5","5","5","5","5","5","5","1","1","2","1","1","2","1","4","1","0","1","0","0","0","1","0","0","0","0","0","0","1","1","0","5","1","2","1","1","2","4","5","2","1","558332507964047360","刘","447","","","","","","","","","","","","","","","","","","","","","","","","","","","","","","","","","","","","","","","",""
"476","<p style=""color:rgb(150, 250, 100); font-size: 35px;"">本人的</p>","e","categorize-html","26","317988","0.0-6.0-0.0-2.0-1.8","4","4","4","4","4","4","4","3","4","4","5","5","5","5","5","5","5","5","5","5","1","1","2","1","1","2","1","4","1","0","1","0","0","0","1","0","0","0","0","0","0","1","1","0","5","1","2","1","1","2","4","5","2","1","558332507964047360","刘","447","","","","","","","","","","","","","","","","","","","true","1","1","ability","476","self","本人的","","","","","","","","","","","","","","",""
"null","","null","html-keyboard-response","27","318238","0.0-6.0-0.0-2.0-0.9","4","4","4","4","4","4","4","3","4","4","5","5","5","5","5","5","5","5","5","5","1","1","2","1","1","2","1","4","1","0","1","0","0","0","1","0","0","0","0","0","0","1","1","0","5","1","2","1","1","2","4","5","2","1","558332507964047360","刘","447","","","","","","","","","","","","","","","","","","","","","","","","","","","","","","","","","","","","","","","",""
"785","<p style=""color:rgb(150, 250, 100); font-size: 35px;"">别人</p>","i","categorize-html","28","319025","0.0-6.0-0.0-2.0-1.9","4","4","4","4","4","4","4","3","4","4","5","5","5","5","5","5","5","5","5","5","1","1","2","1","1","2","1","4","1","0","1","0","0","0","1","0","0","0","0","0","0","1","1","0","5","1","2","1","1","2","4","5","2","1","558332507964047360","刘","447","","","","","","","","","","","","","","","","","","","true","1","1","ability","785","other","别人","","","","","","","","","","","","","","",""
"null","","null","html-keyboard-response","29","319276","0.0-6.0-0.0-2.0-0.10","4","4","4","4","4","4","4","3","4","4","5","5","5","5","5","5","5","5","5","5","1","1","2","1","1","2","1","4","1","0","1","0","0","0","1","0","0","0","0","0","0","1","1","0","5","1","2","1","1","2","4","5","2","1","558332507964047360","刘","447","","","","","","","","","","","","","","","","","","","","","","","","","","","","","","","","","","","","","","","",""
"531","<p style=""color:rgb(150, 250, 100); font-size: 35px;"">他人</p>","i","categorize-html","30","319807","0.0-6.0-0.0-2.0-1.10","4","4","4","4","4","4","4","3","4","4","5","5","5","5","5","5","5","5","5","5","1","1","2","1","1","2","1","4","1","0","1","0","0","0","1","0","0","0","0","0","0","1","1","0","5","1","2","1","1","2","4","5","2","1","558332507964047360","刘","447","","","","","","","","","","","","","","","","","","","true","1","1","ability","531","other","他人","","","","","","","","","","","","","","",""
"null","","null","html-keyboard-response","31","320059","0.0-6.0-0.0-2.0-0.11","4","4","4","4","4","4","4","3","4","4","5","5","5","5","5","5","5","5","5","5","1","1","2","1","1","2","1","4","1","0","1","0","0","0","1","0","0","0","0","0","0","1","1","0","5","1","2","1","1","2","4","5","2","1","558332507964047360","刘","447","","","","","","","","","","","","","","","","","","","","","","","","","","","","","","","","","","","","","","","",""
"501","<p style=""color:rgb(150, 250, 100); font-size: 35px;"">我的</p>","e","categorize-html","32","320561","0.0-6.0-0.0-2.0-1.11","4","4","4","4","4","4","4","3","4","4","5","5","5","5","5","5","5","5","5","5","1","1","2","1","1","2","1","4","1","0","1","0","0","0","1","0","0","0","0","0","0","1","1","0","5","1","2","1","1","2","4","5","2","1","558332507964047360","刘","447","","","","","","","","","","","","","","","","","","","true","1","1","ability","501","self","我的","","","","","","","","","","","","","","",""
"5282","
    <div class=""tag-bottom""><p>
    —— 任务2：对“积极”词和“消极”词分类 ——<p/>   
    <span style=""color:#78DCE8""><b>注意上方，类别标签和需要分类的词语都已经改变</b></span><p/>
    <span style=""color:#FFD866""><b>请根据上方标签的提示，尽可能正确并且快速地做出按键反应</b></span><p/>
    当按键错误时屏幕中会出现<span style=""color:red""> X </span>，需要按另一个键纠正才能继续<br/><p/>
    请把双手食指分别放在键盘的“E”键和“I”键上<p/>
    按<空格键>开始
    </p></div>"," ","html-keyboard-response","33","325843","0.0-6.0-0.0-3.0","4","4","4","4","4","4","4","3","4","4","5","5","5","5","5","5","5","5","5","5","1","1","2","1","1","2","1","4","1","0","1","0","0","0","1","0","0","0","0","0","0","1","1","0","5","1","2","1","1","2","4","5","2","1","558332507964047360","刘","447","","","","","","","","","","","","","","","","","","","","","","","","","","","","","","","","","","","","","","","",""
"null","","null","html-keyboard-response","34","326095","0.0-6.0-0.0-4.0-0.0","4","4","4","4","4","4","4","3","4","4","5","5","5","5","5","5","5","5","5","5","1","1","2","1","1","2","1","4","1","0","1","0","0","0","1","0","0","0","0","0","0","1","1","0","5","1","2","1","1","2","4","5","2","1","558332507964047360","刘","447","","","","","","","","","","","","","","","","","","","","","","","","","","","","","","","","","","","","","","","",""
"688","<p style=""color:white; font-size: 35px;"">能干</p>","e","categorize-html","35","326784","0.0-6.0-0.0-4.0-1.0","4","4","4","4","4","4","4","3","4","4","5","5","5","5","5","5","5","5","5","5","1","1","2","1","1","2","1","4","1","0","1","0","0","0","1","0","0","0","0","0","0","1","1","0","5","1","2","1","1","2","4","5","2","1","558332507964047360","刘","447","","","","","","","","","","","","","","","","","","","true","2","2","ability","688","positive","能干","","","","","","","","","","","","","","",""
"null","","null","html-keyboard-response","36","327034","0.0-6.0-0.0-4.0-0.1","4","4","4","4","4","4","4","3","4","4","5","5","5","5","5","5","5","5","5","5","1","1","2","1","1","2","1","4","1","0","1","0","0","0","1","0","0","0","0","0","0","1","1","0","5","1","2","1","1","2","4","5","2","1","558332507964047360","刘","447","","","","","","","","","","","","","","","","","","","","","","","","","","","","","","","","","","","","","","","",""
"473","<p style=""color:white; font-size: 35px;"">无能</p>","i","categorize-html","37","327508","0.0-6.0-0.0-4.0-1.1","4","4","4","4","4","4","4","3","4","4","5","5","5","5","5","5","5","5","5","5","1","1","2","1","1","2","1","4","1","0","1","0","0","0","1","0","0","0","0","0","0","1","1","0","5","1","2","1","1","2","4","5","2","1","558332507964047360","刘","447","","","","","","","","","","","","","","","","","","","true","2","2","ability","473","negative","无能","","","","","","","","","","","","","","",""
"null","","null","html-keyboard-response","38","327759","0.0-6.0-0.0-4.0-0.2","4","4","4","4","4","4","4","3","4","4","5","5","5","5","5","5","5","5","5","5","1","1","2","1","1","2","1","4","1","0","1","0","0","0","1","0","0","0","0","0","0","1","1","0","5","1","2","1","1","2","4","5","2","1","558332507964047360","刘","447","","","","","","","","","","","","","","","","","","","","","","","","","","","","","","","","","","","","","","","",""
"521","<p style=""color:white; font-size: 35px;"">精干</p>","e","categorize-html","39","328281","0.0-6.0-0.0-4.0-1.2","4","4","4","4","4","4","4","3","4","4","5","5","5","5","5","5","5","5","5","5","1","1","2","1","1","2","1","4","1","0","1","0","0","0","1","0","0","0","0","0","0","1","1","0","5","1","2","1","1","2","4","5","2","1","558332507964047360","刘","447","","","","","","","","","","","","","","","","","","","true","2","2","ability","521","positive","精干","","","","","","","","","","","","","","",""
"null","","null","html-keyboard-response","40","328531","0.0-6.0-0.0-4.0-0.3","4","4","4","4","4","4","4","3","4","4","5","5","5","5","5","5","5","5","5","5","1","1","2","1","1","2","1","4","1","0","1","0","0","0","1","0","0","0","0","0","0","1","1","0","5","1","2","1","1","2","4","5","2","1","558332507964047360","刘","447","","","","","","","","","","","","","","","","","","","","","","","","","","","","","","","","","","","","","","","",""
"450","<p style=""color:white; font-size: 35px;"">拙笨</p>","i","categorize-html","41","328983","0.0-6.0-0.0-4.0-1.3","4","4","4","4","4","4","4","3","4","4","5","5","5","5","5","5","5","5","5","5","1","1","2","1","1","2","1","4","1","0","1","0","0","0","1","0","0","0","0","0","0","1","1","0","5","1","2","1","1","2","4","5","2","1","558332507964047360","刘","447","","","","","","","","","","","","","","","","","","","true","2","2","ability","450","negative","拙笨","","","","","","","","","","","","","","",""
"null","","null","html-keyboard-response","42","329233","0.0-6.0-0.0-4.0-0.4","4","4","4","4","4","4","4","3","4","4","5","5","5","5","5","5","5","5","5","5","1","1","2","1","1","2","1","4","1","0","1","0","0","0","1","0","0","0","0","0","0","1","1","0","5","1","2","1","1","2","4","5","2","1","558332507964047360","刘","447","","","","","","","","","","","","","","","","","","","","","","","","","","","","","","","","","","","","","","","",""
"444","<p style=""color:white; font-size: 35px;"">废物</p>","i","categorize-html","43","329678","0.0-6.0-0.0-4.0-1.4","4","4","4","4","4","4","4","3","4","4","5","5","5","5","5","5","5","5","5","5","1","1","2","1","1","2","1","4","1","0","1","0","0","0","1","0","0","0","0","0","0","1","1","0","5","1","2","1","1","2","4","5","2","1","558332507964047360","刘","447","","","","","","","","","","","","","","","","","","","true","2","2","ability","444","negative","废物","","","","","","","","","","","","","","",""
"null","","null","html-keyboard-response","44","329941","0.0-6.0-0.0-4.0-0.5","4","4","4","4","4","4","4","3","4","4","5","5","5","5","5","5","5","5","5","5","1","1","2","1","1","2","1","4","1","0","1","0","0","0","1","0","0","0","0","0","0","1","1","0","5","1","2","1","1","2","4","5","2","1","558332507964047360","刘","447","","","","","","","","","","","","","","","","","","","","","","","","","","","","","","","","","","","","","","","",""
"423","<p style=""color:white; font-size: 35px;"">蠢笨</p>","i","categorize-html","45","330365","0.0-6.0-0.0-4.0-1.5","4","4","4","4","4","4","4","3","4","4","5","5","5","5","5","5","5","5","5","5","1","1","2","1","1","2","1","4","1","0","1","0","0","0","1","0","0","0","0","0","0","1","1","0","5","1","2","1","1","2","4","5","2","1","558332507964047360","刘","447","","","","","","","","","","","","","","","","","","","true","2","2","ability","423","negative","蠢笨","","","","","","","","","","","","","","",""
"null","","null","html-keyboard-response","46","330616","0.0-6.0-0.0-4.0-0.6","4","4","4","4","4","4","4","3","4","4","5","5","5","5","5","5","5","5","5","5","1","1","2","1","1","2","1","4","1","0","1","0","0","0","1","0","0","0","0","0","0","1","1","0","5","1","2","1","1","2","4","5","2","1","558332507964047360","刘","447","","","","","","","","","","","","","","","","","","","","","","","","","","","","","","","","","","","","","","","",""
"491","<p style=""color:white; font-size: 35px;"">天才</p>","e","categorize-html","47","331108","0.0-6.0-0.0-4.0-1.6","4","4","4","4","4","4","4","3","4","4","5","5","5","5","5","5","5","5","5","5","1","1","2","1","1","2","1","4","1","0","1","0","0","0","1","0","0","0","0","0","0","1","1","0","5","1","2","1","1","2","4","5","2","1","558332507964047360","刘","447","","","","","","","","","","","","","","","","","","","true","2","2","ability","491","positive","天才","","","","","","","","","","","","","","",""
"null","","null","html-keyboard-response","48","331359","0.0-6.0-0.0-4.0-0.7","4","4","4","4","4","4","4","3","4","4","5","5","5","5","5","5","5","5","5","5","1","1","2","1","1","2","1","4","1","0","1","0","0","0","1","0","0","0","0","0","0","1","1","0","5","1","2","1","1","2","4","5","2","1","558332507964047360","刘","447","","","","","","","","","","","","","","","","","","","","","","","","","","","","","","","","","","","","","","","",""
"420","<p style=""color:white; font-size: 35px;"">高效</p>","e","categorize-html","49","331780","0.0-6.0-0.0-4.0-1.7","4","4","4","4","4","4","4","3","4","4","5","5","5","5","5","5","5","5","5","5","1","1","2","1","1","2","1","4","1","0","1","0","0","0","1","0","0","0","0","0","0","1","1","0","5","1","2","1","1","2","4","5","2","1","558332507964047360","刘","447","","","","","","","","","","","","","","","","","","","true","2","2","ability","420","positive","高效","","","","","","","","","","","","","","",""
"null","","null","html-keyboard-response","50","332031","0.0-6.0-0.0-4.0-0.8","4","4","4","4","4","4","4","3","4","4","5","5","5","5","5","5","5","5","5","5","1","1","2","1","1","2","1","4","1","0","1","0","0","0","1","0","0","0","0","0","0","1","1","0","5","1","2","1","1","2","4","5","2","1","558332507964047360","刘","447","","","","","","","","","","","","","","","","","","","","","","","","","","","","","","","","","","","","","","","",""
"468","<p style=""color:white; font-size: 35px;"">全能</p>","e","categorize-html","51","332500","0.0-6.0-0.0-4.0-1.8","4","4","4","4","4","4","4","3","4","4","5","5","5","5","5","5","5","5","5","5","1","1","2","1","1","2","1","4","1","0","1","0","0","0","1","0","0","0","0","0","0","1","1","0","5","1","2","1","1","2","4","5","2","1","558332507964047360","刘","447","","","","","","","","","","","","","","","","","","","true","2","2","ability","468","positive","全能","","","","","","","","","","","","","","",""
"null","","null","html-keyboard-response","52","332751","0.0-6.0-0.0-4.0-0.9","4","4","4","4","4","4","4","3","4","4","5","5","5","5","5","5","5","5","5","5","1","1","2","1","1","2","1","4","1","0","1","0","0","0","1","0","0","0","0","0","0","1","1","0","5","1","2","1","1","2","4","5","2","1","558332507964047360","刘","447","","","","","","","","","","","","","","","","","","","","","","","","","","","","","","","","","","","","","","","",""
"404","<p style=""color:white; font-size: 35px;"">全才</p>","e","categorize-html","53","333155","0.0-6.0-0.0-4.0-1.9","4","4","4","4","4","4","4","3","4","4","5","5","5","5","5","5","5","5","5","5","1","1","2","1","1","2","1","4","1","0","1","0","0","0","1","0","0","0","0","0","0","1","1","0","5","1","2","1","1","2","4","5","2","1","558332507964047360","刘","447","","","","","","","","","","","","","","","","","","","true","2","2","ability","404","positive","全才","","","","","","","","","","","","","","",""
"null","","null","html-keyboard-response","54","333406","0.0-6.0-0.0-4.0-0.10","4","4","4","4","4","4","4","3","4","4","5","5","5","5","5","5","5","5","5","5","1","1","2","1","1","2","1","4","1","0","1","0","0","0","1","0","0","0","0","0","0","1","1","0","5","1","2","1","1","2","4","5","2","1","558332507964047360","刘","447","","","","","","","","","","","","","","","","","","","","","","","","","","","","","","","","","","","","","","","",""
"486","<p style=""color:white; font-size: 35px;"">低能</p>","i","categorize-html","55","333892","0.0-6.0-0.0-4.0-1.10","4","4","4","4","4","4","4","3","4","4","5","5","5","5","5","5","5","5","5","5","1","1","2","1","1","2","1","4","1","0","1","0","0","0","1","0","0","0","0","0","0","1","1","0","5","1","2","1","1","2","4","5","2","1","558332507964047360","刘","447","","","","","","","","","","","","","","","","","","","true","2","2","ability","486","negative","低能","","","","","","","","","","","","","","",""
"null","","null","html-keyboard-response","56","334143","0.0-6.0-0.0-4.0-0.11","4","4","4","4","4","4","4","3","4","4","5","5","5","5","5","5","5","5","5","5","1","1","2","1","1","2","1","4","1","0","1","0","0","0","1","0","0","0","0","0","0","1","1","0","5","1","2","1","1","2","4","5","2","1","558332507964047360","刘","447","","","","","","","","","","","","","","","","","","","","","","","","","","","","","","","","","","","","","","","",""
"399","<p style=""color:white; font-size: 35px;"">愚钝</p>","i","categorize-html","57","334542","0.0-6.0-0.0-4.0-1.11","4","4","4","4","4","4","4","3","4","4","5","5","5","5","5","5","5","5","5","5","1","1","2","1","1","2","1","4","1","0","1","0","0","0","1","0","0","0","0","0","0","1","1","0","5","1","2","1","1","2","4","5","2","1","558332507964047360","刘","447","","","","","","","","","","","","","","","","","","","true","2","2","ability","399","negative","愚钝","","","","","","","","","","","","","","",""
"3236","
    <div class=""tag-bottom""><p>
    —— 任务3：对“自我/积极”词和“他人/消极”词分类 ——<p/>
    <span style=""color:#78DCE8""><b>注意上方，之前的四类词语将混合在一起交替呈现</b></span><p/>
    <span style=""color:#FFD866""><b>请根据上方标签的提示，尽可能正确并且快速地做出按键反应</b></span><p/>
    当按键错误时屏幕中会出现<span style=""color:red""> X </span>，需要按另一个键纠正才能继续<br/><p/>
    请把双手食指分别放在键盘的“E”键和“I”键上<p/>
    按<空格键>开始
    </p></div>"," ","html-keyboard-response","58","337779","0.0-6.0-0.0-5.0","4","4","4","4","4","4","4","3","4","4","5","5","5","5","5","5","5","5","5","5","1","1","2","1","1","2","1","4","1","0","1","0","0","0","1","0","0","0","0","0","0","1","1","0","5","1","2","1","1","2","4","5","2","1","558332507964047360","刘","447","","","","","","","","","","","","","","","","","","","","","","","","","","","","","","","","","","","","","","","",""
"null","","null","html-keyboard-response","59","338029","0.0-6.0-0.0-6.0-0.0","4","4","4","4","4","4","4","3","4","4","5","5","5","5","5","5","5","5","5","5","1","1","2","1","1","2","1","4","1","0","1","0","0","0","1","0","0","0","0","0","0","1","1","0","5","1","2","1","1","2","4","5","2","1","558332507964047360","刘","447","","","","","","","","","","","","","","","","","","","","","","","","","","","","","","","","","","","","","","","",""
"453","<p style=""color:rgb(150, 250, 100); font-size: 35px;"">他人</p>","e","categorize-html","60","341443","0.0-6.0-0.0-6.0-1.0","4","4","4","4","4","4","4","3","4","4","5","5","5","5","5","5","5","5","5","5","1","1","2","1","1","2","1","4","1","0","1","0","0","0","1","0","0","0","0","0","0","1","1","0","5","1","2","1","1","2","4","5","2","1","558332507964047360","刘","447","","","","","","","","","","","","","","","","","","","false","3","3","ability","1211.409090909091","other","他人","","","","","","","","","","","","","","",""
"null","","null","html-keyboard-response","61","341694","0.0-6.0-0.0-6.0-0.1","4","4","4","4","4","4","4","3","4","4","5","5","5","5","5","5","5","5","5","5","1","1","2","1","1","2","1","4","1","0","1","0","0","0","1","0","0","0","0","0","0","1","1","0","5","1","2","1","1","2","4","5","2","1","558332507964047360","刘","447","","","","","","","","","","","","","","","","","","","","","","","","","","","","","","","","","","","","","","","",""
"1386","<p style=""color:white; font-size: 35px;"">高效</p>","e","categorize-html","62","343082","0.0-6.0-0.0-6.0-1.1","4","4","4","4","4","4","4","3","4","4","5","5","5","5","5","5","5","5","5","5","1","1","2","1","1","2","1","4","1","0","1","0","0","0","1","0","0","0","0","0","0","1","1","0","5","1","2","1","1","2","4","5","2","1","558332507964047360","刘","447","","","","","","","","","","","","","","","","","","","true","3","3","ability","1386","positive","高效","","","","","","","","","","","","","","",""
"null","","null","html-keyboard-response","63","343332","0.0-6.0-0.0-6.0-0.2","4","4","4","4","4","4","4","3","4","4","5","5","5","5","5","5","5","5","5","5","1","1","2","1","1","2","1","4","1","0","1","0","0","0","1","0","0","0","0","0","0","1","1","0","5","1","2","1","1","2","4","5","2","1","558332507964047360","刘","447","","","","","","","","","","","","","","","","","","","","","","","","","","","","","","","","","","","","","","","",""
"442","<p style=""color:rgb(150, 250, 100); font-size: 35px;"">我</p>","e","categorize-html","64","343775","0.0-6.0-0.0-6.0-1.2","4","4","4","4","4","4","4","3","4","4","5","5","5","5","5","5","5","5","5","5","1","1","2","1","1","2","1","4","1","0","1","0","0","0","1","0","0","0","0","0","0","1","1","0","5","1","2","1","1","2","4","5","2","1","558332507964047360","刘","447","","","","","","","","","","","","","","","","","","","true","3","3","ability","442","self","我","","","","","","","","","","","","","","",""
"null","","null","html-keyboard-response","65","344027","0.0-6.0-0.0-6.0-0.3","4","4","4","4","4","4","4","3","4","4","5","5","5","5","5","5","5","5","5","5","1","1","2","1","1","2","1","4","1","0","1","0","0","0","1","0","0","0","0","0","0","1","1","0","5","1","2","1","1","2","4","5","2","1","558332507964047360","刘","447","","","","","","","","","","","","","","","","","","","","","","","","","","","","","","","","","","","","","","","",""
"478","<p style=""color:white; font-size: 35px;"">拙笨</p>","i","categorize-html","66","344506","0.0-6.0-0.0-6.0-1.3","4","4","4","4","4","4","4","3","4","4","5","5","5","5","5","5","5","5","5","5","1","1","2","1","1","2","1","4","1","0","1","0","0","0","1","0","0","0","0","0","0","1","1","0","5","1","2","1","1","2","4","5","2","1","558332507964047360","刘","447","","","","","","","","","","","","","","","","","","","true","3","3","ability","478","negative","拙笨","","","","","","","","","","","","","","",""
"null","","null","html-keyboard-response","67","344756","0.0-6.0-0.0-6.0-0.4","4","4","4","4","4","4","4","3","4","4","5","5","5","5","5","5","5","5","5","5","1","1","2","1","1","2","1","4","1","0","1","0","0","0","1","0","0","0","0","0","0","1","1","0","5","1","2","1","1","2","4","5","2","1","558332507964047360","刘","447","","","","","","","","","","","","","","","","","","","","","","","","","","","","","","","","","","","","","","","",""
"423","<p style=""color:rgb(150, 250, 100); font-size: 35px;"">别人</p>","i","categorize-html","68","345181","0.0-6.0-0.0-6.0-1.4","4","4","4","4","4","4","4","3","4","4","5","5","5","5","5","5","5","5","5","5","1","1","2","1","1","2","1","4","1","0","1","0","0","0","1","0","0","0","0","0","0","1","1","0","5","1","2","1","1","2","4","5","2","1","558332507964047360","刘","447","","","","","","","","","","","","","","","","","","","true","3","3","ability","423","other","别人","","","","","","","","","","","","","","",""
"null","","null","html-keyboard-response","69","345431","0.0-6.0-0.0-6.0-0.5","4","4","4","4","4","4","4","3","4","4","5","5","5","5","5","5","5","5","5","5","1","1","2","1","1","2","1","4","1","0","1","0","0","0","1","0","0","0","0","0","0","1","1","0","5","1","2","1","1","2","4","5","2","1","558332507964047360","刘","447","","","","","","","","","","","","","","","","","","","","","","","","","","","","","","","","","","","","","","","",""
"578","<p style=""color:white; font-size: 35px;"">全能</p>","e","categorize-html","70","346011","0.0-6.0-0.0-6.0-1.5","4","4","4","4","4","4","4","3","4","4","5","5","5","5","5","5","5","5","5","5","1","1","2","1","1","2","1","4","1","0","1","0","0","0","1","0","0","0","0","0","0","1","1","0","5","1","2","1","1","2","4","5","2","1","558332507964047360","刘","447","","","","","","","","","","","","","","","","","","","true","3","3","ability","578","positive","全能","","","","","","","","","","","","","","",""
"null","","null","html-keyboard-response","71","346262","0.0-6.0-0.0-6.0-0.6","4","4","4","4","4","4","4","3","4","4","5","5","5","5","5","5","5","5","5","5","1","1","2","1","1","2","1","4","1","0","1","0","0","0","1","0","0","0","0","0","0","1","1","0","5","1","2","1","1","2","4","5","2","1","558332507964047360","刘","447","","","","","","","","","","","","","","","","","","","","","","","","","","","","","","","","","","","","","","","",""
"478","<p style=""color:rgb(150, 250, 100); font-size: 35px;"">本人的</p>","e","categorize-html","72","346741","0.0-6.0-0.0-6.0-1.6","4","4","4","4","4","4","4","3","4","4","5","5","5","5","5","5","5","5","5","5","1","1","2","1","1","2","1","4","1","0","1","0","0","0","1","0","0","0","0","0","0","1","1","0","5","1","2","1","1","2","4","5","2","1","558332507964047360","刘","447","","","","","","","","","","","","","","","","","","","true","3","3","ability","478","self","本人的","","","","","","","","","","","","","","",""
"null","","null","html-keyboard-response","73","346993","0.0-6.0-0.0-6.0-0.7","4","4","4","4","4","4","4","3","4","4","5","5","5","5","5","5","5","5","5","5","1","1","2","1","1","2","1","4","1","0","1","0","0","0","1","0","0","0","0","0","0","1","1","0","5","1","2","1","1","2","4","5","2","1","558332507964047360","刘","447","","","","","","","","","","","","","","","","","","","","","","","","","","","","","","","","","","","","","","","",""
"594","<p style=""color:white; font-size: 35px;"">低能</p>","i","categorize-html","74","347588","0.0-6.0-0.0-6.0-1.7","4","4","4","4","4","4","4","3","4","4","5","5","5","5","5","5","5","5","5","5","1","1","2","1","1","2","1","4","1","0","1","0","0","0","1","0","0","0","0","0","0","1","1","0","5","1","2","1","1","2","4","5","2","1","558332507964047360","刘","447","","","","","","","","","","","","","","","","","","","true","3","3","ability","594","negative","低能","","","","","","","","","","","","","","",""
"null","","null","html-keyboard-response","75","347839","0.0-6.0-0.0-6.0-0.8","4","4","4","4","4","4","4","3","4","4","5","5","5","5","5","5","5","5","5","5","1","1","2","1","1","2","1","4","1","0","1","0","0","0","1","0","0","0","0","0","0","1","1","0","5","1","2","1","1","2","4","5","2","1","558332507964047360","刘","447","","","","","","","","","","","","","","","","","","","","","","","","","","","","","","","","","","","","","","","",""
"602","<p style=""color:rgb(150, 250, 100); font-size: 35px;"">自己</p>","i","categorize-html","76","349903","0.0-6.0-0.0-6.0-1.8","4","4","4","4","4","4","4","3","4","4","5","5","5","5","5","5","5","5","5","5","1","1","2","1","1","2","1","4","1","0","1","0","0","0","1","0","0","0","0","0","0","1","1","0","5","1","2","1","1","2","4","5","2","1","558332507964047360","刘","447","","","","","","","","","","","","","","","","","","","false","3","3","ability","1211.409090909091","self","自己","","","","","","","","","","","","","","",""
"null","","null","html-keyboard-response","77","350154","0.0-6.0-0.0-6.0-0.9","4","4","4","4","4","4","4","3","4","4","5","5","5","5","5","5","5","5","5","5","1","1","2","1","1","2","1","4","1","0","1","0","0","0","1","0","0","0","0","0","0","1","1","0","5","1","2","1","1","2","4","5","2","1","558332507964047360","刘","447","","","","","","","","","","","","","","","","","","","","","","","","","","","","","","","","","","","","","","","",""
"1335","<p style=""color:white; font-size: 35px;"">废物</p>","i","categorize-html","78","351491","0.0-6.0-0.0-6.0-1.9","4","4","4","4","4","4","4","3","4","4","5","5","5","5","5","5","5","5","5","5","1","1","2","1","1","2","1","4","1","0","1","0","0","0","1","0","0","0","0","0","0","1","1","0","5","1","2","1","1","2","4","5","2","1","558332507964047360","刘","447","","","","","","","","","","","","","","","","","","","true","3","3","ability","1335","negative","废物","","","","","","","","","","","","","","",""
"null","","null","html-keyboard-response","79","351742","0.0-6.0-0.0-6.0-0.10","4","4","4","4","4","4","4","3","4","4","5","5","5","5","5","5","5","5","5","5","1","1","2","1","1","2","1","4","1","0","1","0","0","0","1","0","0","0","0","0","0","1","1","0","5","1","2","1","1","2","4","5","2","1","558332507964047360","刘","447","","","","","","","","","","","","","","","","","","","","","","","","","","","","","","","","","","","","","","","",""
"493","<p style=""color:rgb(150, 250, 100); font-size: 35px;"">他</p>","i","categorize-html","80","352236","0.0-6.0-0.0-6.0-1.10","4","4","4","4","4","4","4","3","4","4","5","5","5","5","5","5","5","5","5","5","1","1","2","1","1","2","1","4","1","0","1","0","0","0","1","0","0","0","0","0","0","1","1","0","5","1","2","1","1","2","4","5","2","1","558332507964047360","刘","447","","","","","","","","","","","","","","","","","","","true","3","3","ability","493","other","他","","","","","","","","","","","","","","",""
"null","","null","html-keyboard-response","81","352487","0.0-6.0-0.0-6.0-0.11","4","4","4","4","4","4","4","3","4","4","5","5","5","5","5","5","5","5","5","5","1","1","2","1","1","2","1","4","1","0","1","0","0","0","1","0","0","0","0","0","0","1","1","0","5","1","2","1","1","2","4","5","2","1","558332507964047360","刘","447","","","","","","","","","","","","","","","","","","","","","","","","","","","","","","","","","","","","","","","",""
"625","<p style=""color:white; font-size: 35px;"">能干</p>","e","categorize-html","82","353113","0.0-6.0-0.0-6.0-1.11","4","4","4","4","4","4","4","3","4","4","5","5","5","5","5","5","5","5","5","5","1","1","2","1","1","2","1","4","1","0","1","0","0","0","1","0","0","0","0","0","0","1","1","0","5","1","2","1","1","2","4","5","2","1","558332507964047360","刘","447","","","","","","","","","","","","","","","","","","","true","3","3","ability","625","positive","能干","","","","","","","","","","","","","","",""
"null","","null","html-keyboard-response","83","353363","0.0-6.0-0.0-6.0-0.12","4","4","4","4","4","4","4","3","4","4","5","5","5","5","5","5","5","5","5","5","1","1","2","1","1","2","1","4","1","0","1","0","0","0","1","0","0","0","0","0","0","1","1","0","5","1","2","1","1","2","4","5","2","1","558332507964047360","刘","447","","","","","","","","","","","","","","","","","","","","","","","","","","","","","","","","","","","","","","","",""
"426","<p style=""color:rgb(150, 250, 100); font-size: 35px;"">我的</p>","e","categorize-html","84","353790","0.0-6.0-0.0-6.0-1.12","4","4","4","4","4","4","4","3","4","4","5","5","5","5","5","5","5","5","5","5","1","1","2","1","1","2","1","4","1","0","1","0","0","0","1","0","0","0","0","0","0","1","1","0","5","1","2","1","1","2","4","5","2","1","558332507964047360","刘","447","","","","","","","","","","","","","","","","","","","true","3","3","ability","426","self","我的","","","","","","","","","","","","","","",""
"null","","null","html-keyboard-response","85","354042","0.0-6.0-0.0-6.0-0.13","4","4","4","4","4","4","4","3","4","4","5","5","5","5","5","5","5","5","5","5","1","1","2","1","1","2","1","4","1","0","1","0","0","0","1","0","0","0","0","0","0","1","1","0","5","1","2","1","1","2","4","5","2","1","558332507964047360","刘","447","","","","","","","","","","","","","","","","","","","","","","","","","","","","","","","","","","","","","","","",""
"478","<p style=""color:white; font-size: 35px;"">精干</p>","e","categorize-html","86","354521","0.0-6.0-0.0-6.0-1.13","4","4","4","4","4","4","4","3","4","4","5","5","5","5","5","5","5","5","5","5","1","1","2","1","1","2","1","4","1","0","1","0","0","0","1","0","0","0","0","0","0","1","1","0","5","1","2","1","1","2","4","5","2","1","558332507964047360","刘","447","","","","","","","","","","","","","","","","","","","true","3","3","ability","478","positive","精干","","","","","","","","","","","","","","",""
"null","","null","html-keyboard-response","87","354772","0.0-6.0-0.0-6.0-0.14","4","4","4","4","4","4","4","3","4","4","5","5","5","5","5","5","5","5","5","5","1","1","2","1","1","2","1","4","1","0","1","0","0","0","1","0","0","0","0","0","0","1","1","0","5","1","2","1","1","2","4","5","2","1","558332507964047360","刘","447","","","","","","","","","","","","","","","","","","","","","","","","","","","","","","","","","","","","","","","",""
"492","<p style=""color:rgb(150, 250, 100); font-size: 35px;"">他的</p>","i","categorize-html","88","355265","0.0-6.0-0.0-6.0-1.14","4","4","4","4","4","4","4","3","4","4","5","5","5","5","5","5","5","5","5","5","1","1","2","1","1","2","1","4","1","0","1","0","0","0","1","0","0","0","0","0","0","1","1","0","5","1","2","1","1","2","4","5","2","1","558332507964047360","刘","447","","","","","","","","","","","","","","","","","","","true","3","3","ability","492","other","他的","","","","","","","","","","","","","","",""
"null","","null","html-keyboard-response","89","355517","0.0-6.0-0.0-6.0-0.15","4","4","4","4","4","4","4","3","4","4","5","5","5","5","5","5","5","5","5","5","1","1","2","1","1","2","1","4","1","0","1","0","0","0","1","0","0","0","0","0","0","1","1","0","5","1","2","1","1","2","4","5","2","1","558332507964047360","刘","447","","","","","","","","","","","","","","","","","","","","","","","","","","","","","","","","","","","","","","","",""
"474","<p style=""color:white; font-size: 35px;"">蠢笨</p>","i","categorize-html","90","355992","0.0-6.0-0.0-6.0-1.15","4","4","4","4","4","4","4","3","4","4","5","5","5","5","5","5","5","5","5","5","1","1","2","1","1","2","1","4","1","0","1","0","0","0","1","0","0","0","0","0","0","1","1","0","5","1","2","1","1","2","4","5","2","1","558332507964047360","刘","447","","","","","","","","","","","","","","","","","","","true","3","3","ability","474","negative","蠢笨","","","","","","","","","","","","","","",""
"null","","null","html-keyboard-response","91","356244","0.0-6.0-0.0-6.0-0.16","4","4","4","4","4","4","4","3","4","4","5","5","5","5","5","5","5","5","5","5","1","1","2","1","1","2","1","4","1","0","1","0","0","0","1","0","0","0","0","0","0","1","1","0","5","1","2","1","1","2","4","5","2","1","558332507964047360","刘","447","","","","","","","","","","","","","","","","","","","","","","","","","","","","","","","","","","","","","","","",""
"530","<p style=""color:rgb(150, 250, 100); font-size: 35px;"">他人的</p>","i","categorize-html","92","356775","0.0-6.0-0.0-6.0-1.16","4","4","4","4","4","4","4","3","4","4","5","5","5","5","5","5","5","5","5","5","1","1","2","1","1","2","1","4","1","0","1","0","0","0","1","0","0","0","0","0","0","1","1","0","5","1","2","1","1","2","4","5","2","1","558332507964047360","刘","447","","","","","","","","","","","","","","","","","","","true","3","3","ability","530","other","他人的","","","","","","","","","","","","","","",""
"null","","null","html-keyboard-response","93","357026","0.0-6.0-0.0-6.0-0.17","4","4","4","4","4","4","4","3","4","4","5","5","5","5","5","5","5","5","5","5","1","1","2","1","1","2","1","4","1","0","1","0","0","0","1","0","0","0","0","0","0","1","1","0","5","1","2","1","1","2","4","5","2","1","558332507964047360","刘","447","","","","","","","","","","","","","","","","","","","","","","","","","","","","","","","","","","","","","","","",""
"644","<p style=""color:white; font-size: 35px;"">全才</p>","e","categorize-html","94","357671","0.0-6.0-0.0-6.0-1.17","4","4","4","4","4","4","4","3","4","4","5","5","5","5","5","5","5","5","5","5","1","1","2","1","1","2","1","4","1","0","1","0","0","0","1","0","0","0","0","0","0","1","1","0","5","1","2","1","1","2","4","5","2","1","558332507964047360","刘","447","","","","","","","","","","","","","","","","","","","true","3","3","ability","644","positive","全才","","","","","","","","","","","","","","",""
"null","","null","html-keyboard-response","95","357923","0.0-6.0-0.0-6.0-0.18","4","4","4","4","4","4","4","3","4","4","5","5","5","5","5","5","5","5","5","5","1","1","2","1","1","2","1","4","1","0","1","0","0","0","1","0","0","0","0","0","0","1","1","0","5","1","2","1","1","2","4","5","2","1","558332507964047360","刘","447","","","","","","","","","","","","","","","","","","","","","","","","","","","","","","","","","","","","","","","",""
"463","<p style=""color:rgb(150, 250, 100); font-size: 35px;"">自己的</p>","e","categorize-html","96","358387","0.0-6.0-0.0-6.0-1.18","4","4","4","4","4","4","4","3","4","4","5","5","5","5","5","5","5","5","5","5","1","1","2","1","1","2","1","4","1","0","1","0","0","0","1","0","0","0","0","0","0","1","1","0","5","1","2","1","1","2","4","5","2","1","558332507964047360","刘","447","","","","","","","","","","","","","","","","","","","true","3","3","ability","463","self","自己的","","","","","","","","","","","","","","",""
"null","","null","html-keyboard-response","97","358639","0.0-6.0-0.0-6.0-0.19","4","4","4","4","4","4","4","3","4","4","5","5","5","5","5","5","5","5","5","5","1","1","2","1","1","2","1","4","1","0","1","0","0","0","1","0","0","0","0","0","0","1","1","0","5","1","2","1","1","2","4","5","2","1","558332507964047360","刘","447","","","","","","","","","","","","","","","","","","","","","","","","","","","","","","","","","","","","","","","",""
"879","<p style=""color:white; font-size: 35px;"">愚钝</p>","i","categorize-html","98","359519","0.0-6.0-0.0-6.0-1.19","4","4","4","4","4","4","4","3","4","4","5","5","5","5","5","5","5","5","5","5","1","1","2","1","1","2","1","4","1","0","1","0","0","0","1","0","0","0","0","0","0","1","1","0","5","1","2","1","1","2","4","5","2","1","558332507964047360","刘","447","","","","","","","","","","","","","","","","","","","true","3","3","ability","879","negative","愚钝","","","","","","","","","","","","","","",""
"null","","null","html-keyboard-response","99","359770","0.0-6.0-0.0-6.0-0.20","4","4","4","4","4","4","4","3","4","4","5","5","5","5","5","5","5","5","5","5","1","1","2","1","1","2","1","4","1","0","1","0","0","0","1","0","0","0","0","0","0","1","1","0","5","1","2","1","1","2","4","5","2","1","558332507964047360","刘","447","","","","","","","","","","","","","","","","","","","","","","","","","","","","","","","","","","","","","","","",""
"611","<p style=""color:rgb(150, 250, 100); font-size: 35px;"">别人的</p>","i","categorize-html","100","360382","0.0-6.0-0.0-6.0-1.20","4","4","4","4","4","4","4","3","4","4","5","5","5","5","5","5","5","5","5","5","1","1","2","1","1","2","1","4","1","0","1","0","0","0","1","0","0","0","0","0","0","1","1","0","5","1","2","1","1","2","4","5","2","1","558332507964047360","刘","447","","","","","","","","","","","","","","","","","","","true","3","3","ability","611","other","别人的","","","","","","","","","","","","","","",""
"null","","null","html-keyboard-response","101","360633","0.0-6.0-0.0-6.0-0.21","4","4","4","4","4","4","4","3","4","4","5","5","5","5","5","5","5","5","5","5","1","1","2","1","1","2","1","4","1","0","1","0","0","0","1","0","0","0","0","0","0","1","1","0","5","1","2","1","1","2","4","5","2","1","558332507964047360","刘","447","","","","","","","","","","","","","","","","","","","","","","","","","","","","","","","","","","","","","","","",""
"622","<p style=""color:white; font-size: 35px;"">天才</p>","e","categorize-html","102","361256","0.0-6.0-0.0-6.0-1.21","4","4","4","4","4","4","4","3","4","4","5","5","5","5","5","5","5","5","5","5","1","1","2","1","1","2","1","4","1","0","1","0","0","0","1","0","0","0","0","0","0","1","1","0","5","1","2","1","1","2","4","5","2","1","558332507964047360","刘","447","","","","","","","","","","","","","","","","","","","true","3","3","ability","622","positive","天才","","","","","","","","","","","","","","",""
"null","","null","html-keyboard-response","103","361506","0.0-6.0-0.0-6.0-0.22","4","4","4","4","4","4","4","3","4","4","5","5","5","5","5","5","5","5","5","5","1","1","2","1","1","2","1","4","1","0","1","0","0","0","1","0","0","0","0","0","0","1","1","0","5","1","2","1","1","2","4","5","2","1","558332507964047360","刘","447","","","","","","","","","","","","","","","","","","","","","","","","","","","","","","","","","","","","","","","",""
"471","<p style=""color:rgb(150, 250, 100); font-size: 35px;"">本人</p>","e","categorize-html","104","361978","0.0-6.0-0.0-6.0-1.22","4","4","4","4","4","4","4","3","4","4","5","5","5","5","5","5","5","5","5","5","1","1","2","1","1","2","1","4","1","0","1","0","0","0","1","0","0","0","0","0","0","1","1","0","5","1","2","1","1","2","4","5","2","1","558332507964047360","刘","447","","","","","","","","","","","","","","","","","","","true","3","3","ability","471","self","本人","","","","","","","","","","","","","","",""
"null","","null","html-keyboard-response","105","362228","0.0-6.0-0.0-6.0-0.23","4","4","4","4","4","4","4","3","4","4","5","5","5","5","5","5","5","5","5","5","1","1","2","1","1","2","1","4","1","0","1","0","0","0","1","0","0","0","0","0","0","1","1","0","5","1","2","1","1","2","4","5","2","1","558332507964047360","刘","447","","","","","","","","","","","","","","","","","","","","","","","","","","","","","","","","","","","","","","","",""
"529","<p style=""color:white; font-size: 35px;"">无能</p>","i","categorize-html","106","362758","0.0-6.0-0.0-6.0-1.23","4","4","4","4","4","4","4","3","4","4","5","5","5","5","5","5","5","5","5","5","1","1","2","1","1","2","1","4","1","0","1","0","0","0","1","0","0","0","0","0","0","1","1","0","5","1","2","1","1","2","4","5","2","1","558332507964047360","刘","447","","","","","","","","","","","","","","","","","","","true","3","3","ability","529","negative","无能","","","","","","","","","","","","","","",""
"18817","
    <div class=""tag-bottom""><p>
    —— 任务4：对“自我/积极”词和“他人/消极”词分类 ——<p/>
    <span style=""color:#78DCE8""><b>与刚才的任务完全相同，请再次对这四类词语分类</b></span><p/>
    <span style=""color:#FFD866""><b>请根据上方标签的提示，尽可能正确并且快速地做出按键反应</b></span><p/>
    当按键错误时屏幕中会出现<span style=""color:red""> X </span>，需要按另一个键纠正才能继续<br/><p/>
    请把双手食指分别放在键盘的“E”键和“I”键上<p/>
    按<空格键>开始
    </p></div>"," ","html-keyboard-response","107","381576","0.0-6.0-0.0-7.0","4","4","4","4","4","4","4","3","4","4","5","5","5","5","5","5","5","5","5","5","1","1","2","1","1","2","1","4","1","0","1","0","0","0","1","0","0","0","0","0","0","1","1","0","5","1","2","1","1","2","4","5","2","1","558332507964047360","刘","447","","","","","","","","","","","","","","","","","","","","","","","","","","","","","","","","","","","","","","","",""
"null","","null","html-keyboard-response","108","381827","0.0-6.0-0.0-8.0-0.0","4","4","4","4","4","4","4","3","4","4","5","5","5","5","5","5","5","5","5","5","1","1","2","1","1","2","1","4","1","0","1","0","0","0","1","0","0","0","0","0","0","1","1","0","5","1","2","1","1","2","4","5","2","1","558332507964047360","刘","447","","","","","","","","","","","","","","","","","","","","","","","","","","","","","","","","","","","","","","","",""
"611","<p style=""color:rgb(150, 250, 100); font-size: 35px;"">我</p>","e","categorize-html","109","382439","0.0-6.0-0.0-8.0-1.0","4","4","4","4","4","4","4","3","4","4","5","5","5","5","5","5","5","5","5","5","1","1","2","1","1","2","1","4","1","0","1","0","0","0","1","0","0","0","0","0","0","1","1","0","5","1","2","1","1","2","4","5","2","1","558332507964047360","刘","447","","","","","","","","","","","","","","","","","","","true","4","4","ability","611","self","我","","","","","","","","","","","","","","",""
"null","","null","html-keyboard-response","110","382690","0.0-6.0-0.0-8.0-0.1","4","4","4","4","4","4","4","3","4","4","5","5","5","5","5","5","5","5","5","5","1","1","2","1","1","2","1","4","1","0","1","0","0","0","1","0","0","0","0","0","0","1","1","0","5","1","2","1","1","2","4","5","2","1","558332507964047360","刘","447","","","","","","","","","","","","","","","","","","","","","","","","","","","","","","","","","","","","","","","",""
"414","<p style=""color:white; font-size: 35px;"">全才</p>","e","categorize-html","111","383105","0.0-6.0-0.0-8.0-1.1","4","4","4","4","4","4","4","3","4","4","5","5","5","5","5","5","5","5","5","5","1","1","2","1","1","2","1","4","1","0","1","0","0","0","1","0","0","0","0","0","0","1","1","0","5","1","2","1","1","2","4","5","2","1","558332507964047360","刘","447","","","","","","","","","","","","","","","","","","","true","4","4","ability","414","positive","全才","","","","","","","","","","","","","","",""
"null","","null","html-keyboard-response","112","383356","0.0-6.0-0.0-8.0-0.2","4","4","4","4","4","4","4","3","4","4","5","5","5","5","5","5","5","5","5","5","1","1","2","1","1","2","1","4","1","0","1","0","0","0","1","0","0","0","0","0","0","1","1","0","5","1","2","1","1","2","4","5","2","1","558332507964047360","刘","447","","","","","","","","","","","","","","","","","","","","","","","","","","","","","","","","","","","","","","","",""
"456","<p style=""color:rgb(150, 250, 100); font-size: 35px;"">他</p>","i","categorize-html","113","383812","0.0-6.0-0.0-8.0-1.2","4","4","4","4","4","4","4","3","4","4","5","5","5","5","5","5","5","5","5","5","1","1","2","1","1","2","1","4","1","0","1","0","0","0","1","0","0","0","0","0","0","1","1","0","5","1","2","1","1","2","4","5","2","1","558332507964047360","刘","447","","","","","","","","","","","","","","","","","","","true","4","4","ability","456","other","他","","","","","","","","","","","","","","",""
"null","","null","html-keyboard-response","114","384064","0.0-6.0-0.0-8.0-0.3","4","4","4","4","4","4","4","3","4","4","5","5","5","5","5","5","5","5","5","5","1","1","2","1","1","2","1","4","1","0","1","0","0","0","1","0","0","0","0","0","0","1","1","0","5","1","2","1","1","2","4","5","2","1","558332507964047360","刘","447","","","","","","","","","","","","","","","","","","","","","","","","","","","","","","","","","","","","","","","",""
"399","<p style=""color:white; font-size: 35px;"">拙笨</p>","i","categorize-html","115","384464","0.0-6.0-0.0-8.0-1.3","4","4","4","4","4","4","4","3","4","4","5","5","5","5","5","5","5","5","5","5","1","1","2","1","1","2","1","4","1","0","1","0","0","0","1","0","0","0","0","0","0","1","1","0","5","1","2","1","1","2","4","5","2","1","558332507964047360","刘","447","","","","","","","","","","","","","","","","","","","true","4","4","ability","399","negative","拙笨","","","","","","","","","","","","","","",""
"null","","null","html-keyboard-response","116","384715","0.0-6.0-0.0-8.0-0.4","4","4","4","4","4","4","4","3","4","4","5","5","5","5","5","5","5","5","5","5","1","1","2","1","1","2","1","4","1","0","1","0","0","0","1","0","0","0","0","0","0","1","1","0","5","1","2","1","1","2","4","5","2","1","558332507964047360","刘","447","","","","","","","","","","","","","","","","","","","","","","","","","","","","","","","","","","","","","","","",""
"544","<p style=""color:rgb(150, 250, 100); font-size: 35px;"">本人的</p>","e","categorize-html","117","385260","0.0-6.0-0.0-8.0-1.4","4","4","4","4","4","4","4","3","4","4","5","5","5","5","5","5","5","5","5","5","1","1","2","1","1","2","1","4","1","0","1","0","0","0","1","0","0","0","0","0","0","1","1","0","5","1","2","1","1","2","4","5","2","1","558332507964047360","刘","447","","","","","","","","","","","","","","","","","","","true","4","4","ability","544","self","本人的","","","","","","","","","","","","","","",""
"null","","null","html-keyboard-response","118","385511","0.0-6.0-0.0-8.0-0.5","4","4","4","4","4","4","4","3","4","4","5","5","5","5","5","5","5","5","5","5","1","1","2","1","1","2","1","4","1","0","1","0","0","0","1","0","0","0","0","0","0","1","1","0","5","1","2","1","1","2","4","5","2","1","558332507964047360","刘","447","","","","","","","","","","","","","","","","","","","","","","","","","","","","","","","","","","","","","","","",""
"433","<p style=""color:white; font-size: 35px;"">精干</p>","e","categorize-html","119","385946","0.0-6.0-0.0-8.0-1.5","4","4","4","4","4","4","4","3","4","4","5","5","5","5","5","5","5","5","5","5","1","1","2","1","1","2","1","4","1","0","1","0","0","0","1","0","0","0","0","0","0","1","1","0","5","1","2","1","1","2","4","5","2","1","558332507964047360","刘","447","","","","","","","","","","","","","","","","","","","true","4","4","ability","433","positive","精干","","","","","","","","","","","","","","",""
"null","","null","html-keyboard-response","120","386210","0.0-6.0-0.0-8.0-0.6","4","4","4","4","4","4","4","3","4","4","5","5","5","5","5","5","5","5","5","5","1","1","2","1","1","2","1","4","1","0","1","0","0","0","1","0","0","0","0","0","0","1","1","0","5","1","2","1","1","2","4","5","2","1","558332507964047360","刘","447","","","","","","","","","","","","","","","","","","","","","","","","","","","","","","","","","","","","","","","",""
"473","<p style=""color:rgb(150, 250, 100); font-size: 35px;"">别人</p>","i","categorize-html","121","386684","0.0-6.0-0.0-8.0-1.6","4","4","4","4","4","4","4","3","4","4","5","5","5","5","5","5","5","5","5","5","1","1","2","1","1","2","1","4","1","0","1","0","0","0","1","0","0","0","0","0","0","1","1","0","5","1","2","1","1","2","4","5","2","1","558332507964047360","刘","447","","","","","","","","","","","","","","","","","","","true","4","4","ability","473","other","别人","","","","","","","","","","","","","","",""
"null","","null","html-keyboard-response","122","386936","0.0-6.0-0.0-8.0-0.7","4","4","4","4","4","4","4","3","4","4","5","5","5","5","5","5","5","5","5","5","1","1","2","1","1","2","1","4","1","0","1","0","0","0","1","0","0","0","0","0","0","1","1","0","5","1","2","1","1","2","4","5","2","1","558332507964047360","刘","447","","","","","","","","","","","","","","","","","","","","","","","","","","","","","","","","","","","","","","","",""
"388","<p style=""color:white; font-size: 35px;"">蠢笨</p>","i","categorize-html","123","387326","0.0-6.0-0.0-8.0-1.7","4","4","4","4","4","4","4","3","4","4","5","5","5","5","5","5","5","5","5","5","1","1","2","1","1","2","1","4","1","0","1","0","0","0","1","0","0","0","0","0","0","1","1","0","5","1","2","1","1","2","4","5","2","1","558332507964047360","刘","447","","","","","","","","","","","","","","","","","","","true","4","4","ability","388","negative","蠢笨","","","","","","","","","","","","","","",""
"null","","null","html-keyboard-response","124","387578","0.0-6.0-0.0-8.0-0.8","4","4","4","4","4","4","4","3","4","4","5","5","5","5","5","5","5","5","5","5","1","1","2","1","1","2","1","4","1","0","1","0","0","0","1","0","0","0","0","0","0","1","1","0","5","1","2","1","1","2","4","5","2","1","558332507964047360","刘","447","","","","","","","","","","","","","","","","","","","","","","","","","","","","","","","","","","","","","","","",""
"512","<p style=""color:rgb(150, 250, 100); font-size: 35px;"">他人的</p>","i","categorize-html","125","388091","0.0-6.0-0.0-8.0-1.8","4","4","4","4","4","4","4","3","4","4","5","5","5","5","5","5","5","5","5","5","1","1","2","1","1","2","1","4","1","0","1","0","0","0","1","0","0","0","0","0","0","1","1","0","5","1","2","1","1","2","4","5","2","1","558332507964047360","刘","447","","","","","","","","","","","","","","","","","","","true","4","4","ability","512","other","他人的","","","","","","","","","","","","","","",""
"null","","null","html-keyboard-response","126","388343","0.0-6.0-0.0-8.0-0.9","4","4","4","4","4","4","4","3","4","4","5","5","5","5","5","5","5","5","5","5","1","1","2","1","1","2","1","4","1","0","1","0","0","0","1","0","0","0","0","0","0","1","1","0","5","1","2","1","1","2","4","5","2","1","558332507964047360","刘","447","","","","","","","","","","","","","","","","","","","","","","","","","","","","","","","","","","","","","","","",""
"428","<p style=""color:white; font-size: 35px;"">低能</p>","i","categorize-html","127","388772","0.0-6.0-0.0-8.0-1.9","4","4","4","4","4","4","4","3","4","4","5","5","5","5","5","5","5","5","5","5","1","1","2","1","1","2","1","4","1","0","1","0","0","0","1","0","0","0","0","0","0","1","1","0","5","1","2","1","1","2","4","5","2","1","558332507964047360","刘","447","","","","","","","","","","","","","","","","","","","true","4","4","ability","428","negative","低能","","","","","","","","","","","","","","",""
"null","","null","html-keyboard-response","128","389022","0.0-6.0-0.0-8.0-0.10","4","4","4","4","4","4","4","3","4","4","5","5","5","5","5","5","5","5","5","5","1","1","2","1","1","2","1","4","1","0","1","0","0","0","1","0","0","0","0","0","0","1","1","0","5","1","2","1","1","2","4","5","2","1","558332507964047360","刘","447","","","","","","","","","","","","","","","","","","","","","","","","","","","","","","","","","","","","","","","",""
"495","<p style=""color:rgb(150, 250, 100); font-size: 35px;"">自己</p>","e","categorize-html","129","389519","0.0-6.0-0.0-8.0-1.10","4","4","4","4","4","4","4","3","4","4","5","5","5","5","5","5","5","5","5","5","1","1","2","1","1","2","1","4","1","0","1","0","0","0","1","0","0","0","0","0","0","1","1","0","5","1","2","1","1","2","4","5","2","1","558332507964047360","刘","447","","","","","","","","","","","","","","","","","","","true","4","4","ability","495","self","自己","","","","","","","","","","","","","","",""
"null","","null","html-keyboard-response","130","389771","0.0-6.0-0.0-8.0-0.11","4","4","4","4","4","4","4","3","4","4","5","5","5","5","5","5","5","5","5","5","1","1","2","1","1","2","1","4","1","0","1","0","0","0","1","0","0","0","0","0","0","1","1","0","5","1","2","1","1","2","4","5","2","1","558332507964047360","刘","447","","","","","","","","","","","","","","","","","","","","","","","","","","","","","","","","","","","","","","","",""
"448","<p style=""color:white; font-size: 35px;"">精干</p>","e","categorize-html","131","390220","0.0-6.0-0.0-8.0-1.11","4","4","4","4","4","4","4","3","4","4","5","5","5","5","5","5","5","5","5","5","1","1","2","1","1","2","1","4","1","0","1","0","0","0","1","0","0","0","0","0","0","1","1","0","5","1","2","1","1","2","4","5","2","1","558332507964047360","刘","447","","","","","","","","","","","","","","","","","","","true","4","4","ability","448","positive","精干","","","","","","","","","","","","","","",""
"null","","null","html-keyboard-response","132","390471","0.0-6.0-0.0-8.0-0.12","4","4","4","4","4","4","4","3","4","4","5","5","5","5","5","5","5","5","5","5","1","1","2","1","1","2","1","4","1","0","1","0","0","0","1","0","0","0","0","0","0","1","1","0","5","1","2","1","1","2","4","5","2","1","558332507964047360","刘","447","","","","","","","","","","","","","","","","","","","","","","","","","","","","","","","","","","","","","","","",""
"532","<p style=""color:rgb(150, 250, 100); font-size: 35px;"">别人的</p>","i","categorize-html","133","391004","0.0-6.0-0.0-8.0-1.12","4","4","4","4","4","4","4","3","4","4","5","5","5","5","5","5","5","5","5","5","1","1","2","1","1","2","1","4","1","0","1","0","0","0","1","0","0","0","0","0","0","1","1","0","5","1","2","1","1","2","4","5","2","1","558332507964047360","刘","447","","","","","","","","","","","","","","","","","","","true","4","4","ability","532","other","别人的","","","","","","","","","","","","","","",""
"null","","null","html-keyboard-response","134","391255","0.0-6.0-0.0-8.0-0.13","4","4","4","4","4","4","4","3","4","4","5","5","5","5","5","5","5","5","5","5","1","1","2","1","1","2","1","4","1","0","1","0","0","0","1","0","0","0","0","0","0","1","1","0","5","1","2","1","1","2","4","5","2","1","558332507964047360","刘","447","","","","","","","","","","","","","","","","","","","","","","","","","","","","","","","","","","","","","","","",""
"541","<p style=""color:white; font-size: 35px;"">高效</p>","e","categorize-html","135","391798","0.0-6.0-0.0-8.0-1.13","4","4","4","4","4","4","4","3","4","4","5","5","5","5","5","5","5","5","5","5","1","1","2","1","1","2","1","4","1","0","1","0","0","0","1","0","0","0","0","0","0","1","1","0","5","1","2","1","1","2","4","5","2","1","558332507964047360","刘","447","","","","","","","","","","","","","","","","","","","true","4","4","ability","541","positive","高效","","","","","","","","","","","","","","",""
"null","","null","html-keyboard-response","136","392049","0.0-6.0-0.0-8.0-0.14","4","4","4","4","4","4","4","3","4","4","5","5","5","5","5","5","5","5","5","5","1","1","2","1","1","2","1","4","1","0","1","0","0","0","1","0","0","0","0","0","0","1","1","0","5","1","2","1","1","2","4","5","2","1","558332507964047360","刘","447","","","","","","","","","","","","","","","","","","","","","","","","","","","","","","","","","","","","","","","",""
"513","<p style=""color:rgb(150, 250, 100); font-size: 35px;"">本人</p>","e","categorize-html","137","392563","0.0-6.0-0.0-8.0-1.14","4","4","4","4","4","4","4","3","4","4","5","5","5","5","5","5","5","5","5","5","1","1","2","1","1","2","1","4","1","0","1","0","0","0","1","0","0","0","0","0","0","1","1","0","5","1","2","1","1","2","4","5","2","1","558332507964047360","刘","447","","","","","","","","","","","","","","","","","","","true","4","4","ability","513","self","本人","","","","","","","","","","","","","","",""
"null","","null","html-keyboard-response","138","392814","0.0-6.0-0.0-8.0-0.15","4","4","4","4","4","4","4","3","4","4","5","5","5","5","5","5","5","5","5","5","1","1","2","1","1","2","1","4","1","0","1","0","0","0","1","0","0","0","0","0","0","1","1","0","5","1","2","1","1","2","4","5","2","1","558332507964047360","刘","447","","","","","","","","","","","","","","","","","","","","","","","","","","","","","","","","","","","","","","","",""
"488","<p style=""color:white; font-size: 35px;"">废物</p>","i","categorize-html","139","393304","0.0-6.0-0.0-8.0-1.15","4","4","4","4","4","4","4","3","4","4","5","5","5","5","5","5","5","5","5","5","1","1","2","1","1","2","1","4","1","0","1","0","0","0","1","0","0","0","0","0","0","1","1","0","5","1","2","1","1","2","4","5","2","1","558332507964047360","刘","447","","","","","","","","","","","","","","","","","","","true","4","4","ability","488","negative","废物","","","","","","","","","","","","","","",""
"null","","null","html-keyboard-response","140","393554","0.0-6.0-0.0-8.0-0.16","4","4","4","4","4","4","4","3","4","4","5","5","5","5","5","5","5","5","5","5","1","1","2","1","1","2","1","4","1","0","1","0","0","0","1","0","0","0","0","0","0","1","1","0","5","1","2","1","1","2","4","5","2","1","558332507964047360","刘","447","","","","","","","","","","","","","","","","","","","","","","","","","","","","","","","","","","","","","","","",""
"566","<p style=""color:rgb(150, 250, 100); font-size: 35px;"">别人</p>","i","categorize-html","141","394121","0.0-6.0-0.0-8.0-1.16","4","4","4","4","4","4","4","3","4","4","5","5","5","5","5","5","5","5","5","5","1","1","2","1","1","2","1","4","1","0","1","0","0","0","1","0","0","0","0","0","0","1","1","0","5","1","2","1","1","2","4","5","2","1","558332507964047360","刘","447","","","","","","","","","","","","","","","","","","","true","4","4","ability","566","other","别人","","","","","","","","","","","","","","",""
"null","","null","html-keyboard-response","142","394372","0.0-6.0-0.0-8.0-0.17","4","4","4","4","4","4","4","3","4","4","5","5","5","5","5","5","5","5","5","5","1","1","2","1","1","2","1","4","1","0","1","0","0","0","1","0","0","0","0","0","0","1","1","0","5","1","2","1","1","2","4","5","2","1","558332507964047360","刘","447","","","","","","","","","","","","","","","","","","","","","","","","","","","","","","","","","","","","","","","",""
"441","<p style=""color:white; font-size: 35px;"">愚钝</p>","i","categorize-html","143","394815","0.0-6.0-0.0-8.0-1.17","4","4","4","4","4","4","4","3","4","4","5","5","5","5","5","5","5","5","5","5","1","1","2","1","1","2","1","4","1","0","1","0","0","0","1","0","0","0","0","0","0","1","1","0","5","1","2","1","1","2","4","5","2","1","558332507964047360","刘","447","","","","","","","","","","","","","","","","","","","true","4","4","ability","441","negative","愚钝","","","","","","","","","","","","","","",""
"null","","null","html-keyboard-response","144","395066","0.0-6.0-0.0-8.0-0.18","4","4","4","4","4","4","4","3","4","4","5","5","5","5","5","5","5","5","5","5","1","1","2","1","1","2","1","4","1","0","1","0","0","0","1","0","0","0","0","0","0","1","1","0","5","1","2","1","1","2","4","5","2","1","558332507964047360","刘","447","","","","","","","","","","","","","","","","","","","","","","","","","","","","","","","","","","","","","","","",""
"483","<p style=""color:rgb(150, 250, 100); font-size: 35px;"">本人的</p>","i","categorize-html","145","396201","0.0-6.0-0.0-8.0-1.18","4","4","4","4","4","4","4","3","4","4","5","5","5","5","5","5","5","5","5","5","1","1","2","1","1","2","1","4","1","0","1","0","0","0","1","0","0","0","0","0","0","1","1","0","5","1","2","1","1","2","4","5","2","1","558332507964047360","刘","447","","","","","","","","","","","","","","","","","","","false","4","4","ability","1111.3695652173913","self","本人的","","","","","","","","","","","","","","",""
"null","","null","html-keyboard-response","146","396452","0.0-6.0-0.0-8.0-0.19","4","4","4","4","4","4","4","3","4","4","5","5","5","5","5","5","5","5","5","5","1","1","2","1","1","2","1","4","1","0","1","0","0","0","1","0","0","0","0","0","0","1","1","0","5","1","2","1","1","2","4","5","2","1","558332507964047360","刘","447","","","","","","","","","","","","","","","","","","","","","","","","","","","","","","","","","","","","","","","",""
"502","<p style=""color:white; font-size: 35px;"">天才</p>","e","categorize-html","147","396955","0.0-6.0-0.0-8.0-1.19","4","4","4","4","4","4","4","3","4","4","5","5","5","5","5","5","5","5","5","5","1","1","2","1","1","2","1","4","1","0","1","0","0","0","1","0","0","0","0","0","0","1","1","0","5","1","2","1","1","2","4","5","2","1","558332507964047360","刘","447","","","","","","","","","","","","","","","","","","","true","4","4","ability","502","positive","天才","","","","","","","","","","","","","","",""
"null","","null","html-keyboard-response","148","397206","0.0-6.0-0.0-8.0-0.20","4","4","4","4","4","4","4","3","4","4","5","5","5","5","5","5","5","5","5","5","1","1","2","1","1","2","1","4","1","0","1","0","0","0","1","0","0","0","0","0","0","1","1","0","5","1","2","1","1","2","4","5","2","1","558332507964047360","刘","447","","","","","","","","","","","","","","","","","","","","","","","","","","","","","","","","","","","","","","","",""
"437","<p style=""color:rgb(150, 250, 100); font-size: 35px;"">本人</p>","e","categorize-html","149","397644","0.0-6.0-0.0-8.0-1.20","4","4","4","4","4","4","4","3","4","4","5","5","5","5","5","5","5","5","5","5","1","1","2","1","1","2","1","4","1","0","1","0","0","0","1","0","0","0","0","0","0","1","1","0","5","1","2","1","1","2","4","5","2","1","558332507964047360","刘","447","","","","","","","","","","","","","","","","","","","true","4","4","ability","437","self","本人","","","","","","","","","","","","","","",""
"null","","null","html-keyboard-response","150","397895","0.0-6.0-0.0-8.0-0.21","4","4","4","4","4","4","4","3","4","4","5","5","5","5","5","5","5","5","5","5","1","1","2","1","1","2","1","4","1","0","1","0","0","0","1","0","0","0","0","0","0","1","1","0","5","1","2","1","1","2","4","5","2","1","558332507964047360","刘","447","","","","","","","","","","","","","","","","","","","","","","","","","","","","","","","","","","","","","","","",""
"537","<p style=""color:white; font-size: 35px;"">天才</p>","e","categorize-html","151","398433","0.0-6.0-0.0-8.0-1.21","4","4","4","4","4","4","4","3","4","4","5","5","5","5","5","5","5","5","5","5","1","1","2","1","1","2","1","4","1","0","1","0","0","0","1","0","0","0","0","0","0","1","1","0","5","1","2","1","1","2","4","5","2","1","558332507964047360","刘","447","","","","","","","","","","","","","","","","","","","true","4","4","ability","537","positive","天才","","","","","","","","","","","","","","",""
"null","","null","html-keyboard-response","152","398683","0.0-6.0-0.0-8.0-0.22","4","4","4","4","4","4","4","3","4","4","5","5","5","5","5","5","5","5","5","5","1","1","2","1","1","2","1","4","1","0","1","0","0","0","1","0","0","0","0","0","0","1","1","0","5","1","2","1","1","2","4","5","2","1","558332507964047360","刘","447","","","","","","","","","","","","","","","","","","","","","","","","","","","","","","","","","","","","","","","",""
"406","<p style=""color:rgb(150, 250, 100); font-size: 35px;"">他</p>","i","categorize-html","153","399091","0.0-6.0-0.0-8.0-1.22","4","4","4","4","4","4","4","3","4","4","5","5","5","5","5","5","5","5","5","5","1","1","2","1","1","2","1","4","1","0","1","0","0","0","1","0","0","0","0","0","0","1","1","0","5","1","2","1","1","2","4","5","2","1","558332507964047360","刘","447","","","","","","","","","","","","","","","","","","","true","4","4","ability","406","other","他","","","","","","","","","","","","","","",""
"null","","null","html-keyboard-response","154","399341","0.0-6.0-0.0-8.0-0.23","4","4","4","4","4","4","4","3","4","4","5","5","5","5","5","5","5","5","5","5","1","1","2","1","1","2","1","4","1","0","1","0","0","0","1","0","0","0","0","0","0","1","1","0","5","1","2","1","1","2","4","5","2","1","558332507964047360","刘","447","","","","","","","","","","","","","","","","","","","","","","","","","","","","","","","","","","","","","","","",""
"518","<p style=""color:white; font-size: 35px;"">无能</p>","i","categorize-html","155","399860","0.0-6.0-0.0-8.0-1.23","4","4","4","4","4","4","4","3","4","4","5","5","5","5","5","5","5","5","5","5","1","1","2","1","1","2","1","4","1","0","1","0","0","0","1","0","0","0","0","0","0","1","1","0","5","1","2","1","1","2","4","5","2","1","558332507964047360","刘","447","","","","","","","","","","","","","","","","","","","true","4","4","ability","518","negative","无能","","","","","","","","","","","","","","",""
"null","","null","html-keyboard-response","156","400111","0.0-6.0-0.0-8.0-0.24","4","4","4","4","4","4","4","3","4","4","5","5","5","5","5","5","5","5","5","5","1","1","2","1","1","2","1","4","1","0","1","0","0","0","1","0","0","0","0","0","0","1","1","0","5","1","2","1","1","2","4","5","2","1","558332507964047360","刘","447","","","","","","","","","","","","","","","","","","","","","","","","","","","","","","","","","","","","","","","",""
"526","<p style=""color:rgb(150, 250, 100); font-size: 35px;"">自己的</p>","e","categorize-html","157","400638","0.0-6.0-0.0-8.0-1.24","4","4","4","4","4","4","4","3","4","4","5","5","5","5","5","5","5","5","5","5","1","1","2","1","1","2","1","4","1","0","1","0","0","0","1","0","0","0","0","0","0","1","1","0","5","1","2","1","1","2","4","5","2","1","558332507964047360","刘","447","","","","","","","","","","","","","","","","","","","true","4","4","ability","526","self","自己的","","","","","","","","","","","","","","",""
"null","","null","html-keyboard-response","158","400888","0.0-6.0-0.0-8.0-0.25","4","4","4","4","4","4","4","3","4","4","5","5","5","5","5","5","5","5","5","5","1","1","2","1","1","2","1","4","1","0","1","0","0","0","1","0","0","0","0","0","0","1","1","0","5","1","2","1","1","2","4","5","2","1","558332507964047360","刘","447","","","","","","","","","","","","","","","","","","","","","","","","","","","","","","","","","","","","","","","",""
"501","<p style=""color:white; font-size: 35px;"">废物</p>","i","categorize-html","159","401391","0.0-6.0-0.0-8.0-1.25","4","4","4","4","4","4","4","3","4","4","5","5","5","5","5","5","5","5","5","5","1","1","2","1","1","2","1","4","1","0","1","0","0","0","1","0","0","0","0","0","0","1","1","0","5","1","2","1","1","2","4","5","2","1","558332507964047360","刘","447","","","","","","","","","","","","","","","","","","","true","4","4","ability","501","negative","废物","","","","","","","","","","","","","","",""
"null","","null","html-keyboard-response","160","401642","0.0-6.0-0.0-8.0-0.26","4","4","4","4","4","4","4","3","4","4","5","5","5","5","5","5","5","5","5","5","1","1","2","1","1","2","1","4","1","0","1","0","0","0","1","0","0","0","0","0","0","1","1","0","5","1","2","1","1","2","4","5","2","1","558332507964047360","刘","447","","","","","","","","","","","","","","","","","","","","","","","","","","","","","","","","","","","","","","","",""
"565","<p style=""color:rgb(150, 250, 100); font-size: 35px;"">他人</p>","i","categorize-html","161","402208","0.0-6.0-0.0-8.0-1.26","4","4","4","4","4","4","4","3","4","4","5","5","5","5","5","5","5","5","5","5","1","1","2","1","1","2","1","4","1","0","1","0","0","0","1","0","0","0","0","0","0","1","1","0","5","1","2","1","1","2","4","5","2","1","558332507964047360","刘","447","","","","","","","","","","","","","","","","","","","true","4","4","ability","565","other","他人","","","","","","","","","","","","","","",""
"null","","null","html-keyboard-response","162","402458","0.0-6.0-0.0-8.0-0.27","4","4","4","4","4","4","4","3","4","4","5","5","5","5","5","5","5","5","5","5","1","1","2","1","1","2","1","4","1","0","1","0","0","0","1","0","0","0","0","0","0","1","1","0","5","1","2","1","1","2","4","5","2","1","558332507964047360","刘","447","","","","","","","","","","","","","","","","","","","","","","","","","","","","","","","","","","","","","","","",""
"743","<p style=""color:white; font-size: 35px;"">全能</p>","e","categorize-html","163","403202","0.0-6.0-0.0-8.0-1.27","4","4","4","4","4","4","4","3","4","4","5","5","5","5","5","5","5","5","5","5","1","1","2","1","1","2","1","4","1","0","1","0","0","0","1","0","0","0","0","0","0","1","1","0","5","1","2","1","1","2","4","5","2","1","558332507964047360","刘","447","","","","","","","","","","","","","","","","","","","true","4","4","ability","743","positive","全能","","","","","","","","","","","","","","",""
"null","","null","html-keyboard-response","164","403453","0.0-6.0-0.0-8.0-0.28","4","4","4","4","4","4","4","3","4","4","5","5","5","5","5","5","5","5","5","5","1","1","2","1","1","2","1","4","1","0","1","0","0","0","1","0","0","0","0","0","0","1","1","0","5","1","2","1","1","2","4","5","2","1","558332507964047360","刘","447","","","","","","","","","","","","","","","","","","","","","","","","","","","","","","","","","","","","","","","",""
"614","<p style=""color:rgb(150, 250, 100); font-size: 35px;"">他人的</p>","i","categorize-html","165","404068","0.0-6.0-0.0-8.0-1.28","4","4","4","4","4","4","4","3","4","4","5","5","5","5","5","5","5","5","5","5","1","1","2","1","1","2","1","4","1","0","1","0","0","0","1","0","0","0","0","0","0","1","1","0","5","1","2","1","1","2","4","5","2","1","558332507964047360","刘","447","","","","","","","","","","","","","","","","","","","true","4","4","ability","614","other","他人的","","","","","","","","","","","","","","",""
"null","","null","html-keyboard-response","166","404319","0.0-6.0-0.0-8.0-0.29","4","4","4","4","4","4","4","3","4","4","5","5","5","5","5","5","5","5","5","5","1","1","2","1","1","2","1","4","1","0","1","0","0","0","1","0","0","0","0","0","0","1","1","0","5","1","2","1","1","2","4","5","2","1","558332507964047360","刘","447","","","","","","","","","","","","","","","","","","","","","","","","","","","","","","","","","","","","","","","",""
"487","<p style=""color:white; font-size: 35px;"">能干</p>","e","categorize-html","167","404807","0.0-6.0-0.0-8.0-1.29","4","4","4","4","4","4","4","3","4","4","5","5","5","5","5","5","5","5","5","5","1","1","2","1","1","2","1","4","1","0","1","0","0","0","1","0","0","0","0","0","0","1","1","0","5","1","2","1","1","2","4","5","2","1","558332507964047360","刘","447","","","","","","","","","","","","","","","","","","","true","4","4","ability","487","positive","能干","","","","","","","","","","","","","","",""
"null","","null","html-keyboard-response","168","405058","0.0-6.0-0.0-8.0-0.30","4","4","4","4","4","4","4","3","4","4","5","5","5","5","5","5","5","5","5","5","1","1","2","1","1","2","1","4","1","0","1","0","0","0","1","0","0","0","0","0","0","1","1","0","5","1","2","1","1","2","4","5","2","1","558332507964047360","刘","447","","","","","","","","","","","","","","","","","","","","","","","","","","","","","","","","","","","","","","","",""
"470","<p style=""color:rgb(150, 250, 100); font-size: 35px;"">自己的</p>","e","categorize-html","169","405529","0.0-6.0-0.0-8.0-1.30","4","4","4","4","4","4","4","3","4","4","5","5","5","5","5","5","5","5","5","5","1","1","2","1","1","2","1","4","1","0","1","0","0","0","1","0","0","0","0","0","0","1","1","0","5","1","2","1","1","2","4","5","2","1","558332507964047360","刘","447","","","","","","","","","","","","","","","","","","","true","4","4","ability","470","self","自己的","","","","","","","","","","","","","","",""
"null","","null","html-keyboard-response","170","405794","0.0-6.0-0.0-8.0-0.31","4","4","4","4","4","4","4","3","4","4","5","5","5","5","5","5","5","5","5","5","1","1","2","1","1","2","1","4","1","0","1","0","0","0","1","0","0","0","0","0","0","1","1","0","5","1","2","1","1","2","4","5","2","1","558332507964047360","刘","447","","","","","","","","","","","","","","","","","","","","","","","","","","","","","","","","","","","","","","","",""
"464","<p style=""color:white; font-size: 35px;"">愚钝</p>","i","categorize-html","171","406259","0.0-6.0-0.0-8.0-1.31","4","4","4","4","4","4","4","3","4","4","5","5","5","5","5","5","5","5","5","5","1","1","2","1","1","2","1","4","1","0","1","0","0","0","1","0","0","0","0","0","0","1","1","0","5","1","2","1","1","2","4","5","2","1","558332507964047360","刘","447","","","","","","","","","","","","","","","","","","","true","4","4","ability","464","negative","愚钝","","","","","","","","","","","","","","",""
"null","","null","html-keyboard-response","172","406510","0.0-6.0-0.0-8.0-0.32","4","4","4","4","4","4","4","3","4","4","5","5","5","5","5","5","5","5","5","5","1","1","2","1","1","2","1","4","1","0","1","0","0","0","1","0","0","0","0","0","0","1","1","0","5","1","2","1","1","2","4","5","2","1","558332507964047360","刘","447","","","","","","","","","","","","","","","","","","","","","","","","","","","","","","","","","","","","","","","",""
"497","<p style=""color:rgb(150, 250, 100); font-size: 35px;"">自己</p>","e","categorize-html","173","407008","0.0-6.0-0.0-8.0-1.32","4","4","4","4","4","4","4","3","4","4","5","5","5","5","5","5","5","5","5","5","1","1","2","1","1","2","1","4","1","0","1","0","0","0","1","0","0","0","0","0","0","1","1","0","5","1","2","1","1","2","4","5","2","1","558332507964047360","刘","447","","","","","","","","","","","","","","","","","","","true","4","4","ability","497","self","自己","","","","","","","","","","","","","","",""
"null","","null","html-keyboard-response","174","407259","0.0-6.0-0.0-8.0-0.33","4","4","4","4","4","4","4","3","4","4","5","5","5","5","5","5","5","5","5","5","1","1","2","1","1","2","1","4","1","0","1","0","0","0","1","0","0","0","0","0","0","1","1","0","5","1","2","1","1","2","4","5","2","1","558332507964047360","刘","447","","","","","","","","","","","","","","","","","","","","","","","","","","","","","","","","","","","","","","","",""
"479","<p style=""color:white; font-size: 35px;"">蠢笨</p>","i","categorize-html","175","407739","0.0-6.0-0.0-8.0-1.33","4","4","4","4","4","4","4","3","4","4","5","5","5","5","5","5","5","5","5","5","1","1","2","1","1","2","1","4","1","0","1","0","0","0","1","0","0","0","0","0","0","1","1","0","5","1","2","1","1","2","4","5","2","1","558332507964047360","刘","447","","","","","","","","","","","","","","","","","","","true","4","4","ability","479","negative","蠢笨","","","","","","","","","","","","","","",""
"null","","null","html-keyboard-response","176","407990","0.0-6.0-0.0-8.0-0.34","4","4","4","4","4","4","4","3","4","4","5","5","5","5","5","5","5","5","5","5","1","1","2","1","1","2","1","4","1","0","1","0","0","0","1","0","0","0","0","0","0","1","1","0","5","1","2","1","1","2","4","5","2","1","558332507964047360","刘","447","","","","","","","","","","","","","","","","","","","","","","","","","","","","","","","","","","","","","","","",""
"747","<p style=""color:rgb(150, 250, 100); font-size: 35px;"">他的</p>","i","categorize-html","177","408739","0.0-6.0-0.0-8.0-1.34","4","4","4","4","4","4","4","3","4","4","5","5","5","5","5","5","5","5","5","5","1","1","2","1","1","2","1","4","1","0","1","0","0","0","1","0","0","0","0","0","0","1","1","0","5","1","2","1","1","2","4","5","2","1","558332507964047360","刘","447","","","","","","","","","","","","","","","","","","","true","4","4","ability","747","other","他的","","","","","","","","","","","","","","",""
"null","","null","html-keyboard-response","178","408989","0.0-6.0-0.0-8.0-0.35","4","4","4","4","4","4","4","3","4","4","5","5","5","5","5","5","5","5","5","5","1","1","2","1","1","2","1","4","1","0","1","0","0","0","1","0","0","0","0","0","0","1","1","0","5","1","2","1","1","2","4","5","2","1","558332507964047360","刘","447","","","","","","","","","","","","","","","","","","","","","","","","","","","","","","","","","","","","","","","",""
"587","<p style=""color:white; font-size: 35px;"">全才</p>","e","categorize-html","179","409577","0.0-6.0-0.0-8.0-1.35","4","4","4","4","4","4","4","3","4","4","5","5","5","5","5","5","5","5","5","5","1","1","2","1","1","2","1","4","1","0","1","0","0","0","1","0","0","0","0","0","0","1","1","0","5","1","2","1","1","2","4","5","2","1","558332507964047360","刘","447","","","","","","","","","","","","","","","","","","","true","4","4","ability","587","positive","全才","","","","","","","","","","","","","","",""
"null","","null","html-keyboard-response","180","409828","0.0-6.0-0.0-8.0-0.36","4","4","4","4","4","4","4","3","4","4","5","5","5","5","5","5","5","5","5","5","1","1","2","1","1","2","1","4","1","0","1","0","0","0","1","0","0","0","0","0","0","1","1","0","5","1","2","1","1","2","4","5","2","1","558332507964047360","刘","447","","","","","","","","","","","","","","","","","","","","","","","","","","","","","","","","","","","","","","","",""
"414","<p style=""color:rgb(150, 250, 100); font-size: 35px;"">我的</p>","e","categorize-html","181","410242","0.0-6.0-0.0-8.0-1.36","4","4","4","4","4","4","4","3","4","4","5","5","5","5","5","5","5","5","5","5","1","1","2","1","1","2","1","4","1","0","1","0","0","0","1","0","0","0","0","0","0","1","1","0","5","1","2","1","1","2","4","5","2","1","558332507964047360","刘","447","","","","","","","","","","","","","","","","","","","true","4","4","ability","414","self","我的","","","","","","","","","","","","","","",""
"null","","null","html-keyboard-response","182","410493","0.0-6.0-0.0-8.0-0.37","4","4","4","4","4","4","4","3","4","4","5","5","5","5","5","5","5","5","5","5","1","1","2","1","1","2","1","4","1","0","1","0","0","0","1","0","0","0","0","0","0","1","1","0","5","1","2","1","1","2","4","5","2","1","558332507964047360","刘","447","","","","","","","","","","","","","","","","","","","","","","","","","","","","","","","","","","","","","","","",""
"414","<p style=""color:white; font-size: 35px;"">低能</p>","i","categorize-html","183","410908","0.0-6.0-0.0-8.0-1.37","4","4","4","4","4","4","4","3","4","4","5","5","5","5","5","5","5","5","5","5","1","1","2","1","1","2","1","4","1","0","1","0","0","0","1","0","0","0","0","0","0","1","1","0","5","1","2","1","1","2","4","5","2","1","558332507964047360","刘","447","","","","","","","","","","","","","","","","","","","true","4","4","ability","414","negative","低能","","","","","","","","","","","","","","",""
"null","","null","html-keyboard-response","184","411159","0.0-6.0-0.0-8.0-0.38","4","4","4","4","4","4","4","3","4","4","5","5","5","5","5","5","5","5","5","5","1","1","2","1","1","2","1","4","1","0","1","0","0","0","1","0","0","0","0","0","0","1","1","0","5","1","2","1","1","2","4","5","2","1","558332507964047360","刘","447","","","","","","","","","","","","","","","","","","","","","","","","","","","","","","","","","","","","","","","",""
"495","<p style=""color:rgb(150, 250, 100); font-size: 35px;"">他的</p>","e","categorize-html","185","412259","0.0-6.0-0.0-8.0-1.38","4","4","4","4","4","4","4","3","4","4","5","5","5","5","5","5","5","5","5","5","1","1","2","1","1","2","1","4","1","0","1","0","0","0","1","0","0","0","0","0","0","1","1","0","5","1","2","1","1","2","4","5","2","1","558332507964047360","刘","447","","","","","","","","","","","","","","","","","","","false","4","4","ability","1111.3695652173913","other","他的","","","","","","","","","","","","","","",""
"null","","null","html-keyboard-response","186","412510","0.0-6.0-0.0-8.0-0.39","4","4","4","4","4","4","4","3","4","4","5","5","5","5","5","5","5","5","5","5","1","1","2","1","1","2","1","4","1","0","1","0","0","0","1","0","0","0","0","0","0","1","1","0","5","1","2","1","1","2","4","5","2","1","558332507964047360","刘","447","","","","","","","","","","","","","","","","","","","","","","","","","","","","","","","","","","","","","","","",""
"553","<p style=""color:white; font-size: 35px;"">能干</p>","e","categorize-html","187","413064","0.0-6.0-0.0-8.0-1.39","4","4","4","4","4","4","4","3","4","4","5","5","5","5","5","5","5","5","5","5","1","1","2","1","1","2","1","4","1","0","1","0","0","0","1","0","0","0","0","0","0","1","1","0","5","1","2","1","1","2","4","5","2","1","558332507964047360","刘","447","","","","","","","","","","","","","","","","","","","true","4","4","ability","553","positive","能干","","","","","","","","","","","","","","",""
"null","","null","html-keyboard-response","188","413316","0.0-6.0-0.0-8.0-0.40","4","4","4","4","4","4","4","3","4","4","5","5","5","5","5","5","5","5","5","5","1","1","2","1","1","2","1","4","1","0","1","0","0","0","1","0","0","0","0","0","0","1","1","0","5","1","2","1","1","2","4","5","2","1","558332507964047360","刘","447","","","","","","","","","","","","","","","","","","","","","","","","","","","","","","","","","","","","","","","",""
"536","<p style=""color:rgb(150, 250, 100); font-size: 35px;"">别人的</p>","i","categorize-html","189","413853","0.0-6.0-0.0-8.0-1.40","4","4","4","4","4","4","4","3","4","4","5","5","5","5","5","5","5","5","5","5","1","1","2","1","1","2","1","4","1","0","1","0","0","0","1","0","0","0","0","0","0","1","1","0","5","1","2","1","1","2","4","5","2","1","558332507964047360","刘","447","","","","","","","","","","","","","","","","","","","true","4","4","ability","536","other","别人的","","","","","","","","","","","","","","",""
"null","","null","html-keyboard-response","190","414104","0.0-6.0-0.0-8.0-0.41","4","4","4","4","4","4","4","3","4","4","5","5","5","5","5","5","5","5","5","5","1","1","2","1","1","2","1","4","1","0","1","0","0","0","1","0","0","0","0","0","0","1","1","0","5","1","2","1","1","2","4","5","2","1","558332507964047360","刘","447","","","","","","","","","","","","","","","","","","","","","","","","","","","","","","","","","","","","","","","",""
"539","<p style=""color:white; font-size: 35px;"">无能</p>","i","categorize-html","191","414644","0.0-6.0-0.0-8.0-1.41","4","4","4","4","4","4","4","3","4","4","5","5","5","5","5","5","5","5","5","5","1","1","2","1","1","2","1","4","1","0","1","0","0","0","1","0","0","0","0","0","0","1","1","0","5","1","2","1","1","2","4","5","2","1","558332507964047360","刘","447","","","","","","","","","","","","","","","","","","","true","4","4","ability","539","negative","无能","","","","","","","","","","","","","","",""
"null","","null","html-keyboard-response","192","414895","0.0-6.0-0.0-8.0-0.42","4","4","4","4","4","4","4","3","4","4","5","5","5","5","5","5","5","5","5","5","1","1","2","1","1","2","1","4","1","0","1","0","0","0","1","0","0","0","0","0","0","1","1","0","5","1","2","1","1","2","4","5","2","1","558332507964047360","刘","447","","","","","","","","","","","","","","","","","","","","","","","","","","","","","","","","","","","","","","","",""
"670","<p style=""color:rgb(150, 250, 100); font-size: 35px;"">我的</p>","e","categorize-html","193","415565","0.0-6.0-0.0-8.0-1.42","4","4","4","4","4","4","4","3","4","4","5","5","5","5","5","5","5","5","5","5","1","1","2","1","1","2","1","4","1","0","1","0","0","0","1","0","0","0","0","0","0","1","1","0","5","1","2","1","1","2","4","5","2","1","558332507964047360","刘","447","","","","","","","","","","","","","","","","","","","true","4","4","ability","670","self","我的","","","","","","","","","","","","","","",""
"null","","null","html-keyboard-response","194","415815","0.0-6.0-0.0-8.0-0.43","4","4","4","4","4","4","4","3","4","4","5","5","5","5","5","5","5","5","5","5","1","1","2","1","1","2","1","4","1","0","1","0","0","0","1","0","0","0","0","0","0","1","1","0","5","1","2","1","1","2","4","5","2","1","558332507964047360","刘","447","","","","","","","","","","","","","","","","","","","","","","","","","","","","","","","","","","","","","","","",""
"461","<p style=""color:white; font-size: 35px;"">高效</p>","e","categorize-html","195","416277","0.0-6.0-0.0-8.0-1.43","4","4","4","4","4","4","4","3","4","4","5","5","5","5","5","5","5","5","5","5","1","1","2","1","1","2","1","4","1","0","1","0","0","0","1","0","0","0","0","0","0","1","1","0","5","1","2","1","1","2","4","5","2","1","558332507964047360","刘","447","","","","","","","","","","","","","","","","","","","true","4","4","ability","461","positive","高效","","","","","","","","","","","","","","",""
"null","","null","html-keyboard-response","196","416527","0.0-6.0-0.0-8.0-0.44","4","4","4","4","4","4","4","3","4","4","5","5","5","5","5","5","5","5","5","5","1","1","2","1","1","2","1","4","1","0","1","0","0","0","1","0","0","0","0","0","0","1","1","0","5","1","2","1","1","2","4","5","2","1","558332507964047360","刘","447","","","","","","","","","","","","","","","","","","","","","","","","","","","","","","","","","","","","","","","",""
"558","<p style=""color:rgb(150, 250, 100); font-size: 35px;"">他人</p>","i","categorize-html","197","417086","0.0-6.0-0.0-8.0-1.44","4","4","4","4","4","4","4","3","4","4","5","5","5","5","5","5","5","5","5","5","1","1","2","1","1","2","1","4","1","0","1","0","0","0","1","0","0","0","0","0","0","1","1","0","5","1","2","1","1","2","4","5","2","1","558332507964047360","刘","447","","","","","","","","","","","","","","","","","","","true","4","4","ability","558","other","他人","","","","","","","","","","","","","","",""
