"rt","stimulus","response","trial_type","trial_index","time_elapsed","internal_node_id","ses_1","ses_2","ses_3","ses_4","ses_5","ses_6","ses_7","ses_8","ses_9","ses_10","coreself_1","coreself_2","coreself_3","coreself_4","coreself_5","coreself_6","coreself_7","coreself_8","coreself_9","coreself_10","SGPS_1","SGPS_2","SGPS_3","SGPS_4","SGPS_5","SGPS_6","SGPS_7","SGPS_8","SGPS_9","NPI1","NPI2","NPI3","NPI4","NPI5","NPI6","NPI7","NPI8","NPI9","NPI10","NPI11","NPI12","NPI13","NPI14","NPI15","hsns_1","hsns_2","hsns_3","hsns_4","hsns_5","hsns_6","hsns_7","hsns_8","hsns_9","hsns_10","subj_idx","friend_name","ParticipantID","value","success","user_agent","responses","item_order","radio_event_ids","radio_event_times","key_event_times","mouse_event_times","straightlining","zigzagging","honeypot","timeout","failed_images","failed_audio","failed_video","version_attrib","version_target","correct","IAT","screen_id","task_id","RT","condition","word","varname","summary","version_attrib2","version_target2","time_stamp","view_history","response_type","key_press","avg_frame_time","center_x","center_y","correct_response","identity","Image","question_order"
"1284","
   <p><div style = ""color: white;font-size:25px;"">您好，欢迎参加本次实验。</div> </p>
   <p><div style = ""color: white;font-size:25px;"">为充分保障您的权利，请确保您已经知晓并同意《参与实验同意书》以及《数据公开知情同意书》。</div></p>
   <p><div style = ""color: white;font-size:25px;"">如果您未见过上述内容，请咨询实验员。</div></p>
   <p><div style = ""color: white;font-size:25px;"">如果您选择继续实验，则表示您已经清楚两份知情同意书的内容并同意。</div></p>
   <p><div style = ""color: red;font-size:30px;"">请确保您记得day0的实验编号，您将在本次实验输入该编号，若您忘记，请咨询实验员后作答。</div></p>
   <p> <div style = ""color: green;font-size:25px;""><按空格键至下页></div> </p>
   "," ","html-keyboard-response","0","1288","0.0-0.0","3","4","4","3","4","4","4","4","3","4","5","5","5","4","5","5","4","5","4","4","2","1","2","1","2","1","2","1","2","0","1","0","0","1","0","0","0","0","1","1","0","1","0","0","4","2","3","2","2","4","2","4","5","1","634030798835548160","吴","440","","","","","","","","","","","","","","","","","","","","","","","","","","","","","","","","","","","","","","","",""
"","","","call-function","1","1290","0.0-1.0-0.0","3","4","4","3","4","4","4","4","3","4","5","5","5","4","5","5","4","5","4","4","2","1","2","1","2","1","2","1","2","0","1","0","0","1","0","0","0","0","1","1","0","1","0","0","4","2","3","2","2","4","2","4","5","1","634030798835548160","吴","440","","","","","","","","","","","","","","","","","","","","","","","","","","","","","","","","","","","","","","","",""
"29494","","{""friend_name"":""吴"",""ParticipantID"":""440""}","survey-html-form","2","30802","0.0-1.0-1.0","3","4","4","3","4","4","4","4","3","4","5","5","5","4","5","5","4","5","4","4","2","1","2","1","2","1","2","1","2","0","1","0","0","1","0","0","0","0","1","1","0","1","0","0","4","2","3","2","2","4","2","4","5","1","634030798835548160","吴","440","","","","","","","","","","","","","","","","","","","","","","","","","","","","","","","","","","","","","","","",""
"","","","fullscreen","3","32194","0.0-2.0","3","4","4","3","4","4","4","4","3","4","5","5","5","4","5","5","4","5","4","4","2","1","2","1","2","1","2","1","2","0","1","0","0","1","0","0","0","0","1","1","0","1","0","0","4","2","3","2","2","4","2","4","5","1","634030798835548160","吴","440","","true","{}","","","","","","","","","","","","","","","","","","","","","","","","","","","","","","","","","","","","",""
"48738.10000002384","","{""Q01"":""3"",""Q02"":""4"",""Q03"":""4"",""Q04"":""3"",""Q05"":""4"",""Q06"":""4"",""Q07"":""4"",""Q08"":""4"",""Q09"":""3"",""Q10"":""4""}","survey-template","4","80943","0.0-3.0","3","4","4","3","4","4","4","4","3","4","5","5","5","4","5","5","4","5","4","4","2","1","2","1","2","1","2","1","2","0","1","0","0","1","0","0","0","0","1","1","0","1","0","0","4","2","3","2","2","4","2","4","5","1","634030798835548160","吴","440","","","","{""Q01"":""3"",""Q02"":""4"",""Q03"":""4"",""Q04"":""3"",""Q05"":""4"",""Q06"":""4"",""Q07"":""4"",""Q08"":""4"",""Q09"":""3"",""Q10"":""4""}","[0,1,2,3,4,5,6,7,8,9]","[""Q01"",""Q02"",""Q03"",""Q04"",""Q05"",""Q06"",""Q07"",""Q08"",""Q09"",""Q09"",""Q08"",""Q10""]","[22188.69999998808,23430.600000023842,25497.900000035763,27388.5,28464.600000023842,30874.69999998808,32139.400000035763,33379.19999998808,34538,36724.60000002384,37758.19999998808,38632.19999998808]","[]","[21620.80000001192,22188.69999998808,23430.600000023842,25497.900000035763,26622.80000001192,27388.5,28464.600000023842,30274.80000001192,30874.69999998808,32139.400000035763,33379.19999998808,34538,35746.80000001192,36724.60000002384,37344.60000002384,37758.19999998808,38632.19999998808,48736.69999998808]","0.4","0.6666666666666666","0","","","","","","","","","","","","","","","","","","","","","","","","","","","",""
"33502.90000003576","","{""Q01"":""5"",""Q02"":""5"",""Q03"":""5"",""Q04"":""4"",""Q05"":""5"",""Q06"":""5"",""Q07"":""4"",""Q08"":""5"",""Q09"":""4"",""Q10"":""4""}","survey-template","5","114454","0.0-4.0","3","4","4","3","4","4","4","4","3","4","5","5","5","4","5","5","4","5","4","4","2","1","2","1","2","1","2","1","2","0","1","0","0","1","0","0","0","0","1","1","0","1","0","0","4","2","3","2","2","4","2","4","5","1","634030798835548160","吴","440","","","","{""Q01"":""5"",""Q02"":""5"",""Q03"":""5"",""Q04"":""4"",""Q05"":""5"",""Q06"":""5"",""Q07"":""4"",""Q08"":""5"",""Q09"":""4"",""Q10"":""4""}","[0,1,2,3,4,5,6,7,8,9]","[""Q01"",""Q02"",""Q03"",""Q04"",""Q05"",""Q06"",""Q07"",""Q08"",""Q09"",""Q10""]","[3565.199999988079,4882.900000035763,6708.5,7819.5,9151.5,10946.5,13000.800000011921,15319.100000023842,17336.900000035763,18139]","[]","[3080.800000011921,3565.199999988079,4493.900000035763,4882.900000035763,5743.400000035763,6405.199999988079,6708.5,7819.5,9151.5,10489,10946.5,12373,13000.800000011921,13995,14711,15319.100000023842,16587.100000023842,17336.900000035763,18139,20925.80000001192,22219,24769.600000023842,26071.600000023842,27054.69999998808,28147.30000001192,30188.600000023842,31511.19999998808,32544.80000001192,33500.90000003576]","0.4","0.3333333333333333","0","","","","","","","","","","","","","","","","","","","","","","","","","","","",""
"","","","preload","6","114869","0.0-5.0","3","4","4","3","4","4","4","4","3","4","5","5","5","4","5","5","4","5","4","4","2","1","2","1","2","1","2","1","2","0","1","0","0","1","0","0","0","0","1","1","0","1","0","0","4","2","3","2","2","4","2","4","5","1","634030798835548160","吴","440","","true","","","","","","","","","","","false","[]","[]","[]","","","","","","","","","","","","","","","","","","","","","","","",""
"81821","
    <h3>词语分类任务</h3>
    <p>在接下来的任务中，你需要对一系列词语进行分类。</p>
    <p>请先熟悉这些词语，这有利于你完成接下来的任务。</p>
    <table align=""center"" border=1 cellpadding=3 cellspacing=0>
    <tr> <th>类别</th> <th>词语</th> </tr>
    <tr> <td>&emsp;积极&emsp;</td> <td>&emsp;能干、全能、全才、高效、精干、天才&emsp;</td> </tr>
    <tr> <td>&emsp;消极&emsp;</td> <td>&emsp;无能、低能、废物、拙笨、愚钝、蠢笨&emsp;</td> </tr>
    <tr> <td>&emsp;自我&emsp;</td> <td>&emsp;我、我的、自己、自己的、本人、本人的&emsp;</td> </tr>
    <tr> <td>&emsp;他人&emsp;</td> <td>&emsp;他、他的、别人、别人的、他人、他人的&emsp;</td> </tr>
    </table><br/>","0","html-button-response","7","196694","0.0-6.0-0.0-0.0","3","4","4","3","4","4","4","4","3","4","5","5","5","4","5","5","4","5","4","4","2","1","2","1","2","1","2","1","2","0","1","0","0","1","0","0","0","0","1","1","0","1","0","0","4","2","3","2","2","4","2","4","5","1","634030798835548160","吴","440","","","","","","","","","","","","","","","","","1","2","","","","","","","","","","","","","","","","","","","","","",""
"4048","
    <div class=""tag-bottom"">
    <p> —— 任务1：对“他人”词和“自我”词分类 ——<p/>
    不同词语会出现在屏幕中央，类别标签将始终显示在屏幕上方<p/>   
    <span style=""color:#FFD866""><b>请根据上方标签的提示，尽可能正确并且快速地做出按键反应</b></span><p/>
    当按键错误时屏幕中会出现<span style=""color:red""> X </span>，需要按另一个键纠正才能继续<br/><p/>
    请把双手食指分别放在键盘的“E”键和“I”键上<p/>
    按<空格键>开始
    </p></div>"," ","html-keyboard-response","8","200746","0.0-6.0-0.0-1.0","3","4","4","3","4","4","4","4","3","4","5","5","5","4","5","5","4","5","4","4","2","1","2","1","2","1","2","1","2","0","1","0","0","1","0","0","0","0","1","1","0","1","0","0","4","2","3","2","2","4","2","4","5","1","634030798835548160","吴","440","","","","","","","","","","","","","","","","","","","","","","","","","","","","","","","","","","","","","","","",""
"null","","null","html-keyboard-response","9","201009","0.0-6.0-0.0-2.0-0.0","3","4","4","3","4","4","4","4","3","4","5","5","5","4","5","5","4","5","4","4","2","1","2","1","2","1","2","1","2","0","1","0","0","1","0","0","0","0","1","1","0","1","0","0","4","2","3","2","2","4","2","4","5","1","634030798835548160","吴","440","","","","","","","","","","","","","","","","","","","","","","","","","","","","","","","","","","","","","","","",""
"964","<p style=""color:rgb(150, 250, 100); font-size: 35px;"">他人的</p>","e","categorize-html","10","201978","0.0-6.0-0.0-2.0-1.0","3","4","4","3","4","4","4","4","3","4","5","5","5","4","5","5","4","5","4","4","2","1","2","1","2","1","2","1","2","0","1","0","0","1","0","0","0","0","1","1","0","1","0","0","4","2","3","2","2","4","2","4","5","1","634030798835548160","吴","440","","","","","","","","","","","","","","","","","","","true","1","1","ability","964","other","他人的","","","","","","","","","","","","","","",""
"null","","null","html-keyboard-response","11","202229","0.0-6.0-0.0-2.0-0.1","3","4","4","3","4","4","4","4","3","4","5","5","5","4","5","5","4","5","4","4","2","1","2","1","2","1","2","1","2","0","1","0","0","1","0","0","0","0","1","1","0","1","0","0","4","2","3","2","2","4","2","4","5","1","634030798835548160","吴","440","","","","","","","","","","","","","","","","","","","","","","","","","","","","","","","","","","","","","","","",""
"526","<p style=""color:rgb(150, 250, 100); font-size: 35px;"">本人的</p>","e","categorize-html","12","202971","0.0-6.0-0.0-2.0-1.1","3","4","4","3","4","4","4","4","3","4","5","5","5","4","5","5","4","5","4","4","2","1","2","1","2","1","2","1","2","0","1","0","0","1","0","0","0","0","1","1","0","1","0","0","4","2","3","2","2","4","2","4","5","1","634030798835548160","吴","440","","","","","","","","","","","","","","","","","","","false","1","1","ability","526","self","本人的","","","","","","","","","","","","","","",""
"null","","null","html-keyboard-response","13","203222","0.0-6.0-0.0-2.0-0.2","3","4","4","3","4","4","4","4","3","4","5","5","5","4","5","5","4","5","4","4","2","1","2","1","2","1","2","1","2","0","1","0","0","1","0","0","0","0","1","1","0","1","0","0","4","2","3","2","2","4","2","4","5","1","634030798835548160","吴","440","","","","","","","","","","","","","","","","","","","","","","","","","","","","","","","","","","","","","","","",""
"546","<p style=""color:rgb(150, 250, 100); font-size: 35px;"">我</p>","i","categorize-html","14","203771","0.0-6.0-0.0-2.0-1.2","3","4","4","3","4","4","4","4","3","4","5","5","5","4","5","5","4","5","4","4","2","1","2","1","2","1","2","1","2","0","1","0","0","1","0","0","0","0","1","1","0","1","0","0","4","2","3","2","2","4","2","4","5","1","634030798835548160","吴","440","","","","","","","","","","","","","","","","","","","true","1","1","ability","546","self","我","","","","","","","","","","","","","","",""
"null","","null","html-keyboard-response","15","204022","0.0-6.0-0.0-2.0-0.3","3","4","4","3","4","4","4","4","3","4","5","5","5","4","5","5","4","5","4","4","2","1","2","1","2","1","2","1","2","0","1","0","0","1","0","0","0","0","1","1","0","1","0","0","4","2","3","2","2","4","2","4","5","1","634030798835548160","吴","440","","","","","","","","","","","","","","","","","","","","","","","","","","","","","","","","","","","","","","","",""
"653","<p style=""color:rgb(150, 250, 100); font-size: 35px;"">他的</p>","e","categorize-html","16","204677","0.0-6.0-0.0-2.0-1.3","3","4","4","3","4","4","4","4","3","4","5","5","5","4","5","5","4","5","4","4","2","1","2","1","2","1","2","1","2","0","1","0","0","1","0","0","0","0","1","1","0","1","0","0","4","2","3","2","2","4","2","4","5","1","634030798835548160","吴","440","","","","","","","","","","","","","","","","","","","true","1","1","ability","653","other","他的","","","","","","","","","","","","","","",""
"null","","null","html-keyboard-response","17","204928","0.0-6.0-0.0-2.0-0.4","3","4","4","3","4","4","4","4","3","4","5","5","5","4","5","5","4","5","4","4","2","1","2","1","2","1","2","1","2","0","1","0","0","1","0","0","0","0","1","1","0","1","0","0","4","2","3","2","2","4","2","4","5","1","634030798835548160","吴","440","","","","","","","","","","","","","","","","","","","","","","","","","","","","","","","","","","","","","","","",""
"729","<p style=""color:rgb(150, 250, 100); font-size: 35px;"">别人的</p>","e","categorize-html","18","205659","0.0-6.0-0.0-2.0-1.4","3","4","4","3","4","4","4","4","3","4","5","5","5","4","5","5","4","5","4","4","2","1","2","1","2","1","2","1","2","0","1","0","0","1","0","0","0","0","1","1","0","1","0","0","4","2","3","2","2","4","2","4","5","1","634030798835548160","吴","440","","","","","","","","","","","","","","","","","","","true","1","1","ability","729","other","别人的","","","","","","","","","","","","","","",""
"null","","null","html-keyboard-response","19","205911","0.0-6.0-0.0-2.0-0.5","3","4","4","3","4","4","4","4","3","4","5","5","5","4","5","5","4","5","4","4","2","1","2","1","2","1","2","1","2","0","1","0","0","1","0","0","0","0","1","1","0","1","0","0","4","2","3","2","2","4","2","4","5","1","634030798835548160","吴","440","","","","","","","","","","","","","","","","","","","","","","","","","","","","","","","","","","","","","","","",""
"651","<p style=""color:rgb(150, 250, 100); font-size: 35px;"">自己的</p>","i","categorize-html","20","206564","0.0-6.0-0.0-2.0-1.5","3","4","4","3","4","4","4","4","3","4","5","5","5","4","5","5","4","5","4","4","2","1","2","1","2","1","2","1","2","0","1","0","0","1","0","0","0","0","1","1","0","1","0","0","4","2","3","2","2","4","2","4","5","1","634030798835548160","吴","440","","","","","","","","","","","","","","","","","","","true","1","1","ability","651","self","自己的","","","","","","","","","","","","","","",""
"null","","null","html-keyboard-response","21","206815","0.0-6.0-0.0-2.0-0.6","3","4","4","3","4","4","4","4","3","4","5","5","5","4","5","5","4","5","4","4","2","1","2","1","2","1","2","1","2","0","1","0","0","1","0","0","0","0","1","1","0","1","0","0","4","2","3","2","2","4","2","4","5","1","634030798835548160","吴","440","","","","","","","","","","","","","","","","","","","","","","","","","","","","","","","","","","","","","","","",""
"694","<p style=""color:rgb(150, 250, 100); font-size: 35px;"">我的</p>","i","categorize-html","22","207510","0.0-6.0-0.0-2.0-1.6","3","4","4","3","4","4","4","4","3","4","5","5","5","4","5","5","4","5","4","4","2","1","2","1","2","1","2","1","2","0","1","0","0","1","0","0","0","0","1","1","0","1","0","0","4","2","3","2","2","4","2","4","5","1","634030798835548160","吴","440","","","","","","","","","","","","","","","","","","","true","1","1","ability","694","self","我的","","","","","","","","","","","","","","",""
"null","","null","html-keyboard-response","23","207761","0.0-6.0-0.0-2.0-0.7","3","4","4","3","4","4","4","4","3","4","5","5","5","4","5","5","4","5","4","4","2","1","2","1","2","1","2","1","2","0","1","0","0","1","0","0","0","0","1","1","0","1","0","0","4","2","3","2","2","4","2","4","5","1","634030798835548160","吴","440","","","","","","","","","","","","","","","","","","","","","","","","","","","","","","","","","","","","","","","",""
"524","<p style=""color:rgb(150, 250, 100); font-size: 35px;"">别人</p>","e","categorize-html","24","208288","0.0-6.0-0.0-2.0-1.7","3","4","4","3","4","4","4","4","3","4","5","5","5","4","5","5","4","5","4","4","2","1","2","1","2","1","2","1","2","0","1","0","0","1","0","0","0","0","1","1","0","1","0","0","4","2","3","2","2","4","2","4","5","1","634030798835548160","吴","440","","","","","","","","","","","","","","","","","","","true","1","1","ability","524","other","别人","","","","","","","","","","","","","","",""
"null","","null","html-keyboard-response","25","208539","0.0-6.0-0.0-2.0-0.8","3","4","4","3","4","4","4","4","3","4","5","5","5","4","5","5","4","5","4","4","2","1","2","1","2","1","2","1","2","0","1","0","0","1","0","0","0","0","1","1","0","1","0","0","4","2","3","2","2","4","2","4","5","1","634030798835548160","吴","440","","","","","","","","","","","","","","","","","","","","","","","","","","","","","","","","","","","","","","","",""
"631","<p style=""color:rgb(150, 250, 100); font-size: 35px;"">他</p>","e","categorize-html","26","209173","0.0-6.0-0.0-2.0-1.8","3","4","4","3","4","4","4","4","3","4","5","5","5","4","5","5","4","5","4","4","2","1","2","1","2","1","2","1","2","0","1","0","0","1","0","0","0","0","1","1","0","1","0","0","4","2","3","2","2","4","2","4","5","1","634030798835548160","吴","440","","","","","","","","","","","","","","","","","","","true","1","1","ability","631","other","他","","","","","","","","","","","","","","",""
"null","","null","html-keyboard-response","27","209424","0.0-6.0-0.0-2.0-0.9","3","4","4","3","4","4","4","4","3","4","5","5","5","4","5","5","4","5","4","4","2","1","2","1","2","1","2","1","2","0","1","0","0","1","0","0","0","0","1","1","0","1","0","0","4","2","3","2","2","4","2","4","5","1","634030798835548160","吴","440","","","","","","","","","","","","","","","","","","","","","","","","","","","","","","","","","","","","","","","",""
"1205","<p style=""color:rgb(150, 250, 100); font-size: 35px;"">自己</p>","i","categorize-html","28","210633","0.0-6.0-0.0-2.0-1.9","3","4","4","3","4","4","4","4","3","4","5","5","5","4","5","5","4","5","4","4","2","1","2","1","2","1","2","1","2","0","1","0","0","1","0","0","0","0","1","1","0","1","0","0","4","2","3","2","2","4","2","4","5","1","634030798835548160","吴","440","","","","","","","","","","","","","","","","","","","true","1","1","ability","1205","self","自己","","","","","","","","","","","","","","",""
"null","","null","html-keyboard-response","29","210886","0.0-6.0-0.0-2.0-0.10","3","4","4","3","4","4","4","4","3","4","5","5","5","4","5","5","4","5","4","4","2","1","2","1","2","1","2","1","2","0","1","0","0","1","0","0","0","0","1","1","0","1","0","0","4","2","3","2","2","4","2","4","5","1","634030798835548160","吴","440","","","","","","","","","","","","","","","","","","","","","","","","","","","","","","","","","","","","","","","",""
"1001","<p style=""color:rgb(150, 250, 100); font-size: 35px;"">本人</p>","i","categorize-html","30","211889","0.0-6.0-0.0-2.0-1.10","3","4","4","3","4","4","4","4","3","4","5","5","5","4","5","5","4","5","4","4","2","1","2","1","2","1","2","1","2","0","1","0","0","1","0","0","0","0","1","1","0","1","0","0","4","2","3","2","2","4","2","4","5","1","634030798835548160","吴","440","","","","","","","","","","","","","","","","","","","true","1","1","ability","1001","self","本人","","","","","","","","","","","","","","",""
"null","","null","html-keyboard-response","31","212139","0.0-6.0-0.0-2.0-0.11","3","4","4","3","4","4","4","4","3","4","5","5","5","4","5","5","4","5","4","4","2","1","2","1","2","1","2","1","2","0","1","0","0","1","0","0","0","0","1","1","0","1","0","0","4","2","3","2","2","4","2","4","5","1","634030798835548160","吴","440","","","","","","","","","","","","","","","","","","","","","","","","","","","","","","","","","","","","","","","",""
"953","<p style=""color:rgb(150, 250, 100); font-size: 35px;"">他人</p>","e","categorize-html","32","213094","0.0-6.0-0.0-2.0-1.11","3","4","4","3","4","4","4","4","3","4","5","5","5","4","5","5","4","5","4","4","2","1","2","1","2","1","2","1","2","0","1","0","0","1","0","0","0","0","1","1","0","1","0","0","4","2","3","2","2","4","2","4","5","1","634030798835548160","吴","440","","","","","","","","","","","","","","","","","","","true","1","1","ability","953","other","他人","","","","","","","","","","","","","","",""
"2653","
    <div class=""tag-bottom""><p>
    —— 任务2：对“积极”词和“消极”词分类 ——<p/>   
    <span style=""color:#78DCE8""><b>注意上方，类别标签和需要分类的词语都已经改变</b></span><p/>
    <span style=""color:#FFD866""><b>请根据上方标签的提示，尽可能正确并且快速地做出按键反应</b></span><p/>
    当按键错误时屏幕中会出现<span style=""color:red""> X </span>，需要按另一个键纠正才能继续<br/><p/>
    请把双手食指分别放在键盘的“E”键和“I”键上<p/>
    按<空格键>开始
    </p></div>"," ","html-keyboard-response","33","215748","0.0-6.0-0.0-3.0","3","4","4","3","4","4","4","4","3","4","5","5","5","4","5","5","4","5","4","4","2","1","2","1","2","1","2","1","2","0","1","0","0","1","0","0","0","0","1","1","0","1","0","0","4","2","3","2","2","4","2","4","5","1","634030798835548160","吴","440","","","","","","","","","","","","","","","","","","","","","","","","","","","","","","","","","","","","","","","",""
"null","","null","html-keyboard-response","34","216000","0.0-6.0-0.0-4.0-0.0","3","4","4","3","4","4","4","4","3","4","5","5","5","4","5","5","4","5","4","4","2","1","2","1","2","1","2","1","2","0","1","0","0","1","0","0","0","0","1","1","0","1","0","0","4","2","3","2","2","4","2","4","5","1","634030798835548160","吴","440","","","","","","","","","","","","","","","","","","","","","","","","","","","","","","","","","","","","","","","",""
"1204","<p style=""color:white; font-size: 35px;"">能干</p>","e","categorize-html","35","217207","0.0-6.0-0.0-4.0-1.0","3","4","4","3","4","4","4","4","3","4","5","5","5","4","5","5","4","5","4","4","2","1","2","1","2","1","2","1","2","0","1","0","0","1","0","0","0","0","1","1","0","1","0","0","4","2","3","2","2","4","2","4","5","1","634030798835548160","吴","440","","","","","","","","","","","","","","","","","","","true","2","2","ability","1204","positive","能干","","","","","","","","","","","","","","",""
"null","","null","html-keyboard-response","36","217458","0.0-6.0-0.0-4.0-0.1","3","4","4","3","4","4","4","4","3","4","5","5","5","4","5","5","4","5","4","4","2","1","2","1","2","1","2","1","2","0","1","0","0","1","0","0","0","0","1","1","0","1","0","0","4","2","3","2","2","4","2","4","5","1","634030798835548160","吴","440","","","","","","","","","","","","","","","","","","","","","","","","","","","","","","","","","","","","","","","",""
"593","<p style=""color:white; font-size: 35px;"">废物</p>","i","categorize-html","37","218054","0.0-6.0-0.0-4.0-1.1","3","4","4","3","4","4","4","4","3","4","5","5","5","4","5","5","4","5","4","4","2","1","2","1","2","1","2","1","2","0","1","0","0","1","0","0","0","0","1","1","0","1","0","0","4","2","3","2","2","4","2","4","5","1","634030798835548160","吴","440","","","","","","","","","","","","","","","","","","","true","2","2","ability","593","negative","废物","","","","","","","","","","","","","","",""
"null","","null","html-keyboard-response","38","218305","0.0-6.0-0.0-4.0-0.2","3","4","4","3","4","4","4","4","3","4","5","5","5","4","5","5","4","5","4","4","2","1","2","1","2","1","2","1","2","0","1","0","0","1","0","0","0","0","1","1","0","1","0","0","4","2","3","2","2","4","2","4","5","1","634030798835548160","吴","440","","","","","","","","","","","","","","","","","","","","","","","","","","","","","","","","","","","","","","","",""
"492","<p style=""color:white; font-size: 35px;"">全能</p>","e","categorize-html","39","218799","0.0-6.0-0.0-4.0-1.2","3","4","4","3","4","4","4","4","3","4","5","5","5","4","5","5","4","5","4","4","2","1","2","1","2","1","2","1","2","0","1","0","0","1","0","0","0","0","1","1","0","1","0","0","4","2","3","2","2","4","2","4","5","1","634030798835548160","吴","440","","","","","","","","","","","","","","","","","","","true","2","2","ability","492","positive","全能","","","","","","","","","","","","","","",""
"null","","null","html-keyboard-response","40","219050","0.0-6.0-0.0-4.0-0.3","3","4","4","3","4","4","4","4","3","4","5","5","5","4","5","5","4","5","4","4","2","1","2","1","2","1","2","1","2","0","1","0","0","1","0","0","0","0","1","1","0","1","0","0","4","2","3","2","2","4","2","4","5","1","634030798835548160","吴","440","","","","","","","","","","","","","","","","","","","","","","","","","","","","","","","","","","","","","","","",""
"676","<p style=""color:white; font-size: 35px;"">无能</p>","i","categorize-html","41","219728","0.0-6.0-0.0-4.0-1.3","3","4","4","3","4","4","4","4","3","4","5","5","5","4","5","5","4","5","4","4","2","1","2","1","2","1","2","1","2","0","1","0","0","1","0","0","0","0","1","1","0","1","0","0","4","2","3","2","2","4","2","4","5","1","634030798835548160","吴","440","","","","","","","","","","","","","","","","","","","true","2","2","ability","676","negative","无能","","","","","","","","","","","","","","",""
"null","","null","html-keyboard-response","42","219979","0.0-6.0-0.0-4.0-0.4","3","4","4","3","4","4","4","4","3","4","5","5","5","4","5","5","4","5","4","4","2","1","2","1","2","1","2","1","2","0","1","0","0","1","0","0","0","0","1","1","0","1","0","0","4","2","3","2","2","4","2","4","5","1","634030798835548160","吴","440","","","","","","","","","","","","","","","","","","","","","","","","","","","","","","","","","","","","","","","",""
"625","<p style=""color:white; font-size: 35px;"">精干</p>","e","categorize-html","43","220606","0.0-6.0-0.0-4.0-1.4","3","4","4","3","4","4","4","4","3","4","5","5","5","4","5","5","4","5","4","4","2","1","2","1","2","1","2","1","2","0","1","0","0","1","0","0","0","0","1","1","0","1","0","0","4","2","3","2","2","4","2","4","5","1","634030798835548160","吴","440","","","","","","","","","","","","","","","","","","","true","2","2","ability","625","positive","精干","","","","","","","","","","","","","","",""
"null","","null","html-keyboard-response","44","220858","0.0-6.0-0.0-4.0-0.5","3","4","4","3","4","4","4","4","3","4","5","5","5","4","5","5","4","5","4","4","2","1","2","1","2","1","2","1","2","0","1","0","0","1","0","0","0","0","1","1","0","1","0","0","4","2","3","2","2","4","2","4","5","1","634030798835548160","吴","440","","","","","","","","","","","","","","","","","","","","","","","","","","","","","","","","","","","","","","","",""
"814","<p style=""color:white; font-size: 35px;"">拙笨</p>","i","categorize-html","45","221673","0.0-6.0-0.0-4.0-1.5","3","4","4","3","4","4","4","4","3","4","5","5","5","4","5","5","4","5","4","4","2","1","2","1","2","1","2","1","2","0","1","0","0","1","0","0","0","0","1","1","0","1","0","0","4","2","3","2","2","4","2","4","5","1","634030798835548160","吴","440","","","","","","","","","","","","","","","","","","","true","2","2","ability","814","negative","拙笨","","","","","","","","","","","","","","",""
"null","","null","html-keyboard-response","46","221924","0.0-6.0-0.0-4.0-0.6","3","4","4","3","4","4","4","4","3","4","5","5","5","4","5","5","4","5","4","4","2","1","2","1","2","1","2","1","2","0","1","0","0","1","0","0","0","0","1","1","0","1","0","0","4","2","3","2","2","4","2","4","5","1","634030798835548160","吴","440","","","","","","","","","","","","","","","","","","","","","","","","","","","","","","","","","","","","","","","",""
"535","<p style=""color:white; font-size: 35px;"">蠢笨</p>","i","categorize-html","47","222461","0.0-6.0-0.0-4.0-1.6","3","4","4","3","4","4","4","4","3","4","5","5","5","4","5","5","4","5","4","4","2","1","2","1","2","1","2","1","2","0","1","0","0","1","0","0","0","0","1","1","0","1","0","0","4","2","3","2","2","4","2","4","5","1","634030798835548160","吴","440","","","","","","","","","","","","","","","","","","","true","2","2","ability","535","negative","蠢笨","","","","","","","","","","","","","","",""
"null","","null","html-keyboard-response","48","222712","0.0-6.0-0.0-4.0-0.7","3","4","4","3","4","4","4","4","3","4","5","5","5","4","5","5","4","5","4","4","2","1","2","1","2","1","2","1","2","0","1","0","0","1","0","0","0","0","1","1","0","1","0","0","4","2","3","2","2","4","2","4","5","1","634030798835548160","吴","440","","","","","","","","","","","","","","","","","","","","","","","","","","","","","","","","","","","","","","","",""
"602","<p style=""color:white; font-size: 35px;"">全才</p>","e","categorize-html","49","223316","0.0-6.0-0.0-4.0-1.7","3","4","4","3","4","4","4","4","3","4","5","5","5","4","5","5","4","5","4","4","2","1","2","1","2","1","2","1","2","0","1","0","0","1","0","0","0","0","1","1","0","1","0","0","4","2","3","2","2","4","2","4","5","1","634030798835548160","吴","440","","","","","","","","","","","","","","","","","","","true","2","2","ability","602","positive","全才","","","","","","","","","","","","","","",""
"null","","null","html-keyboard-response","50","223568","0.0-6.0-0.0-4.0-0.8","3","4","4","3","4","4","4","4","3","4","5","5","5","4","5","5","4","5","4","4","2","1","2","1","2","1","2","1","2","0","1","0","0","1","0","0","0","0","1","1","0","1","0","0","4","2","3","2","2","4","2","4","5","1","634030798835548160","吴","440","","","","","","","","","","","","","","","","","","","","","","","","","","","","","","","","","","","","","","","",""
"543","<p style=""color:white; font-size: 35px;"">愚钝</p>","i","categorize-html","51","224113","0.0-6.0-0.0-4.0-1.8","3","4","4","3","4","4","4","4","3","4","5","5","5","4","5","5","4","5","4","4","2","1","2","1","2","1","2","1","2","0","1","0","0","1","0","0","0","0","1","1","0","1","0","0","4","2","3","2","2","4","2","4","5","1","634030798835548160","吴","440","","","","","","","","","","","","","","","","","","","true","2","2","ability","543","negative","愚钝","","","","","","","","","","","","","","",""
"null","","null","html-keyboard-response","52","224364","0.0-6.0-0.0-4.0-0.9","3","4","4","3","4","4","4","4","3","4","5","5","5","4","5","5","4","5","4","4","2","1","2","1","2","1","2","1","2","0","1","0","0","1","0","0","0","0","1","1","0","1","0","0","4","2","3","2","2","4","2","4","5","1","634030798835548160","吴","440","","","","","","","","","","","","","","","","","","","","","","","","","","","","","","","","","","","","","","","",""
"658","<p style=""color:white; font-size: 35px;"">高效</p>","e","categorize-html","53","225024","0.0-6.0-0.0-4.0-1.9","3","4","4","3","4","4","4","4","3","4","5","5","5","4","5","5","4","5","4","4","2","1","2","1","2","1","2","1","2","0","1","0","0","1","0","0","0","0","1","1","0","1","0","0","4","2","3","2","2","4","2","4","5","1","634030798835548160","吴","440","","","","","","","","","","","","","","","","","","","true","2","2","ability","658","positive","高效","","","","","","","","","","","","","","",""
"null","","null","html-keyboard-response","54","225276","0.0-6.0-0.0-4.0-0.10","3","4","4","3","4","4","4","4","3","4","5","5","5","4","5","5","4","5","4","4","2","1","2","1","2","1","2","1","2","0","1","0","0","1","0","0","0","0","1","1","0","1","0","0","4","2","3","2","2","4","2","4","5","1","634030798835548160","吴","440","","","","","","","","","","","","","","","","","","","","","","","","","","","","","","","","","","","","","","","",""
"716","<p style=""color:white; font-size: 35px;"">低能</p>","i","categorize-html","55","225995","0.0-6.0-0.0-4.0-1.10","3","4","4","3","4","4","4","4","3","4","5","5","5","4","5","5","4","5","4","4","2","1","2","1","2","1","2","1","2","0","1","0","0","1","0","0","0","0","1","1","0","1","0","0","4","2","3","2","2","4","2","4","5","1","634030798835548160","吴","440","","","","","","","","","","","","","","","","","","","true","2","2","ability","716","negative","低能","","","","","","","","","","","","","","",""
"null","","null","html-keyboard-response","56","226246","0.0-6.0-0.0-4.0-0.11","3","4","4","3","4","4","4","4","3","4","5","5","5","4","5","5","4","5","4","4","2","1","2","1","2","1","2","1","2","0","1","0","0","1","0","0","0","0","1","1","0","1","0","0","4","2","3","2","2","4","2","4","5","1","634030798835548160","吴","440","","","","","","","","","","","","","","","","","","","","","","","","","","","","","","","","","","","","","","","",""
"639","<p style=""color:white; font-size: 35px;"">天才</p>","e","categorize-html","57","226887","0.0-6.0-0.0-4.0-1.11","3","4","4","3","4","4","4","4","3","4","5","5","5","4","5","5","4","5","4","4","2","1","2","1","2","1","2","1","2","0","1","0","0","1","0","0","0","0","1","1","0","1","0","0","4","2","3","2","2","4","2","4","5","1","634030798835548160","吴","440","","","","","","","","","","","","","","","","","","","true","2","2","ability","639","positive","天才","","","","","","","","","","","","","","",""
"858","
    <div class=""tag-bottom""><p>
    —— 任务3：对“他人/积极”词和“自我/消极”词分类 ——<p/>
    <span style=""color:#78DCE8""><b>注意上方，之前的四类词语将混合在一起交替呈现</b></span><p/>
    <span style=""color:#FFD866""><b>请根据上方标签的提示，尽可能正确并且快速地做出按键反应</b></span><p/>
    当按键错误时屏幕中会出现<span style=""color:red""> X </span>，需要按另一个键纠正才能继续<br/><p/>
    请把双手食指分别放在键盘的“E”键和“I”键上<p/>
    按<空格键>开始
    </p></div>"," ","html-keyboard-response","58","227746","0.0-6.0-0.0-5.0","3","4","4","3","4","4","4","4","3","4","5","5","5","4","5","5","4","5","4","4","2","1","2","1","2","1","2","1","2","0","1","0","0","1","0","0","0","0","1","1","0","1","0","0","4","2","3","2","2","4","2","4","5","1","634030798835548160","吴","440","","","","","","","","","","","","","","","","","","","","","","","","","","","","","","","","","","","","","","","",""
"null","","null","html-keyboard-response","59","227998","0.0-6.0-0.0-6.0-0.0","3","4","4","3","4","4","4","4","3","4","5","5","5","4","5","5","4","5","4","4","2","1","2","1","2","1","2","1","2","0","1","0","0","1","0","0","0","0","1","1","0","1","0","0","4","2","3","2","2","4","2","4","5","1","634030798835548160","吴","440","","","","","","","","","","","","","","","","","","","","","","","","","","","","","","","","","","","","","","","",""
"804","<p style=""color:rgb(150, 250, 100); font-size: 35px;"">我</p>","i","categorize-html","60","228804","0.0-6.0-0.0-6.0-1.0","3","4","4","3","4","4","4","4","3","4","5","5","5","4","5","5","4","5","4","4","2","1","2","1","2","1","2","1","2","0","1","0","0","1","0","0","0","0","1","1","0","1","0","0","4","2","3","2","2","4","2","4","5","1","634030798835548160","吴","440","","","","","","","","","","","","","","","","","","","true","3","3","ability","804","self","我","","","","","","","","","","","","","","",""
"null","","null","html-keyboard-response","61","229056","0.0-6.0-0.0-6.0-0.1","3","4","4","3","4","4","4","4","3","4","5","5","5","4","5","5","4","5","4","4","2","1","2","1","2","1","2","1","2","0","1","0","0","1","0","0","0","0","1","1","0","1","0","0","4","2","3","2","2","4","2","4","5","1","634030798835548160","吴","440","","","","","","","","","","","","","","","","","","","","","","","","","","","","","","","","","","","","","","","",""
"673","<p style=""color:white; font-size: 35px;"">无能</p>","i","categorize-html","62","229731","0.0-6.0-0.0-6.0-1.1","3","4","4","3","4","4","4","4","3","4","5","5","5","4","5","5","4","5","4","4","2","1","2","1","2","1","2","1","2","0","1","0","0","1","0","0","0","0","1","1","0","1","0","0","4","2","3","2","2","4","2","4","5","1","634030798835548160","吴","440","","","","","","","","","","","","","","","","","","","true","3","3","ability","673","negative","无能","","","","","","","","","","","","","","",""
"null","","null","html-keyboard-response","63","229982","0.0-6.0-0.0-6.0-0.2","3","4","4","3","4","4","4","4","3","4","5","5","5","4","5","5","4","5","4","4","2","1","2","1","2","1","2","1","2","0","1","0","0","1","0","0","0","0","1","1","0","1","0","0","4","2","3","2","2","4","2","4","5","1","634030798835548160","吴","440","","","","","","","","","","","","","","","","","","","","","","","","","","","","","","","","","","","","","","","",""
"676","<p style=""color:rgb(150, 250, 100); font-size: 35px;"">他人的</p>","e","categorize-html","64","230661","0.0-6.0-0.0-6.0-1.2","3","4","4","3","4","4","4","4","3","4","5","5","5","4","5","5","4","5","4","4","2","1","2","1","2","1","2","1","2","0","1","0","0","1","0","0","0","0","1","1","0","1","0","0","4","2","3","2","2","4","2","4","5","1","634030798835548160","吴","440","","","","","","","","","","","","","","","","","","","true","3","3","ability","676","other","他人的","","","","","","","","","","","","","","",""
"null","","null","html-keyboard-response","65","230913","0.0-6.0-0.0-6.0-0.3","3","4","4","3","4","4","4","4","3","4","5","5","5","4","5","5","4","5","4","4","2","1","2","1","2","1","2","1","2","0","1","0","0","1","0","0","0","0","1","1","0","1","0","0","4","2","3","2","2","4","2","4","5","1","634030798835548160","吴","440","","","","","","","","","","","","","","","","","","","","","","","","","","","","","","","","","","","","","","","",""
"748","<p style=""color:white; font-size: 35px;"">天才</p>","e","categorize-html","66","231663","0.0-6.0-0.0-6.0-1.3","3","4","4","3","4","4","4","4","3","4","5","5","5","4","5","5","4","5","4","4","2","1","2","1","2","1","2","1","2","0","1","0","0","1","0","0","0","0","1","1","0","1","0","0","4","2","3","2","2","4","2","4","5","1","634030798835548160","吴","440","","","","","","","","","","","","","","","","","","","true","3","3","ability","748","positive","天才","","","","","","","","","","","","","","",""
"null","","null","html-keyboard-response","67","231914","0.0-6.0-0.0-6.0-0.4","3","4","4","3","4","4","4","4","3","4","5","5","5","4","5","5","4","5","4","4","2","1","2","1","2","1","2","1","2","0","1","0","0","1","0","0","0","0","1","1","0","1","0","0","4","2","3","2","2","4","2","4","5","1","634030798835548160","吴","440","","","","","","","","","","","","","","","","","","","","","","","","","","","","","","","","","","","","","","","",""
"717","<p style=""color:rgb(150, 250, 100); font-size: 35px;"">我的</p>","i","categorize-html","68","232634","0.0-6.0-0.0-6.0-1.4","3","4","4","3","4","4","4","4","3","4","5","5","5","4","5","5","4","5","4","4","2","1","2","1","2","1","2","1","2","0","1","0","0","1","0","0","0","0","1","1","0","1","0","0","4","2","3","2","2","4","2","4","5","1","634030798835548160","吴","440","","","","","","","","","","","","","","","","","","","true","3","3","ability","717","self","我的","","","","","","","","","","","","","","",""
"null","","null","html-keyboard-response","69","232884","0.0-6.0-0.0-6.0-0.5","3","4","4","3","4","4","4","4","3","4","5","5","5","4","5","5","4","5","4","4","2","1","2","1","2","1","2","1","2","0","1","0","0","1","0","0","0","0","1","1","0","1","0","0","4","2","3","2","2","4","2","4","5","1","634030798835548160","吴","440","","","","","","","","","","","","","","","","","","","","","","","","","","","","","","","","","","","","","","","",""
"613","<p style=""color:white; font-size: 35px;"">拙笨</p>","i","categorize-html","70","233499","0.0-6.0-0.0-6.0-1.5","3","4","4","3","4","4","4","4","3","4","5","5","5","4","5","5","4","5","4","4","2","1","2","1","2","1","2","1","2","0","1","0","0","1","0","0","0","0","1","1","0","1","0","0","4","2","3","2","2","4","2","4","5","1","634030798835548160","吴","440","","","","","","","","","","","","","","","","","","","true","3","3","ability","613","negative","拙笨","","","","","","","","","","","","","","",""
"null","","null","html-keyboard-response","71","233750","0.0-6.0-0.0-6.0-0.6","3","4","4","3","4","4","4","4","3","4","5","5","5","4","5","5","4","5","4","4","2","1","2","1","2","1","2","1","2","0","1","0","0","1","0","0","0","0","1","1","0","1","0","0","4","2","3","2","2","4","2","4","5","1","634030798835548160","吴","440","","","","","","","","","","","","","","","","","","","","","","","","","","","","","","","","","","","","","","","",""
"660","<p style=""color:rgb(150, 250, 100); font-size: 35px;"">他的</p>","e","categorize-html","72","234413","0.0-6.0-0.0-6.0-1.6","3","4","4","3","4","4","4","4","3","4","5","5","5","4","5","5","4","5","4","4","2","1","2","1","2","1","2","1","2","0","1","0","0","1","0","0","0","0","1","1","0","1","0","0","4","2","3","2","2","4","2","4","5","1","634030798835548160","吴","440","","","","","","","","","","","","","","","","","","","true","3","3","ability","660","other","他的","","","","","","","","","","","","","","",""
"null","","null","html-keyboard-response","73","234664","0.0-6.0-0.0-6.0-0.7","3","4","4","3","4","4","4","4","3","4","5","5","5","4","5","5","4","5","4","4","2","1","2","1","2","1","2","1","2","0","1","0","0","1","0","0","0","0","1","1","0","1","0","0","4","2","3","2","2","4","2","4","5","1","634030798835548160","吴","440","","","","","","","","","","","","","","","","","","","","","","","","","","","","","","","","","","","","","","","",""
"795","<p style=""color:white; font-size: 35px;"">精干</p>","e","categorize-html","74","235461","0.0-6.0-0.0-6.0-1.7","3","4","4","3","4","4","4","4","3","4","5","5","5","4","5","5","4","5","4","4","2","1","2","1","2","1","2","1","2","0","1","0","0","1","0","0","0","0","1","1","0","1","0","0","4","2","3","2","2","4","2","4","5","1","634030798835548160","吴","440","","","","","","","","","","","","","","","","","","","true","3","3","ability","795","positive","精干","","","","","","","","","","","","","","",""
"null","","null","html-keyboard-response","75","235712","0.0-6.0-0.0-6.0-0.8","3","4","4","3","4","4","4","4","3","4","5","5","5","4","5","5","4","5","4","4","2","1","2","1","2","1","2","1","2","0","1","0","0","1","0","0","0","0","1","1","0","1","0","0","4","2","3","2","2","4","2","4","5","1","634030798835548160","吴","440","","","","","","","","","","","","","","","","","","","","","","","","","","","","","","","","","","","","","","","",""
"657","<p style=""color:rgb(150, 250, 100); font-size: 35px;"">本人</p>","i","categorize-html","76","236371","0.0-6.0-0.0-6.0-1.8","3","4","4","3","4","4","4","4","3","4","5","5","5","4","5","5","4","5","4","4","2","1","2","1","2","1","2","1","2","0","1","0","0","1","0","0","0","0","1","1","0","1","0","0","4","2","3","2","2","4","2","4","5","1","634030798835548160","吴","440","","","","","","","","","","","","","","","","","","","true","3","3","ability","657","self","本人","","","","","","","","","","","","","","",""
"null","","null","html-keyboard-response","77","236622","0.0-6.0-0.0-6.0-0.9","3","4","4","3","4","4","4","4","3","4","5","5","5","4","5","5","4","5","4","4","2","1","2","1","2","1","2","1","2","0","1","0","0","1","0","0","0","0","1","1","0","1","0","0","4","2","3","2","2","4","2","4","5","1","634030798835548160","吴","440","","","","","","","","","","","","","","","","","","","","","","","","","","","","","","","","","","","","","","","",""
"546","<p style=""color:white; font-size: 35px;"">蠢笨</p>","i","categorize-html","78","237170","0.0-6.0-0.0-6.0-1.9","3","4","4","3","4","4","4","4","3","4","5","5","5","4","5","5","4","5","4","4","2","1","2","1","2","1","2","1","2","0","1","0","0","1","0","0","0","0","1","1","0","1","0","0","4","2","3","2","2","4","2","4","5","1","634030798835548160","吴","440","","","","","","","","","","","","","","","","","","","true","3","3","ability","546","negative","蠢笨","","","","","","","","","","","","","","",""
"null","","null","html-keyboard-response","79","237421","0.0-6.0-0.0-6.0-0.10","3","4","4","3","4","4","4","4","3","4","5","5","5","4","5","5","4","5","4","4","2","1","2","1","2","1","2","1","2","0","1","0","0","1","0","0","0","0","1","1","0","1","0","0","4","2","3","2","2","4","2","4","5","1","634030798835548160","吴","440","","","","","","","","","","","","","","","","","","","","","","","","","","","","","","","","","","","","","","","",""
"764","<p style=""color:rgb(150, 250, 100); font-size: 35px;"">别人</p>","e","categorize-html","80","238188","0.0-6.0-0.0-6.0-1.10","3","4","4","3","4","4","4","4","3","4","5","5","5","4","5","5","4","5","4","4","2","1","2","1","2","1","2","1","2","0","1","0","0","1","0","0","0","0","1","1","0","1","0","0","4","2","3","2","2","4","2","4","5","1","634030798835548160","吴","440","","","","","","","","","","","","","","","","","","","true","3","3","ability","764","other","别人","","","","","","","","","","","","","","",""
"null","","null","html-keyboard-response","81","238439","0.0-6.0-0.0-6.0-0.11","3","4","4","3","4","4","4","4","3","4","5","5","5","4","5","5","4","5","4","4","2","1","2","1","2","1","2","1","2","0","1","0","0","1","0","0","0","0","1","1","0","1","0","0","4","2","3","2","2","4","2","4","5","1","634030798835548160","吴","440","","","","","","","","","","","","","","","","","","","","","","","","","","","","","","","","","","","","","","","",""
"941","<p style=""color:white; font-size: 35px;"">能干</p>","e","categorize-html","82","239382","0.0-6.0-0.0-6.0-1.11","3","4","4","3","4","4","4","4","3","4","5","5","5","4","5","5","4","5","4","4","2","1","2","1","2","1","2","1","2","0","1","0","0","1","0","0","0","0","1","1","0","1","0","0","4","2","3","2","2","4","2","4","5","1","634030798835548160","吴","440","","","","","","","","","","","","","","","","","","","true","3","3","ability","941","positive","能干","","","","","","","","","","","","","","",""
"null","","null","html-keyboard-response","83","239633","0.0-6.0-0.0-6.0-0.12","3","4","4","3","4","4","4","4","3","4","5","5","5","4","5","5","4","5","4","4","2","1","2","1","2","1","2","1","2","0","1","0","0","1","0","0","0","0","1","1","0","1","0","0","4","2","3","2","2","4","2","4","5","1","634030798835548160","吴","440","","","","","","","","","","","","","","","","","","","","","","","","","","","","","","","","","","","","","","","",""
"573","<p style=""color:rgb(150, 250, 100); font-size: 35px;"">他</p>","e","categorize-html","84","240208","0.0-6.0-0.0-6.0-1.12","3","4","4","3","4","4","4","4","3","4","5","5","5","4","5","5","4","5","4","4","2","1","2","1","2","1","2","1","2","0","1","0","0","1","0","0","0","0","1","1","0","1","0","0","4","2","3","2","2","4","2","4","5","1","634030798835548160","吴","440","","","","","","","","","","","","","","","","","","","true","3","3","ability","573","other","他","","","","","","","","","","","","","","",""
"null","","null","html-keyboard-response","85","240459","0.0-6.0-0.0-6.0-0.13","3","4","4","3","4","4","4","4","3","4","5","5","5","4","5","5","4","5","4","4","2","1","2","1","2","1","2","1","2","0","1","0","0","1","0","0","0","0","1","1","0","1","0","0","4","2","3","2","2","4","2","4","5","1","634030798835548160","吴","440","","","","","","","","","","","","","","","","","","","","","","","","","","","","","","","","","","","","","","","",""
"637","<p style=""color:white; font-size: 35px;"">愚钝</p>","i","categorize-html","86","241099","0.0-6.0-0.0-6.0-1.13","3","4","4","3","4","4","4","4","3","4","5","5","5","4","5","5","4","5","4","4","2","1","2","1","2","1","2","1","2","0","1","0","0","1","0","0","0","0","1","1","0","1","0","0","4","2","3","2","2","4","2","4","5","1","634030798835548160","吴","440","","","","","","","","","","","","","","","","","","","true","3","3","ability","637","negative","愚钝","","","","","","","","","","","","","","",""
"null","","null","html-keyboard-response","87","241350","0.0-6.0-0.0-6.0-0.14","3","4","4","3","4","4","4","4","3","4","5","5","5","4","5","5","4","5","4","4","2","1","2","1","2","1","2","1","2","0","1","0","0","1","0","0","0","0","1","1","0","1","0","0","4","2","3","2","2","4","2","4","5","1","634030798835548160","吴","440","","","","","","","","","","","","","","","","","","","","","","","","","","","","","","","","","","","","","","","",""
"1100","<p style=""color:rgb(150, 250, 100); font-size: 35px;"">自己</p>","i","categorize-html","88","242452","0.0-6.0-0.0-6.0-1.14","3","4","4","3","4","4","4","4","3","4","5","5","5","4","5","5","4","5","4","4","2","1","2","1","2","1","2","1","2","0","1","0","0","1","0","0","0","0","1","1","0","1","0","0","4","2","3","2","2","4","2","4","5","1","634030798835548160","吴","440","","","","","","","","","","","","","","","","","","","true","3","3","ability","1100","self","自己","","","","","","","","","","","","","","",""
"null","","null","html-keyboard-response","89","242704","0.0-6.0-0.0-6.0-0.15","3","4","4","3","4","4","4","4","3","4","5","5","5","4","5","5","4","5","4","4","2","1","2","1","2","1","2","1","2","0","1","0","0","1","0","0","0","0","1","1","0","1","0","0","4","2","3","2","2","4","2","4","5","1","634030798835548160","吴","440","","","","","","","","","","","","","","","","","","","","","","","","","","","","","","","","","","","","","","","",""
"622","<p style=""color:white; font-size: 35px;"">全能</p>","e","categorize-html","90","243328","0.0-6.0-0.0-6.0-1.15","3","4","4","3","4","4","4","4","3","4","5","5","5","4","5","5","4","5","4","4","2","1","2","1","2","1","2","1","2","0","1","0","0","1","0","0","0","0","1","1","0","1","0","0","4","2","3","2","2","4","2","4","5","1","634030798835548160","吴","440","","","","","","","","","","","","","","","","","","","true","3","3","ability","622","positive","全能","","","","","","","","","","","","","","",""
"null","","null","html-keyboard-response","91","243580","0.0-6.0-0.0-6.0-0.16","3","4","4","3","4","4","4","4","3","4","5","5","5","4","5","5","4","5","4","4","2","1","2","1","2","1","2","1","2","0","1","0","0","1","0","0","0","0","1","1","0","1","0","0","4","2","3","2","2","4","2","4","5","1","634030798835548160","吴","440","","","","","","","","","","","","","","","","","","","","","","","","","","","","","","","","","","","","","","","",""
"951","<p style=""color:rgb(150, 250, 100); font-size: 35px;"">自己的</p>","i","categorize-html","92","244533","0.0-6.0-0.0-6.0-1.16","3","4","4","3","4","4","4","4","3","4","5","5","5","4","5","5","4","5","4","4","2","1","2","1","2","1","2","1","2","0","1","0","0","1","0","0","0","0","1","1","0","1","0","0","4","2","3","2","2","4","2","4","5","1","634030798835548160","吴","440","","","","","","","","","","","","","","","","","","","true","3","3","ability","951","self","自己的","","","","","","","","","","","","","","",""
"null","","null","html-keyboard-response","93","244783","0.0-6.0-0.0-6.0-0.17","3","4","4","3","4","4","4","4","3","4","5","5","5","4","5","5","4","5","4","4","2","1","2","1","2","1","2","1","2","0","1","0","0","1","0","0","0","0","1","1","0","1","0","0","4","2","3","2","2","4","2","4","5","1","634030798835548160","吴","440","","","","","","","","","","","","","","","","","","","","","","","","","","","","","","","","","","","","","","","",""
"813","<p style=""color:white; font-size: 35px;"">全才</p>","e","categorize-html","94","245599","0.0-6.0-0.0-6.0-1.17","3","4","4","3","4","4","4","4","3","4","5","5","5","4","5","5","4","5","4","4","2","1","2","1","2","1","2","1","2","0","1","0","0","1","0","0","0","0","1","1","0","1","0","0","4","2","3","2","2","4","2","4","5","1","634030798835548160","吴","440","","","","","","","","","","","","","","","","","","","true","3","3","ability","813","positive","全才","","","","","","","","","","","","","","",""
"null","","null","html-keyboard-response","95","245851","0.0-6.0-0.0-6.0-0.18","3","4","4","3","4","4","4","4","3","4","5","5","5","4","5","5","4","5","4","4","2","1","2","1","2","1","2","1","2","0","1","0","0","1","0","0","0","0","1","1","0","1","0","0","4","2","3","2","2","4","2","4","5","1","634030798835548160","吴","440","","","","","","","","","","","","","","","","","","","","","","","","","","","","","","","","","","","","","","","",""
"770","<p style=""color:rgb(150, 250, 100); font-size: 35px;"">别人的</p>","e","categorize-html","96","246623","0.0-6.0-0.0-6.0-1.18","3","4","4","3","4","4","4","4","3","4","5","5","5","4","5","5","4","5","4","4","2","1","2","1","2","1","2","1","2","0","1","0","0","1","0","0","0","0","1","1","0","1","0","0","4","2","3","2","2","4","2","4","5","1","634030798835548160","吴","440","","","","","","","","","","","","","","","","","","","true","3","3","ability","770","other","别人的","","","","","","","","","","","","","","",""
"null","","null","html-keyboard-response","97","246874","0.0-6.0-0.0-6.0-0.19","3","4","4","3","4","4","4","4","3","4","5","5","5","4","5","5","4","5","4","4","2","1","2","1","2","1","2","1","2","0","1","0","0","1","0","0","0","0","1","1","0","1","0","0","4","2","3","2","2","4","2","4","5","1","634030798835548160","吴","440","","","","","","","","","","","","","","","","","","","","","","","","","","","","","","","","","","","","","","","",""
"682","<p style=""color:white; font-size: 35px;"">废物</p>","i","categorize-html","98","247557","0.0-6.0-0.0-6.0-1.19","3","4","4","3","4","4","4","4","3","4","5","5","5","4","5","5","4","5","4","4","2","1","2","1","2","1","2","1","2","0","1","0","0","1","0","0","0","0","1","1","0","1","0","0","4","2","3","2","2","4","2","4","5","1","634030798835548160","吴","440","","","","","","","","","","","","","","","","","","","true","3","3","ability","682","negative","废物","","","","","","","","","","","","","","",""
"null","","null","html-keyboard-response","99","247808","0.0-6.0-0.0-6.0-0.20","3","4","4","3","4","4","4","4","3","4","5","5","5","4","5","5","4","5","4","4","2","1","2","1","2","1","2","1","2","0","1","0","0","1","0","0","0","0","1","1","0","1","0","0","4","2","3","2","2","4","2","4","5","1","634030798835548160","吴","440","","","","","","","","","","","","","","","","","","","","","","","","","","","","","","","","","","","","","","","",""
"740","<p style=""color:rgb(150, 250, 100); font-size: 35px;"">本人的</p>","i","categorize-html","100","248550","0.0-6.0-0.0-6.0-1.20","3","4","4","3","4","4","4","4","3","4","5","5","5","4","5","5","4","5","4","4","2","1","2","1","2","1","2","1","2","0","1","0","0","1","0","0","0","0","1","1","0","1","0","0","4","2","3","2","2","4","2","4","5","1","634030798835548160","吴","440","","","","","","","","","","","","","","","","","","","true","3","3","ability","740","self","本人的","","","","","","","","","","","","","","",""
"null","","null","html-keyboard-response","101","248801","0.0-6.0-0.0-6.0-0.21","3","4","4","3","4","4","4","4","3","4","5","5","5","4","5","5","4","5","4","4","2","1","2","1","2","1","2","1","2","0","1","0","0","1","0","0","0","0","1","1","0","1","0","0","4","2","3","2","2","4","2","4","5","1","634030798835548160","吴","440","","","","","","","","","","","","","","","","","","","","","","","","","","","","","","","","","","","","","","","",""
"751","<p style=""color:white; font-size: 35px;"">高效</p>","e","categorize-html","102","249554","0.0-6.0-0.0-6.0-1.21","3","4","4","3","4","4","4","4","3","4","5","5","5","4","5","5","4","5","4","4","2","1","2","1","2","1","2","1","2","0","1","0","0","1","0","0","0","0","1","1","0","1","0","0","4","2","3","2","2","4","2","4","5","1","634030798835548160","吴","440","","","","","","","","","","","","","","","","","","","true","3","3","ability","751","positive","高效","","","","","","","","","","","","","","",""
"null","","null","html-keyboard-response","103","249805","0.0-6.0-0.0-6.0-0.22","3","4","4","3","4","4","4","4","3","4","5","5","5","4","5","5","4","5","4","4","2","1","2","1","2","1","2","1","2","0","1","0","0","1","0","0","0","0","1","1","0","1","0","0","4","2","3","2","2","4","2","4","5","1","634030798835548160","吴","440","","","","","","","","","","","","","","","","","","","","","","","","","","","","","","","","","","","","","","","",""
"575","<p style=""color:rgb(150, 250, 100); font-size: 35px;"">他人</p>","e","categorize-html","104","250382","0.0-6.0-0.0-6.0-1.22","3","4","4","3","4","4","4","4","3","4","5","5","5","4","5","5","4","5","4","4","2","1","2","1","2","1","2","1","2","0","1","0","0","1","0","0","0","0","1","1","0","1","0","0","4","2","3","2","2","4","2","4","5","1","634030798835548160","吴","440","","","","","","","","","","","","","","","","","","","true","3","3","ability","575","other","他人","","","","","","","","","","","","","","",""
"null","","null","html-keyboard-response","105","250634","0.0-6.0-0.0-6.0-0.23","3","4","4","3","4","4","4","4","3","4","5","5","5","4","5","5","4","5","4","4","2","1","2","1","2","1","2","1","2","0","1","0","0","1","0","0","0","0","1","1","0","1","0","0","4","2","3","2","2","4","2","4","5","1","634030798835548160","吴","440","","","","","","","","","","","","","","","","","","","","","","","","","","","","","","","","","","","","","","","",""
"658","<p style=""color:white; font-size: 35px;"">低能</p>","i","categorize-html","106","251294","0.0-6.0-0.0-6.0-1.23","3","4","4","3","4","4","4","4","3","4","5","5","5","4","5","5","4","5","4","4","2","1","2","1","2","1","2","1","2","0","1","0","0","1","0","0","0","0","1","1","0","1","0","0","4","2","3","2","2","4","2","4","5","1","634030798835548160","吴","440","","","","","","","","","","","","","","","","","","","true","3","3","ability","658","negative","低能","","","","","","","","","","","","","","",""
"686","
    <div class=""tag-bottom""><p>
    —— 任务4：对“他人/积极”词和“自我/消极”词分类 ——<p/>
    <span style=""color:#78DCE8""><b>与刚才的任务完全相同，请再次对这四类词语分类</b></span><p/>
    <span style=""color:#FFD866""><b>请根据上方标签的提示，尽可能正确并且快速地做出按键反应</b></span><p/>
    当按键错误时屏幕中会出现<span style=""color:red""> X </span>，需要按另一个键纠正才能继续<br/><p/>
    请把双手食指分别放在键盘的“E”键和“I”键上<p/>
    按<空格键>开始
    </p></div>"," ","html-keyboard-response","107","251981","0.0-6.0-0.0-7.0","3","4","4","3","4","4","4","4","3","4","5","5","5","4","5","5","4","5","4","4","2","1","2","1","2","1","2","1","2","0","1","0","0","1","0","0","0","0","1","1","0","1","0","0","4","2","3","2","2","4","2","4","5","1","634030798835548160","吴","440","","","","","","","","","","","","","","","","","","","","","","","","","","","","","","","","","","","","","","","",""
"null","","null","html-keyboard-response","108","252232","0.0-6.0-0.0-8.0-0.0","3","4","4","3","4","4","4","4","3","4","5","5","5","4","5","5","4","5","4","4","2","1","2","1","2","1","2","1","2","0","1","0","0","1","0","0","0","0","1","1","0","1","0","0","4","2","3","2","2","4","2","4","5","1","634030798835548160","吴","440","","","","","","","","","","","","","","","","","","","","","","","","","","","","","","","","","","","","","","","",""
"664","<p style=""color:rgb(150, 250, 100); font-size: 35px;"">他的</p>","e","categorize-html","109","252898","0.0-6.0-0.0-8.0-1.0","3","4","4","3","4","4","4","4","3","4","5","5","5","4","5","5","4","5","4","4","2","1","2","1","2","1","2","1","2","0","1","0","0","1","0","0","0","0","1","1","0","1","0","0","4","2","3","2","2","4","2","4","5","1","634030798835548160","吴","440","","","","","","","","","","","","","","","","","","","true","4","4","ability","664","other","他的","","","","","","","","","","","","","","",""
"null","","null","html-keyboard-response","110","253150","0.0-6.0-0.0-8.0-0.1","3","4","4","3","4","4","4","4","3","4","5","5","5","4","5","5","4","5","4","4","2","1","2","1","2","1","2","1","2","0","1","0","0","1","0","0","0","0","1","1","0","1","0","0","4","2","3","2","2","4","2","4","5","1","634030798835548160","吴","440","","","","","","","","","","","","","","","","","","","","","","","","","","","","","","","","","","","","","","","",""
"710","<p style=""color:white; font-size: 35px;"">精干</p>","i","categorize-html","111","254932","0.0-6.0-0.0-8.0-1.1","3","4","4","3","4","4","4","4","3","4","5","5","5","4","5","5","4","5","4","4","2","1","2","1","2","1","2","1","2","0","1","0","0","1","0","0","0","0","1","1","0","1","0","0","4","2","3","2","2","4","2","4","5","1","634030798835548160","吴","440","","","","","","","","","","","","","","","","","","","false","4","4","ability","1375.6097560975609","positive","精干","","","","","","","","","","","","","","",""
"null","","null","html-keyboard-response","112","255184","0.0-6.0-0.0-8.0-0.2","3","4","4","3","4","4","4","4","3","4","5","5","5","4","5","5","4","5","4","4","2","1","2","1","2","1","2","1","2","0","1","0","0","1","0","0","0","0","1","1","0","1","0","0","4","2","3","2","2","4","2","4","5","1","634030798835548160","吴","440","","","","","","","","","","","","","","","","","","","","","","","","","","","","","","","","","","","","","","","",""
"878","<p style=""color:rgb(150, 250, 100); font-size: 35px;"">自己</p>","i","categorize-html","113","256064","0.0-6.0-0.0-8.0-1.2","3","4","4","3","4","4","4","4","3","4","5","5","5","4","5","5","4","5","4","4","2","1","2","1","2","1","2","1","2","0","1","0","0","1","0","0","0","0","1","1","0","1","0","0","4","2","3","2","2","4","2","4","5","1","634030798835548160","吴","440","","","","","","","","","","","","","","","","","","","true","4","4","ability","878","self","自己","","","","","","","","","","","","","","",""
"null","","null","html-keyboard-response","114","256315","0.0-6.0-0.0-8.0-0.3","3","4","4","3","4","4","4","4","3","4","5","5","5","4","5","5","4","5","4","4","2","1","2","1","2","1","2","1","2","0","1","0","0","1","0","0","0","0","1","1","0","1","0","0","4","2","3","2","2","4","2","4","5","1","634030798835548160","吴","440","","","","","","","","","","","","","","","","","","","","","","","","","","","","","","","","","","","","","","","",""
"501","<p style=""color:white; font-size: 35px;"">无能</p>","i","categorize-html","115","256818","0.0-6.0-0.0-8.0-1.3","3","4","4","3","4","4","4","4","3","4","5","5","5","4","5","5","4","5","4","4","2","1","2","1","2","1","2","1","2","0","1","0","0","1","0","0","0","0","1","1","0","1","0","0","4","2","3","2","2","4","2","4","5","1","634030798835548160","吴","440","","","","","","","","","","","","","","","","","","","true","4","4","ability","501","negative","无能","","","","","","","","","","","","","","",""
"null","","null","html-keyboard-response","116","257069","0.0-6.0-0.0-8.0-0.4","3","4","4","3","4","4","4","4","3","4","5","5","5","4","5","5","4","5","4","4","2","1","2","1","2","1","2","1","2","0","1","0","0","1","0","0","0","0","1","1","0","1","0","0","4","2","3","2","2","4","2","4","5","1","634030798835548160","吴","440","","","","","","","","","","","","","","","","","","","","","","","","","","","","","","","","","","","","","","","",""
"701","<p style=""color:rgb(150, 250, 100); font-size: 35px;"">别人的</p>","e","categorize-html","117","257772","0.0-6.0-0.0-8.0-1.4","3","4","4","3","4","4","4","4","3","4","5","5","5","4","5","5","4","5","4","4","2","1","2","1","2","1","2","1","2","0","1","0","0","1","0","0","0","0","1","1","0","1","0","0","4","2","3","2","2","4","2","4","5","1","634030798835548160","吴","440","","","","","","","","","","","","","","","","","","","true","4","4","ability","701","other","别人的","","","","","","","","","","","","","","",""
"null","","null","html-keyboard-response","118","258024","0.0-6.0-0.0-8.0-0.5","3","4","4","3","4","4","4","4","3","4","5","5","5","4","5","5","4","5","4","4","2","1","2","1","2","1","2","1","2","0","1","0","0","1","0","0","0","0","1","1","0","1","0","0","4","2","3","2","2","4","2","4","5","1","634030798835548160","吴","440","","","","","","","","","","","","","","","","","","","","","","","","","","","","","","","","","","","","","","","",""
"854","<p style=""color:white; font-size: 35px;"">高效</p>","i","categorize-html","119","259369","0.0-6.0-0.0-8.0-1.5","3","4","4","3","4","4","4","4","3","4","5","5","5","4","5","5","4","5","4","4","2","1","2","1","2","1","2","1","2","0","1","0","0","1","0","0","0","0","1","1","0","1","0","0","4","2","3","2","2","4","2","4","5","1","634030798835548160","吴","440","","","","","","","","","","","","","","","","","","","false","4","4","ability","1375.6097560975609","positive","高效","","","","","","","","","","","","","","",""
"null","","null","html-keyboard-response","120","259620","0.0-6.0-0.0-8.0-0.6","3","4","4","3","4","4","4","4","3","4","5","5","5","4","5","5","4","5","4","4","2","1","2","1","2","1","2","1","2","0","1","0","0","1","0","0","0","0","1","1","0","1","0","0","4","2","3","2","2","4","2","4","5","1","634030798835548160","吴","440","","","","","","","","","","","","","","","","","","","","","","","","","","","","","","","","","","","","","","","",""
"942","<p style=""color:rgb(150, 250, 100); font-size: 35px;"">本人</p>","i","categorize-html","121","260564","0.0-6.0-0.0-8.0-1.6","3","4","4","3","4","4","4","4","3","4","5","5","5","4","5","5","4","5","4","4","2","1","2","1","2","1","2","1","2","0","1","0","0","1","0","0","0","0","1","1","0","1","0","0","4","2","3","2","2","4","2","4","5","1","634030798835548160","吴","440","","","","","","","","","","","","","","","","","","","true","4","4","ability","942","self","本人","","","","","","","","","","","","","","",""
"null","","null","html-keyboard-response","122","260815","0.0-6.0-0.0-8.0-0.7","3","4","4","3","4","4","4","4","3","4","5","5","5","4","5","5","4","5","4","4","2","1","2","1","2","1","2","1","2","0","1","0","0","1","0","0","0","0","1","1","0","1","0","0","4","2","3","2","2","4","2","4","5","1","634030798835548160","吴","440","","","","","","","","","","","","","","","","","","","","","","","","","","","","","","","","","","","","","","","",""
"753","<p style=""color:white; font-size: 35px;"">废物</p>","i","categorize-html","123","261570","0.0-6.0-0.0-8.0-1.7","3","4","4","3","4","4","4","4","3","4","5","5","5","4","5","5","4","5","4","4","2","1","2","1","2","1","2","1","2","0","1","0","0","1","0","0","0","0","1","1","0","1","0","0","4","2","3","2","2","4","2","4","5","1","634030798835548160","吴","440","","","","","","","","","","","","","","","","","","","true","4","4","ability","753","negative","废物","","","","","","","","","","","","","","",""
"null","","null","html-keyboard-response","124","261821","0.0-6.0-0.0-8.0-0.8","3","4","4","3","4","4","4","4","3","4","5","5","5","4","5","5","4","5","4","4","2","1","2","1","2","1","2","1","2","0","1","0","0","1","0","0","0","0","1","1","0","1","0","0","4","2","3","2","2","4","2","4","5","1","634030798835548160","吴","440","","","","","","","","","","","","","","","","","","","","","","","","","","","","","","","","","","","","","","","",""
"787","<p style=""color:rgb(150, 250, 100); font-size: 35px;"">他人的</p>","e","categorize-html","125","262610","0.0-6.0-0.0-8.0-1.8","3","4","4","3","4","4","4","4","3","4","5","5","5","4","5","5","4","5","4","4","2","1","2","1","2","1","2","1","2","0","1","0","0","1","0","0","0","0","1","1","0","1","0","0","4","2","3","2","2","4","2","4","5","1","634030798835548160","吴","440","","","","","","","","","","","","","","","","","","","true","4","4","ability","787","other","他人的","","","","","","","","","","","","","","",""
"null","","null","html-keyboard-response","126","262862","0.0-6.0-0.0-8.0-0.9","3","4","4","3","4","4","4","4","3","4","5","5","5","4","5","5","4","5","4","4","2","1","2","1","2","1","2","1","2","0","1","0","0","1","0","0","0","0","1","1","0","1","0","0","4","2","3","2","2","4","2","4","5","1","634030798835548160","吴","440","","","","","","","","","","","","","","","","","","","","","","","","","","","","","","","","","","","","","","","",""
"515","<p style=""color:white; font-size: 35px;"">全才</p>","e","categorize-html","127","263379","0.0-6.0-0.0-8.0-1.9","3","4","4","3","4","4","4","4","3","4","5","5","5","4","5","5","4","5","4","4","2","1","2","1","2","1","2","1","2","0","1","0","0","1","0","0","0","0","1","1","0","1","0","0","4","2","3","2","2","4","2","4","5","1","634030798835548160","吴","440","","","","","","","","","","","","","","","","","","","true","4","4","ability","515","positive","全才","","","","","","","","","","","","","","",""
"null","","null","html-keyboard-response","128","263630","0.0-6.0-0.0-8.0-0.10","3","4","4","3","4","4","4","4","3","4","5","5","5","4","5","5","4","5","4","4","2","1","2","1","2","1","2","1","2","0","1","0","0","1","0","0","0","0","1","1","0","1","0","0","4","2","3","2","2","4","2","4","5","1","634030798835548160","吴","440","","","","","","","","","","","","","","","","","","","","","","","","","","","","","","","","","","","","","","","",""
"738","<p style=""color:rgb(150, 250, 100); font-size: 35px;"">我</p>","i","categorize-html","129","264370","0.0-6.0-0.0-8.0-1.10","3","4","4","3","4","4","4","4","3","4","5","5","5","4","5","5","4","5","4","4","2","1","2","1","2","1","2","1","2","0","1","0","0","1","0","0","0","0","1","1","0","1","0","0","4","2","3","2","2","4","2","4","5","1","634030798835548160","吴","440","","","","","","","","","","","","","","","","","","","true","4","4","ability","738","self","我","","","","","","","","","","","","","","",""
"null","","null","html-keyboard-response","130","264621","0.0-6.0-0.0-8.0-0.11","3","4","4","3","4","4","4","4","3","4","5","5","5","4","5","5","4","5","4","4","2","1","2","1","2","1","2","1","2","0","1","0","0","1","0","0","0","0","1","1","0","1","0","0","4","2","3","2","2","4","2","4","5","1","634030798835548160","吴","440","","","","","","","","","","","","","","","","","","","","","","","","","","","","","","","","","","","","","","","",""
"1129","<p style=""color:white; font-size: 35px;"">愚钝</p>","i","categorize-html","131","265752","0.0-6.0-0.0-8.0-1.11","3","4","4","3","4","4","4","4","3","4","5","5","5","4","5","5","4","5","4","4","2","1","2","1","2","1","2","1","2","0","1","0","0","1","0","0","0","0","1","1","0","1","0","0","4","2","3","2","2","4","2","4","5","1","634030798835548160","吴","440","","","","","","","","","","","","","","","","","","","true","4","4","ability","1129","negative","愚钝","","","","","","","","","","","","","","",""
"null","","null","html-keyboard-response","132","266004","0.0-6.0-0.0-8.0-0.12","3","4","4","3","4","4","4","4","3","4","5","5","5","4","5","5","4","5","4","4","2","1","2","1","2","1","2","1","2","0","1","0","0","1","0","0","0","0","1","1","0","1","0","0","4","2","3","2","2","4","2","4","5","1","634030798835548160","吴","440","","","","","","","","","","","","","","","","","","","","","","","","","","","","","","","","","","","","","","","",""
"966","<p style=""color:rgb(150, 250, 100); font-size: 35px;"">别人的</p>","e","categorize-html","133","266972","0.0-6.0-0.0-8.0-1.12","3","4","4","3","4","4","4","4","3","4","5","5","5","4","5","5","4","5","4","4","2","1","2","1","2","1","2","1","2","0","1","0","0","1","0","0","0","0","1","1","0","1","0","0","4","2","3","2","2","4","2","4","5","1","634030798835548160","吴","440","","","","","","","","","","","","","","","","","","","true","4","4","ability","966","other","别人的","","","","","","","","","","","","","","",""
"null","","null","html-keyboard-response","134","267223","0.0-6.0-0.0-8.0-0.13","3","4","4","3","4","4","4","4","3","4","5","5","5","4","5","5","4","5","4","4","2","1","2","1","2","1","2","1","2","0","1","0","0","1","0","0","0","0","1","1","0","1","0","0","4","2","3","2","2","4","2","4","5","1","634030798835548160","吴","440","","","","","","","","","","","","","","","","","","","","","","","","","","","","","","","","","","","","","","","",""
"749","<p style=""color:white; font-size: 35px;"">愚钝</p>","i","categorize-html","135","267974","0.0-6.0-0.0-8.0-1.13","3","4","4","3","4","4","4","4","3","4","5","5","5","4","5","5","4","5","4","4","2","1","2","1","2","1","2","1","2","0","1","0","0","1","0","0","0","0","1","1","0","1","0","0","4","2","3","2","2","4","2","4","5","1","634030798835548160","吴","440","","","","","","","","","","","","","","","","","","","true","4","4","ability","749","negative","愚钝","","","","","","","","","","","","","","",""
"null","","null","html-keyboard-response","136","268226","0.0-6.0-0.0-8.0-0.14","3","4","4","3","4","4","4","4","3","4","5","5","5","4","5","5","4","5","4","4","2","1","2","1","2","1","2","1","2","0","1","0","0","1","0","0","0","0","1","1","0","1","0","0","4","2","3","2","2","4","2","4","5","1","634030798835548160","吴","440","","","","","","","","","","","","","","","","","","","","","","","","","","","","","","","","","","","","","","","",""
"842","<p style=""color:rgb(150, 250, 100); font-size: 35px;"">自己</p>","e","categorize-html","137","269435","0.0-6.0-0.0-8.0-1.14","3","4","4","3","4","4","4","4","3","4","5","5","5","4","5","5","4","5","4","4","2","1","2","1","2","1","2","1","2","0","1","0","0","1","0","0","0","0","1","1","0","1","0","0","4","2","3","2","2","4","2","4","5","1","634030798835548160","吴","440","","","","","","","","","","","","","","","","","","","false","4","4","ability","1375.6097560975609","self","自己","","","","","","","","","","","","","","",""
"null","","null","html-keyboard-response","138","269687","0.0-6.0-0.0-8.0-0.15","3","4","4","3","4","4","4","4","3","4","5","5","5","4","5","5","4","5","4","4","2","1","2","1","2","1","2","1","2","0","1","0","0","1","0","0","0","0","1","1","0","1","0","0","4","2","3","2","2","4","2","4","5","1","634030798835548160","吴","440","","","","","","","","","","","","","","","","","","","","","","","","","","","","","","","","","","","","","","","",""
"795","<p style=""color:white; font-size: 35px;"">天才</p>","e","categorize-html","139","270483","0.0-6.0-0.0-8.0-1.15","3","4","4","3","4","4","4","4","3","4","5","5","5","4","5","5","4","5","4","4","2","1","2","1","2","1","2","1","2","0","1","0","0","1","0","0","0","0","1","1","0","1","0","0","4","2","3","2","2","4","2","4","5","1","634030798835548160","吴","440","","","","","","","","","","","","","","","","","","","true","4","4","ability","795","positive","天才","","","","","","","","","","","","","","",""
"null","","null","html-keyboard-response","140","270734","0.0-6.0-0.0-8.0-0.16","3","4","4","3","4","4","4","4","3","4","5","5","5","4","5","5","4","5","4","4","2","1","2","1","2","1","2","1","2","0","1","0","0","1","0","0","0","0","1","1","0","1","0","0","4","2","3","2","2","4","2","4","5","1","634030798835548160","吴","440","","","","","","","","","","","","","","","","","","","","","","","","","","","","","","","","","","","","","","","",""
"784","<p style=""color:rgb(150, 250, 100); font-size: 35px;"">他</p>","e","categorize-html","141","271520","0.0-6.0-0.0-8.0-1.16","3","4","4","3","4","4","4","4","3","4","5","5","5","4","5","5","4","5","4","4","2","1","2","1","2","1","2","1","2","0","1","0","0","1","0","0","0","0","1","1","0","1","0","0","4","2","3","2","2","4","2","4","5","1","634030798835548160","吴","440","","","","","","","","","","","","","","","","","","","true","4","4","ability","784","other","他","","","","","","","","","","","","","","",""
"null","","null","html-keyboard-response","142","271772","0.0-6.0-0.0-8.0-0.17","3","4","4","3","4","4","4","4","3","4","5","5","5","4","5","5","4","5","4","4","2","1","2","1","2","1","2","1","2","0","1","0","0","1","0","0","0","0","1","1","0","1","0","0","4","2","3","2","2","4","2","4","5","1","634030798835548160","吴","440","","","","","","","","","","","","","","","","","","","","","","","","","","","","","","","","","","","","","","","",""
"785","<p style=""color:white; font-size: 35px;"">低能</p>","i","categorize-html","143","272558","0.0-6.0-0.0-8.0-1.17","3","4","4","3","4","4","4","4","3","4","5","5","5","4","5","5","4","5","4","4","2","1","2","1","2","1","2","1","2","0","1","0","0","1","0","0","0","0","1","1","0","1","0","0","4","2","3","2","2","4","2","4","5","1","634030798835548160","吴","440","","","","","","","","","","","","","","","","","","","true","4","4","ability","785","negative","低能","","","","","","","","","","","","","","",""
"null","","null","html-keyboard-response","144","272810","0.0-6.0-0.0-8.0-0.18","3","4","4","3","4","4","4","4","3","4","5","5","5","4","5","5","4","5","4","4","2","1","2","1","2","1","2","1","2","0","1","0","0","1","0","0","0","0","1","1","0","1","0","0","4","2","3","2","2","4","2","4","5","1","634030798835548160","吴","440","","","","","","","","","","","","","","","","","","","","","","","","","","","","","","","","","","","","","","","",""
"590","<p style=""color:rgb(150, 250, 100); font-size: 35px;"">我的</p>","i","categorize-html","145","273402","0.0-6.0-0.0-8.0-1.18","3","4","4","3","4","4","4","4","3","4","5","5","5","4","5","5","4","5","4","4","2","1","2","1","2","1","2","1","2","0","1","0","0","1","0","0","0","0","1","1","0","1","0","0","4","2","3","2","2","4","2","4","5","1","634030798835548160","吴","440","","","","","","","","","","","","","","","","","","","true","4","4","ability","590","self","我的","","","","","","","","","","","","","","",""
"null","","null","html-keyboard-response","146","273653","0.0-6.0-0.0-8.0-0.19","3","4","4","3","4","4","4","4","3","4","5","5","5","4","5","5","4","5","4","4","2","1","2","1","2","1","2","1","2","0","1","0","0","1","0","0","0","0","1","1","0","1","0","0","4","2","3","2","2","4","2","4","5","1","634030798835548160","吴","440","","","","","","","","","","","","","","","","","","","","","","","","","","","","","","","","","","","","","","","",""
"803","<p style=""color:white; font-size: 35px;"">精干</p>","e","categorize-html","147","274458","0.0-6.0-0.0-8.0-1.19","3","4","4","3","4","4","4","4","3","4","5","5","5","4","5","5","4","5","4","4","2","1","2","1","2","1","2","1","2","0","1","0","0","1","0","0","0","0","1","1","0","1","0","0","4","2","3","2","2","4","2","4","5","1","634030798835548160","吴","440","","","","","","","","","","","","","","","","","","","true","4","4","ability","803","positive","精干","","","","","","","","","","","","","","",""
"null","","null","html-keyboard-response","148","274709","0.0-6.0-0.0-8.0-0.20","3","4","4","3","4","4","4","4","3","4","5","5","5","4","5","5","4","5","4","4","2","1","2","1","2","1","2","1","2","0","1","0","0","1","0","0","0","0","1","1","0","1","0","0","4","2","3","2","2","4","2","4","5","1","634030798835548160","吴","440","","","","","","","","","","","","","","","","","","","","","","","","","","","","","","","","","","","","","","","",""
"769","<p style=""color:rgb(150, 250, 100); font-size: 35px;"">自己的</p>","e","categorize-html","149","277376","0.0-6.0-0.0-8.0-1.20","3","4","4","3","4","4","4","4","3","4","5","5","5","4","5","5","4","5","4","4","2","1","2","1","2","1","2","1","2","0","1","0","0","1","0","0","0","0","1","1","0","1","0","0","4","2","3","2","2","4","2","4","5","1","634030798835548160","吴","440","","","","","","","","","","","","","","","","","","","false","4","4","ability","1375.6097560975609","self","自己的","","","","","","","","","","","","","","",""
"null","","null","html-keyboard-response","150","277627","0.0-6.0-0.0-8.0-0.21","3","4","4","3","4","4","4","4","3","4","5","5","5","4","5","5","4","5","4","4","2","1","2","1","2","1","2","1","2","0","1","0","0","1","0","0","0","0","1","1","0","1","0","0","4","2","3","2","2","4","2","4","5","1","634030798835548160","吴","440","","","","","","","","","","","","","","","","","","","","","","","","","","","","","","","","","","","","","","","",""
"936","<p style=""color:white; font-size: 35px;"">全能</p>","e","categorize-html","151","278566","0.0-6.0-0.0-8.0-1.21","3","4","4","3","4","4","4","4","3","4","5","5","5","4","5","5","4","5","4","4","2","1","2","1","2","1","2","1","2","0","1","0","0","1","0","0","0","0","1","1","0","1","0","0","4","2","3","2","2","4","2","4","5","1","634030798835548160","吴","440","","","","","","","","","","","","","","","","","","","true","4","4","ability","936","positive","全能","","","","","","","","","","","","","","",""
"null","","null","html-keyboard-response","152","278817","0.0-6.0-0.0-8.0-0.22","3","4","4","3","4","4","4","4","3","4","5","5","5","4","5","5","4","5","4","4","2","1","2","1","2","1","2","1","2","0","1","0","0","1","0","0","0","0","1","1","0","1","0","0","4","2","3","2","2","4","2","4","5","1","634030798835548160","吴","440","","","","","","","","","","","","","","","","","","","","","","","","","","","","","","","","","","","","","","","",""
"579","<p style=""color:rgb(150, 250, 100); font-size: 35px;"">他的</p>","e","categorize-html","153","279399","0.0-6.0-0.0-8.0-1.22","3","4","4","3","4","4","4","4","3","4","5","5","5","4","5","5","4","5","4","4","2","1","2","1","2","1","2","1","2","0","1","0","0","1","0","0","0","0","1","1","0","1","0","0","4","2","3","2","2","4","2","4","5","1","634030798835548160","吴","440","","","","","","","","","","","","","","","","","","","true","4","4","ability","579","other","他的","","","","","","","","","","","","","","",""
"null","","null","html-keyboard-response","154","279650","0.0-6.0-0.0-8.0-0.23","3","4","4","3","4","4","4","4","3","4","5","5","5","4","5","5","4","5","4","4","2","1","2","1","2","1","2","1","2","0","1","0","0","1","0","0","0","0","1","1","0","1","0","0","4","2","3","2","2","4","2","4","5","1","634030798835548160","吴","440","","","","","","","","","","","","","","","","","","","","","","","","","","","","","","","","","","","","","","","",""
"842","<p style=""color:white; font-size: 35px;"">低能</p>","i","categorize-html","155","280494","0.0-6.0-0.0-8.0-1.23","3","4","4","3","4","4","4","4","3","4","5","5","5","4","5","5","4","5","4","4","2","1","2","1","2","1","2","1","2","0","1","0","0","1","0","0","0","0","1","1","0","1","0","0","4","2","3","2","2","4","2","4","5","1","634030798835548160","吴","440","","","","","","","","","","","","","","","","","","","true","4","4","ability","842","negative","低能","","","","","","","","","","","","","","",""
"null","","null","html-keyboard-response","156","280747","0.0-6.0-0.0-8.0-0.24","3","4","4","3","4","4","4","4","3","4","5","5","5","4","5","5","4","5","4","4","2","1","2","1","2","1","2","1","2","0","1","0","0","1","0","0","0","0","1","1","0","1","0","0","4","2","3","2","2","4","2","4","5","1","634030798835548160","吴","440","","","","","","","","","","","","","","","","","","","","","","","","","","","","","","","","","","","","","","","",""
"845","<p style=""color:rgb(150, 250, 100); font-size: 35px;"">他人的</p>","e","categorize-html","157","281594","0.0-6.0-0.0-8.0-1.24","3","4","4","3","4","4","4","4","3","4","5","5","5","4","5","5","4","5","4","4","2","1","2","1","2","1","2","1","2","0","1","0","0","1","0","0","0","0","1","1","0","1","0","0","4","2","3","2","2","4","2","4","5","1","634030798835548160","吴","440","","","","","","","","","","","","","","","","","","","true","4","4","ability","845","other","他人的","","","","","","","","","","","","","","",""
"null","","null","html-keyboard-response","158","281845","0.0-6.0-0.0-8.0-0.25","3","4","4","3","4","4","4","4","3","4","5","5","5","4","5","5","4","5","4","4","2","1","2","1","2","1","2","1","2","0","1","0","0","1","0","0","0","0","1","1","0","1","0","0","4","2","3","2","2","4","2","4","5","1","634030798835548160","吴","440","","","","","","","","","","","","","","","","","","","","","","","","","","","","","","","","","","","","","","","",""
"1131","<p style=""color:white; font-size: 35px;"">拙笨</p>","e","categorize-html","159","283400","0.0-6.0-0.0-8.0-1.25","3","4","4","3","4","4","4","4","3","4","5","5","5","4","5","5","4","5","4","4","2","1","2","1","2","1","2","1","2","0","1","0","0","1","0","0","0","0","1","1","0","1","0","0","4","2","3","2","2","4","2","4","5","1","634030798835548160","吴","440","","","","","","","","","","","","","","","","","","","false","4","4","ability","1375.6097560975609","negative","拙笨","","","","","","","","","","","","","","",""
"null","","null","html-keyboard-response","160","283651","0.0-6.0-0.0-8.0-0.26","3","4","4","3","4","4","4","4","3","4","5","5","5","4","5","5","4","5","4","4","2","1","2","1","2","1","2","1","2","0","1","0","0","1","0","0","0","0","1","1","0","1","0","0","4","2","3","2","2","4","2","4","5","1","634030798835548160","吴","440","","","","","","","","","","","","","","","","","","","","","","","","","","","","","","","","","","","","","","","",""
"943","<p style=""color:rgb(150, 250, 100); font-size: 35px;"">本人</p>","i","categorize-html","161","284597","0.0-6.0-0.0-8.0-1.26","3","4","4","3","4","4","4","4","3","4","5","5","5","4","5","5","4","5","4","4","2","1","2","1","2","1","2","1","2","0","1","0","0","1","0","0","0","0","1","1","0","1","0","0","4","2","3","2","2","4","2","4","5","1","634030798835548160","吴","440","","","","","","","","","","","","","","","","","","","true","4","4","ability","943","self","本人","","","","","","","","","","","","","","",""
"null","","null","html-keyboard-response","162","284849","0.0-6.0-0.0-8.0-0.27","3","4","4","3","4","4","4","4","3","4","5","5","5","4","5","5","4","5","4","4","2","1","2","1","2","1","2","1","2","0","1","0","0","1","0","0","0","0","1","1","0","1","0","0","4","2","3","2","2","4","2","4","5","1","634030798835548160","吴","440","","","","","","","","","","","","","","","","","","","","","","","","","","","","","","","","","","","","","","","",""
"601","<p style=""color:white; font-size: 35px;"">能干</p>","e","categorize-html","163","285452","0.0-6.0-0.0-8.0-1.27","3","4","4","3","4","4","4","4","3","4","5","5","5","4","5","5","4","5","4","4","2","1","2","1","2","1","2","1","2","0","1","0","0","1","0","0","0","0","1","1","0","1","0","0","4","2","3","2","2","4","2","4","5","1","634030798835548160","吴","440","","","","","","","","","","","","","","","","","","","true","4","4","ability","601","positive","能干","","","","","","","","","","","","","","",""
"null","","null","html-keyboard-response","164","285703","0.0-6.0-0.0-8.0-0.28","3","4","4","3","4","4","4","4","3","4","5","5","5","4","5","5","4","5","4","4","2","1","2","1","2","1","2","1","2","0","1","0","0","1","0","0","0","0","1","1","0","1","0","0","4","2","3","2","2","4","2","4","5","1","634030798835548160","吴","440","","","","","","","","","","","","","","","","","","","","","","","","","","","","","","","","","","","","","","","",""
"789","<p style=""color:rgb(150, 250, 100); font-size: 35px;"">本人的</p>","i","categorize-html","165","286494","0.0-6.0-0.0-8.0-1.28","3","4","4","3","4","4","4","4","3","4","5","5","5","4","5","5","4","5","4","4","2","1","2","1","2","1","2","1","2","0","1","0","0","1","0","0","0","0","1","1","0","1","0","0","4","2","3","2","2","4","2","4","5","1","634030798835548160","吴","440","","","","","","","","","","","","","","","","","","","true","4","4","ability","789","self","本人的","","","","","","","","","","","","","","",""
"null","","null","html-keyboard-response","166","286747","0.0-6.0-0.0-8.0-0.29","3","4","4","3","4","4","4","4","3","4","5","5","5","4","5","5","4","5","4","4","2","1","2","1","2","1","2","1","2","0","1","0","0","1","0","0","0","0","1","1","0","1","0","0","4","2","3","2","2","4","2","4","5","1","634030798835548160","吴","440","","","","","","","","","","","","","","","","","","","","","","","","","","","","","","","","","","","","","","","",""
"1560","<p style=""color:white; font-size: 35px;"">天才</p>","e","categorize-html","167","288308","0.0-6.0-0.0-8.0-1.29","3","4","4","3","4","4","4","4","3","4","5","5","5","4","5","5","4","5","4","4","2","1","2","1","2","1","2","1","2","0","1","0","0","1","0","0","0","0","1","1","0","1","0","0","4","2","3","2","2","4","2","4","5","1","634030798835548160","吴","440","","","","","","","","","","","","","","","","","","","true","4","4","ability","1560","positive","天才","","","","","","","","","","","","","","",""
"null","","null","html-keyboard-response","168","288560","0.0-6.0-0.0-8.0-0.30","3","4","4","3","4","4","4","4","3","4","5","5","5","4","5","5","4","5","4","4","2","1","2","1","2","1","2","1","2","0","1","0","0","1","0","0","0","0","1","1","0","1","0","0","4","2","3","2","2","4","2","4","5","1","634030798835548160","吴","440","","","","","","","","","","","","","","","","","","","","","","","","","","","","","","","","","","","","","","","",""
"982","<p style=""color:rgb(150, 250, 100); font-size: 35px;"">别人</p>","i","categorize-html","169","289874","0.0-6.0-0.0-8.0-1.30","3","4","4","3","4","4","4","4","3","4","5","5","5","4","5","5","4","5","4","4","2","1","2","1","2","1","2","1","2","0","1","0","0","1","0","0","0","0","1","1","0","1","0","0","4","2","3","2","2","4","2","4","5","1","634030798835548160","吴","440","","","","","","","","","","","","","","","","","","","false","4","4","ability","1375.6097560975609","other","别人","","","","","","","","","","","","","","",""
"null","","null","html-keyboard-response","170","290125","0.0-6.0-0.0-8.0-0.31","3","4","4","3","4","4","4","4","3","4","5","5","5","4","5","5","4","5","4","4","2","1","2","1","2","1","2","1","2","0","1","0","0","1","0","0","0","0","1","1","0","1","0","0","4","2","3","2","2","4","2","4","5","1","634030798835548160","吴","440","","","","","","","","","","","","","","","","","","","","","","","","","","","","","","","","","","","","","","","",""
"1132","<p style=""color:white; font-size: 35px;"">拙笨</p>","i","categorize-html","171","291259","0.0-6.0-0.0-8.0-1.31","3","4","4","3","4","4","4","4","3","4","5","5","5","4","5","5","4","5","4","4","2","1","2","1","2","1","2","1","2","0","1","0","0","1","0","0","0","0","1","1","0","1","0","0","4","2","3","2","2","4","2","4","5","1","634030798835548160","吴","440","","","","","","","","","","","","","","","","","","","true","4","4","ability","1132","negative","拙笨","","","","","","","","","","","","","","",""
"null","","null","html-keyboard-response","172","291509","0.0-6.0-0.0-8.0-0.32","3","4","4","3","4","4","4","4","3","4","5","5","5","4","5","5","4","5","4","4","2","1","2","1","2","1","2","1","2","0","1","0","0","1","0","0","0","0","1","1","0","1","0","0","4","2","3","2","2","4","2","4","5","1","634030798835548160","吴","440","","","","","","","","","","","","","","","","","","","","","","","","","","","","","","","","","","","","","","","",""
"772","<p style=""color:rgb(150, 250, 100); font-size: 35px;"">我的</p>","i","categorize-html","173","292283","0.0-6.0-0.0-8.0-1.32","3","4","4","3","4","4","4","4","3","4","5","5","5","4","5","5","4","5","4","4","2","1","2","1","2","1","2","1","2","0","1","0","0","1","0","0","0","0","1","1","0","1","0","0","4","2","3","2","2","4","2","4","5","1","634030798835548160","吴","440","","","","","","","","","","","","","","","","","","","true","4","4","ability","772","self","我的","","","","","","","","","","","","","","",""
"null","","null","html-keyboard-response","174","292534","0.0-6.0-0.0-8.0-0.33","3","4","4","3","4","4","4","4","3","4","5","5","5","4","5","5","4","5","4","4","2","1","2","1","2","1","2","1","2","0","1","0","0","1","0","0","0","0","1","1","0","1","0","0","4","2","3","2","2","4","2","4","5","1","634030798835548160","吴","440","","","","","","","","","","","","","","","","","","","","","","","","","","","","","","","","","","","","","","","",""
"666","<p style=""color:white; font-size: 35px;"">全才</p>","e","categorize-html","175","293202","0.0-6.0-0.0-8.0-1.33","3","4","4","3","4","4","4","4","3","4","5","5","5","4","5","5","4","5","4","4","2","1","2","1","2","1","2","1","2","0","1","0","0","1","0","0","0","0","1","1","0","1","0","0","4","2","3","2","2","4","2","4","5","1","634030798835548160","吴","440","","","","","","","","","","","","","","","","","","","true","4","4","ability","666","positive","全才","","","","","","","","","","","","","","",""
"null","","null","html-keyboard-response","176","293453","0.0-6.0-0.0-8.0-0.34","3","4","4","3","4","4","4","4","3","4","5","5","5","4","5","5","4","5","4","4","2","1","2","1","2","1","2","1","2","0","1","0","0","1","0","0","0","0","1","1","0","1","0","0","4","2","3","2","2","4","2","4","5","1","634030798835548160","吴","440","","","","","","","","","","","","","","","","","","","","","","","","","","","","","","","","","","","","","","","",""
"554","<p style=""color:rgb(150, 250, 100); font-size: 35px;"">他</p>","e","categorize-html","177","294008","0.0-6.0-0.0-8.0-1.34","3","4","4","3","4","4","4","4","3","4","5","5","5","4","5","5","4","5","4","4","2","1","2","1","2","1","2","1","2","0","1","0","0","1","0","0","0","0","1","1","0","1","0","0","4","2","3","2","2","4","2","4","5","1","634030798835548160","吴","440","","","","","","","","","","","","","","","","","","","true","4","4","ability","554","other","他","","","","","","","","","","","","","","",""
"null","","null","html-keyboard-response","178","294260","0.0-6.0-0.0-8.0-0.35","3","4","4","3","4","4","4","4","3","4","5","5","5","4","5","5","4","5","4","4","2","1","2","1","2","1","2","1","2","0","1","0","0","1","0","0","0","0","1","1","0","1","0","0","4","2","3","2","2","4","2","4","5","1","634030798835548160","吴","440","","","","","","","","","","","","","","","","","","","","","","","","","","","","","","","","","","","","","","","",""
"656","<p style=""color:white; font-size: 35px;"">废物</p>","i","categorize-html","179","294918","0.0-6.0-0.0-8.0-1.35","3","4","4","3","4","4","4","4","3","4","5","5","5","4","5","5","4","5","4","4","2","1","2","1","2","1","2","1","2","0","1","0","0","1","0","0","0","0","1","1","0","1","0","0","4","2","3","2","2","4","2","4","5","1","634030798835548160","吴","440","","","","","","","","","","","","","","","","","","","true","4","4","ability","656","negative","废物","","","","","","","","","","","","","","",""
"null","","null","html-keyboard-response","180","295170","0.0-6.0-0.0-8.0-0.36","3","4","4","3","4","4","4","4","3","4","5","5","5","4","5","5","4","5","4","4","2","1","2","1","2","1","2","1","2","0","1","0","0","1","0","0","0","0","1","1","0","1","0","0","4","2","3","2","2","4","2","4","5","1","634030798835548160","吴","440","","","","","","","","","","","","","","","","","","","","","","","","","","","","","","","","","","","","","","","",""
"606","<p style=""color:rgb(150, 250, 100); font-size: 35px;"">他人</p>","e","categorize-html","181","295778","0.0-6.0-0.0-8.0-1.36","3","4","4","3","4","4","4","4","3","4","5","5","5","4","5","5","4","5","4","4","2","1","2","1","2","1","2","1","2","0","1","0","0","1","0","0","0","0","1","1","0","1","0","0","4","2","3","2","2","4","2","4","5","1","634030798835548160","吴","440","","","","","","","","","","","","","","","","","","","true","4","4","ability","606","other","他人","","","","","","","","","","","","","","",""
"null","","null","html-keyboard-response","182","296030","0.0-6.0-0.0-8.0-0.37","3","4","4","3","4","4","4","4","3","4","5","5","5","4","5","5","4","5","4","4","2","1","2","1","2","1","2","1","2","0","1","0","0","1","0","0","0","0","1","1","0","1","0","0","4","2","3","2","2","4","2","4","5","1","634030798835548160","吴","440","","","","","","","","","","","","","","","","","","","","","","","","","","","","","","","","","","","","","","","",""
"757","<p style=""color:white; font-size: 35px;"">高效</p>","i","categorize-html","183","297053","0.0-6.0-0.0-8.0-1.37","3","4","4","3","4","4","4","4","3","4","5","5","5","4","5","5","4","5","4","4","2","1","2","1","2","1","2","1","2","0","1","0","0","1","0","0","0","0","1","1","0","1","0","0","4","2","3","2","2","4","2","4","5","1","634030798835548160","吴","440","","","","","","","","","","","","","","","","","","","false","4","4","ability","1375.6097560975609","positive","高效","","","","","","","","","","","","","","",""
"null","","null","html-keyboard-response","184","297305","0.0-6.0-0.0-8.0-0.38","3","4","4","3","4","4","4","4","3","4","5","5","5","4","5","5","4","5","4","4","2","1","2","1","2","1","2","1","2","0","1","0","0","1","0","0","0","0","1","1","0","1","0","0","4","2","3","2","2","4","2","4","5","1","634030798835548160","吴","440","","","","","","","","","","","","","","","","","","","","","","","","","","","","","","","","","","","","","","","",""
"921","<p style=""color:rgb(150, 250, 100); font-size: 35px;"">自己的</p>","i","categorize-html","185","298227","0.0-6.0-0.0-8.0-1.38","3","4","4","3","4","4","4","4","3","4","5","5","5","4","5","5","4","5","4","4","2","1","2","1","2","1","2","1","2","0","1","0","0","1","0","0","0","0","1","1","0","1","0","0","4","2","3","2","2","4","2","4","5","1","634030798835548160","吴","440","","","","","","","","","","","","","","","","","","","true","4","4","ability","921","self","自己的","","","","","","","","","","","","","","",""
"null","","null","html-keyboard-response","186","298479","0.0-6.0-0.0-8.0-0.39","3","4","4","3","4","4","4","4","3","4","5","5","5","4","5","5","4","5","4","4","2","1","2","1","2","1","2","1","2","0","1","0","0","1","0","0","0","0","1","1","0","1","0","0","4","2","3","2","2","4","2","4","5","1","634030798835548160","吴","440","","","","","","","","","","","","","","","","","","","","","","","","","","","","","","","","","","","","","","","",""
"784","<p style=""color:white; font-size: 35px;"">蠢笨</p>","i","categorize-html","187","299265","0.0-6.0-0.0-8.0-1.39","3","4","4","3","4","4","4","4","3","4","5","5","5","4","5","5","4","5","4","4","2","1","2","1","2","1","2","1","2","0","1","0","0","1","0","0","0","0","1","1","0","1","0","0","4","2","3","2","2","4","2","4","5","1","634030798835548160","吴","440","","","","","","","","","","","","","","","","","","","true","4","4","ability","784","negative","蠢笨","","","","","","","","","","","","","","",""
"null","","null","html-keyboard-response","188","299523","0.0-6.0-0.0-8.0-0.40","3","4","4","3","4","4","4","4","3","4","5","5","5","4","5","5","4","5","4","4","2","1","2","1","2","1","2","1","2","0","1","0","0","1","0","0","0","0","1","1","0","1","0","0","4","2","3","2","2","4","2","4","5","1","634030798835548160","吴","440","","","","","","","","","","","","","","","","","","","","","","","","","","","","","","","","","","","","","","","",""
"528","<p style=""color:rgb(150, 250, 100); font-size: 35px;"">他人</p>","e","categorize-html","189","300053","0.0-6.0-0.0-8.0-1.40","3","4","4","3","4","4","4","4","3","4","5","5","5","4","5","5","4","5","4","4","2","1","2","1","2","1","2","1","2","0","1","0","0","1","0","0","0","0","1","1","0","1","0","0","4","2","3","2","2","4","2","4","5","1","634030798835548160","吴","440","","","","","","","","","","","","","","","","","","","true","4","4","ability","528","other","他人","","","","","","","","","","","","","","",""
"null","","null","html-keyboard-response","190","300303","0.0-6.0-0.0-8.0-0.41","3","4","4","3","4","4","4","4","3","4","5","5","5","4","5","5","4","5","4","4","2","1","2","1","2","1","2","1","2","0","1","0","0","1","0","0","0","0","1","1","0","1","0","0","4","2","3","2","2","4","2","4","5","1","634030798835548160","吴","440","","","","","","","","","","","","","","","","","","","","","","","","","","","","","","","","","","","","","","","",""
"632","<p style=""color:white; font-size: 35px;"">全能</p>","e","categorize-html","191","300938","0.0-6.0-0.0-8.0-1.41","3","4","4","3","4","4","4","4","3","4","5","5","5","4","5","5","4","5","4","4","2","1","2","1","2","1","2","1","2","0","1","0","0","1","0","0","0","0","1","1","0","1","0","0","4","2","3","2","2","4","2","4","5","1","634030798835548160","吴","440","","","","","","","","","","","","","","","","","","","true","4","4","ability","632","positive","全能","","","","","","","","","","","","","","",""
"null","","null","html-keyboard-response","192","301188","0.0-6.0-0.0-8.0-0.42","3","4","4","3","4","4","4","4","3","4","5","5","5","4","5","5","4","5","4","4","2","1","2","1","2","1","2","1","2","0","1","0","0","1","0","0","0","0","1","1","0","1","0","0","4","2","3","2","2","4","2","4","5","1","634030798835548160","吴","440","","","","","","","","","","","","","","","","","","","","","","","","","","","","","","","","","","","","","","","",""
"792","<p style=""color:rgb(150, 250, 100); font-size: 35px;"">本人的</p>","i","categorize-html","193","301983","0.0-6.0-0.0-8.0-1.42","3","4","4","3","4","4","4","4","3","4","5","5","5","4","5","5","4","5","4","4","2","1","2","1","2","1","2","1","2","0","1","0","0","1","0","0","0","0","1","1","0","1","0","0","4","2","3","2","2","4","2","4","5","1","634030798835548160","吴","440","","","","","","","","","","","","","","","","","","","true","4","4","ability","792","self","本人的","","","","","","","","","","","","","","",""
"null","","null","html-keyboard-response","194","302234","0.0-6.0-0.0-8.0-0.43","3","4","4","3","4","4","4","4","3","4","5","5","5","4","5","5","4","5","4","4","2","1","2","1","2","1","2","1","2","0","1","0","0","1","0","0","0","0","1","1","0","1","0","0","4","2","3","2","2","4","2","4","5","1","634030798835548160","吴","440","","","","","","","","","","","","","","","","","","","","","","","","","","","","","","","","","","","","","","","",""
"879","<p style=""color:white; font-size: 35px;"">蠢笨</p>","i","categorize-html","195","303115","0.0-6.0-0.0-8.0-1.43","3","4","4","3","4","4","4","4","3","4","5","5","5","4","5","5","4","5","4","4","2","1","2","1","2","1","2","1","2","0","1","0","0","1","0","0","0","0","1","1","0","1","0","0","4","2","3","2","2","4","2","4","5","1","634030798835548160","吴","440","","","","","","","","","","","","","","","","","","","true","4","4","ability","879","negative","蠢笨","","","","","","","","","","","","","","",""
"null","","null","html-keyboard-response","196","303367","0.0-6.0-0.0-8.0-0.44","3","4","4","3","4","4","4","4","3","4","5","5","5","4","5","5","4","5","4","4","2","1","2","1","2","1","2","1","2","0","1","0","0","1","0","0","0","0","1","1","0","1","0","0","4","2","3","2","2","4","2","4","5","1","634030798835548160","吴","440","","","","","","","","","","","","","","","","","","","","","","","","","","","","","","","","","","","","","","","",""
