"rt","stimulus","response","trial_type","trial_index","time_elapsed","internal_node_id","ses_1","ses_2","ses_3","ses_4","ses_5","ses_6","ses_7","ses_8","ses_9","ses_10","coreself_1","coreself_2","coreself_3","coreself_4","coreself_5","coreself_6","coreself_7","coreself_8","coreself_9","coreself_10","SGPS_1","SGPS_2","SGPS_3","SGPS_4","SGPS_5","SGPS_6","SGPS_7","SGPS_8","SGPS_9","NPI1","NPI2","NPI3","NPI4","NPI5","NPI6","NPI7","NPI8","NPI9","NPI10","NPI11","NPI12","NPI13","NPI14","NPI15","hsns_1","hsns_2","hsns_3","hsns_4","hsns_5","hsns_6","hsns_7","hsns_8","hsns_9","hsns_10","subj_idx","friend_name","ParticipantID","value","success","user_agent","responses","item_order","radio_event_ids","radio_event_times","key_event_times","mouse_event_times","straightlining","zigzagging","honeypot","timeout","failed_images","failed_audio","failed_video","view_history","response_type","key_press","avg_frame_time","center_x","center_y","correct_response","correct","identity","Image","word","condition","task_id","screen_id","time_stamp","version_attrib","version_target","IAT","RT","varname","summary","version_attrib2","version_target2","question_order"
"3138","
   <p><div style = ""color: white;font-size:25px;"">您好，欢迎参加本次实验。</div> </p>
   <p><div style = ""color: white;font-size:25px;"">为充分保障您的权利，请确保您已经知晓并同意《参与实验同意书》以及《数据公开知情同意书》。</div></p>
   <p><div style = ""color: white;font-size:25px;"">如果您未见过上述内容，请咨询实验员。</div></p>
   <p><div style = ""color: white;font-size:25px;"">如果您选择继续实验，则表示您已经清楚两份知情同意书的内容并同意。</div></p>
   <p><div style = ""color: red;font-size:30px;"">请确保您记得day0的实验编号，您将在本次实验输入该编号，若您忘记，请咨询实验员后作答。</div></p>
   <p> <div style = ""color: green;font-size:25px;""><按空格键至下页></div> </p>
   "," ","html-keyboard-response","0","3138","0.0-0.0","4","3","4","4","4","3","3","4","4","4","4","5","5","5","4","4","5","5","4","5","1","2","1","1","2","1","1","1","1","1","0","1","1","0","0","0","1","0","1","1","0","1","0","1","4","1","2","1","1","1","2","2","2","1","718833172124532736","胡","536","","","","","","","","","","","","","","","","","","","","","","","","","","","","","","","","","","","","","","","",""
"","","","call-function","1","3139","0.0-1.0-0.0","4","3","4","4","4","3","3","4","4","4","4","5","5","5","4","4","5","5","4","5","1","2","1","1","2","1","1","1","1","1","0","1","1","0","0","0","1","0","1","1","0","1","0","1","4","1","2","1","1","1","2","2","2","1","718833172124532736","胡","536","","","","","","","","","","","","","","","","","","","","","","","","","","","","","","","","","","","","","","","",""
"11019","","{""friend_name"":""胡"",""ParticipantID"":""536""}","survey-html-form","2","14158","0.0-1.0-1.0","4","3","4","4","4","3","3","4","4","4","4","5","5","5","4","4","5","5","4","5","1","2","1","1","2","1","1","1","1","1","0","1","1","0","0","0","1","0","1","1","0","1","0","1","4","1","2","1","1","1","2","2","2","1","718833172124532736","胡","536","","","","","","","","","","","","","","","","","","","","","","","","","","","","","","","","","","","","","","","",""
"","","","fullscreen","3","17291","0.0-2.0","4","3","4","4","4","3","3","4","4","4","4","5","5","5","4","4","5","5","4","5","1","2","1","1","2","1","1","1","1","1","0","1","1","0","0","0","1","0","1","1","0","1","0","1","4","1","2","1","1","1","2","2","2","1","718833172124532736","胡","536","","true","{}","","","","","","","","","","","","","","","","","","","","","","","","","","","","","","","","","","","","",""
"21674.40000000014","","{""Q01"":""4"",""Q02"":""3"",""Q03"":""4"",""Q04"":""4"",""Q05"":""4"",""Q06"":""3"",""Q07"":""3"",""Q08"":""4"",""Q09"":""4"",""Q10"":""4""}","survey-template","4","38967","0.0-3.0","4","3","4","4","4","3","3","4","4","4","4","5","5","5","4","4","5","5","4","5","1","2","1","1","2","1","1","1","1","1","0","1","1","0","0","0","1","0","1","1","0","1","0","1","4","1","2","1","1","1","2","2","2","1","718833172124532736","胡","536","","","","{""Q01"":""4"",""Q02"":""3"",""Q03"":""4"",""Q04"":""4"",""Q05"":""4"",""Q06"":""3"",""Q07"":""3"",""Q08"":""4"",""Q09"":""4"",""Q10"":""4""}","[0,1,2,3,4,5,6,7,8,9]","[""Q01"",""Q02"",""Q03"",""Q03"",""Q03"",""Q04"",""Q05"",""Q06"",""Q06"",""Q07"",""Q07"",""Q08"",""Q09"",""Q10""]","[2241.5,2921.3000000000466,4409.300000000047,5825.40000000014,6089,7449.90000000014,10153.40000000014,11425.5,11641.300000000047,12681.40000000014,12881.199999999953,15562.40000000014,19457.5,20265.40000000014]","[]","[2241.5,2921.3000000000466,4409.300000000047,5825.40000000014,6089,7449.90000000014,8777.5,10153.40000000014,11425.5,11641.300000000047,12681.40000000014,12881.199999999953,15562.40000000014,17489.600000000093,19457.5,20265.40000000014,21673.100000000093]","0.5","0.3333333333333333","0","","","","","","","","","","","","","","","","","","","","","","","","","","","",""
"32595.800000000047","","{""Q01"":""4"",""Q02"":""5"",""Q03"":""5"",""Q04"":""5"",""Q05"":""4"",""Q06"":""4"",""Q07"":""5"",""Q08"":""5"",""Q09"":""4"",""Q10"":""5""}","survey-template","5","71582","0.0-4.0","4","3","4","4","4","3","3","4","4","4","4","5","5","5","4","4","5","5","4","5","1","2","1","1","2","1","1","1","1","1","0","1","1","0","0","0","1","0","1","1","0","1","0","1","4","1","2","1","1","1","2","2","2","1","718833172124532736","胡","536","","","","{""Q01"":""4"",""Q02"":""5"",""Q03"":""5"",""Q04"":""5"",""Q05"":""4"",""Q06"":""4"",""Q07"":""5"",""Q08"":""5"",""Q09"":""4"",""Q10"":""5""}","[0,1,2,3,4,5,6,7,8,9]","[""Q01"",""Q02"",""Q03"",""Q04"",""Q05"",""Q05"",""Q06"",""Q06"",""Q07"",""Q08"",""Q09"",""Q09"",""Q10""]","[1970.3000000000466,3122.600000000093,4178.5,5898.300000000047,8730.600000000093,14850.699999999953,16298.800000000047,16498.600000000093,18674.199999999953,19322.399999999907,26410.600000000093,26650.300000000047,28314.300000000047]","[]","[1970.3000000000466,3122.600000000093,4178.5,5898.300000000047,8730.600000000093,11130.800000000047,13666.5,13850.399999999907,14850.699999999953,16298.800000000047,16498.600000000093,17490.300000000047,17746.399999999907,18674.199999999953,19322.399999999907,26410.600000000093,26650.300000000047,28314.300000000047,32594.5]","0.5","0.1111111111111111","0","","","","","","","","","","","","","","","","","","","","","","","","","","","",""
"","","","preload","6","71807","0.0-5.0","4","3","4","4","4","3","3","4","4","4","4","5","5","5","4","4","5","5","4","5","1","2","1","1","2","1","1","1","1","1","0","1","1","0","0","0","1","0","1","1","0","1","0","1","4","1","2","1","1","1","2","2","2","1","718833172124532736","胡","536","","true","","","","","","","","","","","false","[]","[]","[]","","","","","","","","","","","","","","","","","","","","","","","",""
"13452","","","instructions","7","85260","0.0-6.0","4","3","4","4","4","3","3","4","4","4","4","5","5","5","4","4","5","5","4","5","1","2","1","1","2","1","1","1","1","1","0","1","1","0","0","0","1","0","1","1","0","1","0","1","4","1","2","1","1","1","2","2","2","1","718833172124532736","胡","536","","","","","","","","","","","","","","","","","[{""page_index"":0,""viewing_time"":13452}]","","","","","","","","","","","","","","","","","","","","","","",""
"65603","","","instructions","8","150879","0.0-7.0-0.0-0.0","4","3","4","4","4","3","3","4","4","4","4","5","5","5","4","4","5","5","4","5","1","2","1","1","2","1","1","1","1","1","0","1","1","0","0","0","1","0","1","1","0","1","0","1","4","1","2","1","1","1","2","2","2","1","718833172124532736","胡","536","","","","","","","","","","","","","","","","","[{""page_index"":0,""viewing_time"":14415},{""page_index"":1,""viewing_time"":31533},{""page_index"":2,""viewing_time"":19655}]","","","","","","","","","","","","","","","","","","","","","","",""
"null","","null","psychophysics","9","153085","0.0-7.0-0.0-1.0-0.0-0.0","4","3","4","4","4","3","3","4","4","4","4","5","5","5","4","4","5","5","4","5","1","2","1","1","2","1","1","1","1","1","0","1","1","0","0","0","1","0","1","1","0","1","0","1","4","1","2","1","1","1","2","2","2","1","718833172124532736","胡","536","","","","null","","","","","","","","","","","","","","key","null","16.662229007633645","768","428","j","false","nonmatch","img/triangle.png","五边","三角","ALT1_1","prac_ALT1_1","","","","","","","","","",""
"null","<span class='add_' style='color:yellow; font-size: 70px;'> 太慢! </span>","null","html-keyboard-response","10","153587","0.0-7.0-0.0-1.0-0.0-1.0","4","3","4","4","4","3","3","4","4","4","4","5","5","5","4","4","5","5","4","5","1","2","1","1","2","1","1","1","1","1","0","1","1","0","0","0","1","0","1","1","0","1","0","1","4","1","2","1","1","1","2","2","2","1","718833172124532736","胡","536","","","","","","","","","","","","","","","","","","","","","","","","","","","","","","feedback_test","","","","","","","","","",""
"null","","null","psychophysics","11","155790","0.0-7.0-0.0-1.0-0.0-0.1","4","3","4","4","4","3","3","4","4","4","4","5","5","5","4","4","5","5","4","5","1","2","1","1","2","1","1","1","1","1","0","1","1","0","0","0","1","0","1","1","0","1","0","1","4","1","2","1","1","1","2","2","2","1","718833172124532736","胡","536","","","","null","","","","","","","","","","","","","","key","null","16.643297709923644","768","428","j","false","nonmatch","img/diamond.png","五边","菱形","ALT1_1","prac_ALT1_1","","","","","","","","","",""
"null","<span class='add_' style='color:yellow; font-size: 70px;'> 太慢! </span>","null","html-keyboard-response","12","156291","0.0-7.0-0.0-1.0-0.0-1.1","4","3","4","4","4","3","3","4","4","4","4","5","5","5","4","4","5","5","4","5","1","2","1","1","2","1","1","1","1","1","0","1","1","0","0","0","1","0","1","1","0","1","0","1","4","1","2","1","1","1","2","2","2","1","718833172124532736","胡","536","","","","","","","","","","","","","","","","","","","","","","","","","","","","","","feedback_test","","","","","","","","","",""
"930","","f","psychophysics","13","158223","0.0-7.0-0.0-1.0-0.0-0.2","4","3","4","4","4","3","3","4","4","4","4","5","5","5","4","4","5","5","4","5","1","2","1","1","2","1","1","1","1","1","0","1","1","0","0","0","1","0","1","1","0","1","0","1","4","1","2","1","1","1","2","2","2","1","718833172124532736","胡","536","","","","match","","","","","","","","","","","","","","key","f","16.66014035087714","768","428","f","true","match","img/diamond.png","菱形","菱形","ALT1_1","prac_ALT1_1","","","","","","","","","",""
"null","<span style='color:GreenYellow; font-size: 70px;'>正确! </span>","null","html-keyboard-response","14","158736","0.0-7.0-0.0-1.0-0.0-1.2","4","3","4","4","4","3","3","4","4","4","4","5","5","5","4","4","5","5","4","5","1","2","1","1","2","1","1","1","1","1","0","1","1","0","0","0","1","0","1","1","0","1","0","1","4","1","2","1","1","1","2","2","2","1","718833172124532736","胡","536","","","","","","","","","","","","","","","","","","","","","","","","","","","","","","feedback_test","","","","","","","","","",""
"717","","f","psychophysics","15","160454","0.0-7.0-0.0-1.0-0.0-0.3","4","3","4","4","4","3","3","4","4","4","4","5","5","5","4","4","5","5","4","5","1","2","1","1","2","1","1","1","1","1","0","1","1","0","0","0","1","0","1","1","0","1","0","1","4","1","2","1","1","1","2","2","2","1","718833172124532736","胡","536","","","","match","","","","","","","","","","","","","","key","f","16.643686274509687","768","428","f","true","match","img/circle.png","圆形","圆形","ALT1_1","prac_ALT1_1","","","","","","","","","",""
"null","<span style='color:GreenYellow; font-size: 70px;'>正确! </span>","null","html-keyboard-response","16","160956","0.0-7.0-0.0-1.0-0.0-1.3","4","3","4","4","4","3","3","4","4","4","4","5","5","5","4","4","5","5","4","5","1","2","1","1","2","1","1","1","1","1","0","1","1","0","0","0","1","0","1","1","0","1","0","1","4","1","2","1","1","1","2","2","2","1","718833172124532736","胡","536","","","","","","","","","","","","","","","","","","","","","","","","","","","","","","feedback_test","","","","","","","","","",""
"721","","f","psychophysics","17","162679","0.0-7.0-0.0-1.0-0.0-0.4","4","3","4","4","4","3","3","4","4","4","4","5","5","5","4","4","5","5","4","5","1","2","1","1","2","1","1","1","1","1","0","1","1","0","0","0","1","0","1","1","0","1","0","1","4","1","2","1","1","1","2","2","2","1","718833172124532736","胡","536","","","","match","","","","","","","","","","","","","","key","f","16.65809803921558","768","428","j","false","nonmatch","img/circle.png","菱形","圆形","ALT1_1","prac_ALT1_1","","","","","","","","","",""
"null","<span style='color:red; font-size: 70px;'>错误! </span>","null","html-keyboard-response","18","163181","0.0-7.0-0.0-1.0-0.0-1.4","4","3","4","4","4","3","3","4","4","4","4","5","5","5","4","4","5","5","4","5","1","2","1","1","2","1","1","1","1","1","0","1","1","0","0","0","1","0","1","1","0","1","0","1","4","1","2","1","1","1","2","2","2","1","718833172124532736","胡","536","","","","","","","","","","","","","","","","","","","","","","","","","","","","","","feedback_test","","","","","","","","","",""
"null","","null","psychophysics","19","165384","0.0-7.0-0.0-1.0-0.0-0.5","4","3","4","4","4","3","3","4","4","4","4","5","5","5","4","4","5","5","4","5","1","2","1","1","2","1","1","1","1","1","0","1","1","0","0","0","1","0","1","1","0","1","0","1","4","1","2","1","1","1","2","2","2","1","718833172124532736","胡","536","","","","null","","","","","","","","","","","","","","key","null","16.652809160305203","768","428","f","false","match","img/pentagon.png","五边","五边","ALT1_1","prac_ALT1_1","","","","","","","","","",""
"null","<span class='add_' style='color:yellow; font-size: 70px;'> 太慢! </span>","null","html-keyboard-response","20","165885","0.0-7.0-0.0-1.0-0.0-1.5","4","3","4","4","4","3","3","4","4","4","4","5","5","5","4","4","5","5","4","5","1","2","1","1","2","1","1","1","1","1","0","1","1","0","0","0","1","0","1","1","0","1","0","1","4","1","2","1","1","1","2","2","2","1","718833172124532736","胡","536","","","","","","","","","","","","","","","","","","","","","","","","","","","","","","feedback_test","","","","","","","","","",""
"639","","j","psychophysics","21","167526","0.0-7.0-0.0-1.0-0.0-0.6","4","3","4","4","4","3","3","4","4","4","4","5","5","5","4","4","5","5","4","5","1","2","1","1","2","1","1","1","1","1","0","1","1","0","0","0","1","0","1","1","0","1","0","1","4","1","2","1","1","1","2","2","2","1","718833172124532736","胡","536","","","","nonmatch","","","","","","","","","","","","","","key","j","16.658765306122238","768","428","j","true","nonmatch","img/pentagon.png","三角","五边","ALT1_1","prac_ALT1_1","","","","","","","","","",""
"null","<span style='color:GreenYellow; font-size: 70px;'>正确! </span>","null","html-keyboard-response","22","168027","0.0-7.0-0.0-1.0-0.0-1.6","4","3","4","4","4","3","3","4","4","4","4","5","5","5","4","4","5","5","4","5","1","2","1","1","2","1","1","1","1","1","0","1","1","0","0","0","1","0","1","1","0","1","0","1","4","1","2","1","1","1","2","2","2","1","718833172124532736","胡","536","","","","","","","","","","","","","","","","","","","","","","","","","","","","","","feedback_test","","","","","","","","","",""
"694","","j","psychophysics","23","169736","0.0-7.0-0.0-1.0-0.0-0.7","4","3","4","4","4","3","3","4","4","4","4","5","5","5","4","4","5","5","4","5","1","2","1","1","2","1","1","1","1","1","0","1","1","0","0","0","1","0","1","1","0","1","0","1","4","1","2","1","1","1","2","2","2","1","718833172124532736","胡","536","","","","nonmatch","","","","","","","","","","","","","","key","j","16.662970297029624","768","428","j","true","nonmatch","img/circle.png","三角","圆形","ALT1_1","prac_ALT1_1","","","","","","","","","",""
"null","<span style='color:GreenYellow; font-size: 70px;'>正确! </span>","null","html-keyboard-response","24","170238","0.0-7.0-0.0-1.0-0.0-1.7","4","3","4","4","4","3","3","4","4","4","4","5","5","5","4","4","5","5","4","5","1","2","1","1","2","1","1","1","1","1","0","1","1","0","0","0","1","0","1","1","0","1","0","1","4","1","2","1","1","1","2","2","2","1","718833172124532736","胡","536","","","","","","","","","","","","","","","","","","","","","","","","","","","","","","feedback_test","","","","","","","","","",""
"801","","j","psychophysics","25","172040","0.0-7.0-0.0-1.0-0.0-0.8","4","3","4","4","4","3","3","4","4","4","4","5","5","5","4","4","5","5","4","5","1","2","1","1","2","1","1","1","1","1","0","1","1","0","0","0","1","0","1","1","0","1","0","1","4","1","2","1","1","1","2","2","2","1","718833172124532736","胡","536","","","","nonmatch","","","","","","","","","","","","","","key","j","16.65973831775705","768","428","j","true","nonmatch","img/diamond.png","三角","菱形","ALT1_1","prac_ALT1_1","","","","","","","","","",""
"null","<span style='color:GreenYellow; font-size: 70px;'>正确! </span>","null","html-keyboard-response","26","172541","0.0-7.0-0.0-1.0-0.0-1.8","4","3","4","4","4","3","3","4","4","4","4","5","5","5","4","4","5","5","4","5","1","2","1","1","2","1","1","1","1","1","0","1","1","0","0","0","1","0","1","1","0","1","0","1","4","1","2","1","1","1","2","2","2","1","718833172124532736","胡","536","","","","","","","","","","","","","","","","","","","","","","","","","","","","","","feedback_test","","","","","","","","","",""
"734","","f","psychophysics","27","174276","0.0-7.0-0.0-1.0-0.0-0.9","4","3","4","4","4","3","3","4","4","4","4","5","5","5","4","4","5","5","4","5","1","2","1","1","2","1","1","1","1","1","0","1","1","0","0","0","1","0","1","1","0","1","0","1","4","1","2","1","1","1","2","2","2","1","718833172124532736","胡","536","","","","match","","","","","","","","","","","","","","key","f","16.66141747572805","768","428","f","true","match","img/triangle.png","三角","三角","ALT1_1","prac_ALT1_1","","","","","","","","","",""
"null","<span style='color:GreenYellow; font-size: 70px;'>正确! </span>","null","html-keyboard-response","28","174778","0.0-7.0-0.0-1.0-0.0-1.9","4","3","4","4","4","3","3","4","4","4","4","5","5","5","4","4","5","5","4","5","1","2","1","1","2","1","1","1","1","1","0","1","1","0","0","0","1","0","1","1","0","1","0","1","4","1","2","1","1","1","2","2","2","1","718833172124532736","胡","536","","","","","","","","","","","","","","","","","","","","","","","","","","","","","","feedback_test","","","","","","","","","",""
"793","","j","psychophysics","29","176572","0.0-7.0-0.0-1.0-0.0-0.10","4","3","4","4","4","3","3","4","4","4","4","5","5","5","4","4","5","5","4","5","1","2","1","1","2","1","1","1","1","1","0","1","1","0","0","0","1","0","1","1","0","1","0","1","4","1","2","1","1","1","2","2","2","1","718833172124532736","胡","536","","","","nonmatch","","","","","","","","","","","","","","key","j","16.634467289719684","768","428","j","true","nonmatch","img/pentagon.png","菱形","五边","ALT1_1","prac_ALT1_1","","","","","","","","","",""
"null","<span style='color:GreenYellow; font-size: 70px;'>正确! </span>","null","html-keyboard-response","30","177074","0.0-7.0-0.0-1.0-0.0-1.10","4","3","4","4","4","3","3","4","4","4","4","5","5","5","4","4","5","5","4","5","1","2","1","1","2","1","1","1","1","1","0","1","1","0","0","0","1","0","1","1","0","1","0","1","4","1","2","1","1","1","2","2","2","1","718833172124532736","胡","536","","","","","","","","","","","","","","","","","","","","","","","","","","","","","","feedback_test","","","","","","","","","",""
"733","","j","psychophysics","31","178808","0.0-7.0-0.0-1.0-0.0-0.11","4","3","4","4","4","3","3","4","4","4","4","5","5","5","4","4","5","5","4","5","1","2","1","1","2","1","1","1","1","1","0","1","1","0","0","0","1","0","1","1","0","1","0","1","4","1","2","1","1","1","2","2","2","1","718833172124532736","胡","536","","","","nonmatch","","","","","","","","","","","","","","key","j","16.627097087378502","768","428","j","true","nonmatch","img/diamond.png","圆形","菱形","ALT1_1","prac_ALT1_1","","","","","","","","","",""
"null","<span style='color:GreenYellow; font-size: 70px;'>正确! </span>","null","html-keyboard-response","32","179309","0.0-7.0-0.0-1.0-0.0-1.11","4","3","4","4","4","3","3","4","4","4","4","5","5","5","4","4","5","5","4","5","1","2","1","1","2","1","1","1","1","1","0","1","1","0","0","0","1","0","1","1","0","1","0","1","4","1","2","1","1","1","2","2","2","1","718833172124532736","胡","536","","","","","","","","","","","","","","","","","","","","","","","","","","","","","","feedback_test","","","","","","","","","",""
"678","","j","psychophysics","33","180988","0.0-7.0-0.0-1.0-0.0-0.12","4","3","4","4","4","3","3","4","4","4","4","5","5","5","4","4","5","5","4","5","1","2","1","1","2","1","1","1","1","1","0","1","1","0","0","0","1","0","1","1","0","1","0","1","4","1","2","1","1","1","2","2","2","1","718833172124532736","胡","536","","","","nonmatch","","","","","","","","","","","","","","key","j","16.65908999999985","768","428","f","false","match","img/diamond.png","菱形","菱形","ALT1_1","prac_ALT1_1","","","","","","","","","",""
"null","<span style='color:red; font-size: 70px;'>错误! </span>","null","html-keyboard-response","34","181489","0.0-7.0-0.0-1.0-0.0-1.12","4","3","4","4","4","3","3","4","4","4","4","5","5","5","4","4","5","5","4","5","1","2","1","1","2","1","1","1","1","1","0","1","1","0","0","0","1","0","1","1","0","1","0","1","4","1","2","1","1","1","2","2","2","1","718833172124532736","胡","536","","","","","","","","","","","","","","","","","","","","","","","","","","","","","","feedback_test","","","","","","","","","",""
"938","","f","psychophysics","35","183429","0.0-7.0-0.0-1.0-0.0-0.13","4","3","4","4","4","3","3","4","4","4","4","5","5","5","4","4","5","5","4","5","1","2","1","1","2","1","1","1","1","1","0","1","1","0","0","0","1","0","1","1","0","1","0","1","4","1","2","1","1","1","2","2","2","1","718833172124532736","胡","536","","","","match","","","","","","","","","","","","","","key","f","16.619025862068973","768","428","f","true","match","img/pentagon.png","五边","五边","ALT1_1","prac_ALT1_1","","","","","","","","","",""
"null","<span style='color:GreenYellow; font-size: 70px;'>正确! </span>","null","html-keyboard-response","36","183930","0.0-7.0-0.0-1.0-0.0-1.13","4","3","4","4","4","3","3","4","4","4","4","5","5","5","4","4","5","5","4","5","1","2","1","1","2","1","1","1","1","1","0","1","1","0","0","0","1","0","1","1","0","1","0","1","4","1","2","1","1","1","2","2","2","1","718833172124532736","胡","536","","","","","","","","","","","","","","","","","","","","","","","","","","","","","","feedback_test","","","","","","","","","",""
"553","","f","psychophysics","37","185484","0.0-7.0-0.0-1.0-0.0-0.14","4","3","4","4","4","3","3","4","4","4","4","5","5","5","4","4","5","5","4","5","1","2","1","1","2","1","1","1","1","1","0","1","1","0","0","0","1","0","1","1","0","1","0","1","4","1","2","1","1","1","2","2","2","1","718833172124532736","胡","536","","","","match","","","","","","","","","","","","","","key","f","16.662054347826242","768","428","f","true","match","img/diamond.png","菱形","菱形","ALT1_1","prac_ALT1_1","","","","","","","","","",""
"null","<span style='color:GreenYellow; font-size: 70px;'>正确! </span>","null","html-keyboard-response","38","185985","0.0-7.0-0.0-1.0-0.0-1.14","4","3","4","4","4","3","3","4","4","4","4","5","5","5","4","4","5","5","4","5","1","2","1","1","2","1","1","1","1","1","0","1","1","0","0","0","1","0","1","1","0","1","0","1","4","1","2","1","1","1","2","2","2","1","718833172124532736","胡","536","","","","","","","","","","","","","","","","","","","","","","","","","","","","","","feedback_test","","","","","","","","","",""
"701","","j","psychophysics","39","187688","0.0-7.0-0.0-1.0-0.0-0.15","4","3","4","4","4","3","3","4","4","4","4","5","5","5","4","4","5","5","4","5","1","2","1","1","2","1","1","1","1","1","0","1","1","0","0","0","1","0","1","1","0","1","0","1","4","1","2","1","1","1","2","2","2","1","718833172124532736","胡","536","","","","nonmatch","","","","","","","","","","","","","","key","j","16.632930693069085","768","428","j","true","nonmatch","img/circle.png","五边","圆形","ALT1_1","prac_ALT1_1","","","","","","","","","",""
"null","<span style='color:GreenYellow; font-size: 70px;'>正确! </span>","null","html-keyboard-response","40","188196","0.0-7.0-0.0-1.0-0.0-1.15","4","3","4","4","4","3","3","4","4","4","4","5","5","5","4","4","5","5","4","5","1","2","1","1","2","1","1","1","1","1","0","1","1","0","0","0","1","0","1","1","0","1","0","1","4","1","2","1","1","1","2","2","2","1","718833172124532736","胡","536","","","","","","","","","","","","","","","","","","","","","","","","","","","","","","feedback_test","","","","","","","","","",""
"666","","f","psychophysics","41","189864","0.0-7.0-0.0-1.0-0.0-0.16","4","3","4","4","4","3","3","4","4","4","4","5","5","5","4","4","5","5","4","5","1","2","1","1","2","1","1","1","1","1","0","1","1","0","0","0","1","0","1","1","0","1","0","1","4","1","2","1","1","1","2","2","2","1","718833172124532736","胡","536","","","","match","","","","","","","","","","","","","","key","f","16.65993939393942","768","428","f","true","match","img/pentagon.png","五边","五边","ALT1_1","prac_ALT1_1","","","","","","","","","",""
"null","<span style='color:GreenYellow; font-size: 70px;'>正确! </span>","null","html-keyboard-response","42","190366","0.0-7.0-0.0-1.0-0.0-1.16","4","3","4","4","4","3","3","4","4","4","4","5","5","5","4","4","5","5","4","5","1","2","1","1","2","1","1","1","1","1","0","1","1","0","0","0","1","0","1","1","0","1","0","1","4","1","2","1","1","1","2","2","2","1","718833172124532736","胡","536","","","","","","","","","","","","","","","","","","","","","","","","","","","","","","feedback_test","","","","","","","","","",""
"724","","j","psychophysics","43","192092","0.0-7.0-0.0-1.0-0.0-0.17","4","3","4","4","4","3","3","4","4","4","4","5","5","5","4","4","5","5","4","5","1","2","1","1","2","1","1","1","1","1","0","1","1","0","0","0","1","0","1","1","0","1","0","1","4","1","2","1","1","1","2","2","2","1","718833172124532736","胡","536","","","","nonmatch","","","","","","","","","","","","","","key","j","16.637854368931972","768","428","j","true","nonmatch","img/triangle.png","菱形","三角","ALT1_1","prac_ALT1_1","","","","","","","","","",""
"null","<span style='color:GreenYellow; font-size: 70px;'>正确! </span>","null","html-keyboard-response","44","192592","0.0-7.0-0.0-1.0-0.0-1.17","4","3","4","4","4","3","3","4","4","4","4","5","5","5","4","4","5","5","4","5","1","2","1","1","2","1","1","1","1","1","0","1","1","0","0","0","1","0","1","1","0","1","0","1","4","1","2","1","1","1","2","2","2","1","718833172124532736","胡","536","","","","","","","","","","","","","","","","","","","","","","","","","","","","","","feedback_test","","","","","","","","","",""
"648","","f","psychophysics","45","194244","0.0-7.0-0.0-1.0-0.0-0.18","4","3","4","4","4","3","3","4","4","4","4","5","5","5","4","4","5","5","4","5","1","2","1","1","2","1","1","1","1","1","0","1","1","0","0","0","1","0","1","1","0","1","0","1","4","1","2","1","1","1","2","2","2","1","718833172124532736","胡","536","","","","match","","","","","","","","","","","","","","key","f","16.659969387755062","768","428","f","true","match","img/triangle.png","三角","三角","ALT1_1","prac_ALT1_1","","","","","","","","","",""
"null","<span style='color:GreenYellow; font-size: 70px;'>正确! </span>","null","html-keyboard-response","46","194757","0.0-7.0-0.0-1.0-0.0-1.18","4","3","4","4","4","3","3","4","4","4","4","5","5","5","4","4","5","5","4","5","1","2","1","1","2","1","1","1","1","1","0","1","1","0","0","0","1","0","1","1","0","1","0","1","4","1","2","1","1","1","2","2","2","1","718833172124532736","胡","536","","","","","","","","","","","","","","","","","","","","","","","","","","","","","","feedback_test","","","","","","","","","",""
"582","","f","psychophysics","47","196340","0.0-7.0-0.0-1.0-0.0-0.19","4","3","4","4","4","3","3","4","4","4","4","5","5","5","4","4","5","5","4","5","1","2","1","1","2","1","1","1","1","1","0","1","1","0","0","0","1","0","1","1","0","1","0","1","4","1","2","1","1","1","2","2","2","1","718833172124532736","胡","536","","","","match","","","","","","","","","","","","","","key","f","16.66175531914911","768","428","f","true","match","img/circle.png","圆形","圆形","ALT1_1","prac_ALT1_1","","","","","","","","","",""
"null","<span style='color:GreenYellow; font-size: 70px;'>正确! </span>","null","html-keyboard-response","48","196841","0.0-7.0-0.0-1.0-0.0-1.19","4","3","4","4","4","3","3","4","4","4","4","5","5","5","4","4","5","5","4","5","1","2","1","1","2","1","1","1","1","1","0","1","1","0","0","0","1","0","1","1","0","1","0","1","4","1","2","1","1","1","2","2","2","1","718833172124532736","胡","536","","","","","","","","","","","","","","","","","","","","","","","","","","","","","","feedback_test","","","","","","","","","",""
"570","","f","psychophysics","49","198412","0.0-7.0-0.0-1.0-0.0-0.20","4","3","4","4","4","3","3","4","4","4","4","5","5","5","4","4","5","5","4","5","1","2","1","1","2","1","1","1","1","1","0","1","1","0","0","0","1","0","1","1","0","1","0","1","4","1","2","1","1","1","2","2","2","1","718833172124532736","胡","536","","","","match","","","","","","","","","","","","","","key","f","16.660817204301136","768","428","f","true","match","img/circle.png","圆形","圆形","ALT1_1","prac_ALT1_1","","","","","","","","","",""
"null","<span style='color:GreenYellow; font-size: 70px;'>正确! </span>","null","html-keyboard-response","50","198912","0.0-7.0-0.0-1.0-0.0-1.20","4","3","4","4","4","3","3","4","4","4","4","5","5","5","4","4","5","5","4","5","1","2","1","1","2","1","1","1","1","1","0","1","1","0","0","0","1","0","1","1","0","1","0","1","4","1","2","1","1","1","2","2","2","1","718833172124532736","胡","536","","","","","","","","","","","","","","","","","","","","","","","","","","","","","","feedback_test","","","","","","","","","",""
"695","","j","psychophysics","51","200608","0.0-7.0-0.0-1.0-0.0-0.21","4","3","4","4","4","3","3","4","4","4","4","5","5","5","4","4","5","5","4","5","1","2","1","1","2","1","1","1","1","1","0","1","1","0","0","0","1","0","1","1","0","1","0","1","4","1","2","1","1","1","2","2","2","1","718833172124532736","胡","536","","","","nonmatch","","","","","","","","","","","","","","key","j","16.633069306930427","768","428","j","true","nonmatch","img/triangle.png","圆形","三角","ALT1_1","prac_ALT1_1","","","","","","","","","",""
"null","<span style='color:GreenYellow; font-size: 70px;'>正确! </span>","null","html-keyboard-response","52","201110","0.0-7.0-0.0-1.0-0.0-1.21","4","3","4","4","4","3","3","4","4","4","4","5","5","5","4","4","5","5","4","5","1","2","1","1","2","1","1","1","1","1","0","1","1","0","0","0","1","0","1","1","0","1","0","1","4","1","2","1","1","1","2","2","2","1","718833172124532736","胡","536","","","","","","","","","","","","","","","","","","","","","","","","","","","","","","feedback_test","","","","","","","","","",""
"521","","j","psychophysics","53","202632","0.0-7.0-0.0-1.0-0.0-0.22","4","3","4","4","4","3","3","4","4","4","4","5","5","5","4","4","5","5","4","5","1","2","1","1","2","1","1","1","1","1","0","1","1","0","0","0","1","0","1","1","0","1","0","1","4","1","2","1","1","1","2","2","2","1","718833172124532736","胡","536","","","","nonmatch","","","","","","","","","","","","","","key","j","16.66581111111122","768","428","f","false","match","img/triangle.png","三角","三角","ALT1_1","prac_ALT1_1","","","","","","","","","",""
"null","<span style='color:red; font-size: 70px;'>错误! </span>","null","html-keyboard-response","54","203133","0.0-7.0-0.0-1.0-0.0-1.22","4","3","4","4","4","3","3","4","4","4","4","5","5","5","4","4","5","5","4","5","1","2","1","1","2","1","1","1","1","1","0","1","1","0","0","0","1","0","1","1","0","1","0","1","4","1","2","1","1","1","2","2","2","1","718833172124532736","胡","536","","","","","","","","","","","","","","","","","","","","","","","","","","","","","","feedback_test","","","","","","","","","",""
"906","","j","psychophysics","55","205040","0.0-7.0-0.0-1.0-0.0-0.23","4","3","4","4","4","3","3","4","4","4","4","5","5","5","4","4","5","5","4","5","1","2","1","1","2","1","1","1","1","1","0","1","1","0","0","0","1","0","1","1","0","1","0","1","4","1","2","1","1","1","2","2","2","1","718833172124532736","胡","536","","","","nonmatch","","","","","","","","","","","","","","key","j","16.65516814159279","768","428","j","true","nonmatch","img/pentagon.png","圆形","五边","ALT1_1","prac_ALT1_1","","","","","","","","","",""
"null","<span style='color:GreenYellow; font-size: 70px;'>正确! </span>","null","html-keyboard-response","56","205541","0.0-7.0-0.0-1.0-0.0-1.23","4","3","4","4","4","3","3","4","4","4","4","5","5","5","4","4","5","5","4","5","1","2","1","1","2","1","1","1","1","1","0","1","1","0","0","0","1","0","1","1","0","1","0","1","4","1","2","1","1","1","2","2","2","1","718833172124532736","胡","536","","","","","","","","","","","","","","","","","","","","","","","","","","","","","","feedback_test","","","","","","","","","",""
"680","","f","psychophysics","57","207224","0.0-7.0-0.0-1.0-0.0-0.24","4","3","4","4","4","3","3","4","4","4","4","5","5","5","4","4","5","5","4","5","1","2","1","1","2","1","1","1","1","1","0","1","1","0","0","0","1","0","1","1","0","1","0","1","4","1","2","1","1","1","2","2","2","1","718833172124532736","胡","536","","","","match","","","","","","","","","","","","","","key","f","16.647060000000057","768","428","f","true","match","img/circle.png","圆形","圆形","ALT1_1","prac_ALT1_1","","","","","","","","","",""
"null","<span style='color:GreenYellow; font-size: 70px;'>正确! </span>","null","html-keyboard-response","58","207725","0.0-7.0-0.0-1.0-0.0-1.24","4","3","4","4","4","3","3","4","4","4","4","5","5","5","4","4","5","5","4","5","1","2","1","1","2","1","1","1","1","1","0","1","1","0","0","0","1","0","1","1","0","1","0","1","4","1","2","1","1","1","2","2","2","1","718833172124532736","胡","536","","","","","","","","","","","","","","","","","","","","","","","","","","","","","","feedback_test","","","","","","","","","",""
"669","","f","psychophysics","59","209395","0.0-7.0-0.0-1.0-0.0-0.25","4","3","4","4","4","3","3","4","4","4","4","5","5","5","4","4","5","5","4","5","1","2","1","1","2","1","1","1","1","1","0","1","1","0","0","0","1","0","1","1","0","1","0","1","4","1","2","1","1","1","2","2","2","1","718833172124532736","胡","536","","","","match","","","","","","","","","","","","","","key","f","16.625343434343282","768","428","f","true","match","img/pentagon.png","五边","五边","ALT1_1","prac_ALT1_1","","","","","","","","","",""
"null","<span style='color:GreenYellow; font-size: 70px;'>正确! </span>","null","html-keyboard-response","60","209896","0.0-7.0-0.0-1.0-0.0-1.25","4","3","4","4","4","3","3","4","4","4","4","5","5","5","4","4","5","5","4","5","1","2","1","1","2","1","1","1","1","1","0","1","1","0","0","0","1","0","1","1","0","1","0","1","4","1","2","1","1","1","2","2","2","1","718833172124532736","胡","536","","","","","","","","","","","","","","","","","","","","","","","","","","","","","","feedback_test","","","","","","","","","",""
"622","","f","psychophysics","61","211520","0.0-7.0-0.0-1.0-0.0-0.26","4","3","4","4","4","3","3","4","4","4","4","5","5","5","4","4","5","5","4","5","1","2","1","1","2","1","1","1","1","1","0","1","1","0","0","0","1","0","1","1","0","1","0","1","4","1","2","1","1","1","2","2","2","1","718833172124532736","胡","536","","","","match","","","","","","","","","","","","","","key","f","16.658374999999978","768","428","f","true","match","img/circle.png","圆形","圆形","ALT1_1","prac_ALT1_1","","","","","","","","","",""
"null","<span style='color:GreenYellow; font-size: 70px;'>正确! </span>","null","html-keyboard-response","62","212021","0.0-7.0-0.0-1.0-0.0-1.26","4","3","4","4","4","3","3","4","4","4","4","5","5","5","4","4","5","5","4","5","1","2","1","1","2","1","1","1","1","1","0","1","1","0","0","0","1","0","1","1","0","1","0","1","4","1","2","1","1","1","2","2","2","1","718833172124532736","胡","536","","","","","","","","","","","","","","","","","","","","","","","","","","","","","","feedback_test","","","","","","","","","",""
"713","","f","psychophysics","63","213737","0.0-7.0-0.0-1.0-0.0-0.27","4","3","4","4","4","3","3","4","4","4","4","5","5","5","4","4","5","5","4","5","1","2","1","1","2","1","1","1","1","1","0","1","1","0","0","0","1","0","1","1","0","1","0","1","4","1","2","1","1","1","2","2","2","1","718833172124532736","胡","536","","","","match","","","","","","","","","","","","","","key","f","16.642235294117665","768","428","f","true","match","img/triangle.png","三角","三角","ALT1_1","prac_ALT1_1","","","","","","","","","",""
"null","<span style='color:GreenYellow; font-size: 70px;'>正确! </span>","null","html-keyboard-response","64","214237","0.0-7.0-0.0-1.0-0.0-1.27","4","3","4","4","4","3","3","4","4","4","4","5","5","5","4","4","5","5","4","5","1","2","1","1","2","1","1","1","1","1","0","1","1","0","0","0","1","0","1","1","0","1","0","1","4","1","2","1","1","1","2","2","2","1","718833172124532736","胡","536","","","","","","","","","","","","","","","","","","","","","","","","","","","","","","feedback_test","","","","","","","","","",""
"682","","j","psychophysics","65","215920","0.0-7.0-0.0-1.0-0.0-0.28","4","3","4","4","4","3","3","4","4","4","4","5","5","5","4","4","5","5","4","5","1","2","1","1","2","1","1","1","1","1","0","1","1","0","0","0","1","0","1","1","0","1","0","1","4","1","2","1","1","1","2","2","2","1","718833172124532736","胡","536","","","","nonmatch","","","","","","","","","","","","","","key","j","16.659130000000005","768","428","j","true","nonmatch","img/circle.png","五边","圆形","ALT1_1","prac_ALT1_1","","","","","","","","","",""
"null","<span style='color:GreenYellow; font-size: 70px;'>正确! </span>","null","html-keyboard-response","66","216420","0.0-7.0-0.0-1.0-0.0-1.28","4","3","4","4","4","3","3","4","4","4","4","5","5","5","4","4","5","5","4","5","1","2","1","1","2","1","1","1","1","1","0","1","1","0","0","0","1","0","1","1","0","1","0","1","4","1","2","1","1","1","2","2","2","1","718833172124532736","胡","536","","","","","","","","","","","","","","","","","","","","","","","","","","","","","","feedback_test","","","","","","","","","",""
"630","","f","psychophysics","67","218052","0.0-7.0-0.0-1.0-0.0-0.29","4","3","4","4","4","3","3","4","4","4","4","5","5","5","4","4","5","5","4","5","1","2","1","1","2","1","1","1","1","1","0","1","1","0","0","0","1","0","1","1","0","1","0","1","4","1","2","1","1","1","2","2","2","1","718833172124532736","胡","536","","","","match","","","","","","","","","","","","","","key","f","16.62851546391738","768","428","f","true","match","img/pentagon.png","五边","五边","ALT1_1","prac_ALT1_1","","","","","","","","","",""
"null","<span style='color:GreenYellow; font-size: 70px;'>正确! </span>","null","html-keyboard-response","68","218552","0.0-7.0-0.0-1.0-0.0-1.29","4","3","4","4","4","3","3","4","4","4","4","5","5","5","4","4","5","5","4","5","1","2","1","1","2","1","1","1","1","1","0","1","1","0","0","0","1","0","1","1","0","1","0","1","4","1","2","1","1","1","2","2","2","1","718833172124532736","胡","536","","","","","","","","","","","","","","","","","","","","","","","","","","","","","","feedback_test","","","","","","","","","",""
"666","","f","psychophysics","69","220220","0.0-7.0-0.0-1.0-0.0-0.30","4","3","4","4","4","3","3","4","4","4","4","5","5","5","4","4","5","5","4","5","1","2","1","1","2","1","1","1","1","1","0","1","1","0","0","0","1","0","1","1","0","1","0","1","4","1","2","1","1","1","2","2","2","1","718833172124532736","胡","536","","","","match","","","","","","","","","","","","","","key","f","16.63064646464655","768","428","f","true","match","img/triangle.png","三角","三角","ALT1_1","prac_ALT1_1","","","","","","","","","",""
"null","<span style='color:GreenYellow; font-size: 70px;'>正确! </span>","null","html-keyboard-response","70","220721","0.0-7.0-0.0-1.0-0.0-1.30","4","3","4","4","4","3","3","4","4","4","4","5","5","5","4","4","5","5","4","5","1","2","1","1","2","1","1","1","1","1","0","1","1","0","0","0","1","0","1","1","0","1","0","1","4","1","2","1","1","1","2","2","2","1","718833172124532736","胡","536","","","","","","","","","","","","","","","","","","","","","","","","","","","","","","feedback_test","","","","","","","","","",""
"704","","j","psychophysics","71","222427","0.0-7.0-0.0-1.0-0.0-0.31","4","3","4","4","4","3","3","4","4","4","4","5","5","5","4","4","5","5","4","5","1","2","1","1","2","1","1","1","1","1","0","1","1","0","0","0","1","0","1","1","0","1","0","1","4","1","2","1","1","1","2","2","2","1","718833172124532736","胡","536","","","","nonmatch","","","","","","","","","","","","","","key","j","16.658294117647138","768","428","j","true","nonmatch","img/circle.png","菱形","圆形","ALT1_1","prac_ALT1_1","","","","","","","","","",""
"null","<span style='color:GreenYellow; font-size: 70px;'>正确! </span>","null","html-keyboard-response","72","222928","0.0-7.0-0.0-1.0-0.0-1.31","4","3","4","4","4","3","3","4","4","4","4","5","5","5","4","4","5","5","4","5","1","2","1","1","2","1","1","1","1","1","0","1","1","0","0","0","1","0","1","1","0","1","0","1","4","1","2","1","1","1","2","2","2","1","718833172124532736","胡","536","","","","","","","","","","","","","","","","","","","","","","","","","","","","","","feedback_test","","","","","","","","","",""
"627","","f","psychophysics","73","224557","0.0-7.0-0.0-1.0-0.0-0.32","4","3","4","4","4","3","3","4","4","4","4","5","5","5","4","4","5","5","4","5","1","2","1","1","2","1","1","1","1","1","0","1","1","0","0","0","1","0","1","1","0","1","0","1","4","1","2","1","1","1","2","2","2","1","718833172124532736","胡","536","","","","match","","","","","","","","","","","","","","key","f","16.659999999999894","768","428","f","true","match","img/triangle.png","三角","三角","ALT1_1","prac_ALT1_1","","","","","","","","","",""
"null","<span style='color:GreenYellow; font-size: 70px;'>正确! </span>","null","html-keyboard-response","74","225058","0.0-7.0-0.0-1.0-0.0-1.32","4","3","4","4","4","3","3","4","4","4","4","5","5","5","4","4","5","5","4","5","1","2","1","1","2","1","1","1","1","1","0","1","1","0","0","0","1","0","1","1","0","1","0","1","4","1","2","1","1","1","2","2","2","1","718833172124532736","胡","536","","","","","","","","","","","","","","","","","","","","","","","","","","","","","","feedback_test","","","","","","","","","",""
"628","","f","psychophysics","75","226689","0.0-7.0-0.0-1.0-0.0-0.33","4","3","4","4","4","3","3","4","4","4","4","5","5","5","4","4","5","5","4","5","1","2","1","1","2","1","1","1","1","1","0","1","1","0","0","0","1","0","1","1","0","1","0","1","4","1","2","1","1","1","2","2","2","1","718833172124532736","胡","536","","","","match","","","","","","","","","","","","","","key","f","16.656670103092633","768","428","f","true","match","img/pentagon.png","五边","五边","ALT1_1","prac_ALT1_1","","","","","","","","","",""
"null","<span style='color:GreenYellow; font-size: 70px;'>正确! </span>","null","html-keyboard-response","76","227190","0.0-7.0-0.0-1.0-0.0-1.33","4","3","4","4","4","3","3","4","4","4","4","5","5","5","4","4","5","5","4","5","1","2","1","1","2","1","1","1","1","1","0","1","1","0","0","0","1","0","1","1","0","1","0","1","4","1","2","1","1","1","2","2","2","1","718833172124532736","胡","536","","","","","","","","","","","","","","","","","","","","","","","","","","","","","","feedback_test","","","","","","","","","",""
"699","","j","psychophysics","77","228903","0.0-7.0-0.0-1.0-0.0-0.34","4","3","4","4","4","3","3","4","4","4","4","5","5","5","4","4","5","5","4","5","1","2","1","1","2","1","1","1","1","1","0","1","1","0","0","0","1","0","1","1","0","1","0","1","4","1","2","1","1","1","2","2","2","1","718833172124532736","胡","536","","","","nonmatch","","","","","","","","","","","","","","key","j","16.65397029702977","768","428","j","true","nonmatch","img/diamond.png","圆形","菱形","ALT1_1","prac_ALT1_1","","","","","","","","","",""
"null","<span style='color:GreenYellow; font-size: 70px;'>正确! </span>","null","html-keyboard-response","78","229404","0.0-7.0-0.0-1.0-0.0-1.34","4","3","4","4","4","3","3","4","4","4","4","5","5","5","4","4","5","5","4","5","1","2","1","1","2","1","1","1","1","1","0","1","1","0","0","0","1","0","1","1","0","1","0","1","4","1","2","1","1","1","2","2","2","1","718833172124532736","胡","536","","","","","","","","","","","","","","","","","","","","","","","","","","","","","","feedback_test","","","","","","","","","",""
"700","","j","psychophysics","79","231106","0.0-7.0-0.0-1.0-0.0-0.35","4","3","4","4","4","3","3","4","4","4","4","5","5","5","4","4","5","5","4","5","1","2","1","1","2","1","1","1","1","1","0","1","1","0","0","0","1","0","1","1","0","1","0","1","4","1","2","1","1","1","2","2","2","1","718833172124532736","胡","536","","","","nonmatch","","","","","","","","","","","","","","key","j","16.663732673267436","768","428","j","true","nonmatch","img/triangle.png","菱形","三角","ALT1_1","prac_ALT1_1","","","","","","","","","",""
"null","<span style='color:GreenYellow; font-size: 70px;'>正确! </span>","null","html-keyboard-response","80","231606","0.0-7.0-0.0-1.0-0.0-1.35","4","3","4","4","4","3","3","4","4","4","4","5","5","5","4","4","5","5","4","5","1","2","1","1","2","1","1","1","1","1","0","1","1","0","0","0","1","0","1","1","0","1","0","1","4","1","2","1","1","1","2","2","2","1","718833172124532736","胡","536","","","","","","","","","","","","","","","","","","","","","","","","","","","","","","feedback_test","","","","","","","","","",""
"754","","j","psychophysics","81","233362","0.0-7.0-0.0-1.0-0.0-0.36","4","3","4","4","4","3","3","4","4","4","4","5","5","5","4","4","5","5","4","5","1","2","1","1","2","1","1","1","1","1","0","1","1","0","0","0","1","0","1","1","0","1","0","1","4","1","2","1","1","1","2","2","2","1","718833172124532736","胡","536","","","","nonmatch","","","","","","","","","","","","","","key","j","16.663923076923172","768","428","j","true","nonmatch","img/pentagon.png","三角","五边","ALT1_1","prac_ALT1_1","","","","","","","","","",""
"null","<span style='color:GreenYellow; font-size: 70px;'>正确! </span>","null","html-keyboard-response","82","233863","0.0-7.0-0.0-1.0-0.0-1.36","4","3","4","4","4","3","3","4","4","4","4","5","5","5","4","4","5","5","4","5","1","2","1","1","2","1","1","1","1","1","0","1","1","0","0","0","1","0","1","1","0","1","0","1","4","1","2","1","1","1","2","2","2","1","718833172124532736","胡","536","","","","","","","","","","","","","","","","","","","","","","","","","","","","","","feedback_test","","","","","","","","","",""
"709","","j","psychophysics","83","235574","0.0-7.0-0.0-1.0-0.0-0.37","4","3","4","4","4","3","3","4","4","4","4","5","5","5","4","4","5","5","4","5","1","2","1","1","2","1","1","1","1","1","0","1","1","0","0","0","1","0","1","1","0","1","0","1","4","1","2","1","1","1","2","2","2","1","718833172124532736","胡","536","","","","nonmatch","","","","","","","","","","","","","","key","j","16.65374257425734","768","428","j","true","nonmatch","img/triangle.png","圆形","三角","ALT1_1","prac_ALT1_1","","","","","","","","","",""
"null","<span style='color:GreenYellow; font-size: 70px;'>正确! </span>","null","html-keyboard-response","84","236074","0.0-7.0-0.0-1.0-0.0-1.37","4","3","4","4","4","3","3","4","4","4","4","5","5","5","4","4","5","5","4","5","1","2","1","1","2","1","1","1","1","1","0","1","1","0","0","0","1","0","1","1","0","1","0","1","4","1","2","1","1","1","2","2","2","1","718833172124532736","胡","536","","","","","","","","","","","","","","","","","","","","","","","","","","","","","","feedback_test","","","","","","","","","",""
"818","","j","psychophysics","85","237894","0.0-7.0-0.0-1.0-0.0-0.38","4","3","4","4","4","3","3","4","4","4","4","5","5","5","4","4","5","5","4","5","1","2","1","1","2","1","1","1","1","1","0","1","1","0","0","0","1","0","1","1","0","1","0","1","4","1","2","1","1","1","2","2","2","1","718833172124532736","胡","536","","","","nonmatch","","","","","","","","","","","","","","key","j","16.63802777777784","768","428","j","true","nonmatch","img/pentagon.png","圆形","五边","ALT1_1","prac_ALT1_1","","","","","","","","","",""
"null","<span style='color:GreenYellow; font-size: 70px;'>正确! </span>","null","html-keyboard-response","86","238395","0.0-7.0-0.0-1.0-0.0-1.38","4","3","4","4","4","3","3","4","4","4","4","5","5","5","4","4","5","5","4","5","1","2","1","1","2","1","1","1","1","1","0","1","1","0","0","0","1","0","1","1","0","1","0","1","4","1","2","1","1","1","2","2","2","1","718833172124532736","胡","536","","","","","","","","","","","","","","","","","","","","","","","","","","","","","","feedback_test","","","","","","","","","",""
"767","","j","psychophysics","87","240163","0.0-7.0-0.0-1.0-0.0-0.39","4","3","4","4","4","3","3","4","4","4","4","5","5","5","4","4","5","5","4","5","1","2","1","1","2","1","1","1","1","1","0","1","1","0","0","0","1","0","1","1","0","1","0","1","4","1","2","1","1","1","2","2","2","1","718833172124532736","胡","536","","","","nonmatch","","","","","","","","","","","","","","key","j","16.657828571428713","768","428","j","true","nonmatch","img/triangle.png","五边","三角","ALT1_1","prac_ALT1_1","","","","","","","","","",""
"null","<span style='color:GreenYellow; font-size: 70px;'>正确! </span>","null","html-keyboard-response","88","240665","0.0-7.0-0.0-1.0-0.0-1.39","4","3","4","4","4","3","3","4","4","4","4","5","5","5","4","4","5","5","4","5","1","2","1","1","2","1","1","1","1","1","0","1","1","0","0","0","1","0","1","1","0","1","0","1","4","1","2","1","1","1","2","2","2","1","718833172124532736","胡","536","","","","","","","","","","","","","","","","","","","","","","","","","","","","","","feedback_test","","","","","","","","","",""
"656","","f","psychophysics","89","242323","0.0-7.0-0.0-1.0-0.0-0.40","4","3","4","4","4","3","3","4","4","4","4","5","5","5","4","4","5","5","4","5","1","2","1","1","2","1","1","1","1","1","0","1","1","0","0","0","1","0","1","1","0","1","0","1","4","1","2","1","1","1","2","2","2","1","718833172124532736","胡","536","","","","match","","","","","","","","","","","","","","key","f","16.65588775510206","768","428","f","true","match","img/diamond.png","菱形","菱形","ALT1_1","prac_ALT1_1","","","","","","","","","",""
"null","<span style='color:GreenYellow; font-size: 70px;'>正确! </span>","null","html-keyboard-response","90","242824","0.0-7.0-0.0-1.0-0.0-1.40","4","3","4","4","4","3","3","4","4","4","4","5","5","5","4","4","5","5","4","5","1","2","1","1","2","1","1","1","1","1","0","1","1","0","0","0","1","0","1","1","0","1","0","1","4","1","2","1","1","1","2","2","2","1","718833172124532736","胡","536","","","","","","","","","","","","","","","","","","","","","","","","","","","","","","feedback_test","","","","","","","","","",""
"860","","f","psychophysics","91","244686","0.0-7.0-0.0-1.0-0.0-0.41","4","3","4","4","4","3","3","4","4","4","4","5","5","5","4","4","5","5","4","5","1","2","1","1","2","1","1","1","1","1","0","1","1","0","0","0","1","0","1","1","0","1","0","1","4","1","2","1","1","1","2","2","2","1","718833172124532736","胡","536","","","","match","","","","","","","","","","","","","","key","f","16.607594594594588","768","428","j","false","nonmatch","img/pentagon.png","菱形","五边","ALT1_1","prac_ALT1_1","","","","","","","","","",""
"null","<span style='color:red; font-size: 70px;'>错误! </span>","null","html-keyboard-response","92","245194","0.0-7.0-0.0-1.0-0.0-1.41","4","3","4","4","4","3","3","4","4","4","4","5","5","5","4","4","5","5","4","5","1","2","1","1","2","1","1","1","1","1","0","1","1","0","0","0","1","0","1","1","0","1","0","1","4","1","2","1","1","1","2","2","2","1","718833172124532736","胡","536","","","","","","","","","","","","","","","","","","","","","","","","","","","","","","feedback_test","","","","","","","","","",""
"662","","f","psychophysics","93","246857","0.0-7.0-0.0-1.0-0.0-0.42","4","3","4","4","4","3","3","4","4","4","4","5","5","5","4","4","5","5","4","5","1","2","1","1","2","1","1","1","1","1","0","1","1","0","0","0","1","0","1","1","0","1","0","1","4","1","2","1","1","1","2","2","2","1","718833172124532736","胡","536","","","","match","","","","","","","","","","","","","","key","f","16.655000000000022","768","428","f","true","match","img/diamond.png","菱形","菱形","ALT1_1","prac_ALT1_1","","","","","","","","","",""
"null","<span style='color:GreenYellow; font-size: 70px;'>正确! </span>","null","html-keyboard-response","94","247359","0.0-7.0-0.0-1.0-0.0-1.42","4","3","4","4","4","3","3","4","4","4","4","5","5","5","4","4","5","5","4","5","1","2","1","1","2","1","1","1","1","1","0","1","1","0","0","0","1","0","1","1","0","1","0","1","4","1","2","1","1","1","2","2","2","1","718833172124532736","胡","536","","","","","","","","","","","","","","","","","","","","","","","","","","","","","","feedback_test","","","","","","","","","",""
"581","","j","psychophysics","95","248942","0.0-7.0-0.0-1.0-0.0-0.43","4","3","4","4","4","3","3","4","4","4","4","5","5","5","4","4","5","5","4","5","1","2","1","1","2","1","1","1","1","1","0","1","1","0","0","0","1","0","1","1","0","1","0","1","4","1","2","1","1","1","2","2","2","1","718833172124532736","胡","536","","","","nonmatch","","","","","","","","","","","","","","key","j","16.656468085106525","768","428","j","true","nonmatch","img/circle.png","三角","圆形","ALT1_1","prac_ALT1_1","","","","","","","","","",""
"null","<span style='color:GreenYellow; font-size: 70px;'>正确! </span>","null","html-keyboard-response","96","249443","0.0-7.0-0.0-1.0-0.0-1.43","4","3","4","4","4","3","3","4","4","4","4","5","5","5","4","4","5","5","4","5","1","2","1","1","2","1","1","1","1","1","0","1","1","0","0","0","1","0","1","1","0","1","0","1","4","1","2","1","1","1","2","2","2","1","718833172124532736","胡","536","","","","","","","","","","","","","","","","","","","","","","","","","","","","","","feedback_test","","","","","","","","","",""
"606","","f","psychophysics","97","251050","0.0-7.0-0.0-1.0-0.0-0.44","4","3","4","4","4","3","3","4","4","4","4","5","5","5","4","4","5","5","4","5","1","2","1","1","2","1","1","1","1","1","0","1","1","0","0","0","1","0","1","1","0","1","0","1","4","1","2","1","1","1","2","2","2","1","718833172124532736","胡","536","","","","match","","","","","","","","","","","","","","key","f","16.658600000000106","768","428","f","true","match","img/circle.png","圆形","圆形","ALT1_1","prac_ALT1_1","","","","","","","","","",""
"null","<span style='color:GreenYellow; font-size: 70px;'>正确! </span>","null","html-keyboard-response","98","251563","0.0-7.0-0.0-1.0-0.0-1.44","4","3","4","4","4","3","3","4","4","4","4","5","5","5","4","4","5","5","4","5","1","2","1","1","2","1","1","1","1","1","0","1","1","0","0","0","1","0","1","1","0","1","0","1","4","1","2","1","1","1","2","2","2","1","718833172124532736","胡","536","","","","","","","","","","","","","","","","","","","","","","","","","","","","","","feedback_test","","","","","","","","","",""
"596","","j","psychophysics","99","253162","0.0-7.0-0.0-1.0-0.0-0.45","4","3","4","4","4","3","3","4","4","4","4","5","5","5","4","4","5","5","4","5","1","2","1","1","2","1","1","1","1","1","0","1","1","0","0","0","1","0","1","1","0","1","0","1","4","1","2","1","1","1","2","2","2","1","718833172124532736","胡","536","","","","nonmatch","","","","","","","","","","","","","","key","j","16.66000000000012","768","428","j","true","nonmatch","img/diamond.png","三角","菱形","ALT1_1","prac_ALT1_1","","","","","","","","","",""
"null","<span style='color:GreenYellow; font-size: 70px;'>正确! </span>","null","html-keyboard-response","100","253663","0.0-7.0-0.0-1.0-0.0-1.45","4","3","4","4","4","3","3","4","4","4","4","5","5","5","4","4","5","5","4","5","1","2","1","1","2","1","1","1","1","1","0","1","1","0","0","0","1","0","1","1","0","1","0","1","4","1","2","1","1","1","2","2","2","1","718833172124532736","胡","536","","","","","","","","","","","","","","","","","","","","","","","","","","","","","","feedback_test","","","","","","","","","",""
"637","","f","psychophysics","101","255302","0.0-7.0-0.0-1.0-0.0-0.46","4","3","4","4","4","3","3","4","4","4","4","5","5","5","4","4","5","5","4","5","1","2","1","1","2","1","1","1","1","1","0","1","1","0","0","0","1","0","1","1","0","1","0","1","4","1","2","1","1","1","2","2","2","1","718833172124532736","胡","536","","","","match","","","","","","","","","","","","","","key","f","16.65878350515466","768","428","f","true","match","img/diamond.png","菱形","菱形","ALT1_1","prac_ALT1_1","","","","","","","","","",""
"null","<span style='color:GreenYellow; font-size: 70px;'>正确! </span>","null","html-keyboard-response","102","255804","0.0-7.0-0.0-1.0-0.0-1.46","4","3","4","4","4","3","3","4","4","4","4","5","5","5","4","4","5","5","4","5","1","2","1","1","2","1","1","1","1","1","0","1","1","0","0","0","1","0","1","1","0","1","0","1","4","1","2","1","1","1","2","2","2","1","718833172124532736","胡","536","","","","","","","","","","","","","","","","","","","","","","","","","","","","","","feedback_test","","","","","","","","","",""
"605","","j","psychophysics","103","257410","0.0-7.0-0.0-1.0-0.0-0.47","4","3","4","4","4","3","3","4","4","4","4","5","5","5","4","4","5","5","4","5","1","2","1","1","2","1","1","1","1","1","0","1","1","0","0","0","1","0","1","1","0","1","0","1","4","1","2","1","1","1","2","2","2","1","718833172124532736","胡","536","","","","nonmatch","","","","","","","","","","","","","","key","j","16.66028421052615","768","428","j","true","nonmatch","img/diamond.png","五边","菱形","ALT1_1","prac_ALT1_1","","","","","","","","","",""
"null","<span style='color:GreenYellow; font-size: 70px;'>正确! </span>","null","html-keyboard-response","104","257914","0.0-7.0-0.0-1.0-0.0-1.47","4","3","4","4","4","3","3","4","4","4","4","5","5","5","4","4","5","5","4","5","1","2","1","1","2","1","1","1","1","1","0","1","1","0","0","0","1","0","1","1","0","1","0","1","4","1","2","1","1","1","2","2","2","1","718833172124532736","胡","536","","","","","","","","","","","","","","","","","","","","","","","","","","","","","","feedback_test","","","","","","","","","",""
"22510","<style>.context{color:white; font-size: 35px; line-height:40px}</style>                            <div><p class='context'>您正确回答了85% 的试次。</p><p class='context'>您的平均反应时为694毫秒。</p><p class='context'>恭喜您完成练习。按空格键进入正式实验。</p><p class='footer' style='font-size: 35px; line-height:40px;'>请在进入正式实验之前将您的<span style='color: lightgreen;'>食指</span>放在电脑键盘的相应键位上进行按键。</p>"," ","html-keyboard-response","105","280426","0.0-7.0-0.0-2.0","4","3","4","4","4","3","3","4","4","4","4","5","5","5","4","4","5","5","4","5","1","2","1","1","2","1","1","1","1","1","0","1","1","0","0","0","1","0","1","1","0","1","0","1","4","1","2","1","1","1","2","2","2","1","718833172124532736","胡","536","","","","","","","","","","","","","","","","","","","","","","","","","","","","","","","","","","","","","","","",""
"28560","
    <p style='color: white; font-size: 22px'>请您将手指放在按键上，准备进入正式的匹配任务。</p>
    <p> <div style = ""color: green""><按空格键进入下一阶段的匹配任务></div></p>
    "," ","html-keyboard-response","106","309003","0.0-7.0-0.0-3.0","4","3","4","4","4","3","3","4","4","4","4","5","5","5","4","4","5","5","4","5","1","2","1","1","2","1","1","1","1","1","0","1","1","0","0","0","1","0","1","1","0","1","0","1","4","1","2","1","1","1","2","2","2","1","718833172124532736","胡","536","","","","","","","","","","","","","","","","","","","","","","","","","","","","","","","","","","","","","","","",""
"862","","j","psychophysics","107","310867","0.0-7.0-0.0-4.0-0.0-0.0","4","3","4","4","4","3","3","4","4","4","4","5","5","5","4","4","5","5","4","5","1","2","1","1","2","1","1","1","1","1","0","1","1","0","0","0","1","0","1","1","0","1","0","1","4","1","2","1","1","1","2","2","2","1","718833172124532736","胡","536","","","","nonmatch","","","","","","","","","","","","","","key","j","16.657954954954917","768","428","j","true","nonmatch","img/circle.png","菱形","圆形","ALT1","formal_ALT1_1","","","","","","","","","",""
"null","<span style='color:GreenYellow; font-size: 70px;'>正确! </span>","null","html-keyboard-response","108","311368","0.0-7.0-0.0-4.0-0.0-1.0","4","3","4","4","4","3","3","4","4","4","4","5","5","5","4","4","5","5","4","5","1","2","1","1","2","1","1","1","1","1","0","1","1","0","0","0","1","0","1","1","0","1","0","1","4","1","2","1","1","1","2","2","2","1","718833172124532736","胡","536","","","","","","","","","","","","","","","","","","","","","","","","","","","","","","feedback_test","","","","","","","","","",""
"858","","j","psychophysics","109","313227","0.0-7.0-0.0-4.0-0.0-0.1","4","3","4","4","4","3","3","4","4","4","4","5","5","5","4","4","5","5","4","5","1","2","1","1","2","1","1","1","1","1","0","1","1","0","0","0","1","0","1","1","0","1","0","1","4","1","2","1","1","1","2","2","2","1","718833172124532736","胡","536","","","","nonmatch","","","","","","","","","","","","","","key","j","16.660189189189346","768","428","f","false","match","img/diamond.png","菱形","菱形","ALT1","formal_ALT1_1","","","","","","","","","",""
"null","<span style='color:red; font-size: 70px;'>错误! </span>","null","html-keyboard-response","110","313728","0.0-7.0-0.0-4.0-0.0-1.1","4","3","4","4","4","3","3","4","4","4","4","5","5","5","4","4","5","5","4","5","1","2","1","1","2","1","1","1","1","1","0","1","1","0","0","0","1","0","1","1","0","1","0","1","4","1","2","1","1","1","2","2","2","1","718833172124532736","胡","536","","","","","","","","","","","","","","","","","","","","","","","","","","","","","","feedback_test","","","","","","","","","",""
"565","","f","psychophysics","111","315295","0.0-7.0-0.0-4.0-0.0-0.2","4","3","4","4","4","3","3","4","4","4","4","5","5","5","4","4","5","5","4","5","1","2","1","1","2","1","1","1","1","1","0","1","1","0","0","0","1","0","1","1","0","1","0","1","4","1","2","1","1","1","2","2","2","1","718833172124532736","胡","536","","","","match","","","","","","","","","","","","","","key","f","16.661645161290277","768","428","f","true","match","img/circle.png","圆形","圆形","ALT1","formal_ALT1_1","","","","","","","","","",""
"null","<span style='color:GreenYellow; font-size: 70px;'>正确! </span>","null","html-keyboard-response","112","315801","0.0-7.0-0.0-4.0-0.0-1.2","4","3","4","4","4","3","3","4","4","4","4","5","5","5","4","4","5","5","4","5","1","2","1","1","2","1","1","1","1","1","0","1","1","0","0","0","1","0","1","1","0","1","0","1","4","1","2","1","1","1","2","2","2","1","718833172124532736","胡","536","","","","","","","","","","","","","","","","","","","","","","","","","","","","","","feedback_test","","","","","","","","","",""
"661","","j","psychophysics","113","317463","0.0-7.0-0.0-4.0-0.0-0.3","4","3","4","4","4","3","3","4","4","4","4","5","5","5","4","4","5","5","4","5","1","2","1","1","2","1","1","1","1","1","0","1","1","0","0","0","1","0","1","1","0","1","0","1","4","1","2","1","1","1","2","2","2","1","718833172124532736","胡","536","","","","nonmatch","","","","","","","","","","","","","","key","j","16.60872727272752","768","428","j","true","nonmatch","img/triangle.png","圆形","三角","ALT1","formal_ALT1_1","","","","","","","","","",""
"null","<span style='color:GreenYellow; font-size: 70px;'>正确! </span>","null","html-keyboard-response","114","317965","0.0-7.0-0.0-4.0-0.0-1.3","4","3","4","4","4","3","3","4","4","4","4","5","5","5","4","4","5","5","4","5","1","2","1","1","2","1","1","1","1","1","0","1","1","0","0","0","1","0","1","1","0","1","0","1","4","1","2","1","1","1","2","2","2","1","718833172124532736","胡","536","","","","","","","","","","","","","","","","","","","","","","","","","","","","","","feedback_test","","","","","","","","","",""
"null","","null","psychophysics","115","320167","0.0-7.0-0.0-4.0-0.0-0.4","4","3","4","4","4","3","3","4","4","4","4","5","5","5","4","4","5","5","4","5","1","2","1","1","2","1","1","1","1","1","0","1","1","0","0","0","1","0","1","1","0","1","0","1","4","1","2","1","1","1","2","2","2","1","718833172124532736","胡","536","","","","null","","","","","","","","","","","","","","key","null","16.65858778625972","768","428","j","false","nonmatch","img/circle.png","五边","圆形","ALT1","formal_ALT1_1","","","","","","","","","",""
"null","<span class='add_' style='color:yellow; font-size: 70px;'> 太慢! </span>","null","html-keyboard-response","116","320672","0.0-7.0-0.0-4.0-0.0-1.4","4","3","4","4","4","3","3","4","4","4","4","5","5","5","4","4","5","5","4","5","1","2","1","1","2","1","1","1","1","1","0","1","1","0","0","0","1","0","1","1","0","1","0","1","4","1","2","1","1","1","2","2","2","1","718833172124532736","胡","536","","","","","","","","","","","","","","","","","","","","","","","","","","","","","","feedback_test","","","","","","","","","",""
"527","","f","psychophysics","117","322200","0.0-7.0-0.0-4.0-0.0-0.5","4","3","4","4","4","3","3","4","4","4","4","5","5","5","4","4","5","5","4","5","1","2","1","1","2","1","1","1","1","1","0","1","1","0","0","0","1","0","1","1","0","1","0","1","4","1","2","1","1","1","2","2","2","1","718833172124532736","胡","536","","","","match","","","","","","","","","","","","","","key","f","16.65837777777795","768","428","j","false","nonmatch","img/diamond.png","圆形","菱形","ALT1","formal_ALT1_1","","","","","","","","","",""
"null","<span style='color:red; font-size: 70px;'>错误! </span>","null","html-keyboard-response","118","322701","0.0-7.0-0.0-4.0-0.0-1.5","4","3","4","4","4","3","3","4","4","4","4","5","5","5","4","4","5","5","4","5","1","2","1","1","2","1","1","1","1","1","0","1","1","0","0","0","1","0","1","1","0","1","0","1","4","1","2","1","1","1","2","2","2","1","718833172124532736","胡","536","","","","","","","","","","","","","","","","","","","","","","","","","","","","","","feedback_test","","","","","","","","","",""
"693","","f","psychophysics","119","324395","0.0-7.0-0.0-4.0-0.0-0.6","4","3","4","4","4","3","3","4","4","4","4","5","5","5","4","4","5","5","4","5","1","2","1","1","2","1","1","1","1","1","0","1","1","0","0","0","1","0","1","1","0","1","0","1","4","1","2","1","1","1","2","2","2","1","718833172124532736","胡","536","","","","match","","","","","","","","","","","","","","key","f","16.65954999999958","768","428","j","false","nonmatch","img/pentagon.png","圆形","五边","ALT1","formal_ALT1_1","","","","","","","","","",""
"null","<span style='color:red; font-size: 70px;'>错误! </span>","null","html-keyboard-response","120","324897","0.0-7.0-0.0-4.0-0.0-1.6","4","3","4","4","4","3","3","4","4","4","4","5","5","5","4","4","5","5","4","5","1","2","1","1","2","1","1","1","1","1","0","1","1","0","0","0","1","0","1","1","0","1","0","1","4","1","2","1","1","1","2","2","2","1","718833172124532736","胡","536","","","","","","","","","","","","","","","","","","","","","","","","","","","","","","feedback_test","","","","","","","","","",""
"543","","f","psychophysics","121","326443","0.0-7.0-0.0-4.0-0.0-0.7","4","3","4","4","4","3","3","4","4","4","4","5","5","5","4","4","5","5","4","5","1","2","1","1","2","1","1","1","1","1","0","1","1","0","0","0","1","0","1","1","0","1","0","1","4","1","2","1","1","1","2","2","2","1","718833172124532736","胡","536","","","","match","","","","","","","","","","","","","","key","f","16.657879120878782","768","428","f","true","match","img/triangle.png","三角","三角","ALT1","formal_ALT1_1","","","","","","","","","",""
"null","<span style='color:GreenYellow; font-size: 70px;'>正确! </span>","null","html-keyboard-response","122","326944","0.0-7.0-0.0-4.0-0.0-1.7","4","3","4","4","4","3","3","4","4","4","4","5","5","5","4","4","5","5","4","5","1","2","1","1","2","1","1","1","1","1","0","1","1","0","0","0","1","0","1","1","0","1","0","1","4","1","2","1","1","1","2","2","2","1","718833172124532736","胡","536","","","","","","","","","","","","","","","","","","","","","","","","","","","","","","feedback_test","","","","","","","","","",""
"547","","f","psychophysics","123","328492","0.0-7.0-0.0-4.0-0.0-0.8","4","3","4","4","4","3","3","4","4","4","4","5","5","5","4","4","5","5","4","5","1","2","1","1","2","1","1","1","1","1","0","1","1","0","0","0","1","0","1","1","0","1","0","1","4","1","2","1","1","1","2","2","2","1","718833172124532736","胡","536","","","","match","","","","","","","","","","","","","","key","f","16.62350000000025","768","428","f","true","match","img/circle.png","圆形","圆形","ALT1","formal_ALT1_1","","","","","","","","","",""
"null","<span style='color:GreenYellow; font-size: 70px;'>正确! </span>","null","html-keyboard-response","124","328992","0.0-7.0-0.0-4.0-0.0-1.8","4","3","4","4","4","3","3","4","4","4","4","5","5","5","4","4","5","5","4","5","1","2","1","1","2","1","1","1","1","1","0","1","1","0","0","0","1","0","1","1","0","1","0","1","4","1","2","1","1","1","2","2","2","1","718833172124532736","胡","536","","","","","","","","","","","","","","","","","","","","","","","","","","","","","","feedback_test","","","","","","","","","",""
"482","","j","psychophysics","125","330476","0.0-7.0-0.0-4.0-0.0-0.9","4","3","4","4","4","3","3","4","4","4","4","5","5","5","4","4","5","5","4","5","1","2","1","1","2","1","1","1","1","1","0","1","1","0","0","0","1","0","1","1","0","1","0","1","4","1","2","1","1","1","2","2","2","1","718833172124532736","胡","536","","","","nonmatch","","","","","","","","","","","","","","key","j","16.63142045454548","768","428","f","false","match","img/diamond.png","菱形","菱形","ALT1","formal_ALT1_1","","","","","","","","","",""
"null","<span style='color:red; font-size: 70px;'>错误! </span>","null","html-keyboard-response","126","330977","0.0-7.0-0.0-4.0-0.0-1.9","4","3","4","4","4","3","3","4","4","4","4","5","5","5","4","4","5","5","4","5","1","2","1","1","2","1","1","1","1","1","0","1","1","0","0","0","1","0","1","1","0","1","0","1","4","1","2","1","1","1","2","2","2","1","718833172124532736","胡","536","","","","","","","","","","","","","","","","","","","","","","","","","","","","","","feedback_test","","","","","","","","","",""
"649","","f","psychophysics","127","332627","0.0-7.0-0.0-4.0-0.0-0.10","4","3","4","4","4","3","3","4","4","4","4","5","5","5","4","4","5","5","4","5","1","2","1","1","2","1","1","1","1","1","0","1","1","0","0","0","1","0","1","1","0","1","0","1","4","1","2","1","1","1","2","2","2","1","718833172124532736","胡","536","","","","match","","","","","","","","","","","","","","key","f","16.652571428571328","768","428","j","false","nonmatch","img/pentagon.png","菱形","五边","ALT1","formal_ALT1_1","","","","","","","","","",""
"null","<span style='color:red; font-size: 70px;'>错误! </span>","null","html-keyboard-response","128","333128","0.0-7.0-0.0-4.0-0.0-1.10","4","3","4","4","4","3","3","4","4","4","4","5","5","5","4","4","5","5","4","5","1","2","1","1","2","1","1","1","1","1","0","1","1","0","0","0","1","0","1","1","0","1","0","1","4","1","2","1","1","1","2","2","2","1","718833172124532736","胡","536","","","","","","","","","","","","","","","","","","","","","","","","","","","","","","feedback_test","","","","","","","","","",""
"538","","f","psychophysics","129","334667","0.0-7.0-0.0-4.0-0.0-0.11","4","3","4","4","4","3","3","4","4","4","4","5","5","5","4","4","5","5","4","5","1","2","1","1","2","1","1","1","1","1","0","1","1","0","0","0","1","0","1","1","0","1","0","1","4","1","2","1","1","1","2","2","2","1","718833172124532736","胡","536","","","","match","","","","","","","","","","","","","","key","f","16.658673913043458","768","428","f","true","match","img/diamond.png","菱形","菱形","ALT1","formal_ALT1_1","","","","","","","","","",""
"null","<span style='color:GreenYellow; font-size: 70px;'>正确! </span>","null","html-keyboard-response","130","335168","0.0-7.0-0.0-4.0-0.0-1.11","4","3","4","4","4","3","3","4","4","4","4","5","5","5","4","4","5","5","4","5","1","2","1","1","2","1","1","1","1","1","0","1","1","0","0","0","1","0","1","1","0","1","0","1","4","1","2","1","1","1","2","2","2","1","718833172124532736","胡","536","","","","","","","","","","","","","","","","","","","","","","","","","","","","","","feedback_test","","","","","","","","","",""
"981","","f","psychophysics","131","337151","0.0-7.0-0.0-4.0-0.0-0.12","4","3","4","4","4","3","3","4","4","4","4","5","5","5","4","4","5","5","4","5","1","2","1","1","2","1","1","1","1","1","0","1","1","0","0","0","1","0","1","1","0","1","0","1","4","1","2","1","1","1","2","2","2","1","718833172124532736","胡","536","","","","match","","","","","","","","","","","","","","key","f","16.663067796610402","768","428","j","false","nonmatch","img/triangle.png","五边","三角","ALT1","formal_ALT1_1","","","","","","","","","",""
"null","<span style='color:red; font-size: 70px;'>错误! </span>","null","html-keyboard-response","132","337652","0.0-7.0-0.0-4.0-0.0-1.12","4","3","4","4","4","3","3","4","4","4","4","5","5","5","4","4","5","5","4","5","1","2","1","1","2","1","1","1","1","1","0","1","1","0","0","0","1","0","1","1","0","1","0","1","4","1","2","1","1","1","2","2","2","1","718833172124532736","胡","536","","","","","","","","","","","","","","","","","","","","","","","","","","","","","","feedback_test","","","","","","","","","",""
"618","","j","psychophysics","133","339271","0.0-7.0-0.0-4.0-0.0-0.13","4","3","4","4","4","3","3","4","4","4","4","5","5","5","4","4","5","5","4","5","1","2","1","1","2","1","1","1","1","1","0","1","1","0","0","0","1","0","1","1","0","1","0","1","4","1","2","1","1","1","2","2","2","1","718833172124532736","胡","536","","","","nonmatch","","","","","","","","","","","","","","key","j","16.65625","768","428","j","true","nonmatch","img/pentagon.png","三角","五边","ALT1","formal_ALT1_1","","","","","","","","","",""
"null","<span style='color:GreenYellow; font-size: 70px;'>正确! </span>","null","html-keyboard-response","134","339772","0.0-7.0-0.0-4.0-0.0-1.13","4","3","4","4","4","3","3","4","4","4","4","5","5","5","4","4","5","5","4","5","1","2","1","1","2","1","1","1","1","1","0","1","1","0","0","0","1","0","1","1","0","1","0","1","4","1","2","1","1","1","2","2","2","1","718833172124532736","胡","536","","","","","","","","","","","","","","","","","","","","","","","","","","","","","","feedback_test","","","","","","","","","",""
"502","","j","psychophysics","135","341277","0.0-7.0-0.0-4.0-0.0-0.14","4","3","4","4","4","3","3","4","4","4","4","5","5","5","4","4","5","5","4","5","1","2","1","1","2","1","1","1","1","1","0","1","1","0","0","0","1","0","1","1","0","1","0","1","4","1","2","1","1","1","2","2","2","1","718833172124532736","胡","536","","","","nonmatch","","","","","","","","","","","","","","key","j","16.660111111111473","768","428","f","false","match","img/pentagon.png","五边","五边","ALT1","formal_ALT1_1","","","","","","","","","",""
"null","<span style='color:red; font-size: 70px;'>错误! </span>","null","html-keyboard-response","136","341778","0.0-7.0-0.0-4.0-0.0-1.14","4","3","4","4","4","3","3","4","4","4","4","5","5","5","4","4","5","5","4","5","1","2","1","1","2","1","1","1","1","1","0","1","1","0","0","0","1","0","1","1","0","1","0","1","4","1","2","1","1","1","2","2","2","1","718833172124532736","胡","536","","","","","","","","","","","","","","","","","","","","","","","","","","","","","","feedback_test","","","","","","","","","",""
"432","","f","psychophysics","137","343211","0.0-7.0-0.0-4.0-0.0-0.15","4","3","4","4","4","3","3","4","4","4","4","5","5","5","4","4","5","5","4","5","1","2","1","1","2","1","1","1","1","1","0","1","1","0","0","0","1","0","1","1","0","1","0","1","4","1","2","1","1","1","2","2","2","1","718833172124532736","胡","536","","","","match","","","","","","","","","","","","","","key","f","16.65685882352991","768","428","f","true","match","img/pentagon.png","五边","五边","ALT1","formal_ALT1_1","","","","","","","","","",""
"null","<span style='color:GreenYellow; font-size: 70px;'>正确! </span>","null","html-keyboard-response","138","343712","0.0-7.0-0.0-4.0-0.0-1.15","4","3","4","4","4","3","3","4","4","4","4","5","5","5","4","4","5","5","4","5","1","2","1","1","2","1","1","1","1","1","0","1","1","0","0","0","1","0","1","1","0","1","0","1","4","1","2","1","1","1","2","2","2","1","718833172124532736","胡","536","","","","","","","","","","","","","","","","","","","","","","","","","","","","","","feedback_test","","","","","","","","","",""
"786","","j","psychophysics","139","345499","0.0-7.0-0.0-4.0-0.0-0.16","4","3","4","4","4","3","3","4","4","4","4","5","5","5","4","4","5","5","4","5","1","2","1","1","2","1","1","1","1","1","0","1","1","0","0","0","1","0","1","1","0","1","0","1","4","1","2","1","1","1","2","2","2","1","718833172124532736","胡","536","","","","nonmatch","","","","","","","","","","","","","","key","j","16.66102830188641","768","428","j","true","nonmatch","img/triangle.png","菱形","三角","ALT1","formal_ALT1_1","","","","","","","","","",""
"null","<span style='color:GreenYellow; font-size: 70px;'>正确! </span>","null","html-keyboard-response","140","346008","0.0-7.0-0.0-4.0-0.0-1.16","4","3","4","4","4","3","3","4","4","4","4","5","5","5","4","4","5","5","4","5","1","2","1","1","2","1","1","1","1","1","0","1","1","0","0","0","1","0","1","1","0","1","0","1","4","1","2","1","1","1","2","2","2","1","718833172124532736","胡","536","","","","","","","","","","","","","","","","","","","","","","","","","","","","","","feedback_test","","","","","","","","","",""
"617","","f","psychophysics","141","347627","0.0-7.0-0.0-4.0-0.0-0.17","4","3","4","4","4","3","3","4","4","4","4","5","5","5","4","4","5","5","4","5","1","2","1","1","2","1","1","1","1","1","0","1","1","0","0","0","1","0","1","1","0","1","0","1","4","1","2","1","1","1","2","2","2","1","718833172124532736","胡","536","","","","match","","","","","","","","","","","","","","key","f","16.66204166666709","768","428","f","true","match","img/triangle.png","三角","三角","ALT1","formal_ALT1_1","","","","","","","","","",""
"null","<span style='color:GreenYellow; font-size: 70px;'>正确! </span>","null","html-keyboard-response","142","348138","0.0-7.0-0.0-4.0-0.0-1.17","4","3","4","4","4","3","3","4","4","4","4","5","5","5","4","4","5","5","4","5","1","2","1","1","2","1","1","1","1","1","0","1","1","0","0","0","1","0","1","1","0","1","0","1","4","1","2","1","1","1","2","2","2","1","718833172124532736","胡","536","","","","","","","","","","","","","","","","","","","","","","","","","","","","","","feedback_test","","","","","","","","","",""
"675","","j","psychophysics","143","349829","0.0-7.0-0.0-4.0-0.0-0.18","4","3","4","4","4","3","3","4","4","4","4","5","5","5","4","4","5","5","4","5","1","2","1","1","2","1","1","1","1","1","0","1","1","0","0","0","1","0","1","1","0","1","0","1","4","1","2","1","1","1","2","2","2","1","718833172124532736","胡","536","","","","nonmatch","","","","","","","","","","","","","","key","j","16.656141414141842","768","428","j","true","nonmatch","img/circle.png","三角","圆形","ALT1","formal_ALT1_1","","","","","","","","","",""
"null","<span style='color:GreenYellow; font-size: 70px;'>正确! </span>","null","html-keyboard-response","144","350330","0.0-7.0-0.0-4.0-0.0-1.18","4","3","4","4","4","3","3","4","4","4","4","5","5","5","4","4","5","5","4","5","1","2","1","1","2","1","1","1","1","1","0","1","1","0","0","0","1","0","1","1","0","1","0","1","4","1","2","1","1","1","2","2","2","1","718833172124532736","胡","536","","","","","","","","","","","","","","","","","","","","","","","","","","","","","","feedback_test","","","","","","","","","",""
"662","","f","psychophysics","145","351994","0.0-7.0-0.0-4.0-0.0-0.19","4","3","4","4","4","3","3","4","4","4","4","5","5","5","4","4","5","5","4","5","1","2","1","1","2","1","1","1","1","1","0","1","1","0","0","0","1","0","1","1","0","1","0","1","4","1","2","1","1","1","2","2","2","1","718833172124532736","胡","536","","","","match","","","","","","","","","","","","","","key","f","16.63234343434357","768","428","f","true","match","img/triangle.png","三角","三角","ALT1","formal_ALT1_1","","","","","","","","","",""
"null","<span style='color:GreenYellow; font-size: 70px;'>正确! </span>","null","html-keyboard-response","146","352494","0.0-7.0-0.0-4.0-0.0-1.19","4","3","4","4","4","3","3","4","4","4","4","5","5","5","4","4","5","5","4","5","1","2","1","1","2","1","1","1","1","1","0","1","1","0","0","0","1","0","1","1","0","1","0","1","4","1","2","1","1","1","2","2","2","1","718833172124532736","胡","536","","","","","","","","","","","","","","","","","","","","","","","","","","","","","","feedback_test","","","","","","","","","",""
"501","","j","psychophysics","147","353997","0.0-7.0-0.0-4.0-0.0-0.20","4","3","4","4","4","3","3","4","4","4","4","5","5","5","4","4","5","5","4","5","1","2","1","1","2","1","1","1","1","1","0","1","1","0","0","0","1","0","1","1","0","1","0","1","4","1","2","1","1","1","2","2","2","1","718833172124532736","胡","536","","","","nonmatch","","","","","","","","","","","","","","key","j","16.62901123595526","768","428","j","true","nonmatch","img/diamond.png","五边","菱形","ALT1","formal_ALT1_1","","","","","","","","","",""
"null","<span style='color:GreenYellow; font-size: 70px;'>正确! </span>","null","html-keyboard-response","148","354498","0.0-7.0-0.0-4.0-0.0-1.20","4","3","4","4","4","3","3","4","4","4","4","5","5","5","4","4","5","5","4","5","1","2","1","1","2","1","1","1","1","1","0","1","1","0","0","0","1","0","1","1","0","1","0","1","4","1","2","1","1","1","2","2","2","1","718833172124532736","胡","536","","","","","","","","","","","","","","","","","","","","","","","","","","","","","","feedback_test","","","","","","","","","",""
"590","","f","psychophysics","149","356089","0.0-7.0-0.0-4.0-0.0-0.21","4","3","4","4","4","3","3","4","4","4","4","5","5","5","4","4","5","5","4","5","1","2","1","1","2","1","1","1","1","1","0","1","1","0","0","0","1","0","1","1","0","1","0","1","4","1","2","1","1","1","2","2","2","1","718833172124532736","胡","536","","","","match","","","","","","","","","","","","","","key","f","16.661336842105772","768","428","f","true","match","img/circle.png","圆形","圆形","ALT1","formal_ALT1_1","","","","","","","","","",""
"null","<span style='color:GreenYellow; font-size: 70px;'>正确! </span>","null","html-keyboard-response","150","356590","0.0-7.0-0.0-4.0-0.0-1.21","4","3","4","4","4","3","3","4","4","4","4","5","5","5","4","4","5","5","4","5","1","2","1","1","2","1","1","1","1","1","0","1","1","0","0","0","1","0","1","1","0","1","0","1","4","1","2","1","1","1","2","2","2","1","718833172124532736","胡","536","","","","","","","","","","","","","","","","","","","","","","","","","","","","","","feedback_test","","","","","","","","","",""
"581","","j","psychophysics","151","358173","0.0-7.0-0.0-4.0-0.0-0.22","4","3","4","4","4","3","3","4","4","4","4","5","5","5","4","4","5","5","4","5","1","2","1","1","2","1","1","1","1","1","0","1","1","0","0","0","1","0","1","1","0","1","0","1","4","1","2","1","1","1","2","2","2","1","718833172124532736","胡","536","","","","nonmatch","","","","","","","","","","","","","","key","j","16.65776595744636","768","428","j","true","nonmatch","img/diamond.png","三角","菱形","ALT1","formal_ALT1_1","","","","","","","","","",""
"null","<span style='color:GreenYellow; font-size: 70px;'>正确! </span>","null","html-keyboard-response","152","358673","0.0-7.0-0.0-4.0-0.0-1.22","4","3","4","4","4","3","3","4","4","4","4","5","5","5","4","4","5","5","4","5","1","2","1","1","2","1","1","1","1","1","0","1","1","0","0","0","1","0","1","1","0","1","0","1","4","1","2","1","1","1","2","2","2","1","718833172124532736","胡","536","","","","","","","","","","","","","","","","","","","","","","","","","","","","","","feedback_test","","","","","","","","","",""
"522","","f","psychophysics","153","360197","0.0-7.0-0.0-4.0-0.0-0.23","4","3","4","4","4","3","3","4","4","4","4","5","5","5","4","4","5","5","4","5","1","2","1","1","2","1","1","1","1","1","0","1","1","0","0","0","1","0","1","1","0","1","0","1","4","1","2","1","1","1","2","2","2","1","718833172124532736","胡","536","","","","match","","","","","","","","","","","","","","key","f","16.660021978021717","768","428","f","true","match","img/pentagon.png","五边","五边","ALT1","formal_ALT1_1","","","","","","","","","",""
"null","<span style='color:GreenYellow; font-size: 70px;'>正确! </span>","null","html-keyboard-response","154","360702","0.0-7.0-0.0-4.0-0.0-1.23","4","3","4","4","4","3","3","4","4","4","4","5","5","5","4","4","5","5","4","5","1","2","1","1","2","1","1","1","1","1","0","1","1","0","0","0","1","0","1","1","0","1","0","1","4","1","2","1","1","1","2","2","2","1","718833172124532736","胡","536","","","","","","","","","","","","","","","","","","","","","","","","","","","","","","feedback_test","","","","","","","","","",""
"626","","f","psychophysics","155","362331","0.0-7.0-0.0-4.0-0.0-0.24","4","3","4","4","4","3","3","4","4","4","4","5","5","5","4","4","5","5","4","5","1","2","1","1","2","1","1","1","1","1","0","1","1","0","0","0","1","0","1","1","0","1","0","1","4","1","2","1","1","1","2","2","2","1","718833172124532736","胡","536","","","","match","","","","","","","","","","","","","","key","f","16.659556701031068","768","428","f","true","match","img/circle.png","圆形","圆形","ALT1","formal_ALT1_1","","","","","","","","","",""
"null","<span style='color:GreenYellow; font-size: 70px;'>正确! </span>","null","html-keyboard-response","156","362832","0.0-7.0-0.0-4.0-0.0-1.24","4","3","4","4","4","3","3","4","4","4","4","5","5","5","4","4","5","5","4","5","1","2","1","1","2","1","1","1","1","1","0","1","1","0","0","0","1","0","1","1","0","1","0","1","4","1","2","1","1","1","2","2","2","1","718833172124532736","胡","536","","","","","","","","","","","","","","","","","","","","","","","","","","","","","","feedback_test","","","","","","","","","",""
"751","","j","psychophysics","157","364585","0.0-7.0-0.0-4.0-0.0-0.25","4","3","4","4","4","3","3","4","4","4","4","5","5","5","4","4","5","5","4","5","1","2","1","1","2","1","1","1","1","1","0","1","1","0","0","0","1","0","1","1","0","1","0","1","4","1","2","1","1","1","2","2","2","1","718833172124532736","胡","536","","","","nonmatch","","","","","","","","","","","","","","key","j","16.659182692307624","768","428","j","true","nonmatch","img/diamond.png","圆形","菱形","ALT1","formal_ALT1_1","","","","","","","","","",""
"null","<span style='color:GreenYellow; font-size: 70px;'>正确! </span>","null","html-keyboard-response","158","365101","0.0-7.0-0.0-4.0-0.0-1.25","4","3","4","4","4","3","3","4","4","4","4","5","5","5","4","4","5","5","4","5","1","2","1","1","2","1","1","1","1","1","0","1","1","0","0","0","1","0","1","1","0","1","0","1","4","1","2","1","1","1","2","2","2","1","718833172124532736","胡","536","","","","","","","","","","","","","","","","","","","","","","","","","","","","","","feedback_test","","","","","","","","","",""
"576","","f","psychophysics","159","366678","0.0-7.0-0.0-4.0-0.0-0.26","4","3","4","4","4","3","3","4","4","4","4","5","5","5","4","4","5","5","4","5","1","2","1","1","2","1","1","1","1","1","0","1","1","0","0","0","1","0","1","1","0","1","0","1","4","1","2","1","1","1","2","2","2","1","718833172124532736","胡","536","","","","match","","","","","","","","","","","","","","key","f","16.65973404255272","768","428","f","true","match","img/pentagon.png","五边","五边","ALT1","formal_ALT1_1","","","","","","","","","",""
"null","<span style='color:GreenYellow; font-size: 70px;'>正确! </span>","null","html-keyboard-response","160","367179","0.0-7.0-0.0-4.0-0.0-1.26","4","3","4","4","4","3","3","4","4","4","4","5","5","5","4","4","5","5","4","5","1","2","1","1","2","1","1","1","1","1","0","1","1","0","0","0","1","0","1","1","0","1","0","1","4","1","2","1","1","1","2","2","2","1","718833172124532736","胡","536","","","","","","","","","","","","","","","","","","","","","","","","","","","","","","feedback_test","","","","","","","","","",""
"666","","f","psychophysics","161","368847","0.0-7.0-0.0-4.0-0.0-0.27","4","3","4","4","4","3","3","4","4","4","4","5","5","5","4","4","5","5","4","5","1","2","1","1","2","1","1","1","1","1","0","1","1","0","0","0","1","0","1","1","0","1","0","1","4","1","2","1","1","1","2","2","2","1","718833172124532736","胡","536","","","","match","","","","","","","","","","","","","","key","f","16.66061616161629","768","428","f","true","match","img/diamond.png","菱形","菱形","ALT1","formal_ALT1_1","","","","","","","","","",""
"null","<span style='color:GreenYellow; font-size: 70px;'>正确! </span>","null","html-keyboard-response","162","369347","0.0-7.0-0.0-4.0-0.0-1.27","4","3","4","4","4","3","3","4","4","4","4","5","5","5","4","4","5","5","4","5","1","2","1","1","2","1","1","1","1","1","0","1","1","0","0","0","1","0","1","1","0","1","0","1","4","1","2","1","1","1","2","2","2","1","718833172124532736","胡","536","","","","","","","","","","","","","","","","","","","","","","","","","","","","","","feedback_test","","","","","","","","","",""
"568","","f","psychophysics","163","370917","0.0-7.0-0.0-4.0-0.0-0.28","4","3","4","4","4","3","3","4","4","4","4","5","5","5","4","4","5","5","4","5","1","2","1","1","2","1","1","1","1","1","0","1","1","0","0","0","1","0","1","1","0","1","0","1","4","1","2","1","1","1","2","2","2","1","718833172124532736","胡","536","","","","match","","","","","","","","","","","","","","key","f","16.658623655913747","768","428","f","true","match","img/pentagon.png","五边","五边","ALT1","formal_ALT1_1","","","","","","","","","",""
"null","<span style='color:GreenYellow; font-size: 70px;'>正确! </span>","null","html-keyboard-response","164","371418","0.0-7.0-0.0-4.0-0.0-1.28","4","3","4","4","4","3","3","4","4","4","4","5","5","5","4","4","5","5","4","5","1","2","1","1","2","1","1","1","1","1","0","1","1","0","0","0","1","0","1","1","0","1","0","1","4","1","2","1","1","1","2","2","2","1","718833172124532736","胡","536","","","","","","","","","","","","","","","","","","","","","","","","","","","","","","feedback_test","","","","","","","","","",""
"690","","j","psychophysics","165","373110","0.0-7.0-0.0-4.0-0.0-0.29","4","3","4","4","4","3","3","4","4","4","4","5","5","5","4","4","5","5","4","5","1","2","1","1","2","1","1","1","1","1","0","1","1","0","0","0","1","0","1","1","0","1","0","1","4","1","2","1","1","1","2","2","2","1","718833172124532736","胡","536","","","","nonmatch","","","","","","","","","","","","","","key","j","16.641227722771944","768","428","j","true","nonmatch","img/circle.png","五边","圆形","ALT1","formal_ALT1_1","","","","","","","","","",""
"null","<span style='color:GreenYellow; font-size: 70px;'>正确! </span>","null","html-keyboard-response","166","373611","0.0-7.0-0.0-4.0-0.0-1.29","4","3","4","4","4","3","3","4","4","4","4","5","5","5","4","4","5","5","4","5","1","2","1","1","2","1","1","1","1","1","0","1","1","0","0","0","1","0","1","1","0","1","0","1","4","1","2","1","1","1","2","2","2","1","718833172124532736","胡","536","","","","","","","","","","","","","","","","","","","","","","","","","","","","","","feedback_test","","","","","","","","","",""
"625","","f","psychophysics","167","375237","0.0-7.0-0.0-4.0-0.0-0.30","4","3","4","4","4","3","3","4","4","4","4","5","5","5","4","4","5","5","4","5","1","2","1","1","2","1","1","1","1","1","0","1","1","0","0","0","1","0","1","1","0","1","0","1","4","1","2","1","1","1","2","2","2","1","718833172124532736","胡","536","","","","match","","","","","","","","","","","","","","key","f","16.656406250000146","768","428","f","true","match","img/pentagon.png","五边","五边","ALT1","formal_ALT1_1","","","","","","","","","",""
"null","<span style='color:GreenYellow; font-size: 70px;'>正确! </span>","null","html-keyboard-response","168","375738","0.0-7.0-0.0-4.0-0.0-1.30","4","3","4","4","4","3","3","4","4","4","4","5","5","5","4","4","5","5","4","5","1","2","1","1","2","1","1","1","1","1","0","1","1","0","0","0","1","0","1","1","0","1","0","1","4","1","2","1","1","1","2","2","2","1","718833172124532736","胡","536","","","","","","","","","","","","","","","","","","","","","","","","","","","","","","feedback_test","","","","","","","","","",""
"585","","j","psychophysics","169","377325","0.0-7.0-0.0-4.0-0.0-0.31","4","3","4","4","4","3","3","4","4","4","4","5","5","5","4","4","5","5","4","5","1","2","1","1","2","1","1","1","1","1","0","1","1","0","0","0","1","0","1","1","0","1","0","1","4","1","2","1","1","1","2","2","2","1","718833172124532736","胡","536","","","","nonmatch","","","","","","","","","","","","","","key","j","16.648797872340047","768","428","j","true","nonmatch","img/circle.png","三角","圆形","ALT1","formal_ALT1_1","","","","","","","","","",""
"null","<span style='color:GreenYellow; font-size: 70px;'>正确! </span>","null","html-keyboard-response","170","377833","0.0-7.0-0.0-4.0-0.0-1.31","4","3","4","4","4","3","3","4","4","4","4","5","5","5","4","4","5","5","4","5","1","2","1","1","2","1","1","1","1","1","0","1","1","0","0","0","1","0","1","1","0","1","0","1","4","1","2","1","1","1","2","2","2","1","718833172124532736","胡","536","","","","","","","","","","","","","","","","","","","","","","","","","","","","","","feedback_test","","","","","","","","","",""
"672","","f","psychophysics","171","379507","0.0-7.0-0.0-4.0-0.0-0.32","4","3","4","4","4","3","3","4","4","4","4","5","5","5","4","4","5","5","4","5","1","2","1","1","2","1","1","1","1","1","0","1","1","0","0","0","1","0","1","1","0","1","0","1","4","1","2","1","1","1","2","2","2","1","718833172124532736","胡","536","","","","match","","","","","","","","","","","","","","key","f","16.625009999999893","768","428","f","true","match","img/triangle.png","三角","三角","ALT1","formal_ALT1_1","","","","","","","","","",""
"null","<span style='color:GreenYellow; font-size: 70px;'>正确! </span>","null","html-keyboard-response","172","380008","0.0-7.0-0.0-4.0-0.0-1.32","4","3","4","4","4","3","3","4","4","4","4","5","5","5","4","4","5","5","4","5","1","2","1","1","2","1","1","1","1","1","0","1","1","0","0","0","1","0","1","1","0","1","0","1","4","1","2","1","1","1","2","2","2","1","718833172124532736","胡","536","","","","","","","","","","","","","","","","","","","","","","","","","","","","","","feedback_test","","","","","","","","","",""
"597","","j","psychophysics","173","381606","0.0-7.0-0.0-4.0-0.0-0.33","4","3","4","4","4","3","3","4","4","4","4","5","5","5","4","4","5","5","4","5","1","2","1","1","2","1","1","1","1","1","0","1","1","0","0","0","1","0","1","1","0","1","0","1","4","1","2","1","1","1","2","2","2","1","718833172124532736","胡","536","","","","nonmatch","","","","","","","","","","","","","","key","j","16.658568421052156","768","428","j","true","nonmatch","img/triangle.png","五边","三角","ALT1","formal_ALT1_1","","","","","","","","","",""
"null","<span style='color:GreenYellow; font-size: 70px;'>正确! </span>","null","html-keyboard-response","174","382108","0.0-7.0-0.0-4.0-0.0-1.33","4","3","4","4","4","3","3","4","4","4","4","5","5","5","4","4","5","5","4","5","1","2","1","1","2","1","1","1","1","1","0","1","1","0","0","0","1","0","1","1","0","1","0","1","4","1","2","1","1","1","2","2","2","1","718833172124532736","胡","536","","","","","","","","","","","","","","","","","","","","","","","","","","","","","","feedback_test","","","","","","","","","",""
"545","","f","psychophysics","175","383655","0.0-7.0-0.0-4.0-0.0-0.34","4","3","4","4","4","3","3","4","4","4","4","5","5","5","4","4","5","5","4","5","1","2","1","1","2","1","1","1","1","1","0","1","1","0","0","0","1","0","1","1","0","1","0","1","4","1","2","1","1","1","2","2","2","1","718833172124532736","胡","536","","","","match","","","","","","","","","","","","","","key","f","16.6566847826091","768","428","j","false","nonmatch","img/diamond.png","三角","菱形","ALT1","formal_ALT1_1","","","","","","","","","",""
"null","<span style='color:red; font-size: 70px;'>错误! </span>","null","html-keyboard-response","176","384159","0.0-7.0-0.0-4.0-0.0-1.34","4","3","4","4","4","3","3","4","4","4","4","5","5","5","4","4","5","5","4","5","1","2","1","1","2","1","1","1","1","1","0","1","1","0","0","0","1","0","1","1","0","1","0","1","4","1","2","1","1","1","2","2","2","1","718833172124532736","胡","536","","","","","","","","","","","","","","","","","","","","","","","","","","","","","","feedback_test","","","","","","","","","",""
"664","","f","psychophysics","177","385825","0.0-7.0-0.0-4.0-0.0-0.35","4","3","4","4","4","3","3","4","4","4","4","5","5","5","4","4","5","5","4","5","1","2","1","1","2","1","1","1","1","1","0","1","1","0","0","0","1","0","1","1","0","1","0","1","4","1","2","1","1","1","2","2","2","1","718833172124532736","胡","536","","","","match","","","","","","","","","","","","","","key","f","16.659656565656974","768","428","f","true","match","img/circle.png","圆形","圆形","ALT1","formal_ALT1_1","","","","","","","","","",""
"null","<span style='color:GreenYellow; font-size: 70px;'>正确! </span>","null","html-keyboard-response","178","386326","0.0-7.0-0.0-4.0-0.0-1.35","4","3","4","4","4","3","3","4","4","4","4","5","5","5","4","4","5","5","4","5","1","2","1","1","2","1","1","1","1","1","0","1","1","0","0","0","1","0","1","1","0","1","0","1","4","1","2","1","1","1","2","2","2","1","718833172124532736","胡","536","","","","","","","","","","","","","","","","","","","","","","","","","","","","","","feedback_test","","","","","","","","","",""
"614","","j","psychophysics","179","387941","0.0-7.0-0.0-4.0-0.0-0.36","4","3","4","4","4","3","3","4","4","4","4","5","5","5","4","4","5","5","4","5","1","2","1","1","2","1","1","1","1","1","0","1","1","0","0","0","1","0","1","1","0","1","0","1","4","1","2","1","1","1","2","2","2","1","718833172124532736","胡","536","","","","nonmatch","","","","","","","","","","","","","","key","j","16.660354166666366","768","428","j","true","nonmatch","img/diamond.png","五边","菱形","ALT1","formal_ALT1_1","","","","","","","","","",""
"null","<span style='color:GreenYellow; font-size: 70px;'>正确! </span>","null","html-keyboard-response","180","388452","0.0-7.0-0.0-4.0-0.0-1.36","4","3","4","4","4","3","3","4","4","4","4","5","5","5","4","4","5","5","4","5","1","2","1","1","2","1","1","1","1","1","0","1","1","0","0","0","1","0","1","1","0","1","0","1","4","1","2","1","1","1","2","2","2","1","718833172124532736","胡","536","","","","","","","","","","","","","","","","","","","","","","","","","","","","","","feedback_test","","","","","","","","","",""
"639","","j","psychophysics","181","390093","0.0-7.0-0.0-4.0-0.0-0.37","4","3","4","4","4","3","3","4","4","4","4","5","5","5","4","4","5","5","4","5","1","2","1","1","2","1","1","1","1","1","0","1","1","0","0","0","1","0","1","1","0","1","0","1","4","1","2","1","1","1","2","2","2","1","718833172124532736","胡","536","","","","nonmatch","","","","","","","","","","","","","","key","j","16.658814432989978","768","428","j","true","nonmatch","img/pentagon.png","三角","五边","ALT1","formal_ALT1_1","","","","","","","","","",""
"null","<span style='color:GreenYellow; font-size: 70px;'>正确! </span>","null","html-keyboard-response","182","390595","0.0-7.0-0.0-4.0-0.0-1.37","4","3","4","4","4","3","3","4","4","4","4","5","5","5","4","4","5","5","4","5","1","2","1","1","2","1","1","1","1","1","0","1","1","0","0","0","1","0","1","1","0","1","0","1","4","1","2","1","1","1","2","2","2","1","718833172124532736","胡","536","","","","","","","","","","","","","","","","","","","","","","","","","","","","","","feedback_test","","","","","","","","","",""
"777","","f","psychophysics","183","392373","0.0-7.0-0.0-4.0-0.0-0.38","4","3","4","4","4","3","3","4","4","4","4","5","5","5","4","4","5","5","4","5","1","2","1","1","2","1","1","1","1","1","0","1","1","0","0","0","1","0","1","1","0","1","0","1","4","1","2","1","1","1","2","2","2","1","718833172124532736","胡","536","","","","match","","","","","","","","","","","","","","key","f","16.611084905660046","768","428","f","true","match","img/triangle.png","三角","三角","ALT1","formal_ALT1_1","","","","","","","","","",""
"null","<span style='color:GreenYellow; font-size: 70px;'>正确! </span>","null","html-keyboard-response","184","392874","0.0-7.0-0.0-4.0-0.0-1.38","4","3","4","4","4","3","3","4","4","4","4","5","5","5","4","4","5","5","4","5","1","2","1","1","2","1","1","1","1","1","0","1","1","0","0","0","1","0","1","1","0","1","0","1","4","1","2","1","1","1","2","2","2","1","718833172124532736","胡","536","","","","","","","","","","","","","","","","","","","","","","","","","","","","","","feedback_test","","","","","","","","","",""
