"rt","stimulus","response","trial_type","trial_index","time_elapsed","internal_node_id","ses_1","ses_2","ses_3","ses_4","ses_5","ses_6","ses_7","ses_8","ses_9","ses_10","coreself_1","coreself_2","coreself_3","coreself_4","coreself_5","coreself_6","coreself_7","coreself_8","coreself_9","coreself_10","SGPS_1","SGPS_2","SGPS_3","SGPS_4","SGPS_5","SGPS_6","SGPS_7","SGPS_8","SGPS_9","NPI1","NPI2","NPI3","NPI4","NPI5","NPI6","NPI7","NPI8","NPI9","NPI10","NPI11","NPI12","NPI13","NPI14","NPI15","hsns_1","hsns_2","hsns_3","hsns_4","hsns_5","hsns_6","hsns_7","hsns_8","hsns_9","hsns_10","subj_idx","friend_name","ParticipantID","value","success","user_agent","responses","item_order","radio_event_ids","radio_event_times","key_event_times","mouse_event_times","straightlining","zigzagging","honeypot","timeout","failed_images","failed_audio","failed_video","version_attrib","version_target","correct","IAT","screen_id","task_id","RT","condition","word","varname","summary","version_attrib2","version_target2","time_stamp","view_history","response_type","key_press","avg_frame_time","center_x","center_y","correct_response","identity","Image","question_order"
"15104","
   <p><div style = ""color: white;font-size:25px;"">您好，欢迎参加本次实验。</div> </p>
   <p><div style = ""color: white;font-size:25px;"">为充分保障您的权利，请确保您已经知晓并同意《参与实验同意书》以及《数据公开知情同意书》。</div></p>
   <p><div style = ""color: white;font-size:25px;"">如果您未见过上述内容，请咨询实验员。</div></p>
   <p><div style = ""color: white;font-size:25px;"">如果您选择继续实验，则表示您已经清楚两份知情同意书的内容并同意。</div></p>
   <p><div style = ""color: red;font-size:30px;"">请确保您记得day0的实验编号，您将在本次实验输入该编号，若您忘记，请咨询实验员后作答。</div></p>
   <p> <div style = ""color: green;font-size:25px;""><按空格键至下页></div> </p>
   "," ","html-keyboard-response","0","15107","0.0-0.0","4","3","4","3","3","4","4","1","4","3","5","3","4","4","4","5","4","3","4","4","4","4","3","4","3","4","5","5","4","1","0","1","1","0","0","1","1","0","1","1","0","0","0","1","4","4","3","2","4","3","4","4","4","3","673573335019290624","吴","93","","","","","","","","","","","","","","","","","","","","","","","","","","","","","","","","","","","","","","","",""
"","","","call-function","1","15109","0.0-1.0-0.0","4","3","4","3","3","4","4","1","4","3","5","3","4","4","4","5","4","3","4","4","4","4","3","4","3","4","5","5","4","1","0","1","1","0","0","1","1","0","1","1","0","0","0","1","4","4","3","2","4","3","4","4","4","3","673573335019290624","吴","93","","","","","","","","","","","","","","","","","","","","","","","","","","","","","","","","","","","","","","","",""
"22648","","{""friend_name"":""吴"",""ParticipantID"":""93""}","survey-html-form","2","37758","0.0-1.0-1.0","4","3","4","3","3","4","4","1","4","3","5","3","4","4","4","5","4","3","4","4","4","4","3","4","3","4","5","5","4","1","0","1","1","0","0","1","1","0","1","1","0","0","0","1","4","4","3","2","4","3","4","4","4","3","673573335019290624","吴","93","","","","","","","","","","","","","","","","","","","","","","","","","","","","","","","","","","","","","","","",""
"","","","fullscreen","3","78074","0.0-2.0","4","3","4","3","3","4","4","1","4","3","5","3","4","4","4","5","4","3","4","4","4","4","3","4","3","4","5","5","4","1","0","1","1","0","0","1","1","0","1","1","0","0","0","1","4","4","3","2","4","3","4","4","4","3","673573335019290624","吴","93","","true","{}","","","","","","","","","","","","","","","","","","","","","","","","","","","","","","","","","","","","",""
"39305.10000002384","","{""Q01"":""4"",""Q02"":""3"",""Q03"":""4"",""Q04"":""3"",""Q05"":""3"",""Q06"":""4"",""Q07"":""4"",""Q08"":""1"",""Q09"":""4"",""Q10"":""3""}","survey-template","4","117382","0.0-3.0","4","3","4","3","3","4","4","1","4","3","5","3","4","4","4","5","4","3","4","4","4","4","3","4","3","4","5","5","4","1","0","1","1","0","0","1","1","0","1","1","0","0","0","1","4","4","3","2","4","3","4","4","4","3","673573335019290624","吴","93","","","","{""Q01"":""4"",""Q02"":""3"",""Q03"":""4"",""Q04"":""3"",""Q05"":""3"",""Q06"":""4"",""Q07"":""4"",""Q08"":""1"",""Q09"":""4"",""Q10"":""3""}","[0,1,2,3,4,5,6,7,8,9]","[""Q01"",""Q02"",""Q03"",""Q04"",""Q05"",""Q06"",""Q07"",""Q08"",""Q09"",""Q10""]","[10184.5,14120.200000017881,17040,19568.20000001788,21936.600000023842,24408.40000000596,26711.90000000596,30695.70000001788,36239.70000001788,38087.70000001788]","[]","[10184.5,13424.100000023842,14120.200000017881,17040,18984,19568.20000001788,21936.600000023842,24408.40000000596,26711.90000000596,30695.70000001788,36239.70000001788,38087.70000001788,39303.60000002384]","0.4","0.4444444444444444","0","","","","","","","","","","","","","","","","","","","","","","","","","","","",""
"33545.29999998212","","{""Q01"":""5"",""Q02"":""3"",""Q03"":""4"",""Q04"":""4"",""Q05"":""4"",""Q06"":""5"",""Q07"":""4"",""Q08"":""3"",""Q09"":""4"",""Q10"":""4""}","survey-template","5","150934","0.0-4.0","4","3","4","3","3","4","4","1","4","3","5","3","4","4","4","5","4","3","4","4","4","4","3","4","3","4","5","5","4","1","0","1","1","0","0","1","1","0","1","1","0","0","0","1","4","4","3","2","4","3","4","4","4","3","673573335019290624","吴","93","","","","{""Q01"":""5"",""Q02"":""3"",""Q03"":""4"",""Q04"":""4"",""Q05"":""4"",""Q06"":""5"",""Q07"":""4"",""Q08"":""3"",""Q09"":""4"",""Q10"":""4""}","[0,1,2,3,4,5,6,7,8,9]","[""Q01"",""Q02"",""Q03"",""Q03"",""Q04"",""Q05"",""Q06"",""Q07"",""Q08"",""Q09"",""Q10""]","[3944.5,8176.5999999940395,11672.299999982119,14888.299999982119,16936,21248.29999998212,22976.09999999404,25560.29999998212,28647.90000000596,30512,32767.69999998808]","[]","[3944.5,7120.4000000059605,8176.5999999940395,11672.299999982119,14888.299999982119,16936,21248.29999998212,22976.09999999404,25560.29999998212,28647.90000000596,30512,32767.69999998808,33544]","0.4","0.3333333333333333","0","","","","","","","","","","","","","","","","","","","","","","","","","","","",""
"","","","preload","6","151220","0.0-5.0","4","3","4","3","3","4","4","1","4","3","5","3","4","4","4","5","4","3","4","4","4","4","3","4","3","4","5","5","4","1","0","1","1","0","0","1","1","0","1","1","0","0","0","1","4","4","3","2","4","3","4","4","4","3","673573335019290624","吴","93","","true","","","","","","","","","","","false","[]","[]","[]","","","","","","","","","","","","","","","","","","","","","","","",""
"11937","
    <h3>词语分类任务</h3>
    <p>在接下来的任务中，你需要对一系列词语进行分类。</p>
    <p>请先熟悉这些词语，这有利于你完成接下来的任务。</p>
    <table align=""center"" border=1 cellpadding=3 cellspacing=0>
    <tr> <th>类别</th> <th>词语</th> </tr>
    <tr> <td>&emsp;积极&emsp;</td> <td>&emsp;能干、全能、全才、高效、精干、天才&emsp;</td> </tr>
    <tr> <td>&emsp;消极&emsp;</td> <td>&emsp;无能、低能、废物、拙笨、愚钝、蠢笨&emsp;</td> </tr>
    <tr> <td>&emsp;自我&emsp;</td> <td>&emsp;我、我的、自己、自己的、本人、本人的&emsp;</td> </tr>
    <tr> <td>&emsp;他人&emsp;</td> <td>&emsp;他、他的、别人、别人的、他人、他人的&emsp;</td> </tr>
    </table><br/>","0","html-button-response","7","163158","0.0-6.0-0.0-0.0","4","3","4","3","3","4","4","1","4","3","5","3","4","4","4","5","4","3","4","4","4","4","3","4","3","4","5","5","4","1","0","1","1","0","0","1","1","0","1","1","0","0","0","1","4","4","3","2","4","3","4","4","4","3","673573335019290624","吴","93","","","","","","","","","","","","","","","","","1","2","","","","","","","","","","","","","","","","","","","","","",""
"24452","
    <div class=""tag-bottom"">
    <p> —— 任务1：对“他人”词和“自我”词分类 ——<p/>
    不同词语会出现在屏幕中央，类别标签将始终显示在屏幕上方<p/>   
    <span style=""color:#FFD866""><b>请根据上方标签的提示，尽可能正确并且快速地做出按键反应</b></span><p/>
    当按键错误时屏幕中会出现<span style=""color:red""> X </span>，需要按另一个键纠正才能继续<br/><p/>
    请把双手食指分别放在键盘的“E”键和“I”键上<p/>
    按<空格键>开始
    </p></div>"," ","html-keyboard-response","8","187614","0.0-6.0-0.0-1.0","4","3","4","3","3","4","4","1","4","3","5","3","4","4","4","5","4","3","4","4","4","4","3","4","3","4","5","5","4","1","0","1","1","0","0","1","1","0","1","1","0","0","0","1","4","4","3","2","4","3","4","4","4","3","673573335019290624","吴","93","","","","","","","","","","","","","","","","","","","","","","","","","","","","","","","","","","","","","","","",""
"null","","null","html-keyboard-response","9","187866","0.0-6.0-0.0-2.0-0.0","4","3","4","3","3","4","4","1","4","3","5","3","4","4","4","5","4","3","4","4","4","4","3","4","3","4","5","5","4","1","0","1","1","0","0","1","1","0","1","1","0","0","0","1","4","4","3","2","4","3","4","4","4","3","673573335019290624","吴","93","","","","","","","","","","","","","","","","","","","","","","","","","","","","","","","","","","","","","","","",""
"806","<p style=""color:rgb(150, 250, 100); font-size: 35px;"">他</p>","e","categorize-html","10","188676","0.0-6.0-0.0-2.0-1.0","4","3","4","3","3","4","4","1","4","3","5","3","4","4","4","5","4","3","4","4","4","4","3","4","3","4","5","5","4","1","0","1","1","0","0","1","1","0","1","1","0","0","0","1","4","4","3","2","4","3","4","4","4","3","673573335019290624","吴","93","","","","","","","","","","","","","","","","","","","true","1","1","ability","806","other","他","","","","","","","","","","","","","","",""
"null","","null","html-keyboard-response","11","188927","0.0-6.0-0.0-2.0-0.1","4","3","4","3","3","4","4","1","4","3","5","3","4","4","4","5","4","3","4","4","4","4","3","4","3","4","5","5","4","1","0","1","1","0","0","1","1","0","1","1","0","0","0","1","4","4","3","2","4","3","4","4","4","3","673573335019290624","吴","93","","","","","","","","","","","","","","","","","","","","","","","","","","","","","","","","","","","","","","","",""
"848","<p style=""color:rgb(150, 250, 100); font-size: 35px;"">我</p>","i","categorize-html","12","189777","0.0-6.0-0.0-2.0-1.1","4","3","4","3","3","4","4","1","4","3","5","3","4","4","4","5","4","3","4","4","4","4","3","4","3","4","5","5","4","1","0","1","1","0","0","1","1","0","1","1","0","0","0","1","4","4","3","2","4","3","4","4","4","3","673573335019290624","吴","93","","","","","","","","","","","","","","","","","","","true","1","1","ability","848","self","我","","","","","","","","","","","","","","",""
"null","","null","html-keyboard-response","13","190028","0.0-6.0-0.0-2.0-0.2","4","3","4","3","3","4","4","1","4","3","5","3","4","4","4","5","4","3","4","4","4","4","3","4","3","4","5","5","4","1","0","1","1","0","0","1","1","0","1","1","0","0","0","1","4","4","3","2","4","3","4","4","4","3","673573335019290624","吴","93","","","","","","","","","","","","","","","","","","","","","","","","","","","","","","","","","","","","","","","",""
"997","<p style=""color:rgb(150, 250, 100); font-size: 35px;"">自己的</p>","i","categorize-html","14","191027","0.0-6.0-0.0-2.0-1.2","4","3","4","3","3","4","4","1","4","3","5","3","4","4","4","5","4","3","4","4","4","4","3","4","3","4","5","5","4","1","0","1","1","0","0","1","1","0","1","1","0","0","0","1","4","4","3","2","4","3","4","4","4","3","673573335019290624","吴","93","","","","","","","","","","","","","","","","","","","true","1","1","ability","997","self","自己的","","","","","","","","","","","","","","",""
"null","","null","html-keyboard-response","15","191278","0.0-6.0-0.0-2.0-0.3","4","3","4","3","3","4","4","1","4","3","5","3","4","4","4","5","4","3","4","4","4","4","3","4","3","4","5","5","4","1","0","1","1","0","0","1","1","0","1","1","0","0","0","1","4","4","3","2","4","3","4","4","4","3","673573335019290624","吴","93","","","","","","","","","","","","","","","","","","","","","","","","","","","","","","","","","","","","","","","",""
"529","<p style=""color:rgb(150, 250, 100); font-size: 35px;"">自己</p>","i","categorize-html","16","191809","0.0-6.0-0.0-2.0-1.3","4","3","4","3","3","4","4","1","4","3","5","3","4","4","4","5","4","3","4","4","4","4","3","4","3","4","5","5","4","1","0","1","1","0","0","1","1","0","1","1","0","0","0","1","4","4","3","2","4","3","4","4","4","3","673573335019290624","吴","93","","","","","","","","","","","","","","","","","","","true","1","1","ability","529","self","自己","","","","","","","","","","","","","","",""
"null","","null","html-keyboard-response","17","192060","0.0-6.0-0.0-2.0-0.4","4","3","4","3","3","4","4","1","4","3","5","3","4","4","4","5","4","3","4","4","4","4","3","4","3","4","5","5","4","1","0","1","1","0","0","1","1","0","1","1","0","0","0","1","4","4","3","2","4","3","4","4","4","3","673573335019290624","吴","93","","","","","","","","","","","","","","","","","","","","","","","","","","","","","","","","","","","","","","","",""
"729","<p style=""color:rgb(150, 250, 100); font-size: 35px;"">别人</p>","e","categorize-html","18","192791","0.0-6.0-0.0-2.0-1.4","4","3","4","3","3","4","4","1","4","3","5","3","4","4","4","5","4","3","4","4","4","4","3","4","3","4","5","5","4","1","0","1","1","0","0","1","1","0","1","1","0","0","0","1","4","4","3","2","4","3","4","4","4","3","673573335019290624","吴","93","","","","","","","","","","","","","","","","","","","true","1","1","ability","729","other","别人","","","","","","","","","","","","","","",""
"null","","null","html-keyboard-response","19","193042","0.0-6.0-0.0-2.0-0.5","4","3","4","3","3","4","4","1","4","3","5","3","4","4","4","5","4","3","4","4","4","4","3","4","3","4","5","5","4","1","0","1","1","0","0","1","1","0","1","1","0","0","0","1","4","4","3","2","4","3","4","4","4","3","673573335019290624","吴","93","","","","","","","","","","","","","","","","","","","","","","","","","","","","","","","","","","","","","","","",""
"544","<p style=""color:rgb(150, 250, 100); font-size: 35px;"">他人</p>","e","categorize-html","20","193588","0.0-6.0-0.0-2.0-1.5","4","3","4","3","3","4","4","1","4","3","5","3","4","4","4","5","4","3","4","4","4","4","3","4","3","4","5","5","4","1","0","1","1","0","0","1","1","0","1","1","0","0","0","1","4","4","3","2","4","3","4","4","4","3","673573335019290624","吴","93","","","","","","","","","","","","","","","","","","","true","1","1","ability","544","other","他人","","","","","","","","","","","","","","",""
"null","","null","html-keyboard-response","21","193839","0.0-6.0-0.0-2.0-0.6","4","3","4","3","3","4","4","1","4","3","5","3","4","4","4","5","4","3","4","4","4","4","3","4","3","4","5","5","4","1","0","1","1","0","0","1","1","0","1","1","0","0","0","1","4","4","3","2","4","3","4","4","4","3","673573335019290624","吴","93","","","","","","","","","","","","","","","","","","","","","","","","","","","","","","","","","","","","","","","",""
"901","<p style=""color:rgb(150, 250, 100); font-size: 35px;"">本人的</p>","i","categorize-html","22","194742","0.0-6.0-0.0-2.0-1.6","4","3","4","3","3","4","4","1","4","3","5","3","4","4","4","5","4","3","4","4","4","4","3","4","3","4","5","5","4","1","0","1","1","0","0","1","1","0","1","1","0","0","0","1","4","4","3","2","4","3","4","4","4","3","673573335019290624","吴","93","","","","","","","","","","","","","","","","","","","true","1","1","ability","901","self","本人的","","","","","","","","","","","","","","",""
"null","","null","html-keyboard-response","23","194993","0.0-6.0-0.0-2.0-0.7","4","3","4","3","3","4","4","1","4","3","5","3","4","4","4","5","4","3","4","4","4","4","3","4","3","4","5","5","4","1","0","1","1","0","0","1","1","0","1","1","0","0","0","1","4","4","3","2","4","3","4","4","4","3","673573335019290624","吴","93","","","","","","","","","","","","","","","","","","","","","","","","","","","","","","","","","","","","","","","",""
"836","<p style=""color:rgb(150, 250, 100); font-size: 35px;"">本人</p>","i","categorize-html","24","195831","0.0-6.0-0.0-2.0-1.7","4","3","4","3","3","4","4","1","4","3","5","3","4","4","4","5","4","3","4","4","4","4","3","4","3","4","5","5","4","1","0","1","1","0","0","1","1","0","1","1","0","0","0","1","4","4","3","2","4","3","4","4","4","3","673573335019290624","吴","93","","","","","","","","","","","","","","","","","","","true","1","1","ability","836","self","本人","","","","","","","","","","","","","","",""
"null","","null","html-keyboard-response","25","196082","0.0-6.0-0.0-2.0-0.8","4","3","4","3","3","4","4","1","4","3","5","3","4","4","4","5","4","3","4","4","4","4","3","4","3","4","5","5","4","1","0","1","1","0","0","1","1","0","1","1","0","0","0","1","4","4","3","2","4","3","4","4","4","3","673573335019290624","吴","93","","","","","","","","","","","","","","","","","","","","","","","","","","","","","","","","","","","","","","","",""
"742","<p style=""color:rgb(150, 250, 100); font-size: 35px;"">我的</p>","i","categorize-html","26","196827","0.0-6.0-0.0-2.0-1.8","4","3","4","3","3","4","4","1","4","3","5","3","4","4","4","5","4","3","4","4","4","4","3","4","3","4","5","5","4","1","0","1","1","0","0","1","1","0","1","1","0","0","0","1","4","4","3","2","4","3","4","4","4","3","673573335019290624","吴","93","","","","","","","","","","","","","","","","","","","true","1","1","ability","742","self","我的","","","","","","","","","","","","","","",""
"null","","null","html-keyboard-response","27","197077","0.0-6.0-0.0-2.0-0.9","4","3","4","3","3","4","4","1","4","3","5","3","4","4","4","5","4","3","4","4","4","4","3","4","3","4","5","5","4","1","0","1","1","0","0","1","1","0","1","1","0","0","0","1","4","4","3","2","4","3","4","4","4","3","673573335019290624","吴","93","","","","","","","","","","","","","","","","","","","","","","","","","","","","","","","","","","","","","","","",""
"656","<p style=""color:rgb(150, 250, 100); font-size: 35px;"">别人的</p>","e","categorize-html","28","197735","0.0-6.0-0.0-2.0-1.9","4","3","4","3","3","4","4","1","4","3","5","3","4","4","4","5","4","3","4","4","4","4","3","4","3","4","5","5","4","1","0","1","1","0","0","1","1","0","1","1","0","0","0","1","4","4","3","2","4","3","4","4","4","3","673573335019290624","吴","93","","","","","","","","","","","","","","","","","","","true","1","1","ability","656","other","别人的","","","","","","","","","","","","","","",""
"null","","null","html-keyboard-response","29","197986","0.0-6.0-0.0-2.0-0.10","4","3","4","3","3","4","4","1","4","3","5","3","4","4","4","5","4","3","4","4","4","4","3","4","3","4","5","5","4","1","0","1","1","0","0","1","1","0","1","1","0","0","0","1","4","4","3","2","4","3","4","4","4","3","673573335019290624","吴","93","","","","","","","","","","","","","","","","","","","","","","","","","","","","","","","","","","","","","","","",""
"509","<p style=""color:rgb(150, 250, 100); font-size: 35px;"">他的</p>","e","categorize-html","30","198497","0.0-6.0-0.0-2.0-1.10","4","3","4","3","3","4","4","1","4","3","5","3","4","4","4","5","4","3","4","4","4","4","3","4","3","4","5","5","4","1","0","1","1","0","0","1","1","0","1","1","0","0","0","1","4","4","3","2","4","3","4","4","4","3","673573335019290624","吴","93","","","","","","","","","","","","","","","","","","","true","1","1","ability","509","other","他的","","","","","","","","","","","","","","",""
"null","","null","html-keyboard-response","31","198748","0.0-6.0-0.0-2.0-0.11","4","3","4","3","3","4","4","1","4","3","5","3","4","4","4","5","4","3","4","4","4","4","3","4","3","4","5","5","4","1","0","1","1","0","0","1","1","0","1","1","0","0","0","1","4","4","3","2","4","3","4","4","4","3","673573335019290624","吴","93","","","","","","","","","","","","","","","","","","","","","","","","","","","","","","","","","","","","","","","",""
"566","<p style=""color:rgb(150, 250, 100); font-size: 35px;"">他人的</p>","e","categorize-html","32","199316","0.0-6.0-0.0-2.0-1.11","4","3","4","3","3","4","4","1","4","3","5","3","4","4","4","5","4","3","4","4","4","4","3","4","3","4","5","5","4","1","0","1","1","0","0","1","1","0","1","1","0","0","0","1","4","4","3","2","4","3","4","4","4","3","673573335019290624","吴","93","","","","","","","","","","","","","","","","","","","true","1","1","ability","566","other","他人的","","","","","","","","","","","","","","",""
"6252","
    <div class=""tag-bottom""><p>
    —— 任务2：对“积极”词和“消极”词分类 ——<p/>   
    <span style=""color:#78DCE8""><b>注意上方，类别标签和需要分类的词语都已经改变</b></span><p/>
    <span style=""color:#FFD866""><b>请根据上方标签的提示，尽可能正确并且快速地做出按键反应</b></span><p/>
    当按键错误时屏幕中会出现<span style=""color:red""> X </span>，需要按另一个键纠正才能继续<br/><p/>
    请把双手食指分别放在键盘的“E”键和“I”键上<p/>
    按<空格键>开始
    </p></div>"," ","html-keyboard-response","33","205569","0.0-6.0-0.0-3.0","4","3","4","3","3","4","4","1","4","3","5","3","4","4","4","5","4","3","4","4","4","4","3","4","3","4","5","5","4","1","0","1","1","0","0","1","1","0","1","1","0","0","0","1","4","4","3","2","4","3","4","4","4","3","673573335019290624","吴","93","","","","","","","","","","","","","","","","","","","","","","","","","","","","","","","","","","","","","","","",""
"null","","null","html-keyboard-response","34","205819","0.0-6.0-0.0-4.0-0.0","4","3","4","3","3","4","4","1","4","3","5","3","4","4","4","5","4","3","4","4","4","4","3","4","3","4","5","5","4","1","0","1","1","0","0","1","1","0","1","1","0","0","0","1","4","4","3","2","4","3","4","4","4","3","673573335019290624","吴","93","","","","","","","","","","","","","","","","","","","","","","","","","","","","","","","","","","","","","","","",""
"652","<p style=""color:white; font-size: 35px;"">全才</p>","e","categorize-html","35","206473","0.0-6.0-0.0-4.0-1.0","4","3","4","3","3","4","4","1","4","3","5","3","4","4","4","5","4","3","4","4","4","4","3","4","3","4","5","5","4","1","0","1","1","0","0","1","1","0","1","1","0","0","0","1","4","4","3","2","4","3","4","4","4","3","673573335019290624","吴","93","","","","","","","","","","","","","","","","","","","true","2","2","ability","652","positive","全才","","","","","","","","","","","","","","",""
"null","","null","html-keyboard-response","36","206725","0.0-6.0-0.0-4.0-0.1","4","3","4","3","3","4","4","1","4","3","5","3","4","4","4","5","4","3","4","4","4","4","3","4","3","4","5","5","4","1","0","1","1","0","0","1","1","0","1","1","0","0","0","1","4","4","3","2","4","3","4","4","4","3","673573335019290624","吴","93","","","","","","","","","","","","","","","","","","","","","","","","","","","","","","","","","","","","","","","",""
"603","<p style=""color:white; font-size: 35px;"">精干</p>","e","categorize-html","37","207329","0.0-6.0-0.0-4.0-1.1","4","3","4","3","3","4","4","1","4","3","5","3","4","4","4","5","4","3","4","4","4","4","3","4","3","4","5","5","4","1","0","1","1","0","0","1","1","0","1","1","0","0","0","1","4","4","3","2","4","3","4","4","4","3","673573335019290624","吴","93","","","","","","","","","","","","","","","","","","","true","2","2","ability","603","positive","精干","","","","","","","","","","","","","","",""
"null","","null","html-keyboard-response","38","207581","0.0-6.0-0.0-4.0-0.2","4","3","4","3","3","4","4","1","4","3","5","3","4","4","4","5","4","3","4","4","4","4","3","4","3","4","5","5","4","1","0","1","1","0","0","1","1","0","1","1","0","0","0","1","4","4","3","2","4","3","4","4","4","3","673573335019290624","吴","93","","","","","","","","","","","","","","","","","","","","","","","","","","","","","","","","","","","","","","","",""
"658","<p style=""color:white; font-size: 35px;"">无能</p>","i","categorize-html","39","208241","0.0-6.0-0.0-4.0-1.2","4","3","4","3","3","4","4","1","4","3","5","3","4","4","4","5","4","3","4","4","4","4","3","4","3","4","5","5","4","1","0","1","1","0","0","1","1","0","1","1","0","0","0","1","4","4","3","2","4","3","4","4","4","3","673573335019290624","吴","93","","","","","","","","","","","","","","","","","","","true","2","2","ability","658","negative","无能","","","","","","","","","","","","","","",""
"null","","null","html-keyboard-response","40","208492","0.0-6.0-0.0-4.0-0.3","4","3","4","3","3","4","4","1","4","3","5","3","4","4","4","5","4","3","4","4","4","4","3","4","3","4","5","5","4","1","0","1","1","0","0","1","1","0","1","1","0","0","0","1","4","4","3","2","4","3","4","4","4","3","673573335019290624","吴","93","","","","","","","","","","","","","","","","","","","","","","","","","","","","","","","","","","","","","","","",""
"730","<p style=""color:white; font-size: 35px;"">拙笨</p>","i","categorize-html","41","209223","0.0-6.0-0.0-4.0-1.3","4","3","4","3","3","4","4","1","4","3","5","3","4","4","4","5","4","3","4","4","4","4","3","4","3","4","5","5","4","1","0","1","1","0","0","1","1","0","1","1","0","0","0","1","4","4","3","2","4","3","4","4","4","3","673573335019290624","吴","93","","","","","","","","","","","","","","","","","","","true","2","2","ability","730","negative","拙笨","","","","","","","","","","","","","","",""
"null","","null","html-keyboard-response","42","209475","0.0-6.0-0.0-4.0-0.4","4","3","4","3","3","4","4","1","4","3","5","3","4","4","4","5","4","3","4","4","4","4","3","4","3","4","5","5","4","1","0","1","1","0","0","1","1","0","1","1","0","0","0","1","4","4","3","2","4","3","4","4","4","3","673573335019290624","吴","93","","","","","","","","","","","","","","","","","","","","","","","","","","","","","","","","","","","","","","","",""
"714","<p style=""color:white; font-size: 35px;"">废物</p>","i","categorize-html","43","210191","0.0-6.0-0.0-4.0-1.4","4","3","4","3","3","4","4","1","4","3","5","3","4","4","4","5","4","3","4","4","4","4","3","4","3","4","5","5","4","1","0","1","1","0","0","1","1","0","1","1","0","0","0","1","4","4","3","2","4","3","4","4","4","3","673573335019290624","吴","93","","","","","","","","","","","","","","","","","","","true","2","2","ability","714","negative","废物","","","","","","","","","","","","","","",""
"null","","null","html-keyboard-response","44","210442","0.0-6.0-0.0-4.0-0.5","4","3","4","3","3","4","4","1","4","3","5","3","4","4","4","5","4","3","4","4","4","4","3","4","3","4","5","5","4","1","0","1","1","0","0","1","1","0","1","1","0","0","0","1","4","4","3","2","4","3","4","4","4","3","673573335019290624","吴","93","","","","","","","","","","","","","","","","","","","","","","","","","","","","","","","","","","","","","","","",""
"687","<p style=""color:white; font-size: 35px;"">高效</p>","e","categorize-html","45","211131","0.0-6.0-0.0-4.0-1.5","4","3","4","3","3","4","4","1","4","3","5","3","4","4","4","5","4","3","4","4","4","4","3","4","3","4","5","5","4","1","0","1","1","0","0","1","1","0","1","1","0","0","0","1","4","4","3","2","4","3","4","4","4","3","673573335019290624","吴","93","","","","","","","","","","","","","","","","","","","true","2","2","ability","687","positive","高效","","","","","","","","","","","","","","",""
"null","","null","html-keyboard-response","46","211382","0.0-6.0-0.0-4.0-0.6","4","3","4","3","3","4","4","1","4","3","5","3","4","4","4","5","4","3","4","4","4","4","3","4","3","4","5","5","4","1","0","1","1","0","0","1","1","0","1","1","0","0","0","1","4","4","3","2","4","3","4","4","4","3","673573335019290624","吴","93","","","","","","","","","","","","","","","","","","","","","","","","","","","","","","","","","","","","","","","",""
"531","<p style=""color:white; font-size: 35px;"">能干</p>","e","categorize-html","47","211915","0.0-6.0-0.0-4.0-1.6","4","3","4","3","3","4","4","1","4","3","5","3","4","4","4","5","4","3","4","4","4","4","3","4","3","4","5","5","4","1","0","1","1","0","0","1","1","0","1","1","0","0","0","1","4","4","3","2","4","3","4","4","4","3","673573335019290624","吴","93","","","","","","","","","","","","","","","","","","","true","2","2","ability","531","positive","能干","","","","","","","","","","","","","","",""
"null","","null","html-keyboard-response","48","212166","0.0-6.0-0.0-4.0-0.7","4","3","4","3","3","4","4","1","4","3","5","3","4","4","4","5","4","3","4","4","4","4","3","4","3","4","5","5","4","1","0","1","1","0","0","1","1","0","1","1","0","0","0","1","4","4","3","2","4","3","4","4","4","3","673573335019290624","吴","93","","","","","","","","","","","","","","","","","","","","","","","","","","","","","","","","","","","","","","","",""
"572","<p style=""color:white; font-size: 35px;"">天才</p>","e","categorize-html","49","212739","0.0-6.0-0.0-4.0-1.7","4","3","4","3","3","4","4","1","4","3","5","3","4","4","4","5","4","3","4","4","4","4","3","4","3","4","5","5","4","1","0","1","1","0","0","1","1","0","1","1","0","0","0","1","4","4","3","2","4","3","4","4","4","3","673573335019290624","吴","93","","","","","","","","","","","","","","","","","","","true","2","2","ability","572","positive","天才","","","","","","","","","","","","","","",""
"null","","null","html-keyboard-response","50","212991","0.0-6.0-0.0-4.0-0.8","4","3","4","3","3","4","4","1","4","3","5","3","4","4","4","5","4","3","4","4","4","4","3","4","3","4","5","5","4","1","0","1","1","0","0","1","1","0","1","1","0","0","0","1","4","4","3","2","4","3","4","4","4","3","673573335019290624","吴","93","","","","","","","","","","","","","","","","","","","","","","","","","","","","","","","","","","","","","","","",""
"689","<p style=""color:white; font-size: 35px;"">蠢笨</p>","i","categorize-html","51","213682","0.0-6.0-0.0-4.0-1.8","4","3","4","3","3","4","4","1","4","3","5","3","4","4","4","5","4","3","4","4","4","4","3","4","3","4","5","5","4","1","0","1","1","0","0","1","1","0","1","1","0","0","0","1","4","4","3","2","4","3","4","4","4","3","673573335019290624","吴","93","","","","","","","","","","","","","","","","","","","true","2","2","ability","689","negative","蠢笨","","","","","","","","","","","","","","",""
"null","","null","html-keyboard-response","52","213933","0.0-6.0-0.0-4.0-0.9","4","3","4","3","3","4","4","1","4","3","5","3","4","4","4","5","4","3","4","4","4","4","3","4","3","4","5","5","4","1","0","1","1","0","0","1","1","0","1","1","0","0","0","1","4","4","3","2","4","3","4","4","4","3","673573335019290624","吴","93","","","","","","","","","","","","","","","","","","","","","","","","","","","","","","","","","","","","","","","",""
"724","<p style=""color:white; font-size: 35px;"">低能</p>","i","categorize-html","53","214658","0.0-6.0-0.0-4.0-1.9","4","3","4","3","3","4","4","1","4","3","5","3","4","4","4","5","4","3","4","4","4","4","3","4","3","4","5","5","4","1","0","1","1","0","0","1","1","0","1","1","0","0","0","1","4","4","3","2","4","3","4","4","4","3","673573335019290624","吴","93","","","","","","","","","","","","","","","","","","","true","2","2","ability","724","negative","低能","","","","","","","","","","","","","","",""
"null","","null","html-keyboard-response","54","214909","0.0-6.0-0.0-4.0-0.10","4","3","4","3","3","4","4","1","4","3","5","3","4","4","4","5","4","3","4","4","4","4","3","4","3","4","5","5","4","1","0","1","1","0","0","1","1","0","1","1","0","0","0","1","4","4","3","2","4","3","4","4","4","3","673573335019290624","吴","93","","","","","","","","","","","","","","","","","","","","","","","","","","","","","","","","","","","","","","","",""
"661","<p style=""color:white; font-size: 35px;"">全能</p>","e","categorize-html","55","215572","0.0-6.0-0.0-4.0-1.10","4","3","4","3","3","4","4","1","4","3","5","3","4","4","4","5","4","3","4","4","4","4","3","4","3","4","5","5","4","1","0","1","1","0","0","1","1","0","1","1","0","0","0","1","4","4","3","2","4","3","4","4","4","3","673573335019290624","吴","93","","","","","","","","","","","","","","","","","","","true","2","2","ability","661","positive","全能","","","","","","","","","","","","","","",""
"null","","null","html-keyboard-response","56","215823","0.0-6.0-0.0-4.0-0.11","4","3","4","3","3","4","4","1","4","3","5","3","4","4","4","5","4","3","4","4","4","4","3","4","3","4","5","5","4","1","0","1","1","0","0","1","1","0","1","1","0","0","0","1","4","4","3","2","4","3","4","4","4","3","673573335019290624","吴","93","","","","","","","","","","","","","","","","","","","","","","","","","","","","","","","","","","","","","","","",""
"914","<p style=""color:white; font-size: 35px;"">愚钝</p>","i","categorize-html","57","216741","0.0-6.0-0.0-4.0-1.11","4","3","4","3","3","4","4","1","4","3","5","3","4","4","4","5","4","3","4","4","4","4","3","4","3","4","5","5","4","1","0","1","1","0","0","1","1","0","1","1","0","0","0","1","4","4","3","2","4","3","4","4","4","3","673573335019290624","吴","93","","","","","","","","","","","","","","","","","","","true","2","2","ability","914","negative","愚钝","","","","","","","","","","","","","","",""
"6588","
    <div class=""tag-bottom""><p>
    —— 任务3：对“他人/积极”词和“自我/消极”词分类 ——<p/>
    <span style=""color:#78DCE8""><b>注意上方，之前的四类词语将混合在一起交替呈现</b></span><p/>
    <span style=""color:#FFD866""><b>请根据上方标签的提示，尽可能正确并且快速地做出按键反应</b></span><p/>
    当按键错误时屏幕中会出现<span style=""color:red""> X </span>，需要按另一个键纠正才能继续<br/><p/>
    请把双手食指分别放在键盘的“E”键和“I”键上<p/>
    按<空格键>开始
    </p></div>"," ","html-keyboard-response","58","223330","0.0-6.0-0.0-5.0","4","3","4","3","3","4","4","1","4","3","5","3","4","4","4","5","4","3","4","4","4","4","3","4","3","4","5","5","4","1","0","1","1","0","0","1","1","0","1","1","0","0","0","1","4","4","3","2","4","3","4","4","4","3","673573335019290624","吴","93","","","","","","","","","","","","","","","","","","","","","","","","","","","","","","","","","","","","","","","",""
"null","","null","html-keyboard-response","59","223581","0.0-6.0-0.0-6.0-0.0","4","3","4","3","3","4","4","1","4","3","5","3","4","4","4","5","4","3","4","4","4","4","3","4","3","4","5","5","4","1","0","1","1","0","0","1","1","0","1","1","0","0","0","1","4","4","3","2","4","3","4","4","4","3","673573335019290624","吴","93","","","","","","","","","","","","","","","","","","","","","","","","","","","","","","","","","","","","","","","",""
"1209","<p style=""color:rgb(150, 250, 100); font-size: 35px;"">本人</p>","i","categorize-html","60","224793","0.0-6.0-0.0-6.0-1.0","4","3","4","3","3","4","4","1","4","3","5","3","4","4","4","5","4","3","4","4","4","4","3","4","3","4","5","5","4","1","0","1","1","0","0","1","1","0","1","1","0","0","0","1","4","4","3","2","4","3","4","4","4","3","673573335019290624","吴","93","","","","","","","","","","","","","","","","","","","true","3","3","ability","1209","self","本人","","","","","","","","","","","","","","",""
"null","","null","html-keyboard-response","61","225044","0.0-6.0-0.0-6.0-0.1","4","3","4","3","3","4","4","1","4","3","5","3","4","4","4","5","4","3","4","4","4","4","3","4","3","4","5","5","4","1","0","1","1","0","0","1","1","0","1","1","0","0","0","1","4","4","3","2","4","3","4","4","4","3","673573335019290624","吴","93","","","","","","","","","","","","","","","","","","","","","","","","","","","","","","","","","","","","","","","",""
"1053","<p style=""color:white; font-size: 35px;"">精干</p>","e","categorize-html","62","226100","0.0-6.0-0.0-6.0-1.1","4","3","4","3","3","4","4","1","4","3","5","3","4","4","4","5","4","3","4","4","4","4","3","4","3","4","5","5","4","1","0","1","1","0","0","1","1","0","1","1","0","0","0","1","4","4","3","2","4","3","4","4","4","3","673573335019290624","吴","93","","","","","","","","","","","","","","","","","","","true","3","3","ability","1053","positive","精干","","","","","","","","","","","","","","",""
"null","","null","html-keyboard-response","63","226351","0.0-6.0-0.0-6.0-0.2","4","3","4","3","3","4","4","1","4","3","5","3","4","4","4","5","4","3","4","4","4","4","3","4","3","4","5","5","4","1","0","1","1","0","0","1","1","0","1","1","0","0","0","1","4","4","3","2","4","3","4","4","4","3","673573335019290624","吴","93","","","","","","","","","","","","","","","","","","","","","","","","","","","","","","","","","","","","","","","",""
"615","<p style=""color:rgb(150, 250, 100); font-size: 35px;"">他人</p>","e","categorize-html","64","226967","0.0-6.0-0.0-6.0-1.2","4","3","4","3","3","4","4","1","4","3","5","3","4","4","4","5","4","3","4","4","4","4","3","4","3","4","5","5","4","1","0","1","1","0","0","1","1","0","1","1","0","0","0","1","4","4","3","2","4","3","4","4","4","3","673573335019290624","吴","93","","","","","","","","","","","","","","","","","","","true","3","3","ability","615","other","他人","","","","","","","","","","","","","","",""
"null","","null","html-keyboard-response","65","227218","0.0-6.0-0.0-6.0-0.3","4","3","4","3","3","4","4","1","4","3","5","3","4","4","4","5","4","3","4","4","4","4","3","4","3","4","5","5","4","1","0","1","1","0","0","1","1","0","1","1","0","0","0","1","4","4","3","2","4","3","4","4","4","3","673573335019290624","吴","93","","","","","","","","","","","","","","","","","","","","","","","","","","","","","","","","","","","","","","","",""
"700","<p style=""color:white; font-size: 35px;"">无能</p>","i","categorize-html","66","227918","0.0-6.0-0.0-6.0-1.3","4","3","4","3","3","4","4","1","4","3","5","3","4","4","4","5","4","3","4","4","4","4","3","4","3","4","5","5","4","1","0","1","1","0","0","1","1","0","1","1","0","0","0","1","4","4","3","2","4","3","4","4","4","3","673573335019290624","吴","93","","","","","","","","","","","","","","","","","","","true","3","3","ability","700","negative","无能","","","","","","","","","","","","","","",""
"null","","null","html-keyboard-response","67","228169","0.0-6.0-0.0-6.0-0.4","4","3","4","3","3","4","4","1","4","3","5","3","4","4","4","5","4","3","4","4","4","4","3","4","3","4","5","5","4","1","0","1","1","0","0","1","1","0","1","1","0","0","0","1","4","4","3","2","4","3","4","4","4","3","673573335019290624","吴","93","","","","","","","","","","","","","","","","","","","","","","","","","","","","","","","","","","","","","","","",""
"641","<p style=""color:rgb(150, 250, 100); font-size: 35px;"">别人</p>","e","categorize-html","68","228812","0.0-6.0-0.0-6.0-1.4","4","3","4","3","3","4","4","1","4","3","5","3","4","4","4","5","4","3","4","4","4","4","3","4","3","4","5","5","4","1","0","1","1","0","0","1","1","0","1","1","0","0","0","1","4","4","3","2","4","3","4","4","4","3","673573335019290624","吴","93","","","","","","","","","","","","","","","","","","","true","3","3","ability","641","other","别人","","","","","","","","","","","","","","",""
"null","","null","html-keyboard-response","69","229063","0.0-6.0-0.0-6.0-0.5","4","3","4","3","3","4","4","1","4","3","5","3","4","4","4","5","4","3","4","4","4","4","3","4","3","4","5","5","4","1","0","1","1","0","0","1","1","0","1","1","0","0","0","1","4","4","3","2","4","3","4","4","4","3","673573335019290624","吴","93","","","","","","","","","","","","","","","","","","","","","","","","","","","","","","","","","","","","","","","",""
"1417","<p style=""color:white; font-size: 35px;"">全才</p>","e","categorize-html","70","230482","0.0-6.0-0.0-6.0-1.5","4","3","4","3","3","4","4","1","4","3","5","3","4","4","4","5","4","3","4","4","4","4","3","4","3","4","5","5","4","1","0","1","1","0","0","1","1","0","1","1","0","0","0","1","4","4","3","2","4","3","4","4","4","3","673573335019290624","吴","93","","","","","","","","","","","","","","","","","","","true","3","3","ability","1417","positive","全才","","","","","","","","","","","","","","",""
"null","","null","html-keyboard-response","71","230734","0.0-6.0-0.0-6.0-0.6","4","3","4","3","3","4","4","1","4","3","5","3","4","4","4","5","4","3","4","4","4","4","3","4","3","4","5","5","4","1","0","1","1","0","0","1","1","0","1","1","0","0","0","1","4","4","3","2","4","3","4","4","4","3","673573335019290624","吴","93","","","","","","","","","","","","","","","","","","","","","","","","","","","","","","","","","","","","","","","",""
"683","<p style=""color:rgb(150, 250, 100); font-size: 35px;"">自己</p>","i","categorize-html","72","231418","0.0-6.0-0.0-6.0-1.6","4","3","4","3","3","4","4","1","4","3","5","3","4","4","4","5","4","3","4","4","4","4","3","4","3","4","5","5","4","1","0","1","1","0","0","1","1","0","1","1","0","0","0","1","4","4","3","2","4","3","4","4","4","3","673573335019290624","吴","93","","","","","","","","","","","","","","","","","","","true","3","3","ability","683","self","自己","","","","","","","","","","","","","","",""
"null","","null","html-keyboard-response","73","231670","0.0-6.0-0.0-6.0-0.7","4","3","4","3","3","4","4","1","4","3","5","3","4","4","4","5","4","3","4","4","4","4","3","4","3","4","5","5","4","1","0","1","1","0","0","1","1","0","1","1","0","0","0","1","4","4","3","2","4","3","4","4","4","3","673573335019290624","吴","93","","","","","","","","","","","","","","","","","","","","","","","","","","","","","","","","","","","","","","","",""
"1155","<p style=""color:white; font-size: 35px;"">低能</p>","i","categorize-html","74","232827","0.0-6.0-0.0-6.0-1.7","4","3","4","3","3","4","4","1","4","3","5","3","4","4","4","5","4","3","4","4","4","4","3","4","3","4","5","5","4","1","0","1","1","0","0","1","1","0","1","1","0","0","0","1","4","4","3","2","4","3","4","4","4","3","673573335019290624","吴","93","","","","","","","","","","","","","","","","","","","true","3","3","ability","1155","negative","低能","","","","","","","","","","","","","","",""
"null","","null","html-keyboard-response","75","233078","0.0-6.0-0.0-6.0-0.8","4","3","4","3","3","4","4","1","4","3","5","3","4","4","4","5","4","3","4","4","4","4","3","4","3","4","5","5","4","1","0","1","1","0","0","1","1","0","1","1","0","0","0","1","4","4","3","2","4","3","4","4","4","3","673573335019290624","吴","93","","","","","","","","","","","","","","","","","","","","","","","","","","","","","","","","","","","","","","","",""
"926","<p style=""color:rgb(150, 250, 100); font-size: 35px;"">我的</p>","e","categorize-html","76","235015","0.0-6.0-0.0-6.0-1.8","4","3","4","3","3","4","4","1","4","3","5","3","4","4","4","5","4","3","4","4","4","4","3","4","3","4","5","5","4","1","0","1","1","0","0","1","1","0","1","1","0","0","0","1","4","4","3","2","4","3","4","4","4","3","673573335019290624","吴","93","","","","","","","","","","","","","","","","","","","false","3","3","ability","1502.818181818182","self","我的","","","","","","","","","","","","","","",""
"null","","null","html-keyboard-response","77","235266","0.0-6.0-0.0-6.0-0.9","4","3","4","3","3","4","4","1","4","3","5","3","4","4","4","5","4","3","4","4","4","4","3","4","3","4","5","5","4","1","0","1","1","0","0","1","1","0","1","1","0","0","0","1","4","4","3","2","4","3","4","4","4","3","673573335019290624","吴","93","","","","","","","","","","","","","","","","","","","","","","","","","","","","","","","","","","","","","","","",""
"20","<p style=""color:white; font-size: 35px;"">全能</p>","i","categorize-html","78","236557","0.0-6.0-0.0-6.0-1.9","4","3","4","3","3","4","4","1","4","3","5","3","4","4","4","5","4","3","4","4","4","4","3","4","3","4","5","5","4","1","0","1","1","0","0","1","1","0","1","1","0","0","0","1","4","4","3","2","4","3","4","4","4","3","673573335019290624","吴","93","","","","","","","","","","","","","","","","","","","false","3","3","ability","1502.818181818182","positive","全能","","","","","","","","","","","","","","",""
"null","","null","html-keyboard-response","79","236808","0.0-6.0-0.0-6.0-0.10","4","3","4","3","3","4","4","1","4","3","5","3","4","4","4","5","4","3","4","4","4","4","3","4","3","4","5","5","4","1","0","1","1","0","0","1","1","0","1","1","0","0","0","1","4","4","3","2","4","3","4","4","4","3","673573335019290624","吴","93","","","","","","","","","","","","","","","","","","","","","","","","","","","","","","","","","","","","","","","",""
"819","<p style=""color:rgb(150, 250, 100); font-size: 35px;"">他</p>","e","categorize-html","80","237629","0.0-6.0-0.0-6.0-1.10","4","3","4","3","3","4","4","1","4","3","5","3","4","4","4","5","4","3","4","4","4","4","3","4","3","4","5","5","4","1","0","1","1","0","0","1","1","0","1","1","0","0","0","1","4","4","3","2","4","3","4","4","4","3","673573335019290624","吴","93","","","","","","","","","","","","","","","","","","","true","3","3","ability","819","other","他","","","","","","","","","","","","","","",""
"null","","null","html-keyboard-response","81","237880","0.0-6.0-0.0-6.0-0.11","4","3","4","3","3","4","4","1","4","3","5","3","4","4","4","5","4","3","4","4","4","4","3","4","3","4","5","5","4","1","0","1","1","0","0","1","1","0","1","1","0","0","0","1","4","4","3","2","4","3","4","4","4","3","673573335019290624","吴","93","","","","","","","","","","","","","","","","","","","","","","","","","","","","","","","","","","","","","","","",""
"783","<p style=""color:white; font-size: 35px;"">拙笨</p>","i","categorize-html","82","238664","0.0-6.0-0.0-6.0-1.11","4","3","4","3","3","4","4","1","4","3","5","3","4","4","4","5","4","3","4","4","4","4","3","4","3","4","5","5","4","1","0","1","1","0","0","1","1","0","1","1","0","0","0","1","4","4","3","2","4","3","4","4","4","3","673573335019290624","吴","93","","","","","","","","","","","","","","","","","","","true","3","3","ability","783","negative","拙笨","","","","","","","","","","","","","","",""
"null","","null","html-keyboard-response","83","238916","0.0-6.0-0.0-6.0-0.12","4","3","4","3","3","4","4","1","4","3","5","3","4","4","4","5","4","3","4","4","4","4","3","4","3","4","5","5","4","1","0","1","1","0","0","1","1","0","1","1","0","0","0","1","4","4","3","2","4","3","4","4","4","3","673573335019290624","吴","93","","","","","","","","","","","","","","","","","","","","","","","","","","","","","","","","","","","","","","","",""
"1249","<p style=""color:rgb(150, 250, 100); font-size: 35px;"">我</p>","i","categorize-html","84","240167","0.0-6.0-0.0-6.0-1.12","4","3","4","3","3","4","4","1","4","3","5","3","4","4","4","5","4","3","4","4","4","4","3","4","3","4","5","5","4","1","0","1","1","0","0","1","1","0","1","1","0","0","0","1","4","4","3","2","4","3","4","4","4","3","673573335019290624","吴","93","","","","","","","","","","","","","","","","","","","true","3","3","ability","1249","self","我","","","","","","","","","","","","","","",""
"null","","null","html-keyboard-response","85","240418","0.0-6.0-0.0-6.0-0.13","4","3","4","3","3","4","4","1","4","3","5","3","4","4","4","5","4","3","4","4","4","4","3","4","3","4","5","5","4","1","0","1","1","0","0","1","1","0","1","1","0","0","0","1","4","4","3","2","4","3","4","4","4","3","673573335019290624","吴","93","","","","","","","","","","","","","","","","","","","","","","","","","","","","","","","","","","","","","","","",""
"1012","<p style=""color:white; font-size: 35px;"">愚钝</p>","i","categorize-html","86","241432","0.0-6.0-0.0-6.0-1.13","4","3","4","3","3","4","4","1","4","3","5","3","4","4","4","5","4","3","4","4","4","4","3","4","3","4","5","5","4","1","0","1","1","0","0","1","1","0","1","1","0","0","0","1","4","4","3","2","4","3","4","4","4","3","673573335019290624","吴","93","","","","","","","","","","","","","","","","","","","true","3","3","ability","1012","negative","愚钝","","","","","","","","","","","","","","",""
"null","","null","html-keyboard-response","87","241683","0.0-6.0-0.0-6.0-0.14","4","3","4","3","3","4","4","1","4","3","5","3","4","4","4","5","4","3","4","4","4","4","3","4","3","4","5","5","4","1","0","1","1","0","0","1","1","0","1","1","0","0","0","1","4","4","3","2","4","3","4","4","4","3","673573335019290624","吴","93","","","","","","","","","","","","","","","","","","","","","","","","","","","","","","","","","","","","","","","",""
"765","<p style=""color:rgb(150, 250, 100); font-size: 35px;"">他的</p>","e","categorize-html","88","242450","0.0-6.0-0.0-6.0-1.14","4","3","4","3","3","4","4","1","4","3","5","3","4","4","4","5","4","3","4","4","4","4","3","4","3","4","5","5","4","1","0","1","1","0","0","1","1","0","1","1","0","0","0","1","4","4","3","2","4","3","4","4","4","3","673573335019290624","吴","93","","","","","","","","","","","","","","","","","","","true","3","3","ability","765","other","他的","","","","","","","","","","","","","","",""
"null","","null","html-keyboard-response","89","242701","0.0-6.0-0.0-6.0-0.15","4","3","4","3","3","4","4","1","4","3","5","3","4","4","4","5","4","3","4","4","4","4","3","4","3","4","5","5","4","1","0","1","1","0","0","1","1","0","1","1","0","0","0","1","4","4","3","2","4","3","4","4","4","3","673573335019290624","吴","93","","","","","","","","","","","","","","","","","","","","","","","","","","","","","","","","","","","","","","","",""
"611","<p style=""color:white; font-size: 35px;"">天才</p>","e","categorize-html","90","243314","0.0-6.0-0.0-6.0-1.15","4","3","4","3","3","4","4","1","4","3","5","3","4","4","4","5","4","3","4","4","4","4","3","4","3","4","5","5","4","1","0","1","1","0","0","1","1","0","1","1","0","0","0","1","4","4","3","2","4","3","4","4","4","3","673573335019290624","吴","93","","","","","","","","","","","","","","","","","","","true","3","3","ability","611","positive","天才","","","","","","","","","","","","","","",""
"null","","null","html-keyboard-response","91","243564","0.0-6.0-0.0-6.0-0.16","4","3","4","3","3","4","4","1","4","3","5","3","4","4","4","5","4","3","4","4","4","4","3","4","3","4","5","5","4","1","0","1","1","0","0","1","1","0","1","1","0","0","0","1","4","4","3","2","4","3","4","4","4","3","673573335019290624","吴","93","","","","","","","","","","","","","","","","","","","","","","","","","","","","","","","","","","","","","","","",""
"1010","<p style=""color:rgb(150, 250, 100); font-size: 35px;"">自己的</p>","i","categorize-html","92","244576","0.0-6.0-0.0-6.0-1.16","4","3","4","3","3","4","4","1","4","3","5","3","4","4","4","5","4","3","4","4","4","4","3","4","3","4","5","5","4","1","0","1","1","0","0","1","1","0","1","1","0","0","0","1","4","4","3","2","4","3","4","4","4","3","673573335019290624","吴","93","","","","","","","","","","","","","","","","","","","true","3","3","ability","1010","self","自己的","","","","","","","","","","","","","","",""
"null","","null","html-keyboard-response","93","244827","0.0-6.0-0.0-6.0-0.17","4","3","4","3","3","4","4","1","4","3","5","3","4","4","4","5","4","3","4","4","4","4","3","4","3","4","5","5","4","1","0","1","1","0","0","1","1","0","1","1","0","0","0","1","4","4","3","2","4","3","4","4","4","3","673573335019290624","吴","93","","","","","","","","","","","","","","","","","","","","","","","","","","","","","","","","","","","","","","","",""
"729","<p style=""color:white; font-size: 35px;"">能干</p>","e","categorize-html","94","245558","0.0-6.0-0.0-6.0-1.17","4","3","4","3","3","4","4","1","4","3","5","3","4","4","4","5","4","3","4","4","4","4","3","4","3","4","5","5","4","1","0","1","1","0","0","1","1","0","1","1","0","0","0","1","4","4","3","2","4","3","4","4","4","3","673573335019290624","吴","93","","","","","","","","","","","","","","","","","","","true","3","3","ability","729","positive","能干","","","","","","","","","","","","","","",""
"null","","null","html-keyboard-response","95","245809","0.0-6.0-0.0-6.0-0.18","4","3","4","3","3","4","4","1","4","3","5","3","4","4","4","5","4","3","4","4","4","4","3","4","3","4","5","5","4","1","0","1","1","0","0","1","1","0","1","1","0","0","0","1","4","4","3","2","4","3","4","4","4","3","673573335019290624","吴","93","","","","","","","","","","","","","","","","","","","","","","","","","","","","","","","","","","","","","","","",""
"990","<p style=""color:rgb(150, 250, 100); font-size: 35px;"">别人的</p>","e","categorize-html","96","246802","0.0-6.0-0.0-6.0-1.18","4","3","4","3","3","4","4","1","4","3","5","3","4","4","4","5","4","3","4","4","4","4","3","4","3","4","5","5","4","1","0","1","1","0","0","1","1","0","1","1","0","0","0","1","4","4","3","2","4","3","4","4","4","3","673573335019290624","吴","93","","","","","","","","","","","","","","","","","","","true","3","3","ability","990","other","别人的","","","","","","","","","","","","","","",""
"null","","null","html-keyboard-response","97","247053","0.0-6.0-0.0-6.0-0.19","4","3","4","3","3","4","4","1","4","3","5","3","4","4","4","5","4","3","4","4","4","4","3","4","3","4","5","5","4","1","0","1","1","0","0","1","1","0","1","1","0","0","0","1","4","4","3","2","4","3","4","4","4","3","673573335019290624","吴","93","","","","","","","","","","","","","","","","","","","","","","","","","","","","","","","","","","","","","","","",""
"928","<p style=""color:white; font-size: 35px;"">废物</p>","i","categorize-html","98","247985","0.0-6.0-0.0-6.0-1.19","4","3","4","3","3","4","4","1","4","3","5","3","4","4","4","5","4","3","4","4","4","4","3","4","3","4","5","5","4","1","0","1","1","0","0","1","1","0","1","1","0","0","0","1","4","4","3","2","4","3","4","4","4","3","673573335019290624","吴","93","","","","","","","","","","","","","","","","","","","true","3","3","ability","928","negative","废物","","","","","","","","","","","","","","",""
"null","","null","html-keyboard-response","99","248236","0.0-6.0-0.0-6.0-0.20","4","3","4","3","3","4","4","1","4","3","5","3","4","4","4","5","4","3","4","4","4","4","3","4","3","4","5","5","4","1","0","1","1","0","0","1","1","0","1","1","0","0","0","1","4","4","3","2","4","3","4","4","4","3","673573335019290624","吴","93","","","","","","","","","","","","","","","","","","","","","","","","","","","","","","","","","","","","","","","",""
"1146","<p style=""color:rgb(150, 250, 100); font-size: 35px;"">本人的</p>","i","categorize-html","100","249384","0.0-6.0-0.0-6.0-1.20","4","3","4","3","3","4","4","1","4","3","5","3","4","4","4","5","4","3","4","4","4","4","3","4","3","4","5","5","4","1","0","1","1","0","0","1","1","0","1","1","0","0","0","1","4","4","3","2","4","3","4","4","4","3","673573335019290624","吴","93","","","","","","","","","","","","","","","","","","","true","3","3","ability","1146","self","本人的","","","","","","","","","","","","","","",""
"null","","null","html-keyboard-response","101","249635","0.0-6.0-0.0-6.0-0.21","4","3","4","3","3","4","4","1","4","3","5","3","4","4","4","5","4","3","4","4","4","4","3","4","3","4","5","5","4","1","0","1","1","0","0","1","1","0","1","1","0","0","0","1","4","4","3","2","4","3","4","4","4","3","673573335019290624","吴","93","","","","","","","","","","","","","","","","","","","","","","","","","","","","","","","","","","","","","","","",""
"773","<p style=""color:white; font-size: 35px;"">高效</p>","e","categorize-html","102","250410","0.0-6.0-0.0-6.0-1.21","4","3","4","3","3","4","4","1","4","3","5","3","4","4","4","5","4","3","4","4","4","4","3","4","3","4","5","5","4","1","0","1","1","0","0","1","1","0","1","1","0","0","0","1","4","4","3","2","4","3","4","4","4","3","673573335019290624","吴","93","","","","","","","","","","","","","","","","","","","true","3","3","ability","773","positive","高效","","","","","","","","","","","","","","",""
"null","","null","html-keyboard-response","103","250661","0.0-6.0-0.0-6.0-0.22","4","3","4","3","3","4","4","1","4","3","5","3","4","4","4","5","4","3","4","4","4","4","3","4","3","4","5","5","4","1","0","1","1","0","0","1","1","0","1","1","0","0","0","1","4","4","3","2","4","3","4","4","4","3","673573335019290624","吴","93","","","","","","","","","","","","","","","","","","","","","","","","","","","","","","","","","","","","","","","",""
"861","<p style=""color:rgb(150, 250, 100); font-size: 35px;"">他人的</p>","e","categorize-html","104","251524","0.0-6.0-0.0-6.0-1.22","4","3","4","3","3","4","4","1","4","3","5","3","4","4","4","5","4","3","4","4","4","4","3","4","3","4","5","5","4","1","0","1","1","0","0","1","1","0","1","1","0","0","0","1","4","4","3","2","4","3","4","4","4","3","673573335019290624","吴","93","","","","","","","","","","","","","","","","","","","true","3","3","ability","861","other","他人的","","","","","","","","","","","","","","",""
"null","","null","html-keyboard-response","105","251775","0.0-6.0-0.0-6.0-0.23","4","3","4","3","3","4","4","1","4","3","5","3","4","4","4","5","4","3","4","4","4","4","3","4","3","4","5","5","4","1","0","1","1","0","0","1","1","0","1","1","0","0","0","1","4","4","3","2","4","3","4","4","4","3","673573335019290624","吴","93","","","","","","","","","","","","","","","","","","","","","","","","","","","","","","","","","","","","","","","",""
"713","<p style=""color:white; font-size: 35px;"">蠢笨</p>","i","categorize-html","106","252490","0.0-6.0-0.0-6.0-1.23","4","3","4","3","3","4","4","1","4","3","5","3","4","4","4","5","4","3","4","4","4","4","3","4","3","4","5","5","4","1","0","1","1","0","0","1","1","0","1","1","0","0","0","1","4","4","3","2","4","3","4","4","4","3","673573335019290624","吴","93","","","","","","","","","","","","","","","","","","","true","3","3","ability","713","negative","蠢笨","","","","","","","","","","","","","","",""
"7244","
    <div class=""tag-bottom""><p>
    —— 任务4：对“他人/积极”词和“自我/消极”词分类 ——<p/>
    <span style=""color:#78DCE8""><b>与刚才的任务完全相同，请再次对这四类词语分类</b></span><p/>
    <span style=""color:#FFD866""><b>请根据上方标签的提示，尽可能正确并且快速地做出按键反应</b></span><p/>
    当按键错误时屏幕中会出现<span style=""color:red""> X </span>，需要按另一个键纠正才能继续<br/><p/>
    请把双手食指分别放在键盘的“E”键和“I”键上<p/>
    按<空格键>开始
    </p></div>"," ","html-keyboard-response","107","259735","0.0-6.0-0.0-7.0","4","3","4","3","3","4","4","1","4","3","5","3","4","4","4","5","4","3","4","4","4","4","3","4","3","4","5","5","4","1","0","1","1","0","0","1","1","0","1","1","0","0","0","1","4","4","3","2","4","3","4","4","4","3","673573335019290624","吴","93","","","","","","","","","","","","","","","","","","","","","","","","","","","","","","","","","","","","","","","",""
"null","","null","html-keyboard-response","108","259985","0.0-6.0-0.0-8.0-0.0","4","3","4","3","3","4","4","1","4","3","5","3","4","4","4","5","4","3","4","4","4","4","3","4","3","4","5","5","4","1","0","1","1","0","0","1","1","0","1","1","0","0","0","1","4","4","3","2","4","3","4","4","4","3","673573335019290624","吴","93","","","","","","","","","","","","","","","","","","","","","","","","","","","","","","","","","","","","","","","",""
"921","<p style=""color:rgb(150, 250, 100); font-size: 35px;"">别人</p>","e","categorize-html","109","260909","0.0-6.0-0.0-8.0-1.0","4","3","4","3","3","4","4","1","4","3","5","3","4","4","4","5","4","3","4","4","4","4","3","4","3","4","5","5","4","1","0","1","1","0","0","1","1","0","1","1","0","0","0","1","4","4","3","2","4","3","4","4","4","3","673573335019290624","吴","93","","","","","","","","","","","","","","","","","","","true","4","4","ability","921","other","别人","","","","","","","","","","","","","","",""
"null","","null","html-keyboard-response","110","261159","0.0-6.0-0.0-8.0-0.1","4","3","4","3","3","4","4","1","4","3","5","3","4","4","4","5","4","3","4","4","4","4","3","4","3","4","5","5","4","1","0","1","1","0","0","1","1","0","1","1","0","0","0","1","4","4","3","2","4","3","4","4","4","3","673573335019290624","吴","93","","","","","","","","","","","","","","","","","","","","","","","","","","","","","","","","","","","","","","","",""
"647","<p style=""color:white; font-size: 35px;"">高效</p>","e","categorize-html","111","261808","0.0-6.0-0.0-8.0-1.1","4","3","4","3","3","4","4","1","4","3","5","3","4","4","4","5","4","3","4","4","4","4","3","4","3","4","5","5","4","1","0","1","1","0","0","1","1","0","1","1","0","0","0","1","4","4","3","2","4","3","4","4","4","3","673573335019290624","吴","93","","","","","","","","","","","","","","","","","","","true","4","4","ability","647","positive","高效","","","","","","","","","","","","","","",""
"null","","null","html-keyboard-response","112","262059","0.0-6.0-0.0-8.0-0.2","4","3","4","3","3","4","4","1","4","3","5","3","4","4","4","5","4","3","4","4","4","4","3","4","3","4","5","5","4","1","0","1","1","0","0","1","1","0","1","1","0","0","0","1","4","4","3","2","4","3","4","4","4","3","673573335019290624","吴","93","","","","","","","","","","","","","","","","","","","","","","","","","","","","","","","","","","","","","","","",""
"845","<p style=""color:rgb(150, 250, 100); font-size: 35px;"">自己</p>","i","categorize-html","113","262906","0.0-6.0-0.0-8.0-1.2","4","3","4","3","3","4","4","1","4","3","5","3","4","4","4","5","4","3","4","4","4","4","3","4","3","4","5","5","4","1","0","1","1","0","0","1","1","0","1","1","0","0","0","1","4","4","3","2","4","3","4","4","4","3","673573335019290624","吴","93","","","","","","","","","","","","","","","","","","","true","4","4","ability","845","self","自己","","","","","","","","","","","","","","",""
"null","","null","html-keyboard-response","114","263158","0.0-6.0-0.0-8.0-0.3","4","3","4","3","3","4","4","1","4","3","5","3","4","4","4","5","4","3","4","4","4","4","3","4","3","4","5","5","4","1","0","1","1","0","0","1","1","0","1","1","0","0","0","1","4","4","3","2","4","3","4","4","4","3","673573335019290624","吴","93","","","","","","","","","","","","","","","","","","","","","","","","","","","","","","","","","","","","","","","",""
"698","<p style=""color:white; font-size: 35px;"">愚钝</p>","i","categorize-html","115","263858","0.0-6.0-0.0-8.0-1.3","4","3","4","3","3","4","4","1","4","3","5","3","4","4","4","5","4","3","4","4","4","4","3","4","3","4","5","5","4","1","0","1","1","0","0","1","1","0","1","1","0","0","0","1","4","4","3","2","4","3","4","4","4","3","673573335019290624","吴","93","","","","","","","","","","","","","","","","","","","true","4","4","ability","698","negative","愚钝","","","","","","","","","","","","","","",""
"null","","null","html-keyboard-response","116","264109","0.0-6.0-0.0-8.0-0.4","4","3","4","3","3","4","4","1","4","3","5","3","4","4","4","5","4","3","4","4","4","4","3","4","3","4","5","5","4","1","0","1","1","0","0","1","1","0","1","1","0","0","0","1","4","4","3","2","4","3","4","4","4","3","673573335019290624","吴","93","","","","","","","","","","","","","","","","","","","","","","","","","","","","","","","","","","","","","","","",""
"655","<p style=""color:rgb(150, 250, 100); font-size: 35px;"">他</p>","e","categorize-html","117","264766","0.0-6.0-0.0-8.0-1.4","4","3","4","3","3","4","4","1","4","3","5","3","4","4","4","5","4","3","4","4","4","4","3","4","3","4","5","5","4","1","0","1","1","0","0","1","1","0","1","1","0","0","0","1","4","4","3","2","4","3","4","4","4","3","673573335019290624","吴","93","","","","","","","","","","","","","","","","","","","true","4","4","ability","655","other","他","","","","","","","","","","","","","","",""
"null","","null","html-keyboard-response","118","265017","0.0-6.0-0.0-8.0-0.5","4","3","4","3","3","4","4","1","4","3","5","3","4","4","4","5","4","3","4","4","4","4","3","4","3","4","5","5","4","1","0","1","1","0","0","1","1","0","1","1","0","0","0","1","4","4","3","2","4","3","4","4","4","3","673573335019290624","吴","93","","","","","","","","","","","","","","","","","","","","","","","","","","","","","","","","","","","","","","","",""
"721","<p style=""color:white; font-size: 35px;"">低能</p>","i","categorize-html","119","265740","0.0-6.0-0.0-8.0-1.5","4","3","4","3","3","4","4","1","4","3","5","3","4","4","4","5","4","3","4","4","4","4","3","4","3","4","5","5","4","1","0","1","1","0","0","1","1","0","1","1","0","0","0","1","4","4","3","2","4","3","4","4","4","3","673573335019290624","吴","93","","","","","","","","","","","","","","","","","","","true","4","4","ability","721","negative","低能","","","","","","","","","","","","","","",""
"null","","null","html-keyboard-response","120","265991","0.0-6.0-0.0-8.0-0.6","4","3","4","3","3","4","4","1","4","3","5","3","4","4","4","5","4","3","4","4","4","4","3","4","3","4","5","5","4","1","0","1","1","0","0","1","1","0","1","1","0","0","0","1","4","4","3","2","4","3","4","4","4","3","673573335019290624","吴","93","","","","","","","","","","","","","","","","","","","","","","","","","","","","","","","","","","","","","","","",""
"1646","<p style=""color:rgb(150, 250, 100); font-size: 35px;"">本人</p>","i","categorize-html","121","267639","0.0-6.0-0.0-8.0-1.6","4","3","4","3","3","4","4","1","4","3","5","3","4","4","4","5","4","3","4","4","4","4","3","4","3","4","5","5","4","1","0","1","1","0","0","1","1","0","1","1","0","0","0","1","4","4","3","2","4","3","4","4","4","3","673573335019290624","吴","93","","","","","","","","","","","","","","","","","","","true","4","4","ability","1646","self","本人","","","","","","","","","","","","","","",""
"null","","null","html-keyboard-response","122","267890","0.0-6.0-0.0-8.0-0.7","4","3","4","3","3","4","4","1","4","3","5","3","4","4","4","5","4","3","4","4","4","4","3","4","3","4","5","5","4","1","0","1","1","0","0","1","1","0","1","1","0","0","0","1","4","4","3","2","4","3","4","4","4","3","673573335019290624","吴","93","","","","","","","","","","","","","","","","","","","","","","","","","","","","","","","","","","","","","","","",""
"1401","<p style=""color:white; font-size: 35px;"">能干</p>","e","categorize-html","123","269292","0.0-6.0-0.0-8.0-1.7","4","3","4","3","3","4","4","1","4","3","5","3","4","4","4","5","4","3","4","4","4","4","3","4","3","4","5","5","4","1","0","1","1","0","0","1","1","0","1","1","0","0","0","1","4","4","3","2","4","3","4","4","4","3","673573335019290624","吴","93","","","","","","","","","","","","","","","","","","","true","4","4","ability","1401","positive","能干","","","","","","","","","","","","","","",""
"null","","null","html-keyboard-response","124","269544","0.0-6.0-0.0-8.0-0.8","4","3","4","3","3","4","4","1","4","3","5","3","4","4","4","5","4","3","4","4","4","4","3","4","3","4","5","5","4","1","0","1","1","0","0","1","1","0","1","1","0","0","0","1","4","4","3","2","4","3","4","4","4","3","673573335019290624","吴","93","","","","","","","","","","","","","","","","","","","","","","","","","","","","","","","","","","","","","","","",""
"998","<p style=""color:rgb(150, 250, 100); font-size: 35px;"">我的</p>","i","categorize-html","125","270544","0.0-6.0-0.0-8.0-1.8","4","3","4","3","3","4","4","1","4","3","5","3","4","4","4","5","4","3","4","4","4","4","3","4","3","4","5","5","4","1","0","1","1","0","0","1","1","0","1","1","0","0","0","1","4","4","3","2","4","3","4","4","4","3","673573335019290624","吴","93","","","","","","","","","","","","","","","","","","","true","4","4","ability","998","self","我的","","","","","","","","","","","","","","",""
"null","","null","html-keyboard-response","126","270795","0.0-6.0-0.0-8.0-0.9","4","3","4","3","3","4","4","1","4","3","5","3","4","4","4","5","4","3","4","4","4","4","3","4","3","4","5","5","4","1","0","1","1","0","0","1","1","0","1","1","0","0","0","1","4","4","3","2","4","3","4","4","4","3","673573335019290624","吴","93","","","","","","","","","","","","","","","","","","","","","","","","","","","","","","","","","","","","","","","",""
"669","<p style=""color:white; font-size: 35px;"">全才</p>","e","categorize-html","127","271466","0.0-6.0-0.0-8.0-1.9","4","3","4","3","3","4","4","1","4","3","5","3","4","4","4","5","4","3","4","4","4","4","3","4","3","4","5","5","4","1","0","1","1","0","0","1","1","0","1","1","0","0","0","1","4","4","3","2","4","3","4","4","4","3","673573335019290624","吴","93","","","","","","","","","","","","","","","","","","","true","4","4","ability","669","positive","全才","","","","","","","","","","","","","","",""
"null","","null","html-keyboard-response","128","271717","0.0-6.0-0.0-8.0-0.10","4","3","4","3","3","4","4","1","4","3","5","3","4","4","4","5","4","3","4","4","4","4","3","4","3","4","5","5","4","1","0","1","1","0","0","1","1","0","1","1","0","0","0","1","4","4","3","2","4","3","4","4","4","3","673573335019290624","吴","93","","","","","","","","","","","","","","","","","","","","","","","","","","","","","","","","","","","","","","","",""
"674","<p style=""color:rgb(150, 250, 100); font-size: 35px;"">他人</p>","e","categorize-html","129","272393","0.0-6.0-0.0-8.0-1.10","4","3","4","3","3","4","4","1","4","3","5","3","4","4","4","5","4","3","4","4","4","4","3","4","3","4","5","5","4","1","0","1","1","0","0","1","1","0","1","1","0","0","0","1","4","4","3","2","4","3","4","4","4","3","673573335019290624","吴","93","","","","","","","","","","","","","","","","","","","true","4","4","ability","674","other","他人","","","","","","","","","","","","","","",""
"null","","null","html-keyboard-response","130","272644","0.0-6.0-0.0-8.0-0.11","4","3","4","3","3","4","4","1","4","3","5","3","4","4","4","5","4","3","4","4","4","4","3","4","3","4","5","5","4","1","0","1","1","0","0","1","1","0","1","1","0","0","0","1","4","4","3","2","4","3","4","4","4","3","673573335019290624","吴","93","","","","","","","","","","","","","","","","","","","","","","","","","","","","","","","","","","","","","","","",""
"929","<p style=""color:white; font-size: 35px;"">无能</p>","i","categorize-html","131","273574","0.0-6.0-0.0-8.0-1.11","4","3","4","3","3","4","4","1","4","3","5","3","4","4","4","5","4","3","4","4","4","4","3","4","3","4","5","5","4","1","0","1","1","0","0","1","1","0","1","1","0","0","0","1","4","4","3","2","4","3","4","4","4","3","673573335019290624","吴","93","","","","","","","","","","","","","","","","","","","true","4","4","ability","929","negative","无能","","","","","","","","","","","","","","",""
"null","","null","html-keyboard-response","132","273826","0.0-6.0-0.0-8.0-0.12","4","3","4","3","3","4","4","1","4","3","5","3","4","4","4","5","4","3","4","4","4","4","3","4","3","4","5","5","4","1","0","1","1","0","0","1","1","0","1","1","0","0","0","1","4","4","3","2","4","3","4","4","4","3","673573335019290624","吴","93","","","","","","","","","","","","","","","","","","","","","","","","","","","","","","","","","","","","","","","",""
"1167","<p style=""color:rgb(150, 250, 100); font-size: 35px;"">他人</p>","e","categorize-html","133","274995","0.0-6.0-0.0-8.0-1.12","4","3","4","3","3","4","4","1","4","3","5","3","4","4","4","5","4","3","4","4","4","4","3","4","3","4","5","5","4","1","0","1","1","0","0","1","1","0","1","1","0","0","0","1","4","4","3","2","4","3","4","4","4","3","673573335019290624","吴","93","","","","","","","","","","","","","","","","","","","true","4","4","ability","1167","other","他人","","","","","","","","","","","","","","",""
"null","","null","html-keyboard-response","134","275246","0.0-6.0-0.0-8.0-0.13","4","3","4","3","3","4","4","1","4","3","5","3","4","4","4","5","4","3","4","4","4","4","3","4","3","4","5","5","4","1","0","1","1","0","0","1","1","0","1","1","0","0","0","1","4","4","3","2","4","3","4","4","4","3","673573335019290624","吴","93","","","","","","","","","","","","","","","","","","","","","","","","","","","","","","","","","","","","","","","",""
"1205","<p style=""color:white; font-size: 35px;"">愚钝</p>","i","categorize-html","135","276453","0.0-6.0-0.0-8.0-1.13","4","3","4","3","3","4","4","1","4","3","5","3","4","4","4","5","4","3","4","4","4","4","3","4","3","4","5","5","4","1","0","1","1","0","0","1","1","0","1","1","0","0","0","1","4","4","3","2","4","3","4","4","4","3","673573335019290624","吴","93","","","","","","","","","","","","","","","","","","","true","4","4","ability","1205","negative","愚钝","","","","","","","","","","","","","","",""
"null","","null","html-keyboard-response","136","276704","0.0-6.0-0.0-8.0-0.14","4","3","4","3","3","4","4","1","4","3","5","3","4","4","4","5","4","3","4","4","4","4","3","4","3","4","5","5","4","1","0","1","1","0","0","1","1","0","1","1","0","0","0","1","4","4","3","2","4","3","4","4","4","3","673573335019290624","吴","93","","","","","","","","","","","","","","","","","","","","","","","","","","","","","","","","","","","","","","","",""
"776","<p style=""color:rgb(150, 250, 100); font-size: 35px;"">本人</p>","e","categorize-html","137","278229","0.0-6.0-0.0-8.0-1.14","4","3","4","3","3","4","4","1","4","3","5","3","4","4","4","5","4","3","4","4","4","4","3","4","3","4","5","5","4","1","0","1","1","0","0","1","1","0","1","1","0","0","0","1","4","4","3","2","4","3","4","4","4","3","673573335019290624","吴","93","","","","","","","","","","","","","","","","","","","false","4","4","ability","1461.681818181818","self","本人","","","","","","","","","","","","","","",""
"null","","null","html-keyboard-response","138","278480","0.0-6.0-0.0-8.0-0.15","4","3","4","3","3","4","4","1","4","3","5","3","4","4","4","5","4","3","4","4","4","4","3","4","3","4","5","5","4","1","0","1","1","0","0","1","1","0","1","1","0","0","0","1","4","4","3","2","4","3","4","4","4","3","673573335019290624","吴","93","","","","","","","","","","","","","","","","","","","","","","","","","","","","","","","","","","","","","","","",""
"983","<p style=""color:white; font-size: 35px;"">全能</p>","e","categorize-html","139","279465","0.0-6.0-0.0-8.0-1.15","4","3","4","3","3","4","4","1","4","3","5","3","4","4","4","5","4","3","4","4","4","4","3","4","3","4","5","5","4","1","0","1","1","0","0","1","1","0","1","1","0","0","0","1","4","4","3","2","4","3","4","4","4","3","673573335019290624","吴","93","","","","","","","","","","","","","","","","","","","true","4","4","ability","983","positive","全能","","","","","","","","","","","","","","",""
"null","","null","html-keyboard-response","140","279716","0.0-6.0-0.0-8.0-0.16","4","3","4","3","3","4","4","1","4","3","5","3","4","4","4","5","4","3","4","4","4","4","3","4","3","4","5","5","4","1","0","1","1","0","0","1","1","0","1","1","0","0","0","1","4","4","3","2","4","3","4","4","4","3","673573335019290624","吴","93","","","","","","","","","","","","","","","","","","","","","","","","","","","","","","","","","","","","","","","",""
"648","<p style=""color:rgb(150, 250, 100); font-size: 35px;"">别人的</p>","e","categorize-html","141","280366","0.0-6.0-0.0-8.0-1.16","4","3","4","3","3","4","4","1","4","3","5","3","4","4","4","5","4","3","4","4","4","4","3","4","3","4","5","5","4","1","0","1","1","0","0","1","1","0","1","1","0","0","0","1","4","4","3","2","4","3","4","4","4","3","673573335019290624","吴","93","","","","","","","","","","","","","","","","","","","true","4","4","ability","648","other","别人的","","","","","","","","","","","","","","",""
"null","","null","html-keyboard-response","142","280617","0.0-6.0-0.0-8.0-0.17","4","3","4","3","3","4","4","1","4","3","5","3","4","4","4","5","4","3","4","4","4","4","3","4","3","4","5","5","4","1","0","1","1","0","0","1","1","0","1","1","0","0","0","1","4","4","3","2","4","3","4","4","4","3","673573335019290624","吴","93","","","","","","","","","","","","","","","","","","","","","","","","","","","","","","","","","","","","","","","",""
"842","<p style=""color:white; font-size: 35px;"">低能</p>","i","categorize-html","143","281462","0.0-6.0-0.0-8.0-1.17","4","3","4","3","3","4","4","1","4","3","5","3","4","4","4","5","4","3","4","4","4","4","3","4","3","4","5","5","4","1","0","1","1","0","0","1","1","0","1","1","0","0","0","1","4","4","3","2","4","3","4","4","4","3","673573335019290624","吴","93","","","","","","","","","","","","","","","","","","","true","4","4","ability","842","negative","低能","","","","","","","","","","","","","","",""
"null","","null","html-keyboard-response","144","281712","0.0-6.0-0.0-8.0-0.18","4","3","4","3","3","4","4","1","4","3","5","3","4","4","4","5","4","3","4","4","4","4","3","4","3","4","5","5","4","1","0","1","1","0","0","1","1","0","1","1","0","0","0","1","4","4","3","2","4","3","4","4","4","3","673573335019290624","吴","93","","","","","","","","","","","","","","","","","","","","","","","","","","","","","","","","","","","","","","","",""
"937","<p style=""color:rgb(150, 250, 100); font-size: 35px;"">我</p>","i","categorize-html","145","282652","0.0-6.0-0.0-8.0-1.18","4","3","4","3","3","4","4","1","4","3","5","3","4","4","4","5","4","3","4","4","4","4","3","4","3","4","5","5","4","1","0","1","1","0","0","1","1","0","1","1","0","0","0","1","4","4","3","2","4","3","4","4","4","3","673573335019290624","吴","93","","","","","","","","","","","","","","","","","","","true","4","4","ability","937","self","我","","","","","","","","","","","","","","",""
"null","","null","html-keyboard-response","146","282902","0.0-6.0-0.0-8.0-0.19","4","3","4","3","3","4","4","1","4","3","5","3","4","4","4","5","4","3","4","4","4","4","3","4","3","4","5","5","4","1","0","1","1","0","0","1","1","0","1","1","0","0","0","1","4","4","3","2","4","3","4","4","4","3","673573335019290624","吴","93","","","","","","","","","","","","","","","","","","","","","","","","","","","","","","","","","","","","","","","",""
"733","<p style=""color:white; font-size: 35px;"">天才</p>","e","categorize-html","147","283637","0.0-6.0-0.0-8.0-1.19","4","3","4","3","3","4","4","1","4","3","5","3","4","4","4","5","4","3","4","4","4","4","3","4","3","4","5","5","4","1","0","1","1","0","0","1","1","0","1","1","0","0","0","1","4","4","3","2","4","3","4","4","4","3","673573335019290624","吴","93","","","","","","","","","","","","","","","","","","","true","4","4","ability","733","positive","天才","","","","","","","","","","","","","","",""
"null","","null","html-keyboard-response","148","283888","0.0-6.0-0.0-8.0-0.20","4","3","4","3","3","4","4","1","4","3","5","3","4","4","4","5","4","3","4","4","4","4","3","4","3","4","5","5","4","1","0","1","1","0","0","1","1","0","1","1","0","0","0","1","4","4","3","2","4","3","4","4","4","3","673573335019290624","吴","93","","","","","","","","","","","","","","","","","","","","","","","","","","","","","","","","","","","","","","","",""
"676","<p style=""color:rgb(150, 250, 100); font-size: 35px;"">别人的</p>","e","categorize-html","149","284566","0.0-6.0-0.0-8.0-1.20","4","3","4","3","3","4","4","1","4","3","5","3","4","4","4","5","4","3","4","4","4","4","3","4","3","4","5","5","4","1","0","1","1","0","0","1","1","0","1","1","0","0","0","1","4","4","3","2","4","3","4","4","4","3","673573335019290624","吴","93","","","","","","","","","","","","","","","","","","","true","4","4","ability","676","other","别人的","","","","","","","","","","","","","","",""
"null","","null","html-keyboard-response","150","284817","0.0-6.0-0.0-8.0-0.21","4","3","4","3","3","4","4","1","4","3","5","3","4","4","4","5","4","3","4","4","4","4","3","4","3","4","5","5","4","1","0","1","1","0","0","1","1","0","1","1","0","0","0","1","4","4","3","2","4","3","4","4","4","3","673573335019290624","吴","93","","","","","","","","","","","","","","","","","","","","","","","","","","","","","","","","","","","","","","","",""
"795","<p style=""color:white; font-size: 35px;"">废物</p>","i","categorize-html","151","285615","0.0-6.0-0.0-8.0-1.21","4","3","4","3","3","4","4","1","4","3","5","3","4","4","4","5","4","3","4","4","4","4","3","4","3","4","5","5","4","1","0","1","1","0","0","1","1","0","1","1","0","0","0","1","4","4","3","2","4","3","4","4","4","3","673573335019290624","吴","93","","","","","","","","","","","","","","","","","","","true","4","4","ability","795","negative","废物","","","","","","","","","","","","","","",""
"null","","null","html-keyboard-response","152","285865","0.0-6.0-0.0-8.0-0.22","4","3","4","3","3","4","4","1","4","3","5","3","4","4","4","5","4","3","4","4","4","4","3","4","3","4","5","5","4","1","0","1","1","0","0","1","1","0","1","1","0","0","0","1","4","4","3","2","4","3","4","4","4","3","673573335019290624","吴","93","","","","","","","","","","","","","","","","","","","","","","","","","","","","","","","","","","","","","","","",""
"1861","<p style=""color:rgb(150, 250, 100); font-size: 35px;"">我</p>","i","categorize-html","153","287728","0.0-6.0-0.0-8.0-1.22","4","3","4","3","3","4","4","1","4","3","5","3","4","4","4","5","4","3","4","4","4","4","3","4","3","4","5","5","4","1","0","1","1","0","0","1","1","0","1","1","0","0","0","1","4","4","3","2","4","3","4","4","4","3","673573335019290624","吴","93","","","","","","","","","","","","","","","","","","","true","4","4","ability","1861","self","我","","","","","","","","","","","","","","",""
"null","","null","html-keyboard-response","154","287980","0.0-6.0-0.0-8.0-0.23","4","3","4","3","3","4","4","1","4","3","5","3","4","4","4","5","4","3","4","4","4","4","3","4","3","4","5","5","4","1","0","1","1","0","0","1","1","0","1","1","0","0","0","1","4","4","3","2","4","3","4","4","4","3","673573335019290624","吴","93","","","","","","","","","","","","","","","","","","","","","","","","","","","","","","","","","","","","","","","",""
"856","<p style=""color:white; font-size: 35px;"">精干</p>","e","categorize-html","155","288838","0.0-6.0-0.0-8.0-1.23","4","3","4","3","3","4","4","1","4","3","5","3","4","4","4","5","4","3","4","4","4","4","3","4","3","4","5","5","4","1","0","1","1","0","0","1","1","0","1","1","0","0","0","1","4","4","3","2","4","3","4","4","4","3","673573335019290624","吴","93","","","","","","","","","","","","","","","","","","","true","4","4","ability","856","positive","精干","","","","","","","","","","","","","","",""
"null","","null","html-keyboard-response","156","289089","0.0-6.0-0.0-8.0-0.24","4","3","4","3","3","4","4","1","4","3","5","3","4","4","4","5","4","3","4","4","4","4","3","4","3","4","5","5","4","1","0","1","1","0","0","1","1","0","1","1","0","0","0","1","4","4","3","2","4","3","4","4","4","3","673573335019290624","吴","93","","","","","","","","","","","","","","","","","","","","","","","","","","","","","","","","","","","","","","","",""
"590","<p style=""color:rgb(150, 250, 100); font-size: 35px;"">他的</p>","e","categorize-html","157","289680","0.0-6.0-0.0-8.0-1.24","4","3","4","3","3","4","4","1","4","3","5","3","4","4","4","5","4","3","4","4","4","4","3","4","3","4","5","5","4","1","0","1","1","0","0","1","1","0","1","1","0","0","0","1","4","4","3","2","4","3","4","4","4","3","673573335019290624","吴","93","","","","","","","","","","","","","","","","","","","true","4","4","ability","590","other","他的","","","","","","","","","","","","","","",""
"null","","null","html-keyboard-response","158","289932","0.0-6.0-0.0-8.0-0.25","4","3","4","3","3","4","4","1","4","3","5","3","4","4","4","5","4","3","4","4","4","4","3","4","3","4","5","5","4","1","0","1","1","0","0","1","1","0","1","1","0","0","0","1","4","4","3","2","4","3","4","4","4","3","673573335019290624","吴","93","","","","","","","","","","","","","","","","","","","","","","","","","","","","","","","","","","","","","","","",""
"901","<p style=""color:white; font-size: 35px;"">无能</p>","i","categorize-html","159","290834","0.0-6.0-0.0-8.0-1.25","4","3","4","3","3","4","4","1","4","3","5","3","4","4","4","5","4","3","4","4","4","4","3","4","3","4","5","5","4","1","0","1","1","0","0","1","1","0","1","1","0","0","0","1","4","4","3","2","4","3","4","4","4","3","673573335019290624","吴","93","","","","","","","","","","","","","","","","","","","true","4","4","ability","901","negative","无能","","","","","","","","","","","","","","",""
"null","","null","html-keyboard-response","160","291086","0.0-6.0-0.0-8.0-0.26","4","3","4","3","3","4","4","1","4","3","5","3","4","4","4","5","4","3","4","4","4","4","3","4","3","4","5","5","4","1","0","1","1","0","0","1","1","0","1","1","0","0","0","1","4","4","3","2","4","3","4","4","4","3","673573335019290624","吴","93","","","","","","","","","","","","","","","","","","","","","","","","","","","","","","","","","","","","","","","",""
"978","<p style=""color:rgb(150, 250, 100); font-size: 35px;"">本人的</p>","i","categorize-html","161","292065","0.0-6.0-0.0-8.0-1.26","4","3","4","3","3","4","4","1","4","3","5","3","4","4","4","5","4","3","4","4","4","4","3","4","3","4","5","5","4","1","0","1","1","0","0","1","1","0","1","1","0","0","0","1","4","4","3","2","4","3","4","4","4","3","673573335019290624","吴","93","","","","","","","","","","","","","","","","","","","true","4","4","ability","978","self","本人的","","","","","","","","","","","","","","",""
"null","","null","html-keyboard-response","162","292317","0.0-6.0-0.0-8.0-0.27","4","3","4","3","3","4","4","1","4","3","5","3","4","4","4","5","4","3","4","4","4","4","3","4","3","4","5","5","4","1","0","1","1","0","0","1","1","0","1","1","0","0","0","1","4","4","3","2","4","3","4","4","4","3","673573335019290624","吴","93","","","","","","","","","","","","","","","","","","","","","","","","","","","","","","","","","","","","","","","",""
"632","<p style=""color:white; font-size: 35px;"">全才</p>","e","categorize-html","163","292951","0.0-6.0-0.0-8.0-1.27","4","3","4","3","3","4","4","1","4","3","5","3","4","4","4","5","4","3","4","4","4","4","3","4","3","4","5","5","4","1","0","1","1","0","0","1","1","0","1","1","0","0","0","1","4","4","3","2","4","3","4","4","4","3","673573335019290624","吴","93","","","","","","","","","","","","","","","","","","","true","4","4","ability","632","positive","全才","","","","","","","","","","","","","","",""
"null","","null","html-keyboard-response","164","293202","0.0-6.0-0.0-8.0-0.28","4","3","4","3","3","4","4","1","4","3","5","3","4","4","4","5","4","3","4","4","4","4","3","4","3","4","5","5","4","1","0","1","1","0","0","1","1","0","1","1","0","0","0","1","4","4","3","2","4","3","4","4","4","3","673573335019290624","吴","93","","","","","","","","","","","","","","","","","","","","","","","","","","","","","","","","","","","","","","","",""
"472","<p style=""color:rgb(150, 250, 100); font-size: 35px;"">他人的</p>","e","categorize-html","165","293675","0.0-6.0-0.0-8.0-1.28","4","3","4","3","3","4","4","1","4","3","5","3","4","4","4","5","4","3","4","4","4","4","3","4","3","4","5","5","4","1","0","1","1","0","0","1","1","0","1","1","0","0","0","1","4","4","3","2","4","3","4","4","4","3","673573335019290624","吴","93","","","","","","","","","","","","","","","","","","","true","4","4","ability","472","other","他人的","","","","","","","","","","","","","","",""
"null","","null","html-keyboard-response","166","293927","0.0-6.0-0.0-8.0-0.29","4","3","4","3","3","4","4","1","4","3","5","3","4","4","4","5","4","3","4","4","4","4","3","4","3","4","5","5","4","1","0","1","1","0","0","1","1","0","1","1","0","0","0","1","4","4","3","2","4","3","4","4","4","3","673573335019290624","吴","93","","","","","","","","","","","","","","","","","","","","","","","","","","","","","","","","","","","","","","","",""
"627","<p style=""color:white; font-size: 35px;"">蠢笨</p>","i","categorize-html","167","294555","0.0-6.0-0.0-8.0-1.29","4","3","4","3","3","4","4","1","4","3","5","3","4","4","4","5","4","3","4","4","4","4","3","4","3","4","5","5","4","1","0","1","1","0","0","1","1","0","1","1","0","0","0","1","4","4","3","2","4","3","4","4","4","3","673573335019290624","吴","93","","","","","","","","","","","","","","","","","","","true","4","4","ability","627","negative","蠢笨","","","","","","","","","","","","","","",""
"null","","null","html-keyboard-response","168","294806","0.0-6.0-0.0-8.0-0.30","4","3","4","3","3","4","4","1","4","3","5","3","4","4","4","5","4","3","4","4","4","4","3","4","3","4","5","5","4","1","0","1","1","0","0","1","1","0","1","1","0","0","0","1","4","4","3","2","4","3","4","4","4","3","673573335019290624","吴","93","","","","","","","","","","","","","","","","","","","","","","","","","","","","","","","","","","","","","","","",""
"929","<p style=""color:rgb(150, 250, 100); font-size: 35px;"">自己</p>","i","categorize-html","169","295737","0.0-6.0-0.0-8.0-1.30","4","3","4","3","3","4","4","1","4","3","5","3","4","4","4","5","4","3","4","4","4","4","3","4","3","4","5","5","4","1","0","1","1","0","0","1","1","0","1","1","0","0","0","1","4","4","3","2","4","3","4","4","4","3","673573335019290624","吴","93","","","","","","","","","","","","","","","","","","","true","4","4","ability","929","self","自己","","","","","","","","","","","","","","",""
"null","","null","html-keyboard-response","170","295988","0.0-6.0-0.0-8.0-0.31","4","3","4","3","3","4","4","1","4","3","5","3","4","4","4","5","4","3","4","4","4","4","3","4","3","4","5","5","4","1","0","1","1","0","0","1","1","0","1","1","0","0","0","1","4","4","3","2","4","3","4","4","4","3","673573335019290624","吴","93","","","","","","","","","","","","","","","","","","","","","","","","","","","","","","","","","","","","","","","",""
"658","<p style=""color:white; font-size: 35px;"">天才</p>","e","categorize-html","171","296648","0.0-6.0-0.0-8.0-1.31","4","3","4","3","3","4","4","1","4","3","5","3","4","4","4","5","4","3","4","4","4","4","3","4","3","4","5","5","4","1","0","1","1","0","0","1","1","0","1","1","0","0","0","1","4","4","3","2","4","3","4","4","4","3","673573335019290624","吴","93","","","","","","","","","","","","","","","","","","","true","4","4","ability","658","positive","天才","","","","","","","","","","","","","","",""
"null","","null","html-keyboard-response","172","296899","0.0-6.0-0.0-8.0-0.32","4","3","4","3","3","4","4","1","4","3","5","3","4","4","4","5","4","3","4","4","4","4","3","4","3","4","5","5","4","1","0","1","1","0","0","1","1","0","1","1","0","0","0","1","4","4","3","2","4","3","4","4","4","3","673573335019290624","吴","93","","","","","","","","","","","","","","","","","","","","","","","","","","","","","","","","","","","","","","","",""
"631","<p style=""color:rgb(150, 250, 100); font-size: 35px;"">他人的</p>","e","categorize-html","173","297532","0.0-6.0-0.0-8.0-1.32","4","3","4","3","3","4","4","1","4","3","5","3","4","4","4","5","4","3","4","4","4","4","3","4","3","4","5","5","4","1","0","1","1","0","0","1","1","0","1","1","0","0","0","1","4","4","3","2","4","3","4","4","4","3","673573335019290624","吴","93","","","","","","","","","","","","","","","","","","","true","4","4","ability","631","other","他人的","","","","","","","","","","","","","","",""
"null","","null","html-keyboard-response","174","297783","0.0-6.0-0.0-8.0-0.33","4","3","4","3","3","4","4","1","4","3","5","3","4","4","4","5","4","3","4","4","4","4","3","4","3","4","5","5","4","1","0","1","1","0","0","1","1","0","1","1","0","0","0","1","4","4","3","2","4","3","4","4","4","3","673573335019290624","吴","93","","","","","","","","","","","","","","","","","","","","","","","","","","","","","","","","","","","","","","","",""
"645","<p style=""color:white; font-size: 35px;"">全能</p>","e","categorize-html","175","298430","0.0-6.0-0.0-8.0-1.33","4","3","4","3","3","4","4","1","4","3","5","3","4","4","4","5","4","3","4","4","4","4","3","4","3","4","5","5","4","1","0","1","1","0","0","1","1","0","1","1","0","0","0","1","4","4","3","2","4","3","4","4","4","3","673573335019290624","吴","93","","","","","","","","","","","","","","","","","","","true","4","4","ability","645","positive","全能","","","","","","","","","","","","","","",""
"null","","null","html-keyboard-response","176","298681","0.0-6.0-0.0-8.0-0.34","4","3","4","3","3","4","4","1","4","3","5","3","4","4","4","5","4","3","4","4","4","4","3","4","3","4","5","5","4","1","0","1","1","0","0","1","1","0","1","1","0","0","0","1","4","4","3","2","4","3","4","4","4","3","673573335019290624","吴","93","","","","","","","","","","","","","","","","","","","","","","","","","","","","","","","","","","","","","","","",""
"605","<p style=""color:rgb(150, 250, 100); font-size: 35px;"">自己的</p>","e","categorize-html","177","299859","0.0-6.0-0.0-8.0-1.34","4","3","4","3","3","4","4","1","4","3","5","3","4","4","4","5","4","3","4","4","4","4","3","4","3","4","5","5","4","1","0","1","1","0","0","1","1","0","1","1","0","0","0","1","4","4","3","2","4","3","4","4","4","3","673573335019290624","吴","93","","","","","","","","","","","","","","","","","","","false","4","4","ability","1461.681818181818","self","自己的","","","","","","","","","","","","","","",""
"null","","null","html-keyboard-response","178","300110","0.0-6.0-0.0-8.0-0.35","4","3","4","3","3","4","4","1","4","3","5","3","4","4","4","5","4","3","4","4","4","4","3","4","3","4","5","5","4","1","0","1","1","0","0","1","1","0","1","1","0","0","0","1","4","4","3","2","4","3","4","4","4","3","673573335019290624","吴","93","","","","","","","","","","","","","","","","","","","","","","","","","","","","","","","","","","","","","","","",""
"746","<p style=""color:white; font-size: 35px;"">废物</p>","i","categorize-html","179","300874","0.0-6.0-0.0-8.0-1.35","4","3","4","3","3","4","4","1","4","3","5","3","4","4","4","5","4","3","4","4","4","4","3","4","3","4","5","5","4","1","0","1","1","0","0","1","1","0","1","1","0","0","0","1","4","4","3","2","4","3","4","4","4","3","673573335019290624","吴","93","","","","","","","","","","","","","","","","","","","true","4","4","ability","746","negative","废物","","","","","","","","","","","","","","",""
"null","","null","html-keyboard-response","180","301125","0.0-6.0-0.0-8.0-0.36","4","3","4","3","3","4","4","1","4","3","5","3","4","4","4","5","4","3","4","4","4","4","3","4","3","4","5","5","4","1","0","1","1","0","0","1","1","0","1","1","0","0","0","1","4","4","3","2","4","3","4","4","4","3","673573335019290624","吴","93","","","","","","","","","","","","","","","","","","","","","","","","","","","","","","","","","","","","","","","",""
"758","<p style=""color:rgb(150, 250, 100); font-size: 35px;"">他</p>","e","categorize-html","181","301885","0.0-6.0-0.0-8.0-1.36","4","3","4","3","3","4","4","1","4","3","5","3","4","4","4","5","4","3","4","4","4","4","3","4","3","4","5","5","4","1","0","1","1","0","0","1","1","0","1","1","0","0","0","1","4","4","3","2","4","3","4","4","4","3","673573335019290624","吴","93","","","","","","","","","","","","","","","","","","","true","4","4","ability","758","other","他","","","","","","","","","","","","","","",""
"null","","null","html-keyboard-response","182","302136","0.0-6.0-0.0-8.0-0.37","4","3","4","3","3","4","4","1","4","3","5","3","4","4","4","5","4","3","4","4","4","4","3","4","3","4","5","5","4","1","0","1","1","0","0","1","1","0","1","1","0","0","0","1","4","4","3","2","4","3","4","4","4","3","673573335019290624","吴","93","","","","","","","","","","","","","","","","","","","","","","","","","","","","","","","","","","","","","","","",""
"708","<p style=""color:white; font-size: 35px;"">拙笨</p>","i","categorize-html","183","302846","0.0-6.0-0.0-8.0-1.37","4","3","4","3","3","4","4","1","4","3","5","3","4","4","4","5","4","3","4","4","4","4","3","4","3","4","5","5","4","1","0","1","1","0","0","1","1","0","1","1","0","0","0","1","4","4","3","2","4","3","4","4","4","3","673573335019290624","吴","93","","","","","","","","","","","","","","","","","","","true","4","4","ability","708","negative","拙笨","","","","","","","","","","","","","","",""
"null","","null","html-keyboard-response","184","303097","0.0-6.0-0.0-8.0-0.38","4","3","4","3","3","4","4","1","4","3","5","3","4","4","4","5","4","3","4","4","4","4","3","4","3","4","5","5","4","1","0","1","1","0","0","1","1","0","1","1","0","0","0","1","4","4","3","2","4","3","4","4","4","3","673573335019290624","吴","93","","","","","","","","","","","","","","","","","","","","","","","","","","","","","","","","","","","","","","","",""
"766","<p style=""color:rgb(150, 250, 100); font-size: 35px;"">自己的</p>","e","categorize-html","185","304650","0.0-6.0-0.0-8.0-1.38","4","3","4","3","3","4","4","1","4","3","5","3","4","4","4","5","4","3","4","4","4","4","3","4","3","4","5","5","4","1","0","1","1","0","0","1","1","0","1","1","0","0","0","1","4","4","3","2","4","3","4","4","4","3","673573335019290624","吴","93","","","","","","","","","","","","","","","","","","","false","4","4","ability","1461.681818181818","self","自己的","","","","","","","","","","","","","","",""
"null","","null","html-keyboard-response","186","304901","0.0-6.0-0.0-8.0-0.39","4","3","4","3","3","4","4","1","4","3","5","3","4","4","4","5","4","3","4","4","4","4","3","4","3","4","5","5","4","1","0","1","1","0","0","1","1","0","1","1","0","0","0","1","4","4","3","2","4","3","4","4","4","3","673573335019290624","吴","93","","","","","","","","","","","","","","","","","","","","","","","","","","","","","","","","","","","","","","","",""
"727","<p style=""color:white; font-size: 35px;"">精干</p>","e","categorize-html","187","305631","0.0-6.0-0.0-8.0-1.39","4","3","4","3","3","4","4","1","4","3","5","3","4","4","4","5","4","3","4","4","4","4","3","4","3","4","5","5","4","1","0","1","1","0","0","1","1","0","1","1","0","0","0","1","4","4","3","2","4","3","4","4","4","3","673573335019290624","吴","93","","","","","","","","","","","","","","","","","","","true","4","4","ability","727","positive","精干","","","","","","","","","","","","","","",""
"null","","null","html-keyboard-response","188","305881","0.0-6.0-0.0-8.0-0.40","4","3","4","3","3","4","4","1","4","3","5","3","4","4","4","5","4","3","4","4","4","4","3","4","3","4","5","5","4","1","0","1","1","0","0","1","1","0","1","1","0","0","0","1","4","4","3","2","4","3","4","4","4","3","673573335019290624","吴","93","","","","","","","","","","","","","","","","","","","","","","","","","","","","","","","","","","","","","","","",""
"1545","<p style=""color:rgb(150, 250, 100); font-size: 35px;"">本人的</p>","i","categorize-html","189","307429","0.0-6.0-0.0-8.0-1.40","4","3","4","3","3","4","4","1","4","3","5","3","4","4","4","5","4","3","4","4","4","4","3","4","3","4","5","5","4","1","0","1","1","0","0","1","1","0","1","1","0","0","0","1","4","4","3","2","4","3","4","4","4","3","673573335019290624","吴","93","","","","","","","","","","","","","","","","","","","true","4","4","ability","1545","self","本人的","","","","","","","","","","","","","","",""
"null","","null","html-keyboard-response","190","307679","0.0-6.0-0.0-8.0-0.41","4","3","4","3","3","4","4","1","4","3","5","3","4","4","4","5","4","3","4","4","4","4","3","4","3","4","5","5","4","1","0","1","1","0","0","1","1","0","1","1","0","0","0","1","4","4","3","2","4","3","4","4","4","3","673573335019290624","吴","93","","","","","","","","","","","","","","","","","","","","","","","","","","","","","","","","","","","","","","","",""
"696","<p style=""color:white; font-size: 35px;"">蠢笨</p>","i","categorize-html","191","308378","0.0-6.0-0.0-8.0-1.41","4","3","4","3","3","4","4","1","4","3","5","3","4","4","4","5","4","3","4","4","4","4","3","4","3","4","5","5","4","1","0","1","1","0","0","1","1","0","1","1","0","0","0","1","4","4","3","2","4","3","4","4","4","3","673573335019290624","吴","93","","","","","","","","","","","","","","","","","","","true","4","4","ability","696","negative","蠢笨","","","","","","","","","","","","","","",""
"null","","null","html-keyboard-response","192","308629","0.0-6.0-0.0-8.0-0.42","4","3","4","3","3","4","4","1","4","3","5","3","4","4","4","5","4","3","4","4","4","4","3","4","3","4","5","5","4","1","0","1","1","0","0","1","1","0","1","1","0","0","0","1","4","4","3","2","4","3","4","4","4","3","673573335019290624","吴","93","","","","","","","","","","","","","","","","","","","","","","","","","","","","","","","","","","","","","","","",""
"875","<p style=""color:rgb(150, 250, 100); font-size: 35px;"">他的</p>","e","categorize-html","193","309506","0.0-6.0-0.0-8.0-1.42","4","3","4","3","3","4","4","1","4","3","5","3","4","4","4","5","4","3","4","4","4","4","3","4","3","4","5","5","4","1","0","1","1","0","0","1","1","0","1","1","0","0","0","1","4","4","3","2","4","3","4","4","4","3","673573335019290624","吴","93","","","","","","","","","","","","","","","","","","","true","4","4","ability","875","other","他的","","","","","","","","","","","","","","",""
"null","","null","html-keyboard-response","194","309757","0.0-6.0-0.0-8.0-0.43","4","3","4","3","3","4","4","1","4","3","5","3","4","4","4","5","4","3","4","4","4","4","3","4","3","4","5","5","4","1","0","1","1","0","0","1","1","0","1","1","0","0","0","1","4","4","3","2","4","3","4","4","4","3","673573335019290624","吴","93","","","","","","","","","","","","","","","","","","","","","","","","","","","","","","","","","","","","","","","",""
"698","<p style=""color:white; font-size: 35px;"">能干</p>","e","categorize-html","195","310457","0.0-6.0-0.0-8.0-1.43","4","3","4","3","3","4","4","1","4","3","5","3","4","4","4","5","4","3","4","4","4","4","3","4","3","4","5","5","4","1","0","1","1","0","0","1","1","0","1","1","0","0","0","1","4","4","3","2","4","3","4","4","4","3","673573335019290624","吴","93","","","","","","","","","","","","","","","","","","","true","4","4","ability","698","positive","能干","","","","","","","","","","","","","","",""
"null","","null","html-keyboard-response","196","310708","0.0-6.0-0.0-8.0-0.44","4","3","4","3","3","4","4","1","4","3","5","3","4","4","4","5","4","3","4","4","4","4","3","4","3","4","5","5","4","1","0","1","1","0","0","1","1","0","1","1","0","0","0","1","4","4","3","2","4","3","4","4","4","3","673573335019290624","吴","93","","","","","","","","","","","","","","","","","","","","","","","","","","","","","","","","","","","","","","","",""
"624","<p style=""color:rgb(150, 250, 100); font-size: 35px;"">我的</p>","e","categorize-html","197","311970","0.0-6.0-0.0-8.0-1.44","4","3","4","3","3","4","4","1","4","3","5","3","4","4","4","5","4","3","4","4","4","4","3","4","3","4","5","5","4","1","0","1","1","0","0","1","1","0","1","1","0","0","0","1","4","4","3","2","4","3","4","4","4","3","673573335019290624","吴","93","","","","","","","","","","","","","","","","","","","false","4","4","ability","1461.681818181818","self","我的","","","","","","","","","","","","","","",""
