"rt","stimulus","response","trial_type","trial_index","time_elapsed","internal_node_id","ses_1","ses_2","ses_3","ses_4","ses_5","ses_6","ses_7","ses_8","ses_9","ses_10","coreself_1","coreself_2","coreself_3","coreself_4","coreself_5","coreself_6","coreself_7","coreself_8","coreself_9","coreself_10","SGPS_1","SGPS_2","SGPS_3","SGPS_4","SGPS_5","SGPS_6","SGPS_7","SGPS_8","SGPS_9","NPI1","NPI2","NPI3","NPI4","NPI5","NPI6","NPI7","NPI8","NPI9","NPI10","NPI11","NPI12","NPI13","NPI14","NPI15","hsns_1","hsns_2","hsns_3","hsns_4","hsns_5","hsns_6","hsns_7","hsns_8","hsns_9","hsns_10","subj_idx","friend_name","ParticipantID","value","success","user_agent","responses","item_order","radio_event_ids","radio_event_times","key_event_times","mouse_event_times","straightlining","zigzagging","honeypot","timeout","failed_images","failed_audio","failed_video","view_history","response_type","key_press","avg_frame_time","center_x","center_y","correct_response","correct","identity","Image","word","condition","task_id","screen_id","time_stamp","version_attrib","version_target","IAT","RT","varname","summary","version_attrib2","version_target2","question_order"
"2940","
   <p><div style = ""color: white;font-size:25px;"">您好，欢迎参加本次实验。</div> </p>
   <p><div style = ""color: white;font-size:25px;"">为充分保障您的权利，请确保您已经知晓并同意《参与实验同意书》以及《数据公开知情同意书》。</div></p>
   <p><div style = ""color: white;font-size:25px;"">如果您未见过上述内容，请咨询实验员。</div></p>
   <p><div style = ""color: white;font-size:25px;"">如果您选择继续实验，则表示您已经清楚两份知情同意书的内容并同意。</div></p>
   <p><div style = ""color: red;font-size:30px;"">请确保您记得day0的实验编号，您将在本次实验输入该编号，若您忘记，请咨询实验员后作答。</div></p>
   <p> <div style = ""color: green;font-size:25px;""><按空格键至下页></div> </p>
   "," ","html-keyboard-response","0","2944","0.0-0.0","3","4","4","3","3","3","4","2","4","3","4","4","4","4","5","5","4","4","4","5","4","4","4","5","4","4","5","4","4","1","0","1","1","0","1","0","1","0","1","1","0","0","0","0","4","2","5","2","4","4","4","5","5","4","598925018256113664","刘","422","","","","","","","","","","","","","","","","","","","","","","","","","","","","","","","","","","","","","","","",""
"","","","call-function","1","2945","0.0-1.0-0.0","3","4","4","3","3","3","4","2","4","3","4","4","4","4","5","5","4","4","4","5","4","4","4","5","4","4","5","4","4","1","0","1","1","0","1","0","1","0","1","1","0","0","0","0","4","2","5","2","4","4","4","5","5","4","598925018256113664","刘","422","","","","","","","","","","","","","","","","","","","","","","","","","","","","","","","","","","","","","","","",""
"22853","","{""friend_name"":""刘"",""ParticipantID"":""422""}","survey-html-form","2","25801","0.0-1.0-1.0","3","4","4","3","3","3","4","2","4","3","4","4","4","4","5","5","4","4","4","5","4","4","4","5","4","4","5","4","4","1","0","1","1","0","1","0","1","0","1","1","0","0","0","0","4","2","5","2","4","4","4","5","5","4","598925018256113664","刘","422","","","","","","","","","","","","","","","","","","","","","","","","","","","","","","","","","","","","","","","",""
"","","","fullscreen","3","77883","0.0-2.0","3","4","4","3","3","3","4","2","4","3","4","4","4","4","5","5","4","4","4","5","4","4","4","5","4","4","5","4","4","1","0","1","1","0","1","0","1","0","1","1","0","0","0","0","4","2","5","2","4","4","4","5","5","4","598925018256113664","刘","422","","true","{}","","","","","","","","","","","","","","","","","","","","","","","","","","","","","","","","","","","","",""
"25172.900000095367","","{""Q01"":""3"",""Q02"":""4"",""Q03"":""4"",""Q04"":""3"",""Q05"":""3"",""Q06"":""3"",""Q07"":""4"",""Q08"":""2"",""Q09"":""4"",""Q10"":""3""}","survey-template","4","103067","0.0-3.0","3","4","4","3","3","3","4","2","4","3","4","4","4","4","5","5","4","4","4","5","4","4","4","5","4","4","5","4","4","1","0","1","1","0","1","0","1","0","1","1","0","0","0","0","4","2","5","2","4","4","4","5","5","4","598925018256113664","刘","422","","","","{""Q01"":""3"",""Q02"":""4"",""Q03"":""4"",""Q04"":""3"",""Q05"":""3"",""Q06"":""3"",""Q07"":""4"",""Q08"":""2"",""Q09"":""4"",""Q10"":""3""}","[0,1,2,3,4,5,6,7,8,9]","[""Q01"",""Q02"",""Q03"",""Q04"",""Q05"",""Q06"",""Q07"",""Q08"",""Q07"",""Q09"",""Q10"",""Q10""]","[6843.5,8419.200000047684,9427.299999952316,10931.299999952316,12426.900000095367,13756.299999952316,15155.5,17139.400000095367,19291.200000047684,21755.400000095367,22403,24506.700000047684]","[]","[4363.5,6578.900000095367,6843.5,8091.5,8419.200000047684,9427.299999952316,10931.299999952316,12426.900000095367,13756.299999952316,15155.5,16818.900000095367,17139.400000095367,19291.200000047684,21755.400000095367,22403,23538.799999952316,24226.799999952316,24506.700000047684,25171.299999952316]","0.4","0.7777777777777778","0","","","","","","","","","","","","","","","","","","","","","","","","","","","",""
"37020.799999952316","","{""Q01"":""4"",""Q02"":""4"",""Q03"":""4"",""Q04"":""4"",""Q05"":""5"",""Q06"":""5"",""Q07"":""4"",""Q08"":""4"",""Q09"":""4"",""Q10"":""5""}","survey-template","5","140101","0.0-4.0","3","4","4","3","3","3","4","2","4","3","4","4","4","4","5","5","4","4","4","5","4","4","4","5","4","4","5","4","4","1","0","1","1","0","1","0","1","0","1","1","0","0","0","0","4","2","5","2","4","4","4","5","5","4","598925018256113664","刘","422","","","","{""Q01"":""4"",""Q02"":""4"",""Q03"":""4"",""Q04"":""4"",""Q05"":""5"",""Q06"":""5"",""Q07"":""4"",""Q08"":""4"",""Q09"":""4"",""Q10"":""5""}","[0,1,2,3,4,5,6,7,8,9]","[""Q01"",""Q02"",""Q03"",""Q04"",""Q05"",""Q06"",""Q07"",""Q08"",""Q09"",""Q10"",""Q10""]","[20724.200000047684,21843.200000047684,24515.200000047684,25683.5,27419.299999952316,28755.299999952316,29971.39999985695,31827,33331.299999952316,35755.299999952316,35836.39999985695]","[]","[19892.200000047684,20724.200000047684,21573.5,21843.200000047684,24059.099999904633,24084.099999904633,24515.200000047684,25395.299999952316,25683.5,26987.200000047684,27050.799999952316,27419.299999952316,28755.299999952316,29971.39999985695,31363.39999985695,31827,32947.09999990463,33331.299999952316,34739.200000047684,35348.5,35755.299999952316,35836.39999985695,37019.700000047684]","0.4","0.1111111111111111","0","","","","","","","","","","","","","","","","","","","","","","","","","","","",""
"","","","preload","6","141029","0.0-5.0","3","4","4","3","3","3","4","2","4","3","4","4","4","4","5","5","4","4","4","5","4","4","4","5","4","4","5","4","4","1","0","1","1","0","1","0","1","0","1","1","0","0","0","0","4","2","5","2","4","4","4","5","5","4","598925018256113664","刘","422","","true","","","","","","","","","","","false","[]","[]","[]","","","","","","","","","","","","","","","","","","","","","","","",""
"12417","","","instructions","7","153447","0.0-6.0","3","4","4","3","3","3","4","2","4","3","4","4","4","4","5","5","4","4","4","5","4","4","4","5","4","4","5","4","4","1","0","1","1","0","1","0","1","0","1","1","0","0","0","0","4","2","5","2","4","4","4","5","5","4","598925018256113664","刘","422","","","","","","","","","","","","","","","","","[{""page_index"":0,""viewing_time"":12417}]","","","","","","","","","","","","","","","","","","","","","","",""
"6326","","","instructions","8","159775","0.0-7.0-0.0-0.0","3","4","4","3","3","3","4","2","4","3","4","4","4","4","5","5","4","4","4","5","4","4","4","5","4","4","5","4","4","1","0","1","1","0","1","0","1","0","1","1","0","0","0","0","4","2","5","2","4","4","4","5","5","4","598925018256113664","刘","422","","","","","","","","","","","","","","","","","[{""page_index"":0,""viewing_time"":4870},{""page_index"":1,""viewing_time"":928},{""page_index"":2,""viewing_time"":528}]","","","","","","","","","","","","","","","","","","","","","","",""
"631","","f","psychophysics","9","161418","0.0-7.0-0.0-1.0-0.0-0.0","3","4","4","3","3","3","4","2","4","3","4","4","4","4","5","5","4","4","4","5","4","4","4","5","4","4","5","4","4","1","0","1","1","0","1","0","1","0","1","1","0","0","0","0","4","2","5","2","4","4","4","5","5","4","598925018256113664","刘","422","","","","match","","","","","","","","","","","","","","key","f","16.850084210526333","758.3333534223067","422.22223340729164","j","false","nonmatch","img/diamond.png","圆形","菱形","ALT1_1","prac_ALT1_1","","","","","","","","","",""
"null","<span style='color:red; font-size: 70px;'>错误! </span>","null","html-keyboard-response","10","161922","0.0-7.0-0.0-1.0-0.0-1.0","3","4","4","3","3","3","4","2","4","3","4","4","4","4","5","5","4","4","4","5","4","4","4","5","4","4","5","4","4","1","0","1","1","0","1","0","1","0","1","1","0","0","0","0","4","2","5","2","4","4","4","5","5","4","598925018256113664","刘","422","","","","","","","","","","","","","","","","","","","","","","","","","","","","","","feedback_test","","","","","","","","","",""
"633","","j","psychophysics","11","163556","0.0-7.0-0.0-1.0-0.0-0.1","3","4","4","3","3","3","4","2","4","3","4","4","4","4","5","5","4","4","4","5","4","4","4","5","4","4","5","4","4","1","0","1","1","0","1","0","1","0","1","1","0","0","0","0","4","2","5","2","4","4","4","5","5","4","598925018256113664","刘","422","","","","nonmatch","","","","","","","","","","","","","","key","j","16.676237113402074","758.3333534223067","422.22223340729164","f","false","match","img/circle.png","圆形","圆形","ALT1_1","prac_ALT1_1","","","","","","","","","",""
"null","<span style='color:red; font-size: 70px;'>错误! </span>","null","html-keyboard-response","12","164058","0.0-7.0-0.0-1.0-0.0-1.1","3","4","4","3","3","3","4","2","4","3","4","4","4","4","5","5","4","4","4","5","4","4","4","5","4","4","5","4","4","1","0","1","1","0","1","0","1","0","1","1","0","0","0","0","4","2","5","2","4","4","4","5","5","4","598925018256113664","刘","422","","","","","","","","","","","","","","","","","","","","","","","","","","","","","","feedback_test","","","","","","","","","",""
"702","","f","psychophysics","13","165762","0.0-7.0-0.0-1.0-0.0-0.2","3","4","4","3","3","3","4","2","4","3","4","4","4","4","5","5","4","4","4","5","4","4","4","5","4","4","5","4","4","1","0","1","1","0","1","0","1","0","1","1","0","0","0","0","4","2","5","2","4","4","4","5","5","4","598925018256113664","刘","422","","","","match","","","","","","","","","","","","","","key","f","16.67485148514855","758.3333534223067","422.22223340729164","f","true","match","img/trapezoid.png","梯形","梯形","ALT1_1","prac_ALT1_1","","","","","","","","","",""
"null","<span style='color:GreenYellow; font-size: 70px;'>正确! </span>","null","html-keyboard-response","14","166265","0.0-7.0-0.0-1.0-0.0-1.2","3","4","4","3","3","3","4","2","4","3","4","4","4","4","5","5","4","4","4","5","4","4","4","5","4","4","5","4","4","1","0","1","1","0","1","0","1","0","1","1","0","0","0","0","4","2","5","2","4","4","4","5","5","4","598925018256113664","刘","422","","","","","","","","","","","","","","","","","","","","","","","","","","","","","","feedback_test","","","","","","","","","",""
"681","","f","psychophysics","15","167948","0.0-7.0-0.0-1.0-0.0-0.3","3","4","4","3","3","3","4","2","4","3","4","4","4","4","5","5","4","4","4","5","4","4","4","5","4","4","5","4","4","1","0","1","1","0","1","0","1","0","1","1","0","0","0","0","4","2","5","2","4","4","4","5","5","4","598925018256113664","刘","422","","","","match","","","","","","","","","","","","","","key","f","16.676999999999826","758.3333534223067","422.22223340729164","f","true","match","img/circle.png","圆形","圆形","ALT1_1","prac_ALT1_1","","","","","","","","","",""
"null","<span style='color:GreenYellow; font-size: 70px;'>正确! </span>","null","html-keyboard-response","16","168449","0.0-7.0-0.0-1.0-0.0-1.3","3","4","4","3","3","3","4","2","4","3","4","4","4","4","5","5","4","4","4","5","4","4","4","5","4","4","5","4","4","1","0","1","1","0","1","0","1","0","1","1","0","0","0","0","4","2","5","2","4","4","4","5","5","4","598925018256113664","刘","422","","","","","","","","","","","","","","","","","","","","","","","","","","","","","","feedback_test","","","","","","","","","",""
"804","","j","psychophysics","17","170255","0.0-7.0-0.0-1.0-0.0-0.4","3","4","4","3","3","3","4","2","4","3","4","4","4","4","5","5","4","4","4","5","4","4","4","5","4","4","5","4","4","1","0","1","1","0","1","0","1","0","1","1","0","0","0","0","4","2","5","2","4","4","4","5","5","4","598925018256113664","刘","422","","","","nonmatch","","","","","","","","","","","","","","key","j","16.676814814814996","758.3333534223067","422.22223340729164","j","true","nonmatch","img/pentagon.png","菱形","五边","ALT1_1","prac_ALT1_1","","","","","","","","","",""
"null","<span style='color:GreenYellow; font-size: 70px;'>正确! </span>","null","html-keyboard-response","18","170755","0.0-7.0-0.0-1.0-0.0-1.4","3","4","4","3","3","3","4","2","4","3","4","4","4","4","5","5","4","4","4","5","4","4","4","5","4","4","5","4","4","1","0","1","1","0","1","0","1","0","1","1","0","0","0","0","4","2","5","2","4","4","4","5","5","4","598925018256113664","刘","422","","","","","","","","","","","","","","","","","","","","","","","","","","","","","","feedback_test","","","","","","","","","",""
"663","","f","psychophysics","19","172420","0.0-7.0-0.0-1.0-0.0-0.5","3","4","4","3","3","3","4","2","4","3","4","4","4","4","5","5","4","4","4","5","4","4","4","5","4","4","5","4","4","1","0","1","1","0","1","0","1","0","1","1","0","0","0","0","4","2","5","2","4","4","4","5","5","4","598925018256113664","刘","422","","","","match","","","","","","","","","","","","","","key","f","16.674275510204062","758.3333534223067","422.22223340729164","f","true","match","img/pentagon.png","五边","五边","ALT1_1","prac_ALT1_1","","","","","","","","","",""
"null","<span style='color:GreenYellow; font-size: 70px;'>正确! </span>","null","html-keyboard-response","20","172920","0.0-7.0-0.0-1.0-0.0-1.5","3","4","4","3","3","3","4","2","4","3","4","4","4","4","5","5","4","4","4","5","4","4","4","5","4","4","5","4","4","1","0","1","1","0","1","0","1","0","1","1","0","0","0","0","4","2","5","2","4","4","4","5","5","4","598925018256113664","刘","422","","","","","","","","","","","","","","","","","","","","","","","","","","","","","","feedback_test","","","","","","","","","",""
"820","","j","psychophysics","21","174743","0.0-7.0-0.0-1.0-0.0-0.6","3","4","4","3","3","3","4","2","4","3","4","4","4","4","5","5","4","4","4","5","4","4","4","5","4","4","5","4","4","1","0","1","1","0","1","0","1","0","1","1","0","0","0","0","4","2","5","2","4","4","4","5","5","4","598925018256113664","刘","422","","","","nonmatch","","","","","","","","","","","","","","key","j","16.665796296296456","758.3333534223067","422.22223340729164","j","true","nonmatch","img/pentagon.png","梯形","五边","ALT1_1","prac_ALT1_1","","","","","","","","","",""
"null","<span style='color:GreenYellow; font-size: 70px;'>正确! </span>","null","html-keyboard-response","22","175259","0.0-7.0-0.0-1.0-0.0-1.6","3","4","4","3","3","3","4","2","4","3","4","4","4","4","5","5","4","4","4","5","4","4","4","5","4","4","5","4","4","1","0","1","1","0","1","0","1","0","1","1","0","0","0","0","4","2","5","2","4","4","4","5","5","4","598925018256113664","刘","422","","","","","","","","","","","","","","","","","","","","","","","","","","","","","","feedback_test","","","","","","","","","",""
"585","","f","psychophysics","23","176847","0.0-7.0-0.0-1.0-0.0-0.7","3","4","4","3","3","3","4","2","4","3","4","4","4","4","5","5","4","4","4","5","4","4","4","5","4","4","5","4","4","1","0","1","1","0","1","0","1","0","1","1","0","0","0","0","4","2","5","2","4","4","4","5","5","4","598925018256113664","刘","422","","","","match","","","","","","","","","","","","","","key","f","16.677074468085305","758.3333534223067","422.22223340729164","f","true","match","img/trapezoid.png","梯形","梯形","ALT1_1","prac_ALT1_1","","","","","","","","","",""
"null","<span style='color:GreenYellow; font-size: 70px;'>正确! </span>","null","html-keyboard-response","24","177348","0.0-7.0-0.0-1.0-0.0-1.7","3","4","4","3","3","3","4","2","4","3","4","4","4","4","5","5","4","4","4","5","4","4","4","5","4","4","5","4","4","1","0","1","1","0","1","0","1","0","1","1","0","0","0","0","4","2","5","2","4","4","4","5","5","4","598925018256113664","刘","422","","","","","","","","","","","","","","","","","","","","","","","","","","","","","","feedback_test","","","","","","","","","",""
"801","","f","psychophysics","25","179151","0.0-7.0-0.0-1.0-0.0-0.8","3","4","4","3","3","3","4","2","4","3","4","4","4","4","5","5","4","4","4","5","4","4","4","5","4","4","5","4","4","1","0","1","1","0","1","0","1","0","1","1","0","0","0","0","4","2","5","2","4","4","4","5","5","4","598925018256113664","刘","422","","","","match","","","","","","","","","","","","","","key","f","16.676532710280604","758.3333534223067","422.22223340729164","j","false","nonmatch","img/trapezoid.png","菱形","梯形","ALT1_1","prac_ALT1_1","","","","","","","","","",""
"null","<span style='color:red; font-size: 70px;'>错误! </span>","null","html-keyboard-response","26","179652","0.0-7.0-0.0-1.0-0.0-1.8","3","4","4","3","3","3","4","2","4","3","4","4","4","4","5","5","4","4","4","5","4","4","4","5","4","4","5","4","4","1","0","1","1","0","1","0","1","0","1","1","0","0","0","0","4","2","5","2","4","4","4","5","5","4","598925018256113664","刘","422","","","","","","","","","","","","","","","","","","","","","","","","","","","","","","feedback_test","","","","","","","","","",""
"702","","j","psychophysics","27","181355","0.0-7.0-0.0-1.0-0.0-0.9","3","4","4","3","3","3","4","2","4","3","4","4","4","4","5","5","4","4","4","5","4","4","4","5","4","4","5","4","4","1","0","1","1","0","1","0","1","0","1","1","0","0","0","0","4","2","5","2","4","4","4","5","5","4","598925018256113664","刘","422","","","","nonmatch","","","","","","","","","","","","","","key","j","16.673287128712946","758.3333534223067","422.22223340729164","j","true","nonmatch","img/trapezoid.png","五边","梯形","ALT1_1","prac_ALT1_1","","","","","","","","","",""
"null","<span style='color:GreenYellow; font-size: 70px;'>正确! </span>","null","html-keyboard-response","28","181856","0.0-7.0-0.0-1.0-0.0-1.9","3","4","4","3","3","3","4","2","4","3","4","4","4","4","5","5","4","4","4","5","4","4","4","5","4","4","5","4","4","1","0","1","1","0","1","0","1","0","1","1","0","0","0","0","4","2","5","2","4","4","4","5","5","4","598925018256113664","刘","422","","","","","","","","","","","","","","","","","","","","","","","","","","","","","","feedback_test","","","","","","","","","",""
"709","","j","psychophysics","29","183566","0.0-7.0-0.0-1.0-0.0-0.10","3","4","4","3","3","3","4","2","4","3","4","4","4","4","5","5","4","4","4","5","4","4","4","5","4","4","5","4","4","1","0","1","1","0","1","0","1","0","1","1","0","0","0","0","4","2","5","2","4","4","4","5","5","4","598925018256113664","刘","422","","","","nonmatch","","","","","","","","","","","","","","key","j","16.676156862745035","758.3333534223067","422.22223340729164","j","true","nonmatch","img/trapezoid.png","圆形","梯形","ALT1_1","prac_ALT1_1","","","","","","","","","",""
"null","<span style='color:GreenYellow; font-size: 70px;'>正确! </span>","null","html-keyboard-response","30","184068","0.0-7.0-0.0-1.0-0.0-1.10","3","4","4","3","3","3","4","2","4","3","4","4","4","4","5","5","4","4","4","5","4","4","4","5","4","4","5","4","4","1","0","1","1","0","1","0","1","0","1","1","0","0","0","0","4","2","5","2","4","4","4","5","5","4","598925018256113664","刘","422","","","","","","","","","","","","","","","","","","","","","","","","","","","","","","feedback_test","","","","","","","","","",""
"647","","f","psychophysics","31","185717","0.0-7.0-0.0-1.0-0.0-0.11","3","4","4","3","3","3","4","2","4","3","4","4","4","4","5","5","4","4","4","5","4","4","4","5","4","4","5","4","4","1","0","1","1","0","1","0","1","0","1","1","0","0","0","0","4","2","5","2","4","4","4","5","5","4","598925018256113664","刘","422","","","","match","","","","","","","","","","","","","","key","f","16.677938775510448","758.3333534223067","422.22223340729164","f","true","match","img/diamond.png","菱形","菱形","ALT1_1","prac_ALT1_1","","","","","","","","","",""
"null","<span style='color:GreenYellow; font-size: 70px;'>正确! </span>","null","html-keyboard-response","32","186217","0.0-7.0-0.0-1.0-0.0-1.11","3","4","4","3","3","3","4","2","4","3","4","4","4","4","5","5","4","4","4","5","4","4","4","5","4","4","5","4","4","1","0","1","1","0","1","0","1","0","1","1","0","0","0","0","4","2","5","2","4","4","4","5","5","4","598925018256113664","刘","422","","","","","","","","","","","","","","","","","","","","","","","","","","","","","","feedback_test","","","","","","","","","",""
"657","","f","psychophysics","33","187876","0.0-7.0-0.0-1.0-0.0-0.12","3","4","4","3","3","3","4","2","4","3","4","4","4","4","5","5","4","4","4","5","4","4","4","5","4","4","5","4","4","1","0","1","1","0","1","0","1","0","1","1","0","0","0","0","4","2","5","2","4","4","4","5","5","4","598925018256113664","刘","422","","","","match","","","","","","","","","","","","","","key","f","16.677816326530383","758.3333534223067","422.22223340729164","f","true","match","img/trapezoid.png","梯形","梯形","ALT1_1","prac_ALT1_1","","","","","","","","","",""
"null","<span style='color:GreenYellow; font-size: 70px;'>正确! </span>","null","html-keyboard-response","34","188379","0.0-7.0-0.0-1.0-0.0-1.12","3","4","4","3","3","3","4","2","4","3","4","4","4","4","5","5","4","4","4","5","4","4","4","5","4","4","5","4","4","1","0","1","1","0","1","0","1","0","1","1","0","0","0","0","4","2","5","2","4","4","4","5","5","4","598925018256113664","刘","422","","","","","","","","","","","","","","","","","","","","","","","","","","","","","","feedback_test","","","","","","","","","",""
"650","","j","psychophysics","35","190030","0.0-7.0-0.0-1.0-0.0-0.13","3","4","4","3","3","3","4","2","4","3","4","4","4","4","5","5","4","4","4","5","4","4","4","5","4","4","5","4","4","1","0","1","1","0","1","0","1","0","1","1","0","0","0","0","4","2","5","2","4","4","4","5","5","4","598925018256113664","刘","422","","","","nonmatch","","","","","","","","","","","","","","key","j","16.674918367346862","758.3333534223067","422.22223340729164","j","true","nonmatch","img/diamond.png","五边","菱形","ALT1_1","prac_ALT1_1","","","","","","","","","",""
"null","<span style='color:GreenYellow; font-size: 70px;'>正确! </span>","null","html-keyboard-response","36","190532","0.0-7.0-0.0-1.0-0.0-1.13","3","4","4","3","3","3","4","2","4","3","4","4","4","4","5","5","4","4","4","5","4","4","4","5","4","4","5","4","4","1","0","1","1","0","1","0","1","0","1","1","0","0","0","0","4","2","5","2","4","4","4","5","5","4","598925018256113664","刘","422","","","","","","","","","","","","","","","","","","","","","","","","","","","","","","feedback_test","","","","","","","","","",""
"742","","j","psychophysics","37","192277","0.0-7.0-0.0-1.0-0.0-0.14","3","4","4","3","3","3","4","2","4","3","4","4","4","4","5","5","4","4","4","5","4","4","4","5","4","4","5","4","4","1","0","1","1","0","1","0","1","0","1","1","0","0","0","0","4","2","5","2","4","4","4","5","5","4","598925018256113664","刘","422","","","","nonmatch","","","","","","","","","","","","","","key","j","16.67410679611669","758.3333534223067","422.22223340729164","j","true","nonmatch","img/circle.png","五边","圆形","ALT1_1","prac_ALT1_1","","","","","","","","","",""
"null","<span style='color:GreenYellow; font-size: 70px;'>正确! </span>","null","html-keyboard-response","38","192777","0.0-7.0-0.0-1.0-0.0-1.14","3","4","4","3","3","3","4","2","4","3","4","4","4","4","5","5","4","4","4","5","4","4","4","5","4","4","5","4","4","1","0","1","1","0","1","0","1","0","1","1","0","0","0","0","4","2","5","2","4","4","4","5","5","4","598925018256113664","刘","422","","","","","","","","","","","","","","","","","","","","","","","","","","","","","","feedback_test","","","","","","","","","",""
"607","","f","psychophysics","39","194386","0.0-7.0-0.0-1.0-0.0-0.15","3","4","4","3","3","3","4","2","4","3","4","4","4","4","5","5","4","4","4","5","4","4","4","5","4","4","5","4","4","1","0","1","1","0","1","0","1","0","1","1","0","0","0","0","4","2","5","2","4","4","4","5","5","4","598925018256113664","刘","422","","","","match","","","","","","","","","","","","","","key","f","16.674958333333354","758.3333534223067","422.22223340729164","f","true","match","img/diamond.png","菱形","菱形","ALT1_1","prac_ALT1_1","","","","","","","","","",""
"null","<span style='color:GreenYellow; font-size: 70px;'>正确! </span>","null","html-keyboard-response","40","194887","0.0-7.0-0.0-1.0-0.0-1.15","3","4","4","3","3","3","4","2","4","3","4","4","4","4","5","5","4","4","4","5","4","4","4","5","4","4","5","4","4","1","0","1","1","0","1","0","1","0","1","1","0","0","0","0","4","2","5","2","4","4","4","5","5","4","598925018256113664","刘","422","","","","","","","","","","","","","","","","","","","","","","","","","","","","","","feedback_test","","","","","","","","","",""
"644","","j","psychophysics","41","196533","0.0-7.0-0.0-1.0-0.0-0.16","3","4","4","3","3","3","4","2","4","3","4","4","4","4","5","5","4","4","4","5","4","4","4","5","4","4","5","4","4","1","0","1","1","0","1","0","1","0","1","1","0","0","0","0","4","2","5","2","4","4","4","5","5","4","598925018256113664","刘","422","","","","nonmatch","","","","","","","","","","","","","","key","j","16.675571428571487","758.3333534223067","422.22223340729164","j","true","nonmatch","img/circle.png","菱形","圆形","ALT1_1","prac_ALT1_1","","","","","","","","","",""
"null","<span style='color:GreenYellow; font-size: 70px;'>正确! </span>","null","html-keyboard-response","42","197049","0.0-7.0-0.0-1.0-0.0-1.16","3","4","4","3","3","3","4","2","4","3","4","4","4","4","5","5","4","4","4","5","4","4","4","5","4","4","5","4","4","1","0","1","1","0","1","0","1","0","1","1","0","0","0","0","4","2","5","2","4","4","4","5","5","4","598925018256113664","刘","422","","","","","","","","","","","","","","","","","","","","","","","","","","","","","","feedback_test","","","","","","","","","",""
"590","","f","psychophysics","43","198641","0.0-7.0-0.0-1.0-0.0-0.17","3","4","4","3","3","3","4","2","4","3","4","4","4","4","5","5","4","4","4","5","4","4","4","5","4","4","5","4","4","1","0","1","1","0","1","0","1","0","1","1","0","0","0","0","4","2","5","2","4","4","4","5","5","4","598925018256113664","刘","422","","","","match","","","","","","","","","","","","","","key","f","16.673978723404172","758.3333534223067","422.22223340729164","f","true","match","img/pentagon.png","五边","五边","ALT1_1","prac_ALT1_1","","","","","","","","","",""
"null","<span style='color:GreenYellow; font-size: 70px;'>正确! </span>","null","html-keyboard-response","44","199141","0.0-7.0-0.0-1.0-0.0-1.17","3","4","4","3","3","3","4","2","4","3","4","4","4","4","5","5","4","4","4","5","4","4","4","5","4","4","5","4","4","1","0","1","1","0","1","0","1","0","1","1","0","0","0","0","4","2","5","2","4","4","4","5","5","4","598925018256113664","刘","422","","","","","","","","","","","","","","","","","","","","","","","","","","","","","","feedback_test","","","","","","","","","",""
"580","","j","psychophysics","45","200724","0.0-7.0-0.0-1.0-0.0-0.18","3","4","4","3","3","3","4","2","4","3","4","4","4","4","5","5","4","4","4","5","4","4","4","5","4","4","5","4","4","1","0","1","1","0","1","0","1","0","1","1","0","0","0","0","4","2","5","2","4","4","4","5","5","4","598925018256113664","刘","422","","","","nonmatch","","","","","","","","","","","","","","key","j","16.676946808510657","758.3333534223067","422.22223340729164","j","true","nonmatch","img/pentagon.png","圆形","五边","ALT1_1","prac_ALT1_1","","","","","","","","","",""
"null","<span style='color:GreenYellow; font-size: 70px;'>正确! </span>","null","html-keyboard-response","46","201226","0.0-7.0-0.0-1.0-0.0-1.18","3","4","4","3","3","3","4","2","4","3","4","4","4","4","5","5","4","4","4","5","4","4","4","5","4","4","5","4","4","1","0","1","1","0","1","0","1","0","1","1","0","0","0","0","4","2","5","2","4","4","4","5","5","4","598925018256113664","刘","422","","","","","","","","","","","","","","","","","","","","","","","","","","","","","","feedback_test","","","","","","","","","",""
"751","","j","psychophysics","47","202979","0.0-7.0-0.0-1.0-0.0-0.19","3","4","4","3","3","3","4","2","4","3","4","4","4","4","5","5","4","4","4","5","4","4","4","5","4","4","5","4","4","1","0","1","1","0","1","0","1","0","1","1","0","0","0","0","4","2","5","2","4","4","4","5","5","4","598925018256113664","刘","422","","","","nonmatch","","","","","","","","","","","","","","key","j","16.67470192307687","758.3333534223067","422.22223340729164","j","true","nonmatch","img/diamond.png","梯形","菱形","ALT1_1","prac_ALT1_1","","","","","","","","","",""
"null","<span style='color:GreenYellow; font-size: 70px;'>正确! </span>","null","html-keyboard-response","48","203482","0.0-7.0-0.0-1.0-0.0-1.19","3","4","4","3","3","3","4","2","4","3","4","4","4","4","5","5","4","4","4","5","4","4","4","5","4","4","5","4","4","1","0","1","1","0","1","0","1","0","1","1","0","0","0","0","4","2","5","2","4","4","4","5","5","4","598925018256113664","刘","422","","","","","","","","","","","","","","","","","","","","","","","","","","","","","","feedback_test","","","","","","","","","",""
"623","","f","psychophysics","49","205107","0.0-7.0-0.0-1.0-0.0-0.20","3","4","4","3","3","3","4","2","4","3","4","4","4","4","5","5","4","4","4","5","4","4","4","5","4","4","5","4","4","1","0","1","1","0","1","0","1","0","1","1","0","0","0","0","4","2","5","2","4","4","4","5","5","4","598925018256113664","刘","422","","","","match","","","","","","","","","","","","","","key","f","16.674494845360595","758.3333534223067","422.22223340729164","f","true","match","img/circle.png","圆形","圆形","ALT1_1","prac_ALT1_1","","","","","","","","","",""
"null","<span style='color:GreenYellow; font-size: 70px;'>正确! </span>","null","html-keyboard-response","50","205607","0.0-7.0-0.0-1.0-0.0-1.20","3","4","4","3","3","3","4","2","4","3","4","4","4","4","5","5","4","4","4","5","4","4","4","5","4","4","5","4","4","1","0","1","1","0","1","0","1","0","1","1","0","0","0","0","4","2","5","2","4","4","4","5","5","4","598925018256113664","刘","422","","","","","","","","","","","","","","","","","","","","","","","","","","","","","","feedback_test","","","","","","","","","",""
"628","","f","psychophysics","51","207237","0.0-7.0-0.0-1.0-0.0-0.21","3","4","4","3","3","3","4","2","4","3","4","4","4","4","5","5","4","4","4","5","4","4","4","5","4","4","5","4","4","1","0","1","1","0","1","0","1","0","1","1","0","0","0","0","4","2","5","2","4","4","4","5","5","4","598925018256113664","刘","422","","","","match","","","","","","","","","","","","","","key","f","16.674479166666668","758.3333534223067","422.22223340729164","f","true","match","img/diamond.png","菱形","菱形","ALT1_1","prac_ALT1_1","","","","","","","","","",""
"null","<span style='color:GreenYellow; font-size: 70px;'>正确! </span>","null","html-keyboard-response","52","207739","0.0-7.0-0.0-1.0-0.0-1.21","3","4","4","3","3","3","4","2","4","3","4","4","4","4","5","5","4","4","4","5","4","4","4","5","4","4","5","4","4","1","0","1","1","0","1","0","1","0","1","1","0","0","0","0","4","2","5","2","4","4","4","5","5","4","598925018256113664","刘","422","","","","","","","","","","","","","","","","","","","","","","","","","","","","","","feedback_test","","","","","","","","","",""
"689","","f","psychophysics","53","209429","0.0-7.0-0.0-1.0-0.0-0.22","3","4","4","3","3","3","4","2","4","3","4","4","4","4","5","5","4","4","4","5","4","4","4","5","4","4","5","4","4","1","0","1","1","0","1","0","1","0","1","1","0","0","0","0","4","2","5","2","4","4","4","5","5","4","598925018256113664","刘","422","","","","match","","","","","","","","","","","","","","key","f","16.67432000000001","758.3333534223067","422.22223340729164","f","true","match","img/pentagon.png","五边","五边","ALT1_1","prac_ALT1_1","","","","","","","","","",""
"null","<span style='color:GreenYellow; font-size: 70px;'>正确! </span>","null","html-keyboard-response","54","209930","0.0-7.0-0.0-1.0-0.0-1.22","3","4","4","3","3","3","4","2","4","3","4","4","4","4","5","5","4","4","4","5","4","4","4","5","4","4","5","4","4","1","0","1","1","0","1","0","1","0","1","1","0","0","0","0","4","2","5","2","4","4","4","5","5","4","598925018256113664","刘","422","","","","","","","","","","","","","","","","","","","","","","","","","","","","","","feedback_test","","","","","","","","","",""
"562","","j","psychophysics","55","211493","0.0-7.0-0.0-1.0-0.0-0.23","3","4","4","3","3","3","4","2","4","3","4","4","4","4","5","5","4","4","4","5","4","4","4","5","4","4","5","4","4","1","0","1","1","0","1","0","1","0","1","1","0","0","0","0","4","2","5","2","4","4","4","5","5","4","598925018256113664","刘","422","","","","nonmatch","","","","","","","","","","","","","","key","j","16.67440860215055","758.3333534223067","422.22223340729164","j","true","nonmatch","img/circle.png","梯形","圆形","ALT1_1","prac_ALT1_1","","","","","","","","","",""
"null","<span style='color:GreenYellow; font-size: 70px;'>正确! </span>","null","html-keyboard-response","56","211994","0.0-7.0-0.0-1.0-0.0-1.23","3","4","4","3","3","3","4","2","4","3","4","4","4","4","5","5","4","4","4","5","4","4","4","5","4","4","5","4","4","1","0","1","1","0","1","0","1","0","1","1","0","0","0","0","4","2","5","2","4","4","4","5","5","4","598925018256113664","刘","422","","","","","","","","","","","","","","","","","","","","","","","","","","","","","","feedback_test","","","","","","","","","",""
"574","","f","psychophysics","57","213571","0.0-7.0-0.0-1.0-0.0-0.24","3","4","4","3","3","3","4","2","4","3","4","4","4","4","5","5","4","4","4","5","4","4","4","5","4","4","5","4","4","1","0","1","1","0","1","0","1","0","1","1","0","0","0","0","4","2","5","2","4","4","4","5","5","4","598925018256113664","刘","422","","","","match","","","","","","","","","","","","","","key","f","16.677494623656045","758.3333534223067","422.22223340729164","f","true","match","img/circle.png","圆形","圆形","ALT1_1","prac_ALT1_1","","","","","","","","","",""
"null","<span style='color:GreenYellow; font-size: 70px;'>正确! </span>","null","html-keyboard-response","58","214072","0.0-7.0-0.0-1.0-0.0-1.24","3","4","4","3","3","3","4","2","4","3","4","4","4","4","5","5","4","4","4","5","4","4","4","5","4","4","5","4","4","1","0","1","1","0","1","0","1","0","1","1","0","0","0","0","4","2","5","2","4","4","4","5","5","4","598925018256113664","刘","422","","","","","","","","","","","","","","","","","","","","","","","","","","","","","","feedback_test","","","","","","","","","",""
"770","","f","psychophysics","59","215845","0.0-7.0-0.0-1.0-0.0-0.25","3","4","4","3","3","3","4","2","4","3","4","4","4","4","5","5","4","4","4","5","4","4","4","5","4","4","5","4","4","1","0","1","1","0","1","0","1","0","1","1","0","0","0","0","4","2","5","2","4","4","4","5","5","4","598925018256113664","刘","422","","","","match","","","","","","","","","","","","","","key","f","16.668342857142644","758.3333534223067","422.22223340729164","f","true","match","img/trapezoid.png","梯形","梯形","ALT1_1","prac_ALT1_1","","","","","","","","","",""
"null","<span style='color:GreenYellow; font-size: 70px;'>正确! </span>","null","html-keyboard-response","60","216346","0.0-7.0-0.0-1.0-0.0-1.25","3","4","4","3","3","3","4","2","4","3","4","4","4","4","5","5","4","4","4","5","4","4","4","5","4","4","5","4","4","1","0","1","1","0","1","0","1","0","1","1","0","0","0","0","4","2","5","2","4","4","4","5","5","4","598925018256113664","刘","422","","","","","","","","","","","","","","","","","","","","","","","","","","","","","","feedback_test","","","","","","","","","",""
"618","","j","psychophysics","61","217965","0.0-7.0-0.0-1.0-0.0-0.26","3","4","4","3","3","3","4","2","4","3","4","4","4","4","5","5","4","4","4","5","4","4","4","5","4","4","5","4","4","1","0","1","1","0","1","0","1","0","1","1","0","0","0","0","4","2","5","2","4","4","4","5","5","4","598925018256113664","刘","422","","","","nonmatch","","","","","","","","","","","","","","key","j","16.675979166666668","758.3333534223067","422.22223340729164","j","true","nonmatch","img/pentagon.png","菱形","五边","ALT1_1","prac_ALT1_1","","","","","","","","","",""
"null","<span style='color:GreenYellow; font-size: 70px;'>正确! </span>","null","html-keyboard-response","62","218466","0.0-7.0-0.0-1.0-0.0-1.26","3","4","4","3","3","3","4","2","4","3","4","4","4","4","5","5","4","4","4","5","4","4","4","5","4","4","5","4","4","1","0","1","1","0","1","0","1","0","1","1","0","0","0","0","4","2","5","2","4","4","4","5","5","4","598925018256113664","刘","422","","","","","","","","","","","","","","","","","","","","","","","","","","","","","","feedback_test","","","","","","","","","",""
"672","","j","psychophysics","63","220140","0.0-7.0-0.0-1.0-0.0-0.27","3","4","4","3","3","3","4","2","4","3","4","4","4","4","5","5","4","4","4","5","4","4","4","5","4","4","5","4","4","1","0","1","1","0","1","0","1","0","1","1","0","0","0","0","4","2","5","2","4","4","4","5","5","4","598925018256113664","刘","422","","","","nonmatch","","","","","","","","","","","","","","key","j","16.674191919191873","758.3333534223067","422.22223340729164","j","true","nonmatch","img/diamond.png","圆形","菱形","ALT1_1","prac_ALT1_1","","","","","","","","","",""
"null","<span style='color:GreenYellow; font-size: 70px;'>正确! </span>","null","html-keyboard-response","64","220641","0.0-7.0-0.0-1.0-0.0-1.27","3","4","4","3","3","3","4","2","4","3","4","4","4","4","5","5","4","4","4","5","4","4","4","5","4","4","5","4","4","1","0","1","1","0","1","0","1","0","1","1","0","0","0","0","4","2","5","2","4","4","4","5","5","4","598925018256113664","刘","422","","","","","","","","","","","","","","","","","","","","","","","","","","","","","","feedback_test","","","","","","","","","",""
"639","","j","psychophysics","65","222281","0.0-7.0-0.0-1.0-0.0-0.28","3","4","4","3","3","3","4","2","4","3","4","4","4","4","5","5","4","4","4","5","4","4","4","5","4","4","5","4","4","1","0","1","1","0","1","0","1","0","1","1","0","0","0","0","4","2","5","2","4","4","4","5","5","4","598925018256113664","刘","422","","","","nonmatch","","","","","","","","","","","","","","key","j","16.675979591836875","758.3333534223067","422.22223340729164","j","true","nonmatch","img/trapezoid.png","五边","梯形","ALT1_1","prac_ALT1_1","","","","","","","","","",""
"null","<span style='color:GreenYellow; font-size: 70px;'>正确! </span>","null","html-keyboard-response","66","222782","0.0-7.0-0.0-1.0-0.0-1.28","3","4","4","3","3","3","4","2","4","3","4","4","4","4","5","5","4","4","4","5","4","4","4","5","4","4","5","4","4","1","0","1","1","0","1","0","1","0","1","1","0","0","0","0","4","2","5","2","4","4","4","5","5","4","598925018256113664","刘","422","","","","","","","","","","","","","","","","","","","","","","","","","","","","","","feedback_test","","","","","","","","","",""
"607","","f","psychophysics","67","224391","0.0-7.0-0.0-1.0-0.0-0.29","3","4","4","3","3","3","4","2","4","3","4","4","4","4","5","5","4","4","4","5","4","4","4","5","4","4","5","4","4","1","0","1","1","0","1","0","1","0","1","1","0","0","0","0","4","2","5","2","4","4","4","5","5","4","598925018256113664","刘","422","","","","match","","","","","","","","","","","","","","key","f","16.67493684210533","758.3333534223067","422.22223340729164","f","true","match","img/trapezoid.png","梯形","梯形","ALT1_1","prac_ALT1_1","","","","","","","","","",""
"null","<span style='color:GreenYellow; font-size: 70px;'>正确! </span>","null","html-keyboard-response","68","224906","0.0-7.0-0.0-1.0-0.0-1.29","3","4","4","3","3","3","4","2","4","3","4","4","4","4","5","5","4","4","4","5","4","4","4","5","4","4","5","4","4","1","0","1","1","0","1","0","1","0","1","1","0","0","0","0","4","2","5","2","4","4","4","5","5","4","598925018256113664","刘","422","","","","","","","","","","","","","","","","","","","","","","","","","","","","","","feedback_test","","","","","","","","","",""
"647","","j","psychophysics","69","226555","0.0-7.0-0.0-1.0-0.0-0.30","3","4","4","3","3","3","4","2","4","3","4","4","4","4","5","5","4","4","4","5","4","4","4","5","4","4","5","4","4","1","0","1","1","0","1","0","1","0","1","1","0","0","0","0","4","2","5","2","4","4","4","5","5","4","598925018256113664","刘","422","","","","nonmatch","","","","","","","","","","","","","","key","j","16.675112244898184","758.3333534223067","422.22223340729164","j","true","nonmatch","img/circle.png","梯形","圆形","ALT1_1","prac_ALT1_1","","","","","","","","","",""
"null","<span style='color:GreenYellow; font-size: 70px;'>正确! </span>","null","html-keyboard-response","70","227057","0.0-7.0-0.0-1.0-0.0-1.30","3","4","4","3","3","3","4","2","4","3","4","4","4","4","5","5","4","4","4","5","4","4","4","5","4","4","5","4","4","1","0","1","1","0","1","0","1","0","1","1","0","0","0","0","4","2","5","2","4","4","4","5","5","4","598925018256113664","刘","422","","","","","","","","","","","","","","","","","","","","","","","","","","","","","","feedback_test","","","","","","","","","",""
"636","","j","psychophysics","71","228696","0.0-7.0-0.0-1.0-0.0-0.31","3","4","4","3","3","3","4","2","4","3","4","4","4","4","5","5","4","4","4","5","4","4","4","5","4","4","5","4","4","1","0","1","1","0","1","0","1","0","1","1","0","0","0","0","4","2","5","2","4","4","4","5","5","4","598925018256113664","刘","422","","","","nonmatch","","","","","","","","","","","","","","key","j","16.67583505154651","758.3333534223067","422.22223340729164","j","true","nonmatch","img/circle.png","菱形","圆形","ALT1_1","prac_ALT1_1","","","","","","","","","",""
"null","<span style='color:GreenYellow; font-size: 70px;'>正确! </span>","null","html-keyboard-response","72","229198","0.0-7.0-0.0-1.0-0.0-1.31","3","4","4","3","3","3","4","2","4","3","4","4","4","4","5","5","4","4","4","5","4","4","4","5","4","4","5","4","4","1","0","1","1","0","1","0","1","0","1","1","0","0","0","0","4","2","5","2","4","4","4","5","5","4","598925018256113664","刘","422","","","","","","","","","","","","","","","","","","","","","","","","","","","","","","feedback_test","","","","","","","","","",""
"627","","f","psychophysics","73","230827","0.0-7.0-0.0-1.0-0.0-0.32","3","4","4","3","3","3","4","2","4","3","4","4","4","4","5","5","4","4","4","5","4","4","4","5","4","4","5","4","4","1","0","1","1","0","1","0","1","0","1","1","0","0","0","0","4","2","5","2","4","4","4","5","5","4","598925018256113664","刘","422","","","","match","","","","","","","","","","","","","","key","f","16.67507291666637","758.3333534223067","422.22223340729164","f","true","match","img/pentagon.png","五边","五边","ALT1_1","prac_ALT1_1","","","","","","","","","",""
"null","<span style='color:GreenYellow; font-size: 70px;'>正确! </span>","null","html-keyboard-response","74","231328","0.0-7.0-0.0-1.0-0.0-1.32","3","4","4","3","3","3","4","2","4","3","4","4","4","4","5","5","4","4","4","5","4","4","4","5","4","4","5","4","4","1","0","1","1","0","1","0","1","0","1","1","0","0","0","0","4","2","5","2","4","4","4","5","5","4","598925018256113664","刘","422","","","","","","","","","","","","","","","","","","","","","","","","","","","","","","feedback_test","","","","","","","","","",""
"634","","f","psychophysics","75","232965","0.0-7.0-0.0-1.0-0.0-0.33","3","4","4","3","3","3","4","2","4","3","4","4","4","4","5","5","4","4","4","5","4","4","4","5","4","4","5","4","4","1","0","1","1","0","1","0","1","0","1","1","0","0","0","0","4","2","5","2","4","4","4","5","5","4","598925018256113664","刘","422","","","","match","","","","","","","","","","","","","","key","f","16.6749587628865","758.3333534223067","422.22223340729164","f","true","match","img/diamond.png","菱形","菱形","ALT1_1","prac_ALT1_1","","","","","","","","","",""
"null","<span style='color:GreenYellow; font-size: 70px;'>正确! </span>","null","html-keyboard-response","76","233466","0.0-7.0-0.0-1.0-0.0-1.33","3","4","4","3","3","3","4","2","4","3","4","4","4","4","5","5","4","4","4","5","4","4","4","5","4","4","5","4","4","1","0","1","1","0","1","0","1","0","1","1","0","0","0","0","4","2","5","2","4","4","4","5","5","4","598925018256113664","刘","422","","","","","","","","","","","","","","","","","","","","","","","","","","","","","","feedback_test","","","","","","","","","",""
"658","","j","psychophysics","77","235126","0.0-7.0-0.0-1.0-0.0-0.34","3","4","4","3","3","3","4","2","4","3","4","4","4","4","5","5","4","4","4","5","4","4","4","5","4","4","5","4","4","1","0","1","1","0","1","0","1","0","1","1","0","0","0","0","4","2","5","2","4","4","4","5","5","4","598925018256113664","刘","422","","","","nonmatch","","","","","","","","","","","","","","key","j","16.674142857142773","758.3333534223067","422.22223340729164","j","true","nonmatch","img/pentagon.png","圆形","五边","ALT1_1","prac_ALT1_1","","","","","","","","","",""
"null","<span style='color:GreenYellow; font-size: 70px;'>正确! </span>","null","html-keyboard-response","78","235627","0.0-7.0-0.0-1.0-0.0-1.34","3","4","4","3","3","3","4","2","4","3","4","4","4","4","5","5","4","4","4","5","4","4","4","5","4","4","5","4","4","1","0","1","1","0","1","0","1","0","1","1","0","0","0","0","4","2","5","2","4","4","4","5","5","4","598925018256113664","刘","422","","","","","","","","","","","","","","","","","","","","","","","","","","","","","","feedback_test","","","","","","","","","",""
"928","","j","psychophysics","79","237556","0.0-7.0-0.0-1.0-0.0-0.35","3","4","4","3","3","3","4","2","4","3","4","4","4","4","5","5","4","4","4","5","4","4","4","5","4","4","5","4","4","1","0","1","1","0","1","0","1","0","1","1","0","0","0","0","4","2","5","2","4","4","4","5","5","4","598925018256113664","刘","422","","","","nonmatch","","","","","","","","","","","","","","key","j","16.66948695652182","758.3333534223067","422.22223340729164","j","true","nonmatch","img/diamond.png","五边","菱形","ALT1_1","prac_ALT1_1","","","","","","","","","",""
"null","<span style='color:GreenYellow; font-size: 70px;'>正确! </span>","null","html-keyboard-response","80","238057","0.0-7.0-0.0-1.0-0.0-1.35","3","4","4","3","3","3","4","2","4","3","4","4","4","4","5","5","4","4","4","5","4","4","4","5","4","4","5","4","4","1","0","1","1","0","1","0","1","0","1","1","0","0","0","0","4","2","5","2","4","4","4","5","5","4","598925018256113664","刘","422","","","","","","","","","","","","","","","","","","","","","","","","","","","","","","feedback_test","","","","","","","","","",""
"648","","j","psychophysics","81","239712","0.0-7.0-0.0-1.0-0.0-0.36","3","4","4","3","3","3","4","2","4","3","4","4","4","4","5","5","4","4","4","5","4","4","4","5","4","4","5","4","4","1","0","1","1","0","1","0","1","0","1","1","0","0","0","0","4","2","5","2","4","4","4","5","5","4","598925018256113664","刘","422","","","","nonmatch","","","","","","","","","","","","","","key","j","16.675285714285863","758.3333534223067","422.22223340729164","j","true","nonmatch","img/circle.png","五边","圆形","ALT1_1","prac_ALT1_1","","","","","","","","","",""
"null","<span style='color:GreenYellow; font-size: 70px;'>正确! </span>","null","html-keyboard-response","82","240213","0.0-7.0-0.0-1.0-0.0-1.36","3","4","4","3","3","3","4","2","4","3","4","4","4","4","5","5","4","4","4","5","4","4","4","5","4","4","5","4","4","1","0","1","1","0","1","0","1","0","1","1","0","0","0","0","4","2","5","2","4","4","4","5","5","4","598925018256113664","刘","422","","","","","","","","","","","","","","","","","","","","","","","","","","","","","","feedback_test","","","","","","","","","",""
"683","","f","psychophysics","83","241897","0.0-7.0-0.0-1.0-0.0-0.37","3","4","4","3","3","3","4","2","4","3","4","4","4","4","5","5","4","4","4","5","4","4","4","5","4","4","5","4","4","1","0","1","1","0","1","0","1","0","1","1","0","0","0","0","4","2","5","2","4","4","4","5","5","4","598925018256113664","刘","422","","","","match","","","","","","","","","","","","","","key","f","16.67655999999988","758.3333534223067","422.22223340729164","j","false","nonmatch","img/trapezoid.png","菱形","梯形","ALT1_1","prac_ALT1_1","","","","","","","","","",""
"null","<span style='color:red; font-size: 70px;'>错误! </span>","null","html-keyboard-response","84","242399","0.0-7.0-0.0-1.0-0.0-1.37","3","4","4","3","3","3","4","2","4","3","4","4","4","4","5","5","4","4","4","5","4","4","4","5","4","4","5","4","4","1","0","1","1","0","1","0","1","0","1","1","0","0","0","0","4","2","5","2","4","4","4","5","5","4","598925018256113664","刘","422","","","","","","","","","","","","","","","","","","","","","","","","","","","","","","feedback_test","","","","","","","","","",""
"656","","f","psychophysics","85","244057","0.0-7.0-0.0-1.0-0.0-0.38","3","4","4","3","3","3","4","2","4","3","4","4","4","4","5","5","4","4","4","5","4","4","4","5","4","4","5","4","4","1","0","1","1","0","1","0","1","0","1","1","0","0","0","0","4","2","5","2","4","4","4","5","5","4","598925018256113664","刘","422","","","","match","","","","","","","","","","","","","","key","f","16.674565656565427","758.3333534223067","422.22223340729164","f","true","match","img/diamond.png","菱形","菱形","ALT1_1","prac_ALT1_1","","","","","","","","","",""
"null","<span style='color:GreenYellow; font-size: 70px;'>正确! </span>","null","html-keyboard-response","86","244558","0.0-7.0-0.0-1.0-0.0-1.38","3","4","4","3","3","3","4","2","4","3","4","4","4","4","5","5","4","4","4","5","4","4","4","5","4","4","5","4","4","1","0","1","1","0","1","0","1","0","1","1","0","0","0","0","4","2","5","2","4","4","4","5","5","4","598925018256113664","刘","422","","","","","","","","","","","","","","","","","","","","","","","","","","","","","","feedback_test","","","","","","","","","",""
"551","","f","psychophysics","87","246111","0.0-7.0-0.0-1.0-0.0-0.39","3","4","4","3","3","3","4","2","4","3","4","4","4","4","5","5","4","4","4","5","4","4","4","5","4","4","5","4","4","1","0","1","1","0","1","0","1","0","1","1","0","0","0","0","4","2","5","2","4","4","4","5","5","4","598925018256113664","刘","422","","","","match","","","","","","","","","","","","","","key","f","16.676728260869467","758.3333534223067","422.22223340729164","f","true","match","img/pentagon.png","五边","五边","ALT1_1","prac_ALT1_1","","","","","","","","","",""
"null","<span style='color:GreenYellow; font-size: 70px;'>正确! </span>","null","html-keyboard-response","88","246612","0.0-7.0-0.0-1.0-0.0-1.39","3","4","4","3","3","3","4","2","4","3","4","4","4","4","5","5","4","4","4","5","4","4","4","5","4","4","5","4","4","1","0","1","1","0","1","0","1","0","1","1","0","0","0","0","4","2","5","2","4","4","4","5","5","4","598925018256113664","刘","422","","","","","","","","","","","","","","","","","","","","","","","","","","","","","","feedback_test","","","","","","","","","",""
"630","","j","psychophysics","89","248244","0.0-7.0-0.0-1.0-0.0-0.40","3","4","4","3","3","3","4","2","4","3","4","4","4","4","5","5","4","4","4","5","4","4","4","5","4","4","5","4","4","1","0","1","1","0","1","0","1","0","1","1","0","0","0","0","4","2","5","2","4","4","4","5","5","4","598925018256113664","刘","422","","","","nonmatch","","","","","","","","","","","","","","key","j","16.676649484536178","758.3333534223067","422.22223340729164","j","true","nonmatch","img/pentagon.png","梯形","五边","ALT1_1","prac_ALT1_1","","","","","","","","","",""
"null","<span style='color:GreenYellow; font-size: 70px;'>正确! </span>","null","html-keyboard-response","90","248745","0.0-7.0-0.0-1.0-0.0-1.40","3","4","4","3","3","3","4","2","4","3","4","4","4","4","5","5","4","4","4","5","4","4","4","5","4","4","5","4","4","1","0","1","1","0","1","0","1","0","1","1","0","0","0","0","4","2","5","2","4","4","4","5","5","4","598925018256113664","刘","422","","","","","","","","","","","","","","","","","","","","","","","","","","","","","","feedback_test","","","","","","","","","",""
"643","","j","psychophysics","91","250388","0.0-7.0-0.0-1.0-0.0-0.41","3","4","4","3","3","3","4","2","4","3","4","4","4","4","5","5","4","4","4","5","4","4","4","5","4","4","5","4","4","1","0","1","1","0","1","0","1","0","1","1","0","0","0","0","4","2","5","2","4","4","4","5","5","4","598925018256113664","刘","422","","","","nonmatch","","","","","","","","","","","","","","key","j","16.67765979381451","758.3333534223067","422.22223340729164","j","true","nonmatch","img/trapezoid.png","圆形","梯形","ALT1_1","prac_ALT1_1","","","","","","","","","",""
"null","<span style='color:GreenYellow; font-size: 70px;'>正确! </span>","null","html-keyboard-response","92","250890","0.0-7.0-0.0-1.0-0.0-1.41","3","4","4","3","3","3","4","2","4","3","4","4","4","4","5","5","4","4","4","5","4","4","4","5","4","4","5","4","4","1","0","1","1","0","1","0","1","0","1","1","0","0","0","0","4","2","5","2","4","4","4","5","5","4","598925018256113664","刘","422","","","","","","","","","","","","","","","","","","","","","","","","","","","","","","feedback_test","","","","","","","","","",""
"809","","j","psychophysics","93","252701","0.0-7.0-0.0-1.0-0.0-0.42","3","4","4","3","3","3","4","2","4","3","4","4","4","4","5","5","4","4","4","5","4","4","4","5","4","4","5","4","4","1","0","1","1","0","1","0","1","0","1","1","0","0","0","0","4","2","5","2","4","4","4","5","5","4","598925018256113664","刘","422","","","","nonmatch","","","","","","","","","","","","","","key","j","16.676448598130886","758.3333534223067","422.22223340729164","j","true","nonmatch","img/diamond.png","梯形","菱形","ALT1_1","prac_ALT1_1","","","","","","","","","",""
"null","<span style='color:GreenYellow; font-size: 70px;'>正确! </span>","null","html-keyboard-response","94","253202","0.0-7.0-0.0-1.0-0.0-1.42","3","4","4","3","3","3","4","2","4","3","4","4","4","4","5","5","4","4","4","5","4","4","4","5","4","4","5","4","4","1","0","1","1","0","1","0","1","0","1","1","0","0","0","0","4","2","5","2","4","4","4","5","5","4","598925018256113664","刘","422","","","","","","","","","","","","","","","","","","","","","","","","","","","","","","feedback_test","","","","","","","","","",""
"536","","f","psychophysics","95","254741","0.0-7.0-0.0-1.0-0.0-0.43","3","4","4","3","3","3","4","2","4","3","4","4","4","4","5","5","4","4","4","5","4","4","4","5","4","4","5","4","4","1","0","1","1","0","1","0","1","0","1","1","0","0","0","0","4","2","5","2","4","4","4","5","5","4","598925018256113664","刘","422","","","","match","","","","","","","","","","","","","","key","f","16.675791208791242","758.3333534223067","422.22223340729164","f","true","match","img/pentagon.png","五边","五边","ALT1_1","prac_ALT1_1","","","","","","","","","",""
"null","<span style='color:GreenYellow; font-size: 70px;'>正确! </span>","null","html-keyboard-response","96","255243","0.0-7.0-0.0-1.0-0.0-1.43","3","4","4","3","3","3","4","2","4","3","4","4","4","4","5","5","4","4","4","5","4","4","4","5","4","4","5","4","4","1","0","1","1","0","1","0","1","0","1","1","0","0","0","0","4","2","5","2","4","4","4","5","5","4","598925018256113664","刘","422","","","","","","","","","","","","","","","","","","","","","","","","","","","","","","feedback_test","","","","","","","","","",""
"580","","f","psychophysics","97","256824","0.0-7.0-0.0-1.0-0.0-0.44","3","4","4","3","3","3","4","2","4","3","4","4","4","4","5","5","4","4","4","5","4","4","4","5","4","4","5","4","4","1","0","1","1","0","1","0","1","0","1","1","0","0","0","0","4","2","5","2","4","4","4","5","5","4","598925018256113664","刘","422","","","","match","","","","","","","","","","","","","","key","f","16.67794623655913","758.3333534223067","422.22223340729164","f","true","match","img/trapezoid.png","梯形","梯形","ALT1_1","prac_ALT1_1","","","","","","","","","",""
"null","<span style='color:GreenYellow; font-size: 70px;'>正确! </span>","null","html-keyboard-response","98","257325","0.0-7.0-0.0-1.0-0.0-1.44","3","4","4","3","3","3","4","2","4","3","4","4","4","4","5","5","4","4","4","5","4","4","4","5","4","4","5","4","4","1","0","1","1","0","1","0","1","0","1","1","0","0","0","0","4","2","5","2","4","4","4","5","5","4","598925018256113664","刘","422","","","","","","","","","","","","","","","","","","","","","","","","","","","","","","feedback_test","","","","","","","","","",""
"614","","f","psychophysics","99","258941","0.0-7.0-0.0-1.0-0.0-0.45","3","4","4","3","3","3","4","2","4","3","4","4","4","4","5","5","4","4","4","5","4","4","4","5","4","4","5","4","4","1","0","1","1","0","1","0","1","0","1","1","0","0","0","0","4","2","5","2","4","4","4","5","5","4","598925018256113664","刘","422","","","","match","","","","","","","","","","","","","","key","f","16.663031578947496","758.3333534223067","422.22223340729164","f","true","match","img/circle.png","圆形","圆形","ALT1_1","prac_ALT1_1","","","","","","","","","",""
"null","<span style='color:GreenYellow; font-size: 70px;'>正确! </span>","null","html-keyboard-response","100","259443","0.0-7.0-0.0-1.0-0.0-1.45","3","4","4","3","3","3","4","2","4","3","4","4","4","4","5","5","4","4","4","5","4","4","4","5","4","4","5","4","4","1","0","1","1","0","1","0","1","0","1","1","0","0","0","0","4","2","5","2","4","4","4","5","5","4","598925018256113664","刘","422","","","","","","","","","","","","","","","","","","","","","","","","","","","","","","feedback_test","","","","","","","","","",""
"674","","f","psychophysics","101","261119","0.0-7.0-0.0-1.0-0.0-0.46","3","4","4","3","3","3","4","2","4","3","4","4","4","4","5","5","4","4","4","5","4","4","4","5","4","4","5","4","4","1","0","1","1","0","1","0","1","0","1","1","0","0","0","0","4","2","5","2","4","4","4","5","5","4","598925018256113664","刘","422","","","","match","","","","","","","","","","","","","","key","f","16.676727272727117","758.3333534223067","422.22223340729164","f","true","match","img/circle.png","圆形","圆形","ALT1_1","prac_ALT1_1","","","","","","","","","",""
"null","<span style='color:GreenYellow; font-size: 70px;'>正确! </span>","null","html-keyboard-response","102","261620","0.0-7.0-0.0-1.0-0.0-1.46","3","4","4","3","3","3","4","2","4","3","4","4","4","4","5","5","4","4","4","5","4","4","4","5","4","4","5","4","4","1","0","1","1","0","1","0","1","0","1","1","0","0","0","0","4","2","5","2","4","4","4","5","5","4","598925018256113664","刘","422","","","","","","","","","","","","","","","","","","","","","","","","","","","","","","feedback_test","","","","","","","","","",""
"700","","f","psychophysics","103","263323","0.0-7.0-0.0-1.0-0.0-0.47","3","4","4","3","3","3","4","2","4","3","4","4","4","4","5","5","4","4","4","5","4","4","4","5","4","4","5","4","4","1","0","1","1","0","1","0","1","0","1","1","0","0","0","0","4","2","5","2","4","4","4","5","5","4","598925018256113664","刘","422","","","","match","","","","","","","","","","","","","","key","f","16.676821782178184","758.3333534223067","422.22223340729164","f","true","match","img/diamond.png","菱形","菱形","ALT1_1","prac_ALT1_1","","","","","","","","","",""
"null","<span style='color:GreenYellow; font-size: 70px;'>正确! </span>","null","html-keyboard-response","104","263826","0.0-7.0-0.0-1.0-0.0-1.47","3","4","4","3","3","3","4","2","4","3","4","4","4","4","5","5","4","4","4","5","4","4","4","5","4","4","5","4","4","1","0","1","1","0","1","0","1","0","1","1","0","0","0","0","4","2","5","2","4","4","4","5","5","4","598925018256113664","刘","422","","","","","","","","","","","","","","","","","","","","","","","","","","","","","","feedback_test","","","","","","","","","",""
"876","<style>.context{color:white; font-size: 35px; line-height:40px}</style>                            <div><p class='context'>您正确回答了92% 的试次。</p><p class='context'>您的平均反应时为661毫秒。</p><p class='context'>恭喜您完成练习。按空格键进入正式实验。</p><p class='footer' style='font-size: 35px; line-height:40px;'>请在进入正式实验之前将您的<span style='color: lightgreen;'>食指</span>放在电脑键盘的相应键位上进行按键。</p>"," ","html-keyboard-response","105","264713","0.0-7.0-0.0-2.0","3","4","4","3","3","3","4","2","4","3","4","4","4","4","5","5","4","4","4","5","4","4","4","5","4","4","5","4","4","1","0","1","1","0","1","0","1","0","1","1","0","0","0","0","4","2","5","2","4","4","4","5","5","4","598925018256113664","刘","422","","","","","","","","","","","","","","","","","","","","","","","","","","","","","","","","","","","","","","","",""
"1911","
    <p style='color: white; font-size: 22px'>请您将手指放在按键上，准备进入正式的匹配任务。</p>
    <p> <div style = ""color: green""><按空格键进入下一阶段的匹配任务></div></p>
    "," ","html-keyboard-response","106","266627","0.0-7.0-0.0-3.0","3","4","4","3","3","3","4","2","4","3","4","4","4","4","5","5","4","4","4","5","4","4","4","5","4","4","5","4","4","1","0","1","1","0","1","0","1","0","1","1","0","0","0","0","4","2","5","2","4","4","4","5","5","4","598925018256113664","刘","422","","","","","","","","","","","","","","","","","","","","","","","","","","","","","","","","","","","","","","","",""
"641","","j","psychophysics","107","268270","0.0-7.0-0.0-4.0-0.0-0.0","3","4","4","3","3","3","4","2","4","3","4","4","4","4","5","5","4","4","4","5","4","4","4","5","4","4","5","4","4","1","0","1","1","0","1","0","1","0","1","1","0","0","0","0","4","2","5","2","4","4","4","5","5","4","598925018256113664","刘","422","","","","nonmatch","","","","","","","","","","","","","","key","j","16.676785714285238","758.3333534223067","422.22223340729164","j","true","nonmatch","img/diamond.png","圆形","菱形","ALT1","formal_ALT1_1","","","","","","","","","",""
"null","<span style='color:GreenYellow; font-size: 70px;'>正确! </span>","null","html-keyboard-response","108","268771","0.0-7.0-0.0-4.0-0.0-1.0","3","4","4","3","3","3","4","2","4","3","4","4","4","4","5","5","4","4","4","5","4","4","4","5","4","4","5","4","4","1","0","1","1","0","1","0","1","0","1","1","0","0","0","0","4","2","5","2","4","4","4","5","5","4","598925018256113664","刘","422","","","","","","","","","","","","","","","","","","","","","","","","","","","","","","feedback_test","","","","","","","","","",""
"563","","f","psychophysics","109","270336","0.0-7.0-0.0-4.0-0.0-0.1","3","4","4","3","3","3","4","2","4","3","4","4","4","4","5","5","4","4","4","5","4","4","4","5","4","4","5","4","4","1","0","1","1","0","1","0","1","0","1","1","0","0","0","0","4","2","5","2","4","4","4","5","5","4","598925018256113664","刘","422","","","","match","","","","","","","","","","","","","","key","f","16.677408602150653","758.3333534223067","422.22223340729164","f","true","match","img/pentagon.png","五边","五边","ALT1","formal_ALT1_1","","","","","","","","","",""
"null","<span style='color:GreenYellow; font-size: 70px;'>正确! </span>","null","html-keyboard-response","110","270836","0.0-7.0-0.0-4.0-0.0-1.1","3","4","4","3","3","3","4","2","4","3","4","4","4","4","5","5","4","4","4","5","4","4","4","5","4","4","5","4","4","1","0","1","1","0","1","0","1","0","1","1","0","0","0","0","4","2","5","2","4","4","4","5","5","4","598925018256113664","刘","422","","","","","","","","","","","","","","","","","","","","","","","","","","","","","","feedback_test","","","","","","","","","",""
"559","","f","psychophysics","111","272398","0.0-7.0-0.0-4.0-0.0-0.2","3","4","4","3","3","3","4","2","4","3","4","4","4","4","5","5","4","4","4","5","4","4","4","5","4","4","5","4","4","1","0","1","1","0","1","0","1","0","1","1","0","0","0","0","4","2","5","2","4","4","4","5","5","4","598925018256113664","刘","422","","","","match","","","","","","","","","","","","","","key","f","16.67415217391301","758.3333534223067","422.22223340729164","f","true","match","img/circle.png","圆形","圆形","ALT1","formal_ALT1_1","","","","","","","","","",""
"null","<span style='color:GreenYellow; font-size: 70px;'>正确! </span>","null","html-keyboard-response","112","272900","0.0-7.0-0.0-4.0-0.0-1.2","3","4","4","3","3","3","4","2","4","3","4","4","4","4","5","5","4","4","4","5","4","4","4","5","4","4","5","4","4","1","0","1","1","0","1","0","1","0","1","1","0","0","0","0","4","2","5","2","4","4","4","5","5","4","598925018256113664","刘","422","","","","","","","","","","","","","","","","","","","","","","","","","","","","","","feedback_test","","","","","","","","","",""
"656","","j","psychophysics","113","274557","0.0-7.0-0.0-4.0-0.0-0.3","3","4","4","3","3","3","4","2","4","3","4","4","4","4","5","5","4","4","4","5","4","4","4","5","4","4","5","4","4","1","0","1","1","0","1","0","1","0","1","1","0","0","0","0","4","2","5","2","4","4","4","5","5","4","598925018256113664","刘","422","","","","nonmatch","","","","","","","","","","","","","","key","j","16.67631632653041","758.3333534223067","422.22223340729164","j","true","nonmatch","img/circle.png","梯形","圆形","ALT1","formal_ALT1_1","","","","","","","","","",""
"null","<span style='color:GreenYellow; font-size: 70px;'>正确! </span>","null","html-keyboard-response","114","275057","0.0-7.0-0.0-4.0-0.0-1.3","3","4","4","3","3","3","4","2","4","3","4","4","4","4","5","5","4","4","4","5","4","4","4","5","4","4","5","4","4","1","0","1","1","0","1","0","1","0","1","1","0","0","0","0","4","2","5","2","4","4","4","5","5","4","598925018256113664","刘","422","","","","","","","","","","","","","","","","","","","","","","","","","","","","","","feedback_test","","","","","","","","","",""
"580","","f","psychophysics","115","276639","0.0-7.0-0.0-4.0-0.0-0.4","3","4","4","3","3","3","4","2","4","3","4","4","4","4","5","5","4","4","4","5","4","4","4","5","4","4","5","4","4","1","0","1","1","0","1","0","1","0","1","1","0","0","0","0","4","2","5","2","4","4","4","5","5","4","598925018256113664","刘","422","","","","match","","","","","","","","","","","","","","key","f","16.67709574468082","758.3333534223067","422.22223340729164","f","true","match","img/trapezoid.png","梯形","梯形","ALT1","formal_ALT1_1","","","","","","","","","",""
"null","<span style='color:GreenYellow; font-size: 70px;'>正确! </span>","null","html-keyboard-response","116","277140","0.0-7.0-0.0-4.0-0.0-1.4","3","4","4","3","3","3","4","2","4","3","4","4","4","4","5","5","4","4","4","5","4","4","4","5","4","4","5","4","4","1","0","1","1","0","1","0","1","0","1","1","0","0","0","0","4","2","5","2","4","4","4","5","5","4","598925018256113664","刘","422","","","","","","","","","","","","","","","","","","","","","","","","","","","","","","feedback_test","","","","","","","","","",""
"659","","j","psychophysics","117","278801","0.0-7.0-0.0-4.0-0.0-0.5","3","4","4","3","3","3","4","2","4","3","4","4","4","4","5","5","4","4","4","5","4","4","4","5","4","4","5","4","4","1","0","1","1","0","1","0","1","0","1","1","0","0","0","0","4","2","5","2","4","4","4","5","5","4","598925018256113664","刘","422","","","","nonmatch","","","","","","","","","","","","","","key","j","16.676816326530403","758.3333534223067","422.22223340729164","j","true","nonmatch","img/diamond.png","五边","菱形","ALT1","formal_ALT1_1","","","","","","","","","",""
"null","<span style='color:GreenYellow; font-size: 70px;'>正确! </span>","null","html-keyboard-response","118","279303","0.0-7.0-0.0-4.0-0.0-1.5","3","4","4","3","3","3","4","2","4","3","4","4","4","4","5","5","4","4","4","5","4","4","4","5","4","4","5","4","4","1","0","1","1","0","1","0","1","0","1","1","0","0","0","0","4","2","5","2","4","4","4","5","5","4","598925018256113664","刘","422","","","","","","","","","","","","","","","","","","","","","","","","","","","","","","feedback_test","","","","","","","","","",""
"581","","f","psychophysics","119","280885","0.0-7.0-0.0-4.0-0.0-0.6","3","4","4","3","3","3","4","2","4","3","4","4","4","4","5","5","4","4","4","5","4","4","4","5","4","4","5","4","4","1","0","1","1","0","1","0","1","0","1","1","0","0","0","0","4","2","5","2","4","4","4","5","5","4","598925018256113664","刘","422","","","","match","","","","","","","","","","","","","","key","f","16.674032258064493","758.3333534223067","422.22223340729164","f","true","match","img/pentagon.png","五边","五边","ALT1","formal_ALT1_1","","","","","","","","","",""
"null","<span style='color:GreenYellow; font-size: 70px;'>正确! </span>","null","html-keyboard-response","120","281391","0.0-7.0-0.0-4.0-0.0-1.6","3","4","4","3","3","3","4","2","4","3","4","4","4","4","5","5","4","4","4","5","4","4","4","5","4","4","5","4","4","1","0","1","1","0","1","0","1","0","1","1","0","0","0","0","4","2","5","2","4","4","4","5","5","4","598925018256113664","刘","422","","","","","","","","","","","","","","","","","","","","","","","","","","","","","","feedback_test","","","","","","","","","",""
"602","","f","psychophysics","121","282995","0.0-7.0-0.0-4.0-0.0-0.7","3","4","4","3","3","3","4","2","4","3","4","4","4","4","5","5","4","4","4","5","4","4","4","5","4","4","5","4","4","1","0","1","1","0","1","0","1","0","1","1","0","0","0","0","4","2","5","2","4","4","4","5","5","4","598925018256113664","刘","422","","","","match","","","","","","","","","","","","","","key","f","16.67515789473699","758.3333534223067","422.22223340729164","f","true","match","img/trapezoid.png","梯形","梯形","ALT1","formal_ALT1_1","","","","","","","","","",""
"null","<span style='color:GreenYellow; font-size: 70px;'>正确! </span>","null","html-keyboard-response","122","283496","0.0-7.0-0.0-4.0-0.0-1.7","3","4","4","3","3","3","4","2","4","3","4","4","4","4","5","5","4","4","4","5","4","4","4","5","4","4","5","4","4","1","0","1","1","0","1","0","1","0","1","1","0","0","0","0","4","2","5","2","4","4","4","5","5","4","598925018256113664","刘","422","","","","","","","","","","","","","","","","","","","","","","","","","","","","","","feedback_test","","","","","","","","","",""
"644","","j","psychophysics","123","285143","0.0-7.0-0.0-4.0-0.0-0.8","3","4","4","3","3","3","4","2","4","3","4","4","4","4","5","5","4","4","4","5","4","4","4","5","4","4","5","4","4","1","0","1","1","0","1","0","1","0","1","1","0","0","0","0","4","2","5","2","4","4","4","5","5","4","598925018256113664","刘","422","","","","nonmatch","","","","","","","","","","","","","","key","j","16.675622448979695","758.3333534223067","422.22223340729164","j","true","nonmatch","img/diamond.png","梯形","菱形","ALT1","formal_ALT1_1","","","","","","","","","",""
"null","<span style='color:GreenYellow; font-size: 70px;'>正确! </span>","null","html-keyboard-response","124","285644","0.0-7.0-0.0-4.0-0.0-1.8","3","4","4","3","3","3","4","2","4","3","4","4","4","4","5","5","4","4","4","5","4","4","4","5","4","4","5","4","4","1","0","1","1","0","1","0","1","0","1","1","0","0","0","0","4","2","5","2","4","4","4","5","5","4","598925018256113664","刘","422","","","","","","","","","","","","","","","","","","","","","","","","","","","","","","feedback_test","","","","","","","","","",""
"673","","f","psychophysics","125","287319","0.0-7.0-0.0-4.0-0.0-0.9","3","4","4","3","3","3","4","2","4","3","4","4","4","4","5","5","4","4","4","5","4","4","4","5","4","4","5","4","4","1","0","1","1","0","1","0","1","0","1","1","0","0","0","0","4","2","5","2","4","4","4","5","5","4","598925018256113664","刘","422","","","","match","","","","","","","","","","","","","","key","f","16.67665656565658","758.3333534223067","422.22223340729164","f","true","match","img/diamond.png","菱形","菱形","ALT1","formal_ALT1_1","","","","","","","","","",""
"null","<span style='color:GreenYellow; font-size: 70px;'>正确! </span>","null","html-keyboard-response","126","287821","0.0-7.0-0.0-4.0-0.0-1.9","3","4","4","3","3","3","4","2","4","3","4","4","4","4","5","5","4","4","4","5","4","4","4","5","4","4","5","4","4","1","0","1","1","0","1","0","1","0","1","1","0","0","0","0","4","2","5","2","4","4","4","5","5","4","598925018256113664","刘","422","","","","","","","","","","","","","","","","","","","","","","","","","","","","","","feedback_test","","","","","","","","","",""
"685","","f","psychophysics","127","289508","0.0-7.0-0.0-4.0-0.0-0.10","3","4","4","3","3","3","4","2","4","3","4","4","4","4","5","5","4","4","4","5","4","4","4","5","4","4","5","4","4","1","0","1","1","0","1","0","1","0","1","1","0","0","0","0","4","2","5","2","4","4","4","5","5","4","598925018256113664","刘","422","","","","match","","","","","","","","","","","","","","key","f","16.6746100000001","758.3333534223067","422.22223340729164","j","false","nonmatch","img/trapezoid.png","菱形","梯形","ALT1","formal_ALT1_1","","","","","","","","","",""
"null","<span style='color:red; font-size: 70px;'>错误! </span>","null","html-keyboard-response","128","290010","0.0-7.0-0.0-4.0-0.0-1.10","3","4","4","3","3","3","4","2","4","3","4","4","4","4","5","5","4","4","4","5","4","4","4","5","4","4","5","4","4","1","0","1","1","0","1","0","1","0","1","1","0","0","0","0","4","2","5","2","4","4","4","5","5","4","598925018256113664","刘","422","","","","","","","","","","","","","","","","","","","","","","","","","","","","","","feedback_test","","","","","","","","","",""
"764","","j","psychophysics","129","291777","0.0-7.0-0.0-4.0-0.0-0.11","3","4","4","3","3","3","4","2","4","3","4","4","4","4","5","5","4","4","4","5","4","4","4","5","4","4","5","4","4","1","0","1","1","0","1","0","1","0","1","1","0","0","0","0","4","2","5","2","4","4","4","5","5","4","598925018256113664","刘","422","","","","nonmatch","","","","","","","","","","","","","","key","j","16.674304761905002","758.3333534223067","422.22223340729164","j","true","nonmatch","img/circle.png","菱形","圆形","ALT1","formal_ALT1_1","","","","","","","","","",""
"null","<span style='color:GreenYellow; font-size: 70px;'>正确! </span>","null","html-keyboard-response","130","292279","0.0-7.0-0.0-4.0-0.0-1.11","3","4","4","3","3","3","4","2","4","3","4","4","4","4","5","5","4","4","4","5","4","4","4","5","4","4","5","4","4","1","0","1","1","0","1","0","1","0","1","1","0","0","0","0","4","2","5","2","4","4","4","5","5","4","598925018256113664","刘","422","","","","","","","","","","","","","","","","","","","","","","","","","","","","","","feedback_test","","","","","","","","","",""
"683","","j","psychophysics","131","293963","0.0-7.0-0.0-4.0-0.0-0.12","3","4","4","3","3","3","4","2","4","3","4","4","4","4","5","5","4","4","4","5","4","4","4","5","4","4","5","4","4","1","0","1","1","0","1","0","1","0","1","1","0","0","0","0","4","2","5","2","4","4","4","5","5","4","598925018256113664","刘","422","","","","nonmatch","","","","","","","","","","","","","","key","j","16.67661999999953","758.3333534223067","422.22223340729164","j","true","nonmatch","img/trapezoid.png","圆形","梯形","ALT1","formal_ALT1_1","","","","","","","","","",""
"null","<span style='color:GreenYellow; font-size: 70px;'>正确! </span>","null","html-keyboard-response","132","294465","0.0-7.0-0.0-4.0-0.0-1.12","3","4","4","3","3","3","4","2","4","3","4","4","4","4","5","5","4","4","4","5","4","4","4","5","4","4","5","4","4","1","0","1","1","0","1","0","1","0","1","1","0","0","0","0","4","2","5","2","4","4","4","5","5","4","598925018256113664","刘","422","","","","","","","","","","","","","","","","","","","","","","","","","","","","","","feedback_test","","","","","","","","","",""
"636","","j","psychophysics","133","296112","0.0-7.0-0.0-4.0-0.0-0.13","3","4","4","3","3","3","4","2","4","3","4","4","4","4","5","5","4","4","4","5","4","4","4","5","4","4","5","4","4","1","0","1","1","0","1","0","1","0","1","1","0","0","0","0","4","2","5","2","4","4","4","5","5","4","598925018256113664","刘","422","","","","nonmatch","","","","","","","","","","","","","","key","j","16.67601020408174","758.3333534223067","422.22223340729164","j","true","nonmatch","img/pentagon.png","菱形","五边","ALT1","formal_ALT1_1","","","","","","","","","",""
"null","<span style='color:GreenYellow; font-size: 70px;'>正确! </span>","null","html-keyboard-response","134","296625","0.0-7.0-0.0-4.0-0.0-1.13","3","4","4","3","3","3","4","2","4","3","4","4","4","4","5","5","4","4","4","5","4","4","4","5","4","4","5","4","4","1","0","1","1","0","1","0","1","0","1","1","0","0","0","0","4","2","5","2","4","4","4","5","5","4","598925018256113664","刘","422","","","","","","","","","","","","","","","","","","","","","","","","","","","","","","feedback_test","","","","","","","","","",""
"741","","j","psychophysics","135","298369","0.0-7.0-0.0-4.0-0.0-0.14","3","4","4","3","3","3","4","2","4","3","4","4","4","4","5","5","4","4","4","5","4","4","4","5","4","4","5","4","4","1","0","1","1","0","1","0","1","0","1","1","0","0","0","0","4","2","5","2","4","4","4","5","5","4","598925018256113664","刘","422","","","","nonmatch","","","","","","","","","","","","","","key","j","16.677384615384373","758.3333534223067","422.22223340729164","j","true","nonmatch","img/circle.png","五边","圆形","ALT1","formal_ALT1_1","","","","","","","","","",""
"null","<span style='color:GreenYellow; font-size: 70px;'>正确! </span>","null","html-keyboard-response","136","298870","0.0-7.0-0.0-4.0-0.0-1.14","3","4","4","3","3","3","4","2","4","3","4","4","4","4","5","5","4","4","4","5","4","4","4","5","4","4","5","4","4","1","0","1","1","0","1","0","1","0","1","1","0","0","0","0","4","2","5","2","4","4","4","5","5","4","598925018256113664","刘","422","","","","","","","","","","","","","","","","","","","","","","","","","","","","","","feedback_test","","","","","","","","","",""
"610","","f","psychophysics","137","300483","0.0-7.0-0.0-4.0-0.0-0.15","3","4","4","3","3","3","4","2","4","3","4","4","4","4","5","5","4","4","4","5","4","4","4","5","4","4","5","4","4","1","0","1","1","0","1","0","1","0","1","1","0","0","0","0","4","2","5","2","4","4","4","5","5","4","598925018256113664","刘","422","","","","match","","","","","","","","","","","","","","key","f","16.677822916666628","758.3333534223067","422.22223340729164","f","true","match","img/diamond.png","菱形","菱形","ALT1","formal_ALT1_1","","","","","","","","","",""
"null","<span style='color:GreenYellow; font-size: 70px;'>正确! </span>","null","html-keyboard-response","138","300984","0.0-7.0-0.0-4.0-0.0-1.15","3","4","4","3","3","3","4","2","4","3","4","4","4","4","5","5","4","4","4","5","4","4","4","5","4","4","5","4","4","1","0","1","1","0","1","0","1","0","1","1","0","0","0","0","4","2","5","2","4","4","4","5","5","4","598925018256113664","刘","422","","","","","","","","","","","","","","","","","","","","","","","","","","","","","","feedback_test","","","","","","","","","",""
"636","","f","psychophysics","139","302623","0.0-7.0-0.0-4.0-0.0-0.16","3","4","4","3","3","3","4","2","4","3","4","4","4","4","5","5","4","4","4","5","4","4","4","5","4","4","5","4","4","1","0","1","1","0","1","0","1","0","1","1","0","0","0","0","4","2","5","2","4","4","4","5","5","4","598925018256113664","刘","422","","","","match","","","","","","","","","","","","","","key","f","16.674381443298753","758.3333534223067","422.22223340729164","f","true","match","img/circle.png","圆形","圆形","ALT1","formal_ALT1_1","","","","","","","","","",""
"null","<span style='color:GreenYellow; font-size: 70px;'>正确! </span>","null","html-keyboard-response","140","303124","0.0-7.0-0.0-4.0-0.0-1.16","3","4","4","3","3","3","4","2","4","3","4","4","4","4","5","5","4","4","4","5","4","4","4","5","4","4","5","4","4","1","0","1","1","0","1","0","1","0","1","1","0","0","0","0","4","2","5","2","4","4","4","5","5","4","598925018256113664","刘","422","","","","","","","","","","","","","","","","","","","","","","","","","","","","","","feedback_test","","","","","","","","","",""
"734","","f","psychophysics","141","304860","0.0-7.0-0.0-4.0-0.0-0.17","3","4","4","3","3","3","4","2","4","3","4","4","4","4","5","5","4","4","4","5","4","4","4","5","4","4","5","4","4","1","0","1","1","0","1","0","1","0","1","1","0","0","0","0","4","2","5","2","4","4","4","5","5","4","598925018256113664","刘","422","","","","match","","","","","","","","","","","","","","key","f","16.67629126213588","758.3333534223067","422.22223340729164","f","true","match","img/pentagon.png","五边","五边","ALT1","formal_ALT1_1","","","","","","","","","",""
"null","<span style='color:GreenYellow; font-size: 70px;'>正确! </span>","null","html-keyboard-response","142","305361","0.0-7.0-0.0-4.0-0.0-1.17","3","4","4","3","3","3","4","2","4","3","4","4","4","4","5","5","4","4","4","5","4","4","4","5","4","4","5","4","4","1","0","1","1","0","1","0","1","0","1","1","0","0","0","0","4","2","5","2","4","4","4","5","5","4","598925018256113664","刘","422","","","","","","","","","","","","","","","","","","","","","","","","","","","","","","feedback_test","","","","","","","","","",""
"597","","j","psychophysics","143","306960","0.0-7.0-0.0-4.0-0.0-0.18","3","4","4","3","3","3","4","2","4","3","4","4","4","4","5","5","4","4","4","5","4","4","4","5","4","4","5","4","4","1","0","1","1","0","1","0","1","0","1","1","0","0","0","0","4","2","5","2","4","4","4","5","5","4","598925018256113664","刘","422","","","","nonmatch","","","","","","","","","","","","","","key","j","16.67546315789468","758.3333534223067","422.22223340729164","j","true","nonmatch","img/pentagon.png","梯形","五边","ALT1","formal_ALT1_1","","","","","","","","","",""
"null","<span style='color:GreenYellow; font-size: 70px;'>正确! </span>","null","html-keyboard-response","144","307460","0.0-7.0-0.0-4.0-0.0-1.18","3","4","4","3","3","3","4","2","4","3","4","4","4","4","5","5","4","4","4","5","4","4","4","5","4","4","5","4","4","1","0","1","1","0","1","0","1","0","1","1","0","0","0","0","4","2","5","2","4","4","4","5","5","4","598925018256113664","刘","422","","","","","","","","","","","","","","","","","","","","","","","","","","","","","","feedback_test","","","","","","","","","",""
"705","","f","psychophysics","145","309168","0.0-7.0-0.0-4.0-0.0-0.19","3","4","4","3","3","3","4","2","4","3","4","4","4","4","5","5","4","4","4","5","4","4","4","5","4","4","5","4","4","1","0","1","1","0","1","0","1","0","1","1","0","0","0","0","4","2","5","2","4","4","4","5","5","4","598925018256113664","刘","422","","","","match","","","","","","","","","","","","","","key","f","16.67802941176513","758.3333534223067","422.22223340729164","f","true","match","img/diamond.png","菱形","菱形","ALT1","formal_ALT1_1","","","","","","","","","",""
"null","<span style='color:GreenYellow; font-size: 70px;'>正确! </span>","null","html-keyboard-response","146","309670","0.0-7.0-0.0-4.0-0.0-1.19","3","4","4","3","3","3","4","2","4","3","4","4","4","4","5","5","4","4","4","5","4","4","4","5","4","4","5","4","4","1","0","1","1","0","1","0","1","0","1","1","0","0","0","0","4","2","5","2","4","4","4","5","5","4","598925018256113664","刘","422","","","","","","","","","","","","","","","","","","","","","","","","","","","","","","feedback_test","","","","","","","","","",""
"650","","f","psychophysics","147","311322","0.0-7.0-0.0-4.0-0.0-0.20","3","4","4","3","3","3","4","2","4","3","4","4","4","4","5","5","4","4","4","5","4","4","4","5","4","4","5","4","4","1","0","1","1","0","1","0","1","0","1","1","0","0","0","0","4","2","5","2","4","4","4","5","5","4","598925018256113664","刘","422","","","","match","","","","","","","","","","","","","","key","f","16.677285714285823","758.3333534223067","422.22223340729164","f","true","match","img/circle.png","圆形","圆形","ALT1","formal_ALT1_1","","","","","","","","","",""
"null","<span style='color:GreenYellow; font-size: 70px;'>正确! </span>","null","html-keyboard-response","148","311829","0.0-7.0-0.0-4.0-0.0-1.20","3","4","4","3","3","3","4","2","4","3","4","4","4","4","5","5","4","4","4","5","4","4","4","5","4","4","5","4","4","1","0","1","1","0","1","0","1","0","1","1","0","0","0","0","4","2","5","2","4","4","4","5","5","4","598925018256113664","刘","422","","","","","","","","","","","","","","","","","","","","","","","","","","","","","","feedback_test","","","","","","","","","",""
"727","","f","psychophysics","149","313558","0.0-7.0-0.0-4.0-0.0-0.21","3","4","4","3","3","3","4","2","4","3","4","4","4","4","5","5","4","4","4","5","4","4","4","5","4","4","5","4","4","1","0","1","1","0","1","0","1","0","1","1","0","0","0","0","4","2","5","2","4","4","4","5","5","4","598925018256113664","刘","422","","","","match","","","","","","","","","","","","","","key","f","16.676436893203977","758.3333534223067","422.22223340729164","f","true","match","img/trapezoid.png","梯形","梯形","ALT1","formal_ALT1_1","","","","","","","","","",""
"null","<span style='color:GreenYellow; font-size: 70px;'>正确! </span>","null","html-keyboard-response","150","314060","0.0-7.0-0.0-4.0-0.0-1.21","3","4","4","3","3","3","4","2","4","3","4","4","4","4","5","5","4","4","4","5","4","4","4","5","4","4","5","4","4","1","0","1","1","0","1","0","1","0","1","1","0","0","0","0","4","2","5","2","4","4","4","5","5","4","598925018256113664","刘","422","","","","","","","","","","","","","","","","","","","","","","","","","","","","","","feedback_test","","","","","","","","","",""
"744","","j","psychophysics","151","315805","0.0-7.0-0.0-4.0-0.0-0.22","3","4","4","3","3","3","4","2","4","3","4","4","4","4","5","5","4","4","4","5","4","4","4","5","4","4","5","4","4","1","0","1","1","0","1","0","1","0","1","1","0","0","0","0","4","2","5","2","4","4","4","5","5","4","598925018256113664","刘","422","","","","nonmatch","","","","","","","","","","","","","","key","j","16.678442307692492","758.3333534223067","422.22223340729164","j","true","nonmatch","img/pentagon.png","圆形","五边","ALT1","formal_ALT1_1","","","","","","","","","",""
"null","<span style='color:GreenYellow; font-size: 70px;'>正确! </span>","null","html-keyboard-response","152","316306","0.0-7.0-0.0-4.0-0.0-1.22","3","4","4","3","3","3","4","2","4","3","4","4","4","4","5","5","4","4","4","5","4","4","4","5","4","4","5","4","4","1","0","1","1","0","1","0","1","0","1","1","0","0","0","0","4","2","5","2","4","4","4","5","5","4","598925018256113664","刘","422","","","","","","","","","","","","","","","","","","","","","","","","","","","","","","feedback_test","","","","","","","","","",""
"620","","j","psychophysics","153","317928","0.0-7.0-0.0-4.0-0.0-0.23","3","4","4","3","3","3","4","2","4","3","4","4","4","4","5","5","4","4","4","5","4","4","4","5","4","4","5","4","4","1","0","1","1","0","1","0","1","0","1","1","0","0","0","0","4","2","5","2","4","4","4","5","5","4","598925018256113664","刘","422","","","","nonmatch","","","","","","","","","","","","","","key","j","16.675822916666828","758.3333534223067","422.22223340729164","j","true","nonmatch","img/trapezoid.png","五边","梯形","ALT1","formal_ALT1_1","","","","","","","","","",""
"null","<span style='color:GreenYellow; font-size: 70px;'>正确! </span>","null","html-keyboard-response","154","318430","0.0-7.0-0.0-4.0-0.0-1.23","3","4","4","3","3","3","4","2","4","3","4","4","4","4","5","5","4","4","4","5","4","4","4","5","4","4","5","4","4","1","0","1","1","0","1","0","1","0","1","1","0","0","0","0","4","2","5","2","4","4","4","5","5","4","598925018256113664","刘","422","","","","","","","","","","","","","","","","","","","","","","","","","","","","","","feedback_test","","","","","","","","","",""
"663","","j","psychophysics","155","320095","0.0-7.0-0.0-4.0-0.0-0.24","3","4","4","3","3","3","4","2","4","3","4","4","4","4","5","5","4","4","4","5","4","4","4","5","4","4","5","4","4","1","0","1","1","0","1","0","1","0","1","1","0","0","0","0","4","2","5","2","4","4","4","5","5","4","598925018256113664","刘","422","","","","nonmatch","","","","","","","","","","","","","","key","j","16.672808080808156","758.3333534223067","422.22223340729164","j","true","nonmatch","img/circle.png","菱形","圆形","ALT1","formal_ALT1_1","","","","","","","","","",""
"null","<span style='color:GreenYellow; font-size: 70px;'>正确! </span>","null","html-keyboard-response","156","320596","0.0-7.0-0.0-4.0-0.0-1.24","3","4","4","3","3","3","4","2","4","3","4","4","4","4","5","5","4","4","4","5","4","4","4","5","4","4","5","4","4","1","0","1","1","0","1","0","1","0","1","1","0","0","0","0","4","2","5","2","4","4","4","5","5","4","598925018256113664","刘","422","","","","","","","","","","","","","","","","","","","","","","","","","","","","","","feedback_test","","","","","","","","","",""
"614","","f","psychophysics","157","322212","0.0-7.0-0.0-4.0-0.0-0.25","3","4","4","3","3","3","4","2","4","3","4","4","4","4","5","5","4","4","4","5","4","4","4","5","4","4","5","4","4","1","0","1","1","0","1","0","1","0","1","1","0","0","0","0","4","2","5","2","4","4","4","5","5","4","598925018256113664","刘","422","","","","match","","","","","","","","","","","","","","key","f","16.67542708333349","758.3333534223067","422.22223340729164","f","true","match","img/trapezoid.png","梯形","梯形","ALT1","formal_ALT1_1","","","","","","","","","",""
"null","<span style='color:GreenYellow; font-size: 70px;'>正确! </span>","null","html-keyboard-response","158","322722","0.0-7.0-0.0-4.0-0.0-1.25","3","4","4","3","3","3","4","2","4","3","4","4","4","4","5","5","4","4","4","5","4","4","4","5","4","4","5","4","4","1","0","1","1","0","1","0","1","0","1","1","0","0","0","0","4","2","5","2","4","4","4","5","5","4","598925018256113664","刘","422","","","","","","","","","","","","","","","","","","","","","","","","","","","","","","feedback_test","","","","","","","","","",""
"673","","j","psychophysics","159","324396","0.0-7.0-0.0-4.0-0.0-0.26","3","4","4","3","3","3","4","2","4","3","4","4","4","4","5","5","4","4","4","5","4","4","4","5","4","4","5","4","4","1","0","1","1","0","1","0","1","0","1","1","0","0","0","0","4","2","5","2","4","4","4","5","5","4","598925018256113664","刘","422","","","","nonmatch","","","","","","","","","","","","","","key","j","16.675727272727244","758.3333534223067","422.22223340729164","j","true","nonmatch","img/diamond.png","五边","菱形","ALT1","formal_ALT1_1","","","","","","","","","",""
"null","<span style='color:GreenYellow; font-size: 70px;'>正确! </span>","null","html-keyboard-response","160","324899","0.0-7.0-0.0-4.0-0.0-1.26","3","4","4","3","3","3","4","2","4","3","4","4","4","4","5","5","4","4","4","5","4","4","4","5","4","4","5","4","4","1","0","1","1","0","1","0","1","0","1","1","0","0","0","0","4","2","5","2","4","4","4","5","5","4","598925018256113664","刘","422","","","","","","","","","","","","","","","","","","","","","","","","","","","","","","feedback_test","","","","","","","","","",""
"646","","f","psychophysics","161","326547","0.0-7.0-0.0-4.0-0.0-0.27","3","4","4","3","3","3","4","2","4","3","4","4","4","4","5","5","4","4","4","5","4","4","4","5","4","4","5","4","4","1","0","1","1","0","1","0","1","0","1","1","0","0","0","0","4","2","5","2","4","4","4","5","5","4","598925018256113664","刘","422","","","","match","","","","","","","","","","","","","","key","f","16.674336734693497","758.3333534223067","422.22223340729164","f","true","match","img/trapezoid.png","梯形","梯形","ALT1","formal_ALT1_1","","","","","","","","","",""
"null","<span style='color:GreenYellow; font-size: 70px;'>正确! </span>","null","html-keyboard-response","162","327048","0.0-7.0-0.0-4.0-0.0-1.27","3","4","4","3","3","3","4","2","4","3","4","4","4","4","5","5","4","4","4","5","4","4","4","5","4","4","5","4","4","1","0","1","1","0","1","0","1","0","1","1","0","0","0","0","4","2","5","2","4","4","4","5","5","4","598925018256113664","刘","422","","","","","","","","","","","","","","","","","","","","","","","","","","","","","","feedback_test","","","","","","","","","",""
"645","","f","psychophysics","163","328695","0.0-7.0-0.0-4.0-0.0-0.28","3","4","4","3","3","3","4","2","4","3","4","4","4","4","5","5","4","4","4","5","4","4","4","5","4","4","5","4","4","1","0","1","1","0","1","0","1","0","1","1","0","0","0","0","4","2","5","2","4","4","4","5","5","4","598925018256113664","刘","422","","","","match","","","","","","","","","","","","","","key","f","16.67505102040845","758.3333534223067","422.22223340729164","f","true","match","img/diamond.png","菱形","菱形","ALT1","formal_ALT1_1","","","","","","","","","",""
"null","<span style='color:GreenYellow; font-size: 70px;'>正确! </span>","null","html-keyboard-response","164","329197","0.0-7.0-0.0-4.0-0.0-1.28","3","4","4","3","3","3","4","2","4","3","4","4","4","4","5","5","4","4","4","5","4","4","4","5","4","4","5","4","4","1","0","1","1","0","1","0","1","0","1","1","0","0","0","0","4","2","5","2","4","4","4","5","5","4","598925018256113664","刘","422","","","","","","","","","","","","","","","","","","","","","","","","","","","","","","feedback_test","","","","","","","","","",""
"666","","f","psychophysics","165","330866","0.0-7.0-0.0-4.0-0.0-0.29","3","4","4","3","3","3","4","2","4","3","4","4","4","4","5","5","4","4","4","5","4","4","4","5","4","4","5","4","4","1","0","1","1","0","1","0","1","0","1","1","0","0","0","0","4","2","5","2","4","4","4","5","5","4","598925018256113664","刘","422","","","","match","","","","","","","","","","","","","","key","f","16.674191919191873","758.3333534223067","422.22223340729164","f","true","match","img/circle.png","圆形","圆形","ALT1","formal_ALT1_1","","","","","","","","","",""
"null","<span style='color:GreenYellow; font-size: 70px;'>正确! </span>","null","html-keyboard-response","166","331366","0.0-7.0-0.0-4.0-0.0-1.29","3","4","4","3","3","3","4","2","4","3","4","4","4","4","5","5","4","4","4","5","4","4","4","5","4","4","5","4","4","1","0","1","1","0","1","0","1","0","1","1","0","0","0","0","4","2","5","2","4","4","4","5","5","4","598925018256113664","刘","422","","","","","","","","","","","","","","","","","","","","","","","","","","","","","","feedback_test","","","","","","","","","",""
"605","","f","psychophysics","167","332973","0.0-7.0-0.0-4.0-0.0-0.30","3","4","4","3","3","3","4","2","4","3","4","4","4","4","5","5","4","4","4","5","4","4","4","5","4","4","5","4","4","1","0","1","1","0","1","0","1","0","1","1","0","0","0","0","4","2","5","2","4","4","4","5","5","4","598925018256113664","刘","422","","","","match","","","","","","","","","","","","","","key","f","16.67457894736803","758.3333534223067","422.22223340729164","f","true","match","img/pentagon.png","五边","五边","ALT1","formal_ALT1_1","","","","","","","","","",""
"null","<span style='color:GreenYellow; font-size: 70px;'>正确! </span>","null","html-keyboard-response","168","333475","0.0-7.0-0.0-4.0-0.0-1.30","3","4","4","3","3","3","4","2","4","3","4","4","4","4","5","5","4","4","4","5","4","4","4","5","4","4","5","4","4","1","0","1","1","0","1","0","1","0","1","1","0","0","0","0","4","2","5","2","4","4","4","5","5","4","598925018256113664","刘","422","","","","","","","","","","","","","","","","","","","","","","","","","","","","","","feedback_test","","","","","","","","","",""
"869","","j","psychophysics","169","335346","0.0-7.0-0.0-4.0-0.0-0.31","3","4","4","3","3","3","4","2","4","3","4","4","4","4","5","5","4","4","4","5","4","4","4","5","4","4","5","4","4","1","0","1","1","0","1","0","1","0","1","1","0","0","0","0","4","2","5","2","4","4","4","5","5","4","598925018256113664","刘","422","","","","nonmatch","","","","","","","","","","","","","","key","j","16.679178571428825","758.3333534223067","422.22223340729164","f","false","match","img/diamond.png","菱形","菱形","ALT1","formal_ALT1_1","","","","","","","","","",""
"null","<span style='color:red; font-size: 70px;'>错误! </span>","null","html-keyboard-response","170","335848","0.0-7.0-0.0-4.0-0.0-1.31","3","4","4","3","3","3","4","2","4","3","4","4","4","4","5","5","4","4","4","5","4","4","4","5","4","4","5","4","4","1","0","1","1","0","1","0","1","0","1","1","0","0","0","0","4","2","5","2","4","4","4","5","5","4","598925018256113664","刘","422","","","","","","","","","","","","","","","","","","","","","","","","","","","","","","feedback_test","","","","","","","","","",""
"613","","f","psychophysics","171","337464","0.0-7.0-0.0-4.0-0.0-0.32","3","4","4","3","3","3","4","2","4","3","4","4","4","4","5","5","4","4","4","5","4","4","4","5","4","4","5","4","4","1","0","1","1","0","1","0","1","0","1","1","0","0","0","0","4","2","5","2","4","4","4","5","5","4","598925018256113664","刘","422","","","","match","","","","","","","","","","","","","","key","f","16.674322916667126","758.3333534223067","422.22223340729164","f","true","match","img/diamond.png","菱形","菱形","ALT1","formal_ALT1_1","","","","","","","","","",""
"null","<span style='color:GreenYellow; font-size: 70px;'>正确! </span>","null","html-keyboard-response","172","337965","0.0-7.0-0.0-4.0-0.0-1.32","3","4","4","3","3","3","4","2","4","3","4","4","4","4","5","5","4","4","4","5","4","4","4","5","4","4","5","4","4","1","0","1","1","0","1","0","1","0","1","1","0","0","0","0","4","2","5","2","4","4","4","5","5","4","598925018256113664","刘","422","","","","","","","","","","","","","","","","","","","","","","","","","","","","","","feedback_test","","","","","","","","","",""
"628","","j","psychophysics","173","339595","0.0-7.0-0.0-4.0-0.0-0.33","3","4","4","3","3","3","4","2","4","3","4","4","4","4","5","5","4","4","4","5","4","4","4","5","4","4","5","4","4","1","0","1","1","0","1","0","1","0","1","1","0","0","0","0","4","2","5","2","4","4","4","5","5","4","598925018256113664","刘","422","","","","nonmatch","","","","","","","","","","","","","","key","j","16.67877083333345","758.3333534223067","422.22223340729164","j","true","nonmatch","img/pentagon.png","圆形","五边","ALT1","formal_ALT1_1","","","","","","","","","",""
"null","<span style='color:GreenYellow; font-size: 70px;'>正确! </span>","null","html-keyboard-response","174","340096","0.0-7.0-0.0-4.0-0.0-1.33","3","4","4","3","3","3","4","2","4","3","4","4","4","4","5","5","4","4","4","5","4","4","4","5","4","4","5","4","4","1","0","1","1","0","1","0","1","0","1","1","0","0","0","0","4","2","5","2","4","4","4","5","5","4","598925018256113664","刘","422","","","","","","","","","","","","","","","","","","","","","","","","","","","","","","feedback_test","","","","","","","","","",""
"670","","j","psychophysics","175","341770","0.0-7.0-0.0-4.0-0.0-0.34","3","4","4","3","3","3","4","2","4","3","4","4","4","4","5","5","4","4","4","5","4","4","4","5","4","4","5","4","4","1","0","1","1","0","1","0","1","0","1","1","0","0","0","0","4","2","5","2","4","4","4","5","5","4","598925018256113664","刘","422","","","","nonmatch","","","","","","","","","","","","","","key","j","16.666404040403915","758.3333534223067","422.22223340729164","j","true","nonmatch","img/circle.png","五边","圆形","ALT1","formal_ALT1_1","","","","","","","","","",""
"null","<span style='color:GreenYellow; font-size: 70px;'>正确! </span>","null","html-keyboard-response","176","342271","0.0-7.0-0.0-4.0-0.0-1.34","3","4","4","3","3","3","4","2","4","3","4","4","4","4","5","5","4","4","4","5","4","4","4","5","4","4","5","4","4","1","0","1","1","0","1","0","1","0","1","1","0","0","0","0","4","2","5","2","4","4","4","5","5","4","598925018256113664","刘","422","","","","","","","","","","","","","","","","","","","","","","","","","","","","","","feedback_test","","","","","","","","","",""
"673","","f","psychophysics","177","343946","0.0-7.0-0.0-4.0-0.0-0.35","3","4","4","3","3","3","4","2","4","3","4","4","4","4","5","5","4","4","4","5","4","4","4","5","4","4","5","4","4","1","0","1","1","0","1","0","1","0","1","1","0","0","0","0","4","2","5","2","4","4","4","5","5","4","598925018256113664","刘","422","","","","match","","","","","","","","","","","","","","key","f","16.674484848484603","758.3333534223067","422.22223340729164","f","true","match","img/trapezoid.png","梯形","梯形","ALT1","formal_ALT1_1","","","","","","","","","",""
"null","<span style='color:GreenYellow; font-size: 70px;'>正确! </span>","null","html-keyboard-response","178","344448","0.0-7.0-0.0-4.0-0.0-1.35","3","4","4","3","3","3","4","2","4","3","4","4","4","4","5","5","4","4","4","5","4","4","4","5","4","4","5","4","4","1","0","1","1","0","1","0","1","0","1","1","0","0","0","0","4","2","5","2","4","4","4","5","5","4","598925018256113664","刘","422","","","","","","","","","","","","","","","","","","","","","","","","","","","","","","feedback_test","","","","","","","","","",""
"543","","f","psychophysics","179","345992","0.0-7.0-0.0-4.0-0.0-0.36","3","4","4","3","3","3","4","2","4","3","4","4","4","4","5","5","4","4","4","5","4","4","4","5","4","4","5","4","4","1","0","1","1","0","1","0","1","0","1","1","0","0","0","0","4","2","5","2","4","4","4","5","5","4","598925018256113664","刘","422","","","","match","","","","","","","","","","","","","","key","f","16.673384615384517","758.3333534223067","422.22223340729164","f","true","match","img/pentagon.png","五边","五边","ALT1","formal_ALT1_1","","","","","","","","","",""
