"rt","stimulus","response","trial_type","trial_index","time_elapsed","internal_node_id","ses_1","ses_2","ses_3","ses_4","ses_5","ses_6","ses_7","ses_8","ses_9","ses_10","coreself_1","coreself_2","coreself_3","coreself_4","coreself_5","coreself_6","coreself_7","coreself_8","coreself_9","coreself_10","SGPS_1","SGPS_2","SGPS_3","SGPS_4","SGPS_5","SGPS_6","SGPS_7","SGPS_8","SGPS_9","NPI1","NPI2","NPI3","NPI4","NPI5","NPI6","NPI7","NPI8","NPI9","NPI10","NPI11","NPI12","NPI13","NPI14","NPI15","hsns_1","hsns_2","hsns_3","hsns_4","hsns_5","hsns_6","hsns_7","hsns_8","hsns_9","hsns_10","subj_idx","friend_name","ParticipantID","value","success","user_agent","responses","item_order","radio_event_ids","radio_event_times","key_event_times","mouse_event_times","straightlining","zigzagging","honeypot","timeout","failed_images","failed_audio","failed_video","version_attrib","version_target","correct","IAT","screen_id","task_id","RT","condition","word","varname","summary","version_attrib2","version_target2","time_stamp","view_history","response_type","key_press","avg_frame_time","center_x","center_y","correct_response","identity","Image","question_order"
"12258","
   <p><div style = ""color: white;font-size:25px;"">您好，欢迎参加本次实验。</div> </p>
   <p><div style = ""color: white;font-size:25px;"">为充分保障您的权利，请确保您已经知晓并同意《参与实验同意书》以及《数据公开知情同意书》。</div></p>
   <p><div style = ""color: white;font-size:25px;"">如果您未见过上述内容，请咨询实验员。</div></p>
   <p><div style = ""color: white;font-size:25px;"">如果您选择继续实验，则表示您已经清楚两份知情同意书的内容并同意。</div></p>
   <p><div style = ""color: red;font-size:30px;"">请确保您记得day0的实验编号，您将在本次实验输入该编号，若您忘记，请咨询实验员后作答。</div></p>
   <p> <div style = ""color: green;font-size:25px;""><按空格键至下页></div> </p>
   "," ","html-keyboard-response","0","12259","0.0-0.0","4","3","4","4","4","3","3","4","4","4","5","5","5","4","5","4","5","5","4","5","2","2","2","2","1","2","2","4","2","1","1","1","0","1","0","0","0","0","0","0","0","0","0","1","5","1","4","1","1","1","2","4","5","2","781830643909922818","WQ","90","","","","","","","","","","","","","","","","","","","","","","","","","","","","","","","","","","","","","","","",""
"","","","call-function","1","12261","0.0-1.0-0.0","4","3","4","4","4","3","3","4","4","4","5","5","5","4","5","4","5","5","4","5","2","2","2","2","1","2","2","4","2","1","1","1","0","1","0","0","0","0","0","0","0","0","0","1","5","1","4","1","1","1","2","4","5","2","781830643909922818","WQ","90","","","","","","","","","","","","","","","","","","","","","","","","","","","","","","","","","","","","","","","",""
"12222","","{""friend_name"":""WQ"",""ParticipantID"":""90""}","survey-html-form","2","24484","0.0-1.0-1.0","4","3","4","4","4","3","3","4","4","4","5","5","5","4","5","4","5","5","4","5","2","2","2","2","1","2","2","4","2","1","1","1","0","1","0","0","0","0","0","0","0","0","0","1","5","1","4","1","1","1","2","4","5","2","781830643909922818","WQ","90","","","","","","","","","","","","","","","","","","","","","","","","","","","","","","","","","","","","","","","",""
"","","","fullscreen","3","38821","0.0-2.0","4","3","4","4","4","3","3","4","4","4","5","5","5","4","5","4","5","5","4","5","2","2","2","2","1","2","2","4","2","1","1","1","0","1","0","0","0","0","0","0","0","0","0","1","5","1","4","1","1","1","2","4","5","2","781830643909922818","WQ","90","","true","{}","","","","","","","","","","","","","","","","","","","","","","","","","","","","","","","","","","","","",""
"30054","","{""Q01"":""4"",""Q02"":""3"",""Q03"":""4"",""Q04"":""4"",""Q05"":""4"",""Q06"":""3"",""Q07"":""3"",""Q08"":""4"",""Q09"":""4"",""Q10"":""4""}","survey-template","4","68878","0.0-3.0","4","3","4","4","4","3","3","4","4","4","5","5","5","4","5","4","5","5","4","5","2","2","2","2","1","2","2","4","2","1","1","1","0","1","0","0","0","0","0","0","0","0","0","1","5","1","4","1","1","1","2","4","5","2","781830643909922818","WQ","90","","","","{""Q01"":""4"",""Q02"":""3"",""Q03"":""4"",""Q04"":""4"",""Q05"":""4"",""Q06"":""3"",""Q07"":""3"",""Q08"":""4"",""Q09"":""4"",""Q10"":""4""}","[0,1,2,3,4,5,6,7,8,9]","[""Q01"",""Q02"",""Q03"",""Q04"",""Q04"",""Q05"",""Q06"",""Q07"",""Q08"",""Q09"",""Q10""]","[3005.199999809265,7803.599999904633,9987.099999904633,11951.199999809265,15303.099999904633,17627.099999904633,19961.099999904633,22458.299999952316,26082.39999985695,28141.799999952316,29161.199999809265]","[]","[3005.199999809265,7803.599999904633,9987.099999904633,11951.199999809265,14351.299999952316,15303.099999904633,17627.099999904633,19961.099999904633,21558.89999985695,22458.299999952316,26082.39999985695,28141.799999952316,29161.199999809265,30052.599999904633]","0.5","0.3333333333333333","0","","","","","","","","","","","","","","","","","","","","","","","","","","","",""
"37483.299999952316","","{""Q01"":""5"",""Q02"":""5"",""Q03"":""5"",""Q04"":""4"",""Q05"":""5"",""Q06"":""4"",""Q07"":""5"",""Q08"":""5"",""Q09"":""4"",""Q10"":""5""}","survey-template","5","106365","0.0-4.0","4","3","4","4","4","3","3","4","4","4","5","5","5","4","5","4","5","5","4","5","2","2","2","2","1","2","2","4","2","1","1","1","0","1","0","0","0","0","0","0","0","0","0","1","5","1","4","1","1","1","2","4","5","2","781830643909922818","WQ","90","","","","{""Q01"":""5"",""Q02"":""5"",""Q03"":""5"",""Q04"":""4"",""Q05"":""5"",""Q06"":""4"",""Q07"":""5"",""Q08"":""5"",""Q09"":""4"",""Q10"":""5""}","[0,1,2,3,4,5,6,7,8,9]","[""Q01"",""Q02"",""Q02"",""Q03"",""Q04"",""Q05"",""Q06"",""Q07"",""Q08"",""Q09"",""Q10""]","[2764.5,10024.5,13173.799999952316,18944.200000047684,22729,24504.299999952316,25974.599999904633,27690.5,33328.5,34558.5,36420.5]","[]","[2764.5,10024.5,11386.599999904633,12034.5,12558.299999952316,13173.799999952316,17758.599999904633,18944.200000047684,22729,24504.299999952316,25974.599999904633,27690.5,33328.5,34558.5,36420.5,37482]","0.6","0.1111111111111111","0","","","","","","","","","","","","","","","","","","","","","","","","","","","",""
"","","","preload","6","106684","0.0-5.0","4","3","4","4","4","3","3","4","4","4","5","5","5","4","5","4","5","5","4","5","2","2","2","2","1","2","2","4","2","1","1","1","0","1","0","0","0","0","0","0","0","0","0","1","5","1","4","1","1","1","2","4","5","2","781830643909922818","WQ","90","","true","","","","","","","","","","","false","[]","[]","[]","","","","","","","","","","","","","","","","","","","","","","","",""
"18000","
    <h3>词语分类任务</h3>
    <p>在接下来的任务中，你需要对一系列词语进行分类。</p>
    <p>请先熟悉这些词语，这有利于你完成接下来的任务。</p>
    <table align=""center"" border=1 cellpadding=3 cellspacing=0>
    <tr> <th>类别</th> <th>词语</th> </tr>
    <tr> <td>&emsp;积极&emsp;</td> <td>&emsp;能干、全能、全才、高效、精干、天才&emsp;</td> </tr>
    <tr> <td>&emsp;消极&emsp;</td> <td>&emsp;无能、低能、废物、拙笨、愚钝、蠢笨&emsp;</td> </tr>
    <tr> <td>&emsp;自我&emsp;</td> <td>&emsp;我、我的、自己、自己的、本人、本人的&emsp;</td> </tr>
    <tr> <td>&emsp;他人&emsp;</td> <td>&emsp;他、他的、别人、别人的、他人、他人的&emsp;</td> </tr>
    </table><br/>","0","html-button-response","7","124686","0.0-6.0-0.0-0.0","4","3","4","4","4","3","3","4","4","4","5","5","5","4","5","4","5","5","4","5","2","2","2","2","1","2","2","4","2","1","1","1","0","1","0","0","0","0","0","0","0","0","0","1","5","1","4","1","1","1","2","4","5","2","781830643909922818","WQ","90","","","","","","","","","","","","","","","","","2","2","","","","","","","","","","","","","","","","","","","","","",""
"12947","
    <div class=""tag-bottom"">
    <p> —— 任务1：对“他人”词和“自我”词分类 ——<p/>
    不同词语会出现在屏幕中央，类别标签将始终显示在屏幕上方<p/>   
    <span style=""color:#FFD866""><b>请根据上方标签的提示，尽可能正确并且快速地做出按键反应</b></span><p/>
    当按键错误时屏幕中会出现<span style=""color:red""> X </span>，需要按另一个键纠正才能继续<br/><p/>
    请把双手食指分别放在键盘的“E”键和“I”键上<p/>
    按<空格键>开始
    </p></div>"," ","html-keyboard-response","8","137635","0.0-6.0-0.0-1.0","4","3","4","4","4","3","3","4","4","4","5","5","5","4","5","4","5","5","4","5","2","2","2","2","1","2","2","4","2","1","1","1","0","1","0","0","0","0","0","0","0","0","0","1","5","1","4","1","1","1","2","4","5","2","781830643909922818","WQ","90","","","","","","","","","","","","","","","","","","","","","","","","","","","","","","","","","","","","","","","",""
"null","","null","html-keyboard-response","9","137886","0.0-6.0-0.0-2.0-0.0","4","3","4","4","4","3","3","4","4","4","5","5","5","4","5","4","5","5","4","5","2","2","2","2","1","2","2","4","2","1","1","1","0","1","0","0","0","0","0","0","0","0","0","1","5","1","4","1","1","1","2","4","5","2","781830643909922818","WQ","90","","","","","","","","","","","","","","","","","","","","","","","","","","","","","","","","","","","","","","","",""
"906","<p style=""color:rgb(150, 250, 100); font-size: 35px;"">自己</p>","i","categorize-html","10","138795","0.0-6.0-0.0-2.0-1.0","4","3","4","4","4","3","3","4","4","4","5","5","5","4","5","4","5","5","4","5","2","2","2","2","1","2","2","4","2","1","1","1","0","1","0","0","0","0","0","0","0","0","0","1","5","1","4","1","1","1","2","4","5","2","781830643909922818","WQ","90","","","","","","","","","","","","","","","","","","","true","1","1","ability","906","self","自己","","","","","","","","","","","","","","",""
"null","","null","html-keyboard-response","11","139046","0.0-6.0-0.0-2.0-0.1","4","3","4","4","4","3","3","4","4","4","5","5","5","4","5","4","5","5","4","5","2","2","2","2","1","2","2","4","2","1","1","1","0","1","0","0","0","0","0","0","0","0","0","1","5","1","4","1","1","1","2","4","5","2","781830643909922818","WQ","90","","","","","","","","","","","","","","","","","","","","","","","","","","","","","","","","","","","","","","","",""
"763","<p style=""color:rgb(150, 250, 100); font-size: 35px;"">自己的</p>","i","categorize-html","12","139810","0.0-6.0-0.0-2.0-1.1","4","3","4","4","4","3","3","4","4","4","5","5","5","4","5","4","5","5","4","5","2","2","2","2","1","2","2","4","2","1","1","1","0","1","0","0","0","0","0","0","0","0","0","1","5","1","4","1","1","1","2","4","5","2","781830643909922818","WQ","90","","","","","","","","","","","","","","","","","","","true","1","1","ability","763","self","自己的","","","","","","","","","","","","","","",""
"null","","null","html-keyboard-response","13","140061","0.0-6.0-0.0-2.0-0.2","4","3","4","4","4","3","3","4","4","4","5","5","5","4","5","4","5","5","4","5","2","2","2","2","1","2","2","4","2","1","1","1","0","1","0","0","0","0","0","0","0","0","0","1","5","1","4","1","1","1","2","4","5","2","781830643909922818","WQ","90","","","","","","","","","","","","","","","","","","","","","","","","","","","","","","","","","","","","","","","",""
"1004","<p style=""color:rgb(150, 250, 100); font-size: 35px;"">本人</p>","i","categorize-html","14","141066","0.0-6.0-0.0-2.0-1.2","4","3","4","4","4","3","3","4","4","4","5","5","5","4","5","4","5","5","4","5","2","2","2","2","1","2","2","4","2","1","1","1","0","1","0","0","0","0","0","0","0","0","0","1","5","1","4","1","1","1","2","4","5","2","781830643909922818","WQ","90","","","","","","","","","","","","","","","","","","","true","1","1","ability","1004","self","本人","","","","","","","","","","","","","","",""
"null","","null","html-keyboard-response","15","141318","0.0-6.0-0.0-2.0-0.3","4","3","4","4","4","3","3","4","4","4","5","5","5","4","5","4","5","5","4","5","2","2","2","2","1","2","2","4","2","1","1","1","0","1","0","0","0","0","0","0","0","0","0","1","5","1","4","1","1","1","2","4","5","2","781830643909922818","WQ","90","","","","","","","","","","","","","","","","","","","","","","","","","","","","","","","","","","","","","","","",""
"1700","<p style=""color:rgb(150, 250, 100); font-size: 35px;"">他的</p>","e","categorize-html","16","143018","0.0-6.0-0.0-2.0-1.3","4","3","4","4","4","3","3","4","4","4","5","5","5","4","5","4","5","5","4","5","2","2","2","2","1","2","2","4","2","1","1","1","0","1","0","0","0","0","0","0","0","0","0","1","5","1","4","1","1","1","2","4","5","2","781830643909922818","WQ","90","","","","","","","","","","","","","","","","","","","true","1","1","ability","1700","other","他的","","","","","","","","","","","","","","",""
"null","","null","html-keyboard-response","17","143270","0.0-6.0-0.0-2.0-0.4","4","3","4","4","4","3","3","4","4","4","5","5","5","4","5","4","5","5","4","5","2","2","2","2","1","2","2","4","2","1","1","1","0","1","0","0","0","0","0","0","0","0","0","1","5","1","4","1","1","1","2","4","5","2","781830643909922818","WQ","90","","","","","","","","","","","","","","","","","","","","","","","","","","","","","","","","","","","","","","","",""
"827","<p style=""color:rgb(150, 250, 100); font-size: 35px;"">我</p>","i","categorize-html","18","144098","0.0-6.0-0.0-2.0-1.4","4","3","4","4","4","3","3","4","4","4","5","5","5","4","5","4","5","5","4","5","2","2","2","2","1","2","2","4","2","1","1","1","0","1","0","0","0","0","0","0","0","0","0","1","5","1","4","1","1","1","2","4","5","2","781830643909922818","WQ","90","","","","","","","","","","","","","","","","","","","true","1","1","ability","827","self","我","","","","","","","","","","","","","","",""
"null","","null","html-keyboard-response","19","144350","0.0-6.0-0.0-2.0-0.5","4","3","4","4","4","3","3","4","4","4","5","5","5","4","5","4","5","5","4","5","2","2","2","2","1","2","2","4","2","1","1","1","0","1","0","0","0","0","0","0","0","0","0","1","5","1","4","1","1","1","2","4","5","2","781830643909922818","WQ","90","","","","","","","","","","","","","","","","","","","","","","","","","","","","","","","","","","","","","","","",""
"572","<p style=""color:rgb(150, 250, 100); font-size: 35px;"">他人的</p>","e","categorize-html","20","144923","0.0-6.0-0.0-2.0-1.5","4","3","4","4","4","3","3","4","4","4","5","5","5","4","5","4","5","5","4","5","2","2","2","2","1","2","2","4","2","1","1","1","0","1","0","0","0","0","0","0","0","0","0","1","5","1","4","1","1","1","2","4","5","2","781830643909922818","WQ","90","","","","","","","","","","","","","","","","","","","true","1","1","ability","572","other","他人的","","","","","","","","","","","","","","",""
"null","","null","html-keyboard-response","21","145174","0.0-6.0-0.0-2.0-0.6","4","3","4","4","4","3","3","4","4","4","5","5","5","4","5","4","5","5","4","5","2","2","2","2","1","2","2","4","2","1","1","1","0","1","0","0","0","0","0","0","0","0","0","1","5","1","4","1","1","1","2","4","5","2","781830643909922818","WQ","90","","","","","","","","","","","","","","","","","","","","","","","","","","","","","","","","","","","","","","","",""
"715","<p style=""color:rgb(150, 250, 100); font-size: 35px;"">我的</p>","i","categorize-html","22","145891","0.0-6.0-0.0-2.0-1.6","4","3","4","4","4","3","3","4","4","4","5","5","5","4","5","4","5","5","4","5","2","2","2","2","1","2","2","4","2","1","1","1","0","1","0","0","0","0","0","0","0","0","0","1","5","1","4","1","1","1","2","4","5","2","781830643909922818","WQ","90","","","","","","","","","","","","","","","","","","","true","1","1","ability","715","self","我的","","","","","","","","","","","","","","",""
"null","","null","html-keyboard-response","23","146142","0.0-6.0-0.0-2.0-0.7","4","3","4","4","4","3","3","4","4","4","5","5","5","4","5","4","5","5","4","5","2","2","2","2","1","2","2","4","2","1","1","1","0","1","0","0","0","0","0","0","0","0","0","1","5","1","4","1","1","1","2","4","5","2","781830643909922818","WQ","90","","","","","","","","","","","","","","","","","","","","","","","","","","","","","","","","","","","","","","","",""
"978","<p style=""color:rgb(150, 250, 100); font-size: 35px;"">别人</p>","e","categorize-html","24","147122","0.0-6.0-0.0-2.0-1.7","4","3","4","4","4","3","3","4","4","4","5","5","5","4","5","4","5","5","4","5","2","2","2","2","1","2","2","4","2","1","1","1","0","1","0","0","0","0","0","0","0","0","0","1","5","1","4","1","1","1","2","4","5","2","781830643909922818","WQ","90","","","","","","","","","","","","","","","","","","","true","1","1","ability","978","other","别人","","","","","","","","","","","","","","",""
"null","","null","html-keyboard-response","25","147373","0.0-6.0-0.0-2.0-0.8","4","3","4","4","4","3","3","4","4","4","5","5","5","4","5","4","5","5","4","5","2","2","2","2","1","2","2","4","2","1","1","1","0","1","0","0","0","0","0","0","0","0","0","1","5","1","4","1","1","1","2","4","5","2","781830643909922818","WQ","90","","","","","","","","","","","","","","","","","","","","","","","","","","","","","","","","","","","","","","","",""
"686","<p style=""color:rgb(150, 250, 100); font-size: 35px;"">他人</p>","e","categorize-html","26","148060","0.0-6.0-0.0-2.0-1.8","4","3","4","4","4","3","3","4","4","4","5","5","5","4","5","4","5","5","4","5","2","2","2","2","1","2","2","4","2","1","1","1","0","1","0","0","0","0","0","0","0","0","0","1","5","1","4","1","1","1","2","4","5","2","781830643909922818","WQ","90","","","","","","","","","","","","","","","","","","","true","1","1","ability","686","other","他人","","","","","","","","","","","","","","",""
"null","","null","html-keyboard-response","27","148311","0.0-6.0-0.0-2.0-0.9","4","3","4","4","4","3","3","4","4","4","5","5","5","4","5","4","5","5","4","5","2","2","2","2","1","2","2","4","2","1","1","1","0","1","0","0","0","0","0","0","0","0","0","1","5","1","4","1","1","1","2","4","5","2","781830643909922818","WQ","90","","","","","","","","","","","","","","","","","","","","","","","","","","","","","","","","","","","","","","","",""
"385","<p style=""color:rgb(150, 250, 100); font-size: 35px;"">别人的</p>","e","categorize-html","28","148698","0.0-6.0-0.0-2.0-1.9","4","3","4","4","4","3","3","4","4","4","5","5","5","4","5","4","5","5","4","5","2","2","2","2","1","2","2","4","2","1","1","1","0","1","0","0","0","0","0","0","0","0","0","1","5","1","4","1","1","1","2","4","5","2","781830643909922818","WQ","90","","","","","","","","","","","","","","","","","","","true","1","1","ability","385","other","别人的","","","","","","","","","","","","","","",""
"null","","null","html-keyboard-response","29","148949","0.0-6.0-0.0-2.0-0.10","4","3","4","4","4","3","3","4","4","4","5","5","5","4","5","4","5","5","4","5","2","2","2","2","1","2","2","4","2","1","1","1","0","1","0","0","0","0","0","0","0","0","0","1","5","1","4","1","1","1","2","4","5","2","781830643909922818","WQ","90","","","","","","","","","","","","","","","","","","","","","","","","","","","","","","","","","","","","","","","",""
"491","<p style=""color:rgb(150, 250, 100); font-size: 35px;"">本人的</p>","e","categorize-html","30","151171","0.0-6.0-0.0-2.0-1.10","4","3","4","4","4","3","3","4","4","4","5","5","5","4","5","4","5","5","4","5","2","2","2","2","1","2","2","4","2","1","1","1","0","1","0","0","0","0","0","0","0","0","0","1","5","1","4","1","1","1","2","4","5","2","781830643909922818","WQ","90","","","","","","","","","","","","","","","","","","","false","1","1","ability","491","self","本人的","","","","","","","","","","","","","","",""
"null","","null","html-keyboard-response","31","151421","0.0-6.0-0.0-2.0-0.11","4","3","4","4","4","3","3","4","4","4","5","5","5","4","5","4","5","5","4","5","2","2","2","2","1","2","2","4","2","1","1","1","0","1","0","0","0","0","0","0","0","0","0","1","5","1","4","1","1","1","2","4","5","2","781830643909922818","WQ","90","","","","","","","","","","","","","","","","","","","","","","","","","","","","","","","","","","","","","","","",""
"731","<p style=""color:rgb(150, 250, 100); font-size: 35px;"">他</p>","e","categorize-html","32","152155","0.0-6.0-0.0-2.0-1.11","4","3","4","4","4","3","3","4","4","4","5","5","5","4","5","4","5","5","4","5","2","2","2","2","1","2","2","4","2","1","1","1","0","1","0","0","0","0","0","0","0","0","0","1","5","1","4","1","1","1","2","4","5","2","781830643909922818","WQ","90","","","","","","","","","","","","","","","","","","","true","1","1","ability","731","other","他","","","","","","","","","","","","","","",""
"4112","
    <div class=""tag-bottom""><p>
    —— 任务2：对“消极”词和“积极”词分类 ——<p/>   
    <span style=""color:#78DCE8""><b>注意上方，类别标签和需要分类的词语都已经改变</b></span><p/>
    <span style=""color:#FFD866""><b>请根据上方标签的提示，尽可能正确并且快速地做出按键反应</b></span><p/>
    当按键错误时屏幕中会出现<span style=""color:red""> X </span>，需要按另一个键纠正才能继续<br/><p/>
    请把双手食指分别放在键盘的“E”键和“I”键上<p/>
    按<空格键>开始
    </p></div>"," ","html-keyboard-response","33","156267","0.0-6.0-0.0-3.0","4","3","4","4","4","3","3","4","4","4","5","5","5","4","5","4","5","5","4","5","2","2","2","2","1","2","2","4","2","1","1","1","0","1","0","0","0","0","0","0","0","0","0","1","5","1","4","1","1","1","2","4","5","2","781830643909922818","WQ","90","","","","","","","","","","","","","","","","","","","","","","","","","","","","","","","","","","","","","","","",""
"null","","null","html-keyboard-response","34","156518","0.0-6.0-0.0-4.0-0.0","4","3","4","4","4","3","3","4","4","4","5","5","5","4","5","4","5","5","4","5","2","2","2","2","1","2","2","4","2","1","1","1","0","1","0","0","0","0","0","0","0","0","0","1","5","1","4","1","1","1","2","4","5","2","781830643909922818","WQ","90","","","","","","","","","","","","","","","","","","","","","","","","","","","","","","","","","","","","","","","",""
"731","<p style=""color:white; font-size: 35px;"">能干</p>","i","categorize-html","35","157251","0.0-6.0-0.0-4.0-1.0","4","3","4","4","4","3","3","4","4","4","5","5","5","4","5","4","5","5","4","5","2","2","2","2","1","2","2","4","2","1","1","1","0","1","0","0","0","0","0","0","0","0","0","1","5","1","4","1","1","1","2","4","5","2","781830643909922818","WQ","90","","","","","","","","","","","","","","","","","","","true","2","2","ability","731","positive","能干","","","","","","","","","","","","","","",""
"null","","null","html-keyboard-response","36","157502","0.0-6.0-0.0-4.0-0.1","4","3","4","4","4","3","3","4","4","4","5","5","5","4","5","4","5","5","4","5","2","2","2","2","1","2","2","4","2","1","1","1","0","1","0","0","0","0","0","0","0","0","0","1","5","1","4","1","1","1","2","4","5","2","781830643909922818","WQ","90","","","","","","","","","","","","","","","","","","","","","","","","","","","","","","","","","","","","","","","",""
"508","<p style=""color:white; font-size: 35px;"">全能</p>","i","categorize-html","37","158012","0.0-6.0-0.0-4.0-1.1","4","3","4","4","4","3","3","4","4","4","5","5","5","4","5","4","5","5","4","5","2","2","2","2","1","2","2","4","2","1","1","1","0","1","0","0","0","0","0","0","0","0","0","1","5","1","4","1","1","1","2","4","5","2","781830643909922818","WQ","90","","","","","","","","","","","","","","","","","","","true","2","2","ability","508","positive","全能","","","","","","","","","","","","","","",""
"null","","null","html-keyboard-response","38","158262","0.0-6.0-0.0-4.0-0.2","4","3","4","4","4","3","3","4","4","4","5","5","5","4","5","4","5","5","4","5","2","2","2","2","1","2","2","4","2","1","1","1","0","1","0","0","0","0","0","0","0","0","0","1","5","1","4","1","1","1","2","4","5","2","781830643909922818","WQ","90","","","","","","","","","","","","","","","","","","","","","","","","","","","","","","","","","","","","","","","",""
"708","<p style=""color:white; font-size: 35px;"">拙笨</p>","e","categorize-html","39","158971","0.0-6.0-0.0-4.0-1.2","4","3","4","4","4","3","3","4","4","4","5","5","5","4","5","4","5","5","4","5","2","2","2","2","1","2","2","4","2","1","1","1","0","1","0","0","0","0","0","0","0","0","0","1","5","1","4","1","1","1","2","4","5","2","781830643909922818","WQ","90","","","","","","","","","","","","","","","","","","","true","2","2","ability","708","negative","拙笨","","","","","","","","","","","","","","",""
"null","","null","html-keyboard-response","40","159223","0.0-6.0-0.0-4.0-0.3","4","3","4","4","4","3","3","4","4","4","5","5","5","4","5","4","5","5","4","5","2","2","2","2","1","2","2","4","2","1","1","1","0","1","0","0","0","0","0","0","0","0","0","1","5","1","4","1","1","1","2","4","5","2","781830643909922818","WQ","90","","","","","","","","","","","","","","","","","","","","","","","","","","","","","","","","","","","","","","","",""
"874","<p style=""color:white; font-size: 35px;"">全才</p>","i","categorize-html","41","160098","0.0-6.0-0.0-4.0-1.3","4","3","4","4","4","3","3","4","4","4","5","5","5","4","5","4","5","5","4","5","2","2","2","2","1","2","2","4","2","1","1","1","0","1","0","0","0","0","0","0","0","0","0","1","5","1","4","1","1","1","2","4","5","2","781830643909922818","WQ","90","","","","","","","","","","","","","","","","","","","true","2","2","ability","874","positive","全才","","","","","","","","","","","","","","",""
"null","","null","html-keyboard-response","42","160348","0.0-6.0-0.0-4.0-0.4","4","3","4","4","4","3","3","4","4","4","5","5","5","4","5","4","5","5","4","5","2","2","2","2","1","2","2","4","2","1","1","1","0","1","0","0","0","0","0","0","0","0","0","1","5","1","4","1","1","1","2","4","5","2","781830643909922818","WQ","90","","","","","","","","","","","","","","","","","","","","","","","","","","","","","","","","","","","","","","","",""
"636","<p style=""color:white; font-size: 35px;"">废物</p>","e","categorize-html","43","160987","0.0-6.0-0.0-4.0-1.4","4","3","4","4","4","3","3","4","4","4","5","5","5","4","5","4","5","5","4","5","2","2","2","2","1","2","2","4","2","1","1","1","0","1","0","0","0","0","0","0","0","0","0","1","5","1","4","1","1","1","2","4","5","2","781830643909922818","WQ","90","","","","","","","","","","","","","","","","","","","true","2","2","ability","636","negative","废物","","","","","","","","","","","","","","",""
"null","","null","html-keyboard-response","44","161238","0.0-6.0-0.0-4.0-0.5","4","3","4","4","4","3","3","4","4","4","5","5","5","4","5","4","5","5","4","5","2","2","2","2","1","2","2","4","2","1","1","1","0","1","0","0","0","0","0","0","0","0","0","1","5","1","4","1","1","1","2","4","5","2","781830643909922818","WQ","90","","","","","","","","","","","","","","","","","","","","","","","","","","","","","","","","","","","","","","","",""
"578","<p style=""color:white; font-size: 35px;"">低能</p>","e","categorize-html","45","161818","0.0-6.0-0.0-4.0-1.5","4","3","4","4","4","3","3","4","4","4","5","5","5","4","5","4","5","5","4","5","2","2","2","2","1","2","2","4","2","1","1","1","0","1","0","0","0","0","0","0","0","0","0","1","5","1","4","1","1","1","2","4","5","2","781830643909922818","WQ","90","","","","","","","","","","","","","","","","","","","true","2","2","ability","578","negative","低能","","","","","","","","","","","","","","",""
"null","","null","html-keyboard-response","46","162069","0.0-6.0-0.0-4.0-0.6","4","3","4","4","4","3","3","4","4","4","5","5","5","4","5","4","5","5","4","5","2","2","2","2","1","2","2","4","2","1","1","1","0","1","0","0","0","0","0","0","0","0","0","1","5","1","4","1","1","1","2","4","5","2","781830643909922818","WQ","90","","","","","","","","","","","","","","","","","","","","","","","","","","","","","","","","","","","","","","","",""
"445","<p style=""color:white; font-size: 35px;"">蠢笨</p>","e","categorize-html","47","162515","0.0-6.0-0.0-4.0-1.6","4","3","4","4","4","3","3","4","4","4","5","5","5","4","5","4","5","5","4","5","2","2","2","2","1","2","2","4","2","1","1","1","0","1","0","0","0","0","0","0","0","0","0","1","5","1","4","1","1","1","2","4","5","2","781830643909922818","WQ","90","","","","","","","","","","","","","","","","","","","true","2","2","ability","445","negative","蠢笨","","","","","","","","","","","","","","",""
"null","","null","html-keyboard-response","48","162766","0.0-6.0-0.0-4.0-0.7","4","3","4","4","4","3","3","4","4","4","5","5","5","4","5","4","5","5","4","5","2","2","2","2","1","2","2","4","2","1","1","1","0","1","0","0","0","0","0","0","0","0","0","1","5","1","4","1","1","1","2","4","5","2","781830643909922818","WQ","90","","","","","","","","","","","","","","","","","","","","","","","","","","","","","","","","","","","","","","","",""
"522","<p style=""color:white; font-size: 35px;"">愚钝</p>","e","categorize-html","49","163290","0.0-6.0-0.0-4.0-1.7","4","3","4","4","4","3","3","4","4","4","5","5","5","4","5","4","5","5","4","5","2","2","2","2","1","2","2","4","2","1","1","1","0","1","0","0","0","0","0","0","0","0","0","1","5","1","4","1","1","1","2","4","5","2","781830643909922818","WQ","90","","","","","","","","","","","","","","","","","","","true","2","2","ability","522","negative","愚钝","","","","","","","","","","","","","","",""
"null","","null","html-keyboard-response","50","163542","0.0-6.0-0.0-4.0-0.8","4","3","4","4","4","3","3","4","4","4","5","5","5","4","5","4","5","5","4","5","2","2","2","2","1","2","2","4","2","1","1","1","0","1","0","0","0","0","0","0","0","0","0","1","5","1","4","1","1","1","2","4","5","2","781830643909922818","WQ","90","","","","","","","","","","","","","","","","","","","","","","","","","","","","","","","","","","","","","","","",""
"564","<p style=""color:white; font-size: 35px;"">无能</p>","e","categorize-html","51","164106","0.0-6.0-0.0-4.0-1.8","4","3","4","4","4","3","3","4","4","4","5","5","5","4","5","4","5","5","4","5","2","2","2","2","1","2","2","4","2","1","1","1","0","1","0","0","0","0","0","0","0","0","0","1","5","1","4","1","1","1","2","4","5","2","781830643909922818","WQ","90","","","","","","","","","","","","","","","","","","","true","2","2","ability","564","negative","无能","","","","","","","","","","","","","","",""
"null","","null","html-keyboard-response","52","164357","0.0-6.0-0.0-4.0-0.9","4","3","4","4","4","3","3","4","4","4","5","5","5","4","5","4","5","5","4","5","2","2","2","2","1","2","2","4","2","1","1","1","0","1","0","0","0","0","0","0","0","0","0","1","5","1","4","1","1","1","2","4","5","2","781830643909922818","WQ","90","","","","","","","","","","","","","","","","","","","","","","","","","","","","","","","","","","","","","","","",""
"580","<p style=""color:white; font-size: 35px;"">天才</p>","i","categorize-html","53","164938","0.0-6.0-0.0-4.0-1.9","4","3","4","4","4","3","3","4","4","4","5","5","5","4","5","4","5","5","4","5","2","2","2","2","1","2","2","4","2","1","1","1","0","1","0","0","0","0","0","0","0","0","0","1","5","1","4","1","1","1","2","4","5","2","781830643909922818","WQ","90","","","","","","","","","","","","","","","","","","","true","2","2","ability","580","positive","天才","","","","","","","","","","","","","","",""
"null","","null","html-keyboard-response","54","165190","0.0-6.0-0.0-4.0-0.10","4","3","4","4","4","3","3","4","4","4","5","5","5","4","5","4","5","5","4","5","2","2","2","2","1","2","2","4","2","1","1","1","0","1","0","0","0","0","0","0","0","0","0","1","5","1","4","1","1","1","2","4","5","2","781830643909922818","WQ","90","","","","","","","","","","","","","","","","","","","","","","","","","","","","","","","","","","","","","","","",""
"771","<p style=""color:white; font-size: 35px;"">精干</p>","e","categorize-html","55","165985","0.0-6.0-0.0-4.0-1.10","4","3","4","4","4","3","3","4","4","4","5","5","5","4","5","4","5","5","4","5","2","2","2","2","1","2","2","4","2","1","1","1","0","1","0","0","0","0","0","0","0","0","0","1","5","1","4","1","1","1","2","4","5","2","781830643909922818","WQ","90","","","","","","","","","","","","","","","","","","","false","2","2","ability","771","positive","精干","","","","","","","","","","","","","","",""
"null","","null","html-keyboard-response","56","166235","0.0-6.0-0.0-4.0-0.11","4","3","4","4","4","3","3","4","4","4","5","5","5","4","5","4","5","5","4","5","2","2","2","2","1","2","2","4","2","1","1","1","0","1","0","0","0","0","0","0","0","0","0","1","5","1","4","1","1","1","2","4","5","2","781830643909922818","WQ","90","","","","","","","","","","","","","","","","","","","","","","","","","","","","","","","","","","","","","","","",""
"2190","<p style=""color:white; font-size: 35px;"">高效</p>","i","categorize-html","57","168426","0.0-6.0-0.0-4.0-1.11","4","3","4","4","4","3","3","4","4","4","5","5","5","4","5","4","5","5","4","5","2","2","2","2","1","2","2","4","2","1","1","1","0","1","0","0","0","0","0","0","0","0","0","1","5","1","4","1","1","1","2","4","5","2","781830643909922818","WQ","90","","","","","","","","","","","","","","","","","","","true","2","2","ability","2190","positive","高效","","","","","","","","","","","","","","",""
"7799","
    <div class=""tag-bottom""><p>
    —— 任务3：对“他人/消极”词和“自我/积极”词分类 ——<p/>
    <span style=""color:#78DCE8""><b>注意上方，之前的四类词语将混合在一起交替呈现</b></span><p/>
    <span style=""color:#FFD866""><b>请根据上方标签的提示，尽可能正确并且快速地做出按键反应</b></span><p/>
    当按键错误时屏幕中会出现<span style=""color:red""> X </span>，需要按另一个键纠正才能继续<br/><p/>
    请把双手食指分别放在键盘的“E”键和“I”键上<p/>
    按<空格键>开始
    </p></div>"," ","html-keyboard-response","58","176226","0.0-6.0-0.0-5.0","4","3","4","4","4","3","3","4","4","4","5","5","5","4","5","4","5","5","4","5","2","2","2","2","1","2","2","4","2","1","1","1","0","1","0","0","0","0","0","0","0","0","0","1","5","1","4","1","1","1","2","4","5","2","781830643909922818","WQ","90","","","","","","","","","","","","","","","","","","","","","","","","","","","","","","","","","","","","","","","",""
"null","","null","html-keyboard-response","59","176478","0.0-6.0-0.0-6.0-0.0","4","3","4","4","4","3","3","4","4","4","5","5","5","4","5","4","5","5","4","5","2","2","2","2","1","2","2","4","2","1","1","1","0","1","0","0","0","0","0","0","0","0","0","1","5","1","4","1","1","1","2","4","5","2","781830643909922818","WQ","90","","","","","","","","","","","","","","","","","","","","","","","","","","","","","","","","","","","","","","","",""
"675","<p style=""color:rgb(150, 250, 100); font-size: 35px;"">他</p>","e","categorize-html","60","177155","0.0-6.0-0.0-6.0-1.0","4","3","4","4","4","3","3","4","4","4","5","5","5","4","5","4","5","5","4","5","2","2","2","2","1","2","2","4","2","1","1","1","0","1","0","0","0","0","0","0","0","0","0","1","5","1","4","1","1","1","2","4","5","2","781830643909922818","WQ","90","","","","","","","","","","","","","","","","","","","true","3","3","ability","675","other","他","","","","","","","","","","","","","","",""
"null","","null","html-keyboard-response","61","177407","0.0-6.0-0.0-6.0-0.1","4","3","4","4","4","3","3","4","4","4","5","5","5","4","5","4","5","5","4","5","2","2","2","2","1","2","2","4","2","1","1","1","0","1","0","0","0","0","0","0","0","0","0","1","5","1","4","1","1","1","2","4","5","2","781830643909922818","WQ","90","","","","","","","","","","","","","","","","","","","","","","","","","","","","","","","","","","","","","","","",""
"514","<p style=""color:white; font-size: 35px;"">蠢笨</p>","e","categorize-html","62","177923","0.0-6.0-0.0-6.0-1.1","4","3","4","4","4","3","3","4","4","4","5","5","5","4","5","4","5","5","4","5","2","2","2","2","1","2","2","4","2","1","1","1","0","1","0","0","0","0","0","0","0","0","0","1","5","1","4","1","1","1","2","4","5","2","781830643909922818","WQ","90","","","","","","","","","","","","","","","","","","","true","3","3","ability","514","negative","蠢笨","","","","","","","","","","","","","","",""
"null","","null","html-keyboard-response","63","178174","0.0-6.0-0.0-6.0-0.2","4","3","4","4","4","3","3","4","4","4","5","5","5","4","5","4","5","5","4","5","2","2","2","2","1","2","2","4","2","1","1","1","0","1","0","0","0","0","0","0","0","0","0","1","5","1","4","1","1","1","2","4","5","2","781830643909922818","WQ","90","","","","","","","","","","","","","","","","","","","","","","","","","","","","","","","","","","","","","","","",""
"700","<p style=""color:rgb(150, 250, 100); font-size: 35px;"">自己的</p>","i","categorize-html","64","178875","0.0-6.0-0.0-6.0-1.2","4","3","4","4","4","3","3","4","4","4","5","5","5","4","5","4","5","5","4","5","2","2","2","2","1","2","2","4","2","1","1","1","0","1","0","0","0","0","0","0","0","0","0","1","5","1","4","1","1","1","2","4","5","2","781830643909922818","WQ","90","","","","","","","","","","","","","","","","","","","true","3","3","ability","700","self","自己的","","","","","","","","","","","","","","",""
"null","","null","html-keyboard-response","65","179126","0.0-6.0-0.0-6.0-0.3","4","3","4","4","4","3","3","4","4","4","5","5","5","4","5","4","5","5","4","5","2","2","2","2","1","2","2","4","2","1","1","1","0","1","0","0","0","0","0","0","0","0","0","1","5","1","4","1","1","1","2","4","5","2","781830643909922818","WQ","90","","","","","","","","","","","","","","","","","","","","","","","","","","","","","","","","","","","","","","","",""
"578","<p style=""color:white; font-size: 35px;"">全才</p>","i","categorize-html","66","179706","0.0-6.0-0.0-6.0-1.3","4","3","4","4","4","3","3","4","4","4","5","5","5","4","5","4","5","5","4","5","2","2","2","2","1","2","2","4","2","1","1","1","0","1","0","0","0","0","0","0","0","0","0","1","5","1","4","1","1","1","2","4","5","2","781830643909922818","WQ","90","","","","","","","","","","","","","","","","","","","true","3","3","ability","578","positive","全才","","","","","","","","","","","","","","",""
"null","","null","html-keyboard-response","67","179958","0.0-6.0-0.0-6.0-0.4","4","3","4","4","4","3","3","4","4","4","5","5","5","4","5","4","5","5","4","5","2","2","2","2","1","2","2","4","2","1","1","1","0","1","0","0","0","0","0","0","0","0","0","1","5","1","4","1","1","1","2","4","5","2","781830643909922818","WQ","90","","","","","","","","","","","","","","","","","","","","","","","","","","","","","","","","","","","","","","","",""
"459","<p style=""color:rgb(150, 250, 100); font-size: 35px;"">本人</p>","i","categorize-html","68","180418","0.0-6.0-0.0-6.0-1.4","4","3","4","4","4","3","3","4","4","4","5","5","5","4","5","4","5","5","4","5","2","2","2","2","1","2","2","4","2","1","1","1","0","1","0","0","0","0","0","0","0","0","0","1","5","1","4","1","1","1","2","4","5","2","781830643909922818","WQ","90","","","","","","","","","","","","","","","","","","","true","3","3","ability","459","self","本人","","","","","","","","","","","","","","",""
"null","","null","html-keyboard-response","69","180669","0.0-6.0-0.0-6.0-0.5","4","3","4","4","4","3","3","4","4","4","5","5","5","4","5","4","5","5","4","5","2","2","2","2","1","2","2","4","2","1","1","1","0","1","0","0","0","0","0","0","0","0","0","1","5","1","4","1","1","1","2","4","5","2","781830643909922818","WQ","90","","","","","","","","","","","","","","","","","","","","","","","","","","","","","","","","","","","","","","","",""
"483","<p style=""color:white; font-size: 35px;"">精干</p>","i","categorize-html","70","181155","0.0-6.0-0.0-6.0-1.5","4","3","4","4","4","3","3","4","4","4","5","5","5","4","5","4","5","5","4","5","2","2","2","2","1","2","2","4","2","1","1","1","0","1","0","0","0","0","0","0","0","0","0","1","5","1","4","1","1","1","2","4","5","2","781830643909922818","WQ","90","","","","","","","","","","","","","","","","","","","true","3","3","ability","483","positive","精干","","","","","","","","","","","","","","",""
"null","","null","html-keyboard-response","71","181406","0.0-6.0-0.0-6.0-0.6","4","3","4","4","4","3","3","4","4","4","5","5","5","4","5","4","5","5","4","5","2","2","2","2","1","2","2","4","2","1","1","1","0","1","0","0","0","0","0","0","0","0","0","1","5","1","4","1","1","1","2","4","5","2","781830643909922818","WQ","90","","","","","","","","","","","","","","","","","","","","","","","","","","","","","","","","","","","","","","","",""
"1075","<p style=""color:rgb(150, 250, 100); font-size: 35px;"">他人</p>","e","categorize-html","72","182482","0.0-6.0-0.0-6.0-1.6","4","3","4","4","4","3","3","4","4","4","5","5","5","4","5","4","5","5","4","5","2","2","2","2","1","2","2","4","2","1","1","1","0","1","0","0","0","0","0","0","0","0","0","1","5","1","4","1","1","1","2","4","5","2","781830643909922818","WQ","90","","","","","","","","","","","","","","","","","","","true","3","3","ability","1075","other","他人","","","","","","","","","","","","","","",""
"null","","null","html-keyboard-response","73","182734","0.0-6.0-0.0-6.0-0.7","4","3","4","4","4","3","3","4","4","4","5","5","5","4","5","4","5","5","4","5","2","2","2","2","1","2","2","4","2","1","1","1","0","1","0","0","0","0","0","0","0","0","0","1","5","1","4","1","1","1","2","4","5","2","781830643909922818","WQ","90","","","","","","","","","","","","","","","","","","","","","","","","","","","","","","","","","","","","","","","",""
"547","<p style=""color:white; font-size: 35px;"">愚钝</p>","e","categorize-html","74","183282","0.0-6.0-0.0-6.0-1.7","4","3","4","4","4","3","3","4","4","4","5","5","5","4","5","4","5","5","4","5","2","2","2","2","1","2","2","4","2","1","1","1","0","1","0","0","0","0","0","0","0","0","0","1","5","1","4","1","1","1","2","4","5","2","781830643909922818","WQ","90","","","","","","","","","","","","","","","","","","","true","3","3","ability","547","negative","愚钝","","","","","","","","","","","","","","",""
"null","","null","html-keyboard-response","75","183533","0.0-6.0-0.0-6.0-0.8","4","3","4","4","4","3","3","4","4","4","5","5","5","4","5","4","5","5","4","5","2","2","2","2","1","2","2","4","2","1","1","1","0","1","0","0","0","0","0","0","0","0","0","1","5","1","4","1","1","1","2","4","5","2","781830643909922818","WQ","90","","","","","","","","","","","","","","","","","","","","","","","","","","","","","","","","","","","","","","","",""
"707","<p style=""color:rgb(150, 250, 100); font-size: 35px;"">自己</p>","i","categorize-html","76","184242","0.0-6.0-0.0-6.0-1.8","4","3","4","4","4","3","3","4","4","4","5","5","5","4","5","4","5","5","4","5","2","2","2","2","1","2","2","4","2","1","1","1","0","1","0","0","0","0","0","0","0","0","0","1","5","1","4","1","1","1","2","4","5","2","781830643909922818","WQ","90","","","","","","","","","","","","","","","","","","","true","3","3","ability","707","self","自己","","","","","","","","","","","","","","",""
"null","","null","html-keyboard-response","77","184494","0.0-6.0-0.0-6.0-0.9","4","3","4","4","4","3","3","4","4","4","5","5","5","4","5","4","5","5","4","5","2","2","2","2","1","2","2","4","2","1","1","1","0","1","0","0","0","0","0","0","0","0","0","1","5","1","4","1","1","1","2","4","5","2","781830643909922818","WQ","90","","","","","","","","","","","","","","","","","","","","","","","","","","","","","","","","","","","","","","","",""
"549","<p style=""color:white; font-size: 35px;"">低能</p>","i","categorize-html","78","185529","0.0-6.0-0.0-6.0-1.9","4","3","4","4","4","3","3","4","4","4","5","5","5","4","5","4","5","5","4","5","2","2","2","2","1","2","2","4","2","1","1","1","0","1","0","0","0","0","0","0","0","0","0","1","5","1","4","1","1","1","2","4","5","2","781830643909922818","WQ","90","","","","","","","","","","","","","","","","","","","false","3","3","ability","1268.217391304348","negative","低能","","","","","","","","","","","","","","",""
"null","","null","html-keyboard-response","79","185781","0.0-6.0-0.0-6.0-0.10","4","3","4","4","4","3","3","4","4","4","5","5","5","4","5","4","5","5","4","5","2","2","2","2","1","2","2","4","2","1","1","1","0","1","0","0","0","0","0","0","0","0","0","1","5","1","4","1","1","1","2","4","5","2","781830643909922818","WQ","90","","","","","","","","","","","","","","","","","","","","","","","","","","","","","","","","","","","","","","","",""
"1065","<p style=""color:rgb(150, 250, 100); font-size: 35px;"">他人的</p>","e","categorize-html","80","186847","0.0-6.0-0.0-6.0-1.10","4","3","4","4","4","3","3","4","4","4","5","5","5","4","5","4","5","5","4","5","2","2","2","2","1","2","2","4","2","1","1","1","0","1","0","0","0","0","0","0","0","0","0","1","5","1","4","1","1","1","2","4","5","2","781830643909922818","WQ","90","","","","","","","","","","","","","","","","","","","true","3","3","ability","1065","other","他人的","","","","","","","","","","","","","","",""
"null","","null","html-keyboard-response","81","187098","0.0-6.0-0.0-6.0-0.11","4","3","4","4","4","3","3","4","4","4","5","5","5","4","5","4","5","5","4","5","2","2","2","2","1","2","2","4","2","1","1","1","0","1","0","0","0","0","0","0","0","0","0","1","5","1","4","1","1","1","2","4","5","2","781830643909922818","WQ","90","","","","","","","","","","","","","","","","","","","","","","","","","","","","","","","","","","","","","","","",""
"775","<p style=""color:white; font-size: 35px;"">全能</p>","i","categorize-html","82","187874","0.0-6.0-0.0-6.0-1.11","4","3","4","4","4","3","3","4","4","4","5","5","5","4","5","4","5","5","4","5","2","2","2","2","1","2","2","4","2","1","1","1","0","1","0","0","0","0","0","0","0","0","0","1","5","1","4","1","1","1","2","4","5","2","781830643909922818","WQ","90","","","","","","","","","","","","","","","","","","","true","3","3","ability","775","positive","全能","","","","","","","","","","","","","","",""
"null","","null","html-keyboard-response","83","188125","0.0-6.0-0.0-6.0-0.12","4","3","4","4","4","3","3","4","4","4","5","5","5","4","5","4","5","5","4","5","2","2","2","2","1","2","2","4","2","1","1","1","0","1","0","0","0","0","0","0","0","0","0","1","5","1","4","1","1","1","2","4","5","2","781830643909922818","WQ","90","","","","","","","","","","","","","","","","","","","","","","","","","","","","","","","","","","","","","","","",""
"659","<p style=""color:rgb(150, 250, 100); font-size: 35px;"">别人的</p>","e","categorize-html","84","188786","0.0-6.0-0.0-6.0-1.12","4","3","4","4","4","3","3","4","4","4","5","5","5","4","5","4","5","5","4","5","2","2","2","2","1","2","2","4","2","1","1","1","0","1","0","0","0","0","0","0","0","0","0","1","5","1","4","1","1","1","2","4","5","2","781830643909922818","WQ","90","","","","","","","","","","","","","","","","","","","true","3","3","ability","659","other","别人的","","","","","","","","","","","","","","",""
"null","","null","html-keyboard-response","85","189038","0.0-6.0-0.0-6.0-0.13","4","3","4","4","4","3","3","4","4","4","5","5","5","4","5","4","5","5","4","5","2","2","2","2","1","2","2","4","2","1","1","1","0","1","0","0","0","0","0","0","0","0","0","1","5","1","4","1","1","1","2","4","5","2","781830643909922818","WQ","90","","","","","","","","","","","","","","","","","","","","","","","","","","","","","","","","","","","","","","","",""
"675","<p style=""color:white; font-size: 35px;"">无能</p>","e","categorize-html","86","189714","0.0-6.0-0.0-6.0-1.13","4","3","4","4","4","3","3","4","4","4","5","5","5","4","5","4","5","5","4","5","2","2","2","2","1","2","2","4","2","1","1","1","0","1","0","0","0","0","0","0","0","0","0","1","5","1","4","1","1","1","2","4","5","2","781830643909922818","WQ","90","","","","","","","","","","","","","","","","","","","true","3","3","ability","675","negative","无能","","","","","","","","","","","","","","",""
"null","","null","html-keyboard-response","87","189966","0.0-6.0-0.0-6.0-0.14","4","3","4","4","4","3","3","4","4","4","5","5","5","4","5","4","5","5","4","5","2","2","2","2","1","2","2","4","2","1","1","1","0","1","0","0","0","0","0","0","0","0","0","1","5","1","4","1","1","1","2","4","5","2","781830643909922818","WQ","90","","","","","","","","","","","","","","","","","","","","","","","","","","","","","","","","","","","","","","","",""
"659","<p style=""color:rgb(150, 250, 100); font-size: 35px;"">我</p>","i","categorize-html","88","190627","0.0-6.0-0.0-6.0-1.14","4","3","4","4","4","3","3","4","4","4","5","5","5","4","5","4","5","5","4","5","2","2","2","2","1","2","2","4","2","1","1","1","0","1","0","0","0","0","0","0","0","0","0","1","5","1","4","1","1","1","2","4","5","2","781830643909922818","WQ","90","","","","","","","","","","","","","","","","","","","true","3","3","ability","659","self","我","","","","","","","","","","","","","","",""
"null","","null","html-keyboard-response","89","190878","0.0-6.0-0.0-6.0-0.15","4","3","4","4","4","3","3","4","4","4","5","5","5","4","5","4","5","5","4","5","2","2","2","2","1","2","2","4","2","1","1","1","0","1","0","0","0","0","0","0","0","0","0","1","5","1","4","1","1","1","2","4","5","2","781830643909922818","WQ","90","","","","","","","","","","","","","","","","","","","","","","","","","","","","","","","","","","","","","","","",""
"651","<p style=""color:white; font-size: 35px;"">天才</p>","i","categorize-html","90","191531","0.0-6.0-0.0-6.0-1.15","4","3","4","4","4","3","3","4","4","4","5","5","5","4","5","4","5","5","4","5","2","2","2","2","1","2","2","4","2","1","1","1","0","1","0","0","0","0","0","0","0","0","0","1","5","1","4","1","1","1","2","4","5","2","781830643909922818","WQ","90","","","","","","","","","","","","","","","","","","","true","3","3","ability","651","positive","天才","","","","","","","","","","","","","","",""
"null","","null","html-keyboard-response","91","191782","0.0-6.0-0.0-6.0-0.16","4","3","4","4","4","3","3","4","4","4","5","5","5","4","5","4","5","5","4","5","2","2","2","2","1","2","2","4","2","1","1","1","0","1","0","0","0","0","0","0","0","0","0","1","5","1","4","1","1","1","2","4","5","2","781830643909922818","WQ","90","","","","","","","","","","","","","","","","","","","","","","","","","","","","","","","","","","","","","","","",""
"588","<p style=""color:rgb(150, 250, 100); font-size: 35px;"">我的</p>","i","categorize-html","92","192372","0.0-6.0-0.0-6.0-1.16","4","3","4","4","4","3","3","4","4","4","5","5","5","4","5","4","5","5","4","5","2","2","2","2","1","2","2","4","2","1","1","1","0","1","0","0","0","0","0","0","0","0","0","1","5","1","4","1","1","1","2","4","5","2","781830643909922818","WQ","90","","","","","","","","","","","","","","","","","","","true","3","3","ability","588","self","我的","","","","","","","","","","","","","","",""
"null","","null","html-keyboard-response","93","192623","0.0-6.0-0.0-6.0-0.17","4","3","4","4","4","3","3","4","4","4","5","5","5","4","5","4","5","5","4","5","2","2","2","2","1","2","2","4","2","1","1","1","0","1","0","0","0","0","0","0","0","0","0","1","5","1","4","1","1","1","2","4","5","2","781830643909922818","WQ","90","","","","","","","","","","","","","","","","","","","","","","","","","","","","","","","","","","","","","","","",""
"610","<p style=""color:white; font-size: 35px;"">废物</p>","e","categorize-html","94","193235","0.0-6.0-0.0-6.0-1.17","4","3","4","4","4","3","3","4","4","4","5","5","5","4","5","4","5","5","4","5","2","2","2","2","1","2","2","4","2","1","1","1","0","1","0","0","0","0","0","0","0","0","0","1","5","1","4","1","1","1","2","4","5","2","781830643909922818","WQ","90","","","","","","","","","","","","","","","","","","","true","3","3","ability","610","negative","废物","","","","","","","","","","","","","","",""
"null","","null","html-keyboard-response","95","193486","0.0-6.0-0.0-6.0-0.18","4","3","4","4","4","3","3","4","4","4","5","5","5","4","5","4","5","5","4","5","2","2","2","2","1","2","2","4","2","1","1","1","0","1","0","0","0","0","0","0","0","0","0","1","5","1","4","1","1","1","2","4","5","2","781830643909922818","WQ","90","","","","","","","","","","","","","","","","","","","","","","","","","","","","","","","","","","","","","","","",""
"987","<p style=""color:rgb(150, 250, 100); font-size: 35px;"">别人</p>","e","categorize-html","96","194474","0.0-6.0-0.0-6.0-1.18","4","3","4","4","4","3","3","4","4","4","5","5","5","4","5","4","5","5","4","5","2","2","2","2","1","2","2","4","2","1","1","1","0","1","0","0","0","0","0","0","0","0","0","1","5","1","4","1","1","1","2","4","5","2","781830643909922818","WQ","90","","","","","","","","","","","","","","","","","","","true","3","3","ability","987","other","别人","","","","","","","","","","","","","","",""
"null","","null","html-keyboard-response","97","194725","0.0-6.0-0.0-6.0-0.19","4","3","4","4","4","3","3","4","4","4","5","5","5","4","5","4","5","5","4","5","2","2","2","2","1","2","2","4","2","1","1","1","0","1","0","0","0","0","0","0","0","0","0","1","5","1","4","1","1","1","2","4","5","2","781830643909922818","WQ","90","","","","","","","","","","","","","","","","","","","","","","","","","","","","","","","","","","","","","","","",""
"629","<p style=""color:white; font-size: 35px;"">高效</p>","i","categorize-html","98","195355","0.0-6.0-0.0-6.0-1.19","4","3","4","4","4","3","3","4","4","4","5","5","5","4","5","4","5","5","4","5","2","2","2","2","1","2","2","4","2","1","1","1","0","1","0","0","0","0","0","0","0","0","0","1","5","1","4","1","1","1","2","4","5","2","781830643909922818","WQ","90","","","","","","","","","","","","","","","","","","","true","3","3","ability","629","positive","高效","","","","","","","","","","","","","","",""
"null","","null","html-keyboard-response","99","195606","0.0-6.0-0.0-6.0-0.20","4","3","4","4","4","3","3","4","4","4","5","5","5","4","5","4","5","5","4","5","2","2","2","2","1","2","2","4","2","1","1","1","0","1","0","0","0","0","0","0","0","0","0","1","5","1","4","1","1","1","2","4","5","2","781830643909922818","WQ","90","","","","","","","","","","","","","","","","","","","","","","","","","","","","","","","","","","","","","","","",""
"603","<p style=""color:rgb(150, 250, 100); font-size: 35px;"">本人的</p>","i","categorize-html","100","196211","0.0-6.0-0.0-6.0-1.20","4","3","4","4","4","3","3","4","4","4","5","5","5","4","5","4","5","5","4","5","2","2","2","2","1","2","2","4","2","1","1","1","0","1","0","0","0","0","0","0","0","0","0","1","5","1","4","1","1","1","2","4","5","2","781830643909922818","WQ","90","","","","","","","","","","","","","","","","","","","true","3","3","ability","603","self","本人的","","","","","","","","","","","","","","",""
"null","","null","html-keyboard-response","101","196463","0.0-6.0-0.0-6.0-0.21","4","3","4","4","4","3","3","4","4","4","5","5","5","4","5","4","5","5","4","5","2","2","2","2","1","2","2","4","2","1","1","1","0","1","0","0","0","0","0","0","0","0","0","1","5","1","4","1","1","1","2","4","5","2","781830643909922818","WQ","90","","","","","","","","","","","","","","","","","","","","","","","","","","","","","","","","","","","","","","","",""
"580","<p style=""color:white; font-size: 35px;"">能干</p>","i","categorize-html","102","197044","0.0-6.0-0.0-6.0-1.21","4","3","4","4","4","3","3","4","4","4","5","5","5","4","5","4","5","5","4","5","2","2","2","2","1","2","2","4","2","1","1","1","0","1","0","0","0","0","0","0","0","0","0","1","5","1","4","1","1","1","2","4","5","2","781830643909922818","WQ","90","","","","","","","","","","","","","","","","","","","true","3","3","ability","580","positive","能干","","","","","","","","","","","","","","",""
"null","","null","html-keyboard-response","103","197295","0.0-6.0-0.0-6.0-0.22","4","3","4","4","4","3","3","4","4","4","5","5","5","4","5","4","5","5","4","5","2","2","2","2","1","2","2","4","2","1","1","1","0","1","0","0","0","0","0","0","0","0","0","1","5","1","4","1","1","1","2","4","5","2","781830643909922818","WQ","90","","","","","","","","","","","","","","","","","","","","","","","","","","","","","","","","","","","","","","","",""
"580","<p style=""color:rgb(150, 250, 100); font-size: 35px;"">他的</p>","e","categorize-html","104","197876","0.0-6.0-0.0-6.0-1.22","4","3","4","4","4","3","3","4","4","4","5","5","5","4","5","4","5","5","4","5","2","2","2","2","1","2","2","4","2","1","1","1","0","1","0","0","0","0","0","0","0","0","0","1","5","1","4","1","1","1","2","4","5","2","781830643909922818","WQ","90","","","","","","","","","","","","","","","","","","","true","3","3","ability","580","other","他的","","","","","","","","","","","","","","",""
"null","","null","html-keyboard-response","105","198127","0.0-6.0-0.0-6.0-0.23","4","3","4","4","4","3","3","4","4","4","5","5","5","4","5","4","5","5","4","5","2","2","2","2","1","2","2","4","2","1","1","1","0","1","0","0","0","0","0","0","0","0","0","1","5","1","4","1","1","1","2","4","5","2","781830643909922818","WQ","90","","","","","","","","","","","","","","","","","","","","","","","","","","","","","","","","","","","","","","","",""
"570","<p style=""color:white; font-size: 35px;"">拙笨</p>","e","categorize-html","106","198699","0.0-6.0-0.0-6.0-1.23","4","3","4","4","4","3","3","4","4","4","5","5","5","4","5","4","5","5","4","5","2","2","2","2","1","2","2","4","2","1","1","1","0","1","0","0","0","0","0","0","0","0","0","1","5","1","4","1","1","1","2","4","5","2","781830643909922818","WQ","90","","","","","","","","","","","","","","","","","","","true","3","3","ability","570","negative","拙笨","","","","","","","","","","","","","","",""
"4934","
    <div class=""tag-bottom""><p>
    —— 任务4：对“他人/消极”词和“自我/积极”词分类 ——<p/>
    <span style=""color:#78DCE8""><b>与刚才的任务完全相同，请再次对这四类词语分类</b></span><p/>
    <span style=""color:#FFD866""><b>请根据上方标签的提示，尽可能正确并且快速地做出按键反应</b></span><p/>
    当按键错误时屏幕中会出现<span style=""color:red""> X </span>，需要按另一个键纠正才能继续<br/><p/>
    请把双手食指分别放在键盘的“E”键和“I”键上<p/>
    按<空格键>开始
    </p></div>"," ","html-keyboard-response","107","203634","0.0-6.0-0.0-7.0","4","3","4","4","4","3","3","4","4","4","5","5","5","4","5","4","5","5","4","5","2","2","2","2","1","2","2","4","2","1","1","1","0","1","0","0","0","0","0","0","0","0","0","1","5","1","4","1","1","1","2","4","5","2","781830643909922818","WQ","90","","","","","","","","","","","","","","","","","","","","","","","","","","","","","","","","","","","","","","","",""
"null","","null","html-keyboard-response","108","203886","0.0-6.0-0.0-8.0-0.0","4","3","4","4","4","3","3","4","4","4","5","5","5","4","5","4","5","5","4","5","2","2","2","2","1","2","2","4","2","1","1","1","0","1","0","0","0","0","0","0","0","0","0","1","5","1","4","1","1","1","2","4","5","2","781830643909922818","WQ","90","","","","","","","","","","","","","","","","","","","","","","","","","","","","","","","","","","","","","","","",""
"491","<p style=""color:rgb(150, 250, 100); font-size: 35px;"">他的</p>","e","categorize-html","109","204378","0.0-6.0-0.0-8.0-1.0","4","3","4","4","4","3","3","4","4","4","5","5","5","4","5","4","5","5","4","5","2","2","2","2","1","2","2","4","2","1","1","1","0","1","0","0","0","0","0","0","0","0","0","1","5","1","4","1","1","1","2","4","5","2","781830643909922818","WQ","90","","","","","","","","","","","","","","","","","","","true","4","4","ability","491","other","他的","","","","","","","","","","","","","","",""
"null","","null","html-keyboard-response","110","204629","0.0-6.0-0.0-8.0-0.1","4","3","4","4","4","3","3","4","4","4","5","5","5","4","5","4","5","5","4","5","2","2","2","2","1","2","2","4","2","1","1","1","0","1","0","0","0","0","0","0","0","0","0","1","5","1","4","1","1","1","2","4","5","2","781830643909922818","WQ","90","","","","","","","","","","","","","","","","","","","","","","","","","","","","","","","","","","","","","","","",""
"628","<p style=""color:white; font-size: 35px;"">天才</p>","i","categorize-html","111","205259","0.0-6.0-0.0-8.0-1.1","4","3","4","4","4","3","3","4","4","4","5","5","5","4","5","4","5","5","4","5","2","2","2","2","1","2","2","4","2","1","1","1","0","1","0","0","0","0","0","0","0","0","0","1","5","1","4","1","1","1","2","4","5","2","781830643909922818","WQ","90","","","","","","","","","","","","","","","","","","","true","4","4","ability","628","positive","天才","","","","","","","","","","","","","","",""
"null","","null","html-keyboard-response","112","205510","0.0-6.0-0.0-8.0-0.2","4","3","4","4","4","3","3","4","4","4","5","5","5","4","5","4","5","5","4","5","2","2","2","2","1","2","2","4","2","1","1","1","0","1","0","0","0","0","0","0","0","0","0","1","5","1","4","1","1","1","2","4","5","2","781830643909922818","WQ","90","","","","","","","","","","","","","","","","","","","","","","","","","","","","","","","","","","","","","","","",""
"539","<p style=""color:rgb(150, 250, 100); font-size: 35px;"">本人的</p>","i","categorize-html","113","206051","0.0-6.0-0.0-8.0-1.2","4","3","4","4","4","3","3","4","4","4","5","5","5","4","5","4","5","5","4","5","2","2","2","2","1","2","2","4","2","1","1","1","0","1","0","0","0","0","0","0","0","0","0","1","5","1","4","1","1","1","2","4","5","2","781830643909922818","WQ","90","","","","","","","","","","","","","","","","","","","true","4","4","ability","539","self","本人的","","","","","","","","","","","","","","",""
"null","","null","html-keyboard-response","114","206303","0.0-6.0-0.0-8.0-0.3","4","3","4","4","4","3","3","4","4","4","5","5","5","4","5","4","5","5","4","5","2","2","2","2","1","2","2","4","2","1","1","1","0","1","0","0","0","0","0","0","0","0","0","1","5","1","4","1","1","1","2","4","5","2","781830643909922818","WQ","90","","","","","","","","","","","","","","","","","","","","","","","","","","","","","","","","","","","","","","","",""
"619","<p style=""color:white; font-size: 35px;"">愚钝</p>","e","categorize-html","115","206923","0.0-6.0-0.0-8.0-1.3","4","3","4","4","4","3","3","4","4","4","5","5","5","4","5","4","5","5","4","5","2","2","2","2","1","2","2","4","2","1","1","1","0","1","0","0","0","0","0","0","0","0","0","1","5","1","4","1","1","1","2","4","5","2","781830643909922818","WQ","90","","","","","","","","","","","","","","","","","","","true","4","4","ability","619","negative","愚钝","","","","","","","","","","","","","","",""
"null","","null","html-keyboard-response","116","207174","0.0-6.0-0.0-8.0-0.4","4","3","4","4","4","3","3","4","4","4","5","5","5","4","5","4","5","5","4","5","2","2","2","2","1","2","2","4","2","1","1","1","0","1","0","0","0","0","0","0","0","0","0","1","5","1","4","1","1","1","2","4","5","2","781830643909922818","WQ","90","","","","","","","","","","","","","","","","","","","","","","","","","","","","","","","","","","","","","","","",""
"724","<p style=""color:rgb(150, 250, 100); font-size: 35px;"">自己的</p>","i","categorize-html","117","207899","0.0-6.0-0.0-8.0-1.4","4","3","4","4","4","3","3","4","4","4","5","5","5","4","5","4","5","5","4","5","2","2","2","2","1","2","2","4","2","1","1","1","0","1","0","0","0","0","0","0","0","0","0","1","5","1","4","1","1","1","2","4","5","2","781830643909922818","WQ","90","","","","","","","","","","","","","","","","","","","true","4","4","ability","724","self","自己的","","","","","","","","","","","","","","",""
"null","","null","html-keyboard-response","118","208150","0.0-6.0-0.0-8.0-0.5","4","3","4","4","4","3","3","4","4","4","5","5","5","4","5","4","5","5","4","5","2","2","2","2","1","2","2","4","2","1","1","1","0","1","0","0","0","0","0","0","0","0","0","1","5","1","4","1","1","1","2","4","5","2","781830643909922818","WQ","90","","","","","","","","","","","","","","","","","","","","","","","","","","","","","","","","","","","","","","","",""
"731","<p style=""color:white; font-size: 35px;"">高效</p>","i","categorize-html","119","208883","0.0-6.0-0.0-8.0-1.5","4","3","4","4","4","3","3","4","4","4","5","5","5","4","5","4","5","5","4","5","2","2","2","2","1","2","2","4","2","1","1","1","0","1","0","0","0","0","0","0","0","0","0","1","5","1","4","1","1","1","2","4","5","2","781830643909922818","WQ","90","","","","","","","","","","","","","","","","","","","true","4","4","ability","731","positive","高效","","","","","","","","","","","","","","",""
"null","","null","html-keyboard-response","120","209133","0.0-6.0-0.0-8.0-0.6","4","3","4","4","4","3","3","4","4","4","5","5","5","4","5","4","5","5","4","5","2","2","2","2","1","2","2","4","2","1","1","1","0","1","0","0","0","0","0","0","0","0","0","1","5","1","4","1","1","1","2","4","5","2","781830643909922818","WQ","90","","","","","","","","","","","","","","","","","","","","","","","","","","","","","","","","","","","","","","","",""
"724","<p style=""color:rgb(150, 250, 100); font-size: 35px;"">他的</p>","e","categorize-html","121","209859","0.0-6.0-0.0-8.0-1.6","4","3","4","4","4","3","3","4","4","4","5","5","5","4","5","4","5","5","4","5","2","2","2","2","1","2","2","4","2","1","1","1","0","1","0","0","0","0","0","0","0","0","0","1","5","1","4","1","1","1","2","4","5","2","781830643909922818","WQ","90","","","","","","","","","","","","","","","","","","","true","4","4","ability","724","other","他的","","","","","","","","","","","","","","",""
"null","","null","html-keyboard-response","122","210110","0.0-6.0-0.0-8.0-0.7","4","3","4","4","4","3","3","4","4","4","5","5","5","4","5","4","5","5","4","5","2","2","2","2","1","2","2","4","2","1","1","1","0","1","0","0","0","0","0","0","0","0","0","1","5","1","4","1","1","1","2","4","5","2","781830643909922818","WQ","90","","","","","","","","","","","","","","","","","","","","","","","","","","","","","","","","","","","","","","","",""
"1076","<p style=""color:white; font-size: 35px;"">蠢笨</p>","e","categorize-html","123","211187","0.0-6.0-0.0-8.0-1.7","4","3","4","4","4","3","3","4","4","4","5","5","5","4","5","4","5","5","4","5","2","2","2","2","1","2","2","4","2","1","1","1","0","1","0","0","0","0","0","0","0","0","0","1","5","1","4","1","1","1","2","4","5","2","781830643909922818","WQ","90","","","","","","","","","","","","","","","","","","","true","4","4","ability","1076","negative","蠢笨","","","","","","","","","","","","","","",""
"null","","null","html-keyboard-response","124","211443","0.0-6.0-0.0-8.0-0.8","4","3","4","4","4","3","3","4","4","4","5","5","5","4","5","4","5","5","4","5","2","2","2","2","1","2","2","4","2","1","1","1","0","1","0","0","0","0","0","0","0","0","0","1","5","1","4","1","1","1","2","4","5","2","781830643909922818","WQ","90","","","","","","","","","","","","","","","","","","","","","","","","","","","","","","","","","","","","","","","",""
"758","<p style=""color:rgb(150, 250, 100); font-size: 35px;"">他人</p>","e","categorize-html","125","212203","0.0-6.0-0.0-8.0-1.8","4","3","4","4","4","3","3","4","4","4","5","5","5","4","5","4","5","5","4","5","2","2","2","2","1","2","2","4","2","1","1","1","0","1","0","0","0","0","0","0","0","0","0","1","5","1","4","1","1","1","2","4","5","2","781830643909922818","WQ","90","","","","","","","","","","","","","","","","","","","true","4","4","ability","758","other","他人","","","","","","","","","","","","","","",""
"null","","null","html-keyboard-response","126","212454","0.0-6.0-0.0-8.0-0.9","4","3","4","4","4","3","3","4","4","4","5","5","5","4","5","4","5","5","4","5","2","2","2","2","1","2","2","4","2","1","1","1","0","1","0","0","0","0","0","0","0","0","0","1","5","1","4","1","1","1","2","4","5","2","781830643909922818","WQ","90","","","","","","","","","","","","","","","","","","","","","","","","","","","","","","","","","","","","","","","",""
"885","<p style=""color:white; font-size: 35px;"">全才</p>","i","categorize-html","127","213339","0.0-6.0-0.0-8.0-1.9","4","3","4","4","4","3","3","4","4","4","5","5","5","4","5","4","5","5","4","5","2","2","2","2","1","2","2","4","2","1","1","1","0","1","0","0","0","0","0","0","0","0","0","1","5","1","4","1","1","1","2","4","5","2","781830643909922818","WQ","90","","","","","","","","","","","","","","","","","","","true","4","4","ability","885","positive","全才","","","","","","","","","","","","","","",""
"null","","null","html-keyboard-response","128","213590","0.0-6.0-0.0-8.0-0.10","4","3","4","4","4","3","3","4","4","4","5","5","5","4","5","4","5","5","4","5","2","2","2","2","1","2","2","4","2","1","1","1","0","1","0","0","0","0","0","0","0","0","0","1","5","1","4","1","1","1","2","4","5","2","781830643909922818","WQ","90","","","","","","","","","","","","","","","","","","","","","","","","","","","","","","","","","","","","","","","",""
"642","<p style=""color:rgb(150, 250, 100); font-size: 35px;"">本人</p>","i","categorize-html","129","214234","0.0-6.0-0.0-8.0-1.10","4","3","4","4","4","3","3","4","4","4","5","5","5","4","5","4","5","5","4","5","2","2","2","2","1","2","2","4","2","1","1","1","0","1","0","0","0","0","0","0","0","0","0","1","5","1","4","1","1","1","2","4","5","2","781830643909922818","WQ","90","","","","","","","","","","","","","","","","","","","true","4","4","ability","642","self","本人","","","","","","","","","","","","","","",""
"null","","null","html-keyboard-response","130","214486","0.0-6.0-0.0-8.0-0.11","4","3","4","4","4","3","3","4","4","4","5","5","5","4","5","4","5","5","4","5","2","2","2","2","1","2","2","4","2","1","1","1","0","1","0","0","0","0","0","0","0","0","0","1","5","1","4","1","1","1","2","4","5","2","781830643909922818","WQ","90","","","","","","","","","","","","","","","","","","","","","","","","","","","","","","","","","","","","","","","",""
"748","<p style=""color:white; font-size: 35px;"">拙笨</p>","e","categorize-html","131","215235","0.0-6.0-0.0-8.0-1.11","4","3","4","4","4","3","3","4","4","4","5","5","5","4","5","4","5","5","4","5","2","2","2","2","1","2","2","4","2","1","1","1","0","1","0","0","0","0","0","0","0","0","0","1","5","1","4","1","1","1","2","4","5","2","781830643909922818","WQ","90","","","","","","","","","","","","","","","","","","","true","4","4","ability","748","negative","拙笨","","","","","","","","","","","","","","",""
"null","","null","html-keyboard-response","132","215487","0.0-6.0-0.0-8.0-0.12","4","3","4","4","4","3","3","4","4","4","5","5","5","4","5","4","5","5","4","5","2","2","2","2","1","2","2","4","2","1","1","1","0","1","0","0","0","0","0","0","0","0","0","1","5","1","4","1","1","1","2","4","5","2","781830643909922818","WQ","90","","","","","","","","","","","","","","","","","","","","","","","","","","","","","","","","","","","","","","","",""
"539","<p style=""color:rgb(150, 250, 100); font-size: 35px;"">他人</p>","e","categorize-html","133","216027","0.0-6.0-0.0-8.0-1.12","4","3","4","4","4","3","3","4","4","4","5","5","5","4","5","4","5","5","4","5","2","2","2","2","1","2","2","4","2","1","1","1","0","1","0","0","0","0","0","0","0","0","0","1","5","1","4","1","1","1","2","4","5","2","781830643909922818","WQ","90","","","","","","","","","","","","","","","","","","","true","4","4","ability","539","other","他人","","","","","","","","","","","","","","",""
"null","","null","html-keyboard-response","134","216279","0.0-6.0-0.0-8.0-0.13","4","3","4","4","4","3","3","4","4","4","5","5","5","4","5","4","5","5","4","5","2","2","2","2","1","2","2","4","2","1","1","1","0","1","0","0","0","0","0","0","0","0","0","1","5","1","4","1","1","1","2","4","5","2","781830643909922818","WQ","90","","","","","","","","","","","","","","","","","","","","","","","","","","","","","","","","","","","","","","","",""
"659","<p style=""color:white; font-size: 35px;"">能干</p>","i","categorize-html","135","216939","0.0-6.0-0.0-8.0-1.13","4","3","4","4","4","3","3","4","4","4","5","5","5","4","5","4","5","5","4","5","2","2","2","2","1","2","2","4","2","1","1","1","0","1","0","0","0","0","0","0","0","0","0","1","5","1","4","1","1","1","2","4","5","2","781830643909922818","WQ","90","","","","","","","","","","","","","","","","","","","true","4","4","ability","659","positive","能干","","","","","","","","","","","","","","",""
"null","","null","html-keyboard-response","136","217191","0.0-6.0-0.0-8.0-0.14","4","3","4","4","4","3","3","4","4","4","5","5","5","4","5","4","5","5","4","5","2","2","2","2","1","2","2","4","2","1","1","1","0","1","0","0","0","0","0","0","0","0","0","1","5","1","4","1","1","1","2","4","5","2","781830643909922818","WQ","90","","","","","","","","","","","","","","","","","","","","","","","","","","","","","","","","","","","","","","","",""
"538","<p style=""color:rgb(150, 250, 100); font-size: 35px;"">自己的</p>","i","categorize-html","137","217731","0.0-6.0-0.0-8.0-1.14","4","3","4","4","4","3","3","4","4","4","5","5","5","4","5","4","5","5","4","5","2","2","2","2","1","2","2","4","2","1","1","1","0","1","0","0","0","0","0","0","0","0","0","1","5","1","4","1","1","1","2","4","5","2","781830643909922818","WQ","90","","","","","","","","","","","","","","","","","","","true","4","4","ability","538","self","自己的","","","","","","","","","","","","","","",""
"null","","null","html-keyboard-response","138","217982","0.0-6.0-0.0-8.0-0.15","4","3","4","4","4","3","3","4","4","4","5","5","5","4","5","4","5","5","4","5","2","2","2","2","1","2","2","4","2","1","1","1","0","1","0","0","0","0","0","0","0","0","0","1","5","1","4","1","1","1","2","4","5","2","781830643909922818","WQ","90","","","","","","","","","","","","","","","","","","","","","","","","","","","","","","","","","","","","","","","",""
"724","<p style=""color:white; font-size: 35px;"">无能</p>","e","categorize-html","139","218707","0.0-6.0-0.0-8.0-1.15","4","3","4","4","4","3","3","4","4","4","5","5","5","4","5","4","5","5","4","5","2","2","2","2","1","2","2","4","2","1","1","1","0","1","0","0","0","0","0","0","0","0","0","1","5","1","4","1","1","1","2","4","5","2","781830643909922818","WQ","90","","","","","","","","","","","","","","","","","","","true","4","4","ability","724","negative","无能","","","","","","","","","","","","","","",""
"null","","null","html-keyboard-response","140","218958","0.0-6.0-0.0-8.0-0.16","4","3","4","4","4","3","3","4","4","4","5","5","5","4","5","4","5","5","4","5","2","2","2","2","1","2","2","4","2","1","1","1","0","1","0","0","0","0","0","0","0","0","0","1","5","1","4","1","1","1","2","4","5","2","781830643909922818","WQ","90","","","","","","","","","","","","","","","","","","","","","","","","","","","","","","","","","","","","","","","",""
"931","<p style=""color:rgb(150, 250, 100); font-size: 35px;"">他人的</p>","e","categorize-html","141","219890","0.0-6.0-0.0-8.0-1.16","4","3","4","4","4","3","3","4","4","4","5","5","5","4","5","4","5","5","4","5","2","2","2","2","1","2","2","4","2","1","1","1","0","1","0","0","0","0","0","0","0","0","0","1","5","1","4","1","1","1","2","4","5","2","781830643909922818","WQ","90","","","","","","","","","","","","","","","","","","","true","4","4","ability","931","other","他人的","","","","","","","","","","","","","","",""
"null","","null","html-keyboard-response","142","220141","0.0-6.0-0.0-8.0-0.17","4","3","4","4","4","3","3","4","4","4","5","5","5","4","5","4","5","5","4","5","2","2","2","2","1","2","2","4","2","1","1","1","0","1","0","0","0","0","0","0","0","0","0","1","5","1","4","1","1","1","2","4","5","2","781830643909922818","WQ","90","","","","","","","","","","","","","","","","","","","","","","","","","","","","","","","","","","","","","","","",""
"668","<p style=""color:white; font-size: 35px;"">高效</p>","i","categorize-html","143","220811","0.0-6.0-0.0-8.0-1.17","4","3","4","4","4","3","3","4","4","4","5","5","5","4","5","4","5","5","4","5","2","2","2","2","1","2","2","4","2","1","1","1","0","1","0","0","0","0","0","0","0","0","0","1","5","1","4","1","1","1","2","4","5","2","781830643909922818","WQ","90","","","","","","","","","","","","","","","","","","","true","4","4","ability","668","positive","高效","","","","","","","","","","","","","","",""
"null","","null","html-keyboard-response","144","221062","0.0-6.0-0.0-8.0-0.18","4","3","4","4","4","3","3","4","4","4","5","5","5","4","5","4","5","5","4","5","2","2","2","2","1","2","2","4","2","1","1","1","0","1","0","0","0","0","0","0","0","0","0","1","5","1","4","1","1","1","2","4","5","2","781830643909922818","WQ","90","","","","","","","","","","","","","","","","","","","","","","","","","","","","","","","","","","","","","","","",""
"580","<p style=""color:rgb(150, 250, 100); font-size: 35px;"">我</p>","i","categorize-html","145","221644","0.0-6.0-0.0-8.0-1.18","4","3","4","4","4","3","3","4","4","4","5","5","5","4","5","4","5","5","4","5","2","2","2","2","1","2","2","4","2","1","1","1","0","1","0","0","0","0","0","0","0","0","0","1","5","1","4","1","1","1","2","4","5","2","781830643909922818","WQ","90","","","","","","","","","","","","","","","","","","","true","4","4","ability","580","self","我","","","","","","","","","","","","","","",""
"null","","null","html-keyboard-response","146","221895","0.0-6.0-0.0-8.0-0.19","4","3","4","4","4","3","3","4","4","4","5","5","5","4","5","4","5","5","4","5","2","2","2","2","1","2","2","4","2","1","1","1","0","1","0","0","0","0","0","0","0","0","0","1","5","1","4","1","1","1","2","4","5","2","781830643909922818","WQ","90","","","","","","","","","","","","","","","","","","","","","","","","","","","","","","","","","","","","","","","",""
"634","<p style=""color:white; font-size: 35px;"">无能</p>","e","categorize-html","147","222530","0.0-6.0-0.0-8.0-1.19","4","3","4","4","4","3","3","4","4","4","5","5","5","4","5","4","5","5","4","5","2","2","2","2","1","2","2","4","2","1","1","1","0","1","0","0","0","0","0","0","0","0","0","1","5","1","4","1","1","1","2","4","5","2","781830643909922818","WQ","90","","","","","","","","","","","","","","","","","","","true","4","4","ability","634","negative","无能","","","","","","","","","","","","","","",""
"null","","null","html-keyboard-response","148","222782","0.0-6.0-0.0-8.0-0.20","4","3","4","4","4","3","3","4","4","4","5","5","5","4","5","4","5","5","4","5","2","2","2","2","1","2","2","4","2","1","1","1","0","1","0","0","0","0","0","0","0","0","0","1","5","1","4","1","1","1","2","4","5","2","781830643909922818","WQ","90","","","","","","","","","","","","","","","","","","","","","","","","","","","","","","","","","","","","","","","",""
"821","<p style=""color:rgb(150, 250, 100); font-size: 35px;"">他</p>","e","categorize-html","149","223604","0.0-6.0-0.0-8.0-1.20","4","3","4","4","4","3","3","4","4","4","5","5","5","4","5","4","5","5","4","5","2","2","2","2","1","2","2","4","2","1","1","1","0","1","0","0","0","0","0","0","0","0","0","1","5","1","4","1","1","1","2","4","5","2","781830643909922818","WQ","90","","","","","","","","","","","","","","","","","","","true","4","4","ability","821","other","他","","","","","","","","","","","","","","",""
"null","","null","html-keyboard-response","150","223855","0.0-6.0-0.0-8.0-0.21","4","3","4","4","4","3","3","4","4","4","5","5","5","4","5","4","5","5","4","5","2","2","2","2","1","2","2","4","2","1","1","1","0","1","0","0","0","0","0","0","0","0","0","1","5","1","4","1","1","1","2","4","5","2","781830643909922818","WQ","90","","","","","","","","","","","","","","","","","","","","","","","","","","","","","","","","","","","","","","","",""
"698","<p style=""color:white; font-size: 35px;"">天才</p>","i","categorize-html","151","224554","0.0-6.0-0.0-8.0-1.21","4","3","4","4","4","3","3","4","4","4","5","5","5","4","5","4","5","5","4","5","2","2","2","2","1","2","2","4","2","1","1","1","0","1","0","0","0","0","0","0","0","0","0","1","5","1","4","1","1","1","2","4","5","2","781830643909922818","WQ","90","","","","","","","","","","","","","","","","","","","true","4","4","ability","698","positive","天才","","","","","","","","","","","","","","",""
"null","","null","html-keyboard-response","152","224806","0.0-6.0-0.0-8.0-0.22","4","3","4","4","4","3","3","4","4","4","5","5","5","4","5","4","5","5","4","5","2","2","2","2","1","2","2","4","2","1","1","1","0","1","0","0","0","0","0","0","0","0","0","1","5","1","4","1","1","1","2","4","5","2","781830643909922818","WQ","90","","","","","","","","","","","","","","","","","","","","","","","","","","","","","","","","","","","","","","","",""
"763","<p style=""color:rgb(150, 250, 100); font-size: 35px;"">自己</p>","i","categorize-html","153","225570","0.0-6.0-0.0-8.0-1.22","4","3","4","4","4","3","3","4","4","4","5","5","5","4","5","4","5","5","4","5","2","2","2","2","1","2","2","4","2","1","1","1","0","1","0","0","0","0","0","0","0","0","0","1","5","1","4","1","1","1","2","4","5","2","781830643909922818","WQ","90","","","","","","","","","","","","","","","","","","","true","4","4","ability","763","self","自己","","","","","","","","","","","","","","",""
"null","","null","html-keyboard-response","154","225821","0.0-6.0-0.0-8.0-0.23","4","3","4","4","4","3","3","4","4","4","5","5","5","4","5","4","5","5","4","5","2","2","2","2","1","2","2","4","2","1","1","1","0","1","0","0","0","0","0","0","0","0","0","1","5","1","4","1","1","1","2","4","5","2","781830643909922818","WQ","90","","","","","","","","","","","","","","","","","","","","","","","","","","","","","","","","","","","","","","","",""
"716","<p style=""color:white; font-size: 35px;"">废物</p>","e","categorize-html","155","226539","0.0-6.0-0.0-8.0-1.23","4","3","4","4","4","3","3","4","4","4","5","5","5","4","5","4","5","5","4","5","2","2","2","2","1","2","2","4","2","1","1","1","0","1","0","0","0","0","0","0","0","0","0","1","5","1","4","1","1","1","2","4","5","2","781830643909922818","WQ","90","","","","","","","","","","","","","","","","","","","true","4","4","ability","716","negative","废物","","","","","","","","","","","","","","",""
"null","","null","html-keyboard-response","156","226790","0.0-6.0-0.0-8.0-0.24","4","3","4","4","4","3","3","4","4","4","5","5","5","4","5","4","5","5","4","5","2","2","2","2","1","2","2","4","2","1","1","1","0","1","0","0","0","0","0","0","0","0","0","1","5","1","4","1","1","1","2","4","5","2","781830643909922818","WQ","90","","","","","","","","","","","","","","","","","","","","","","","","","","","","","","","","","","","","","","","",""
"661","<p style=""color:rgb(150, 250, 100); font-size: 35px;"">本人</p>","i","categorize-html","157","227452","0.0-6.0-0.0-8.0-1.24","4","3","4","4","4","3","3","4","4","4","5","5","5","4","5","4","5","5","4","5","2","2","2","2","1","2","2","4","2","1","1","1","0","1","0","0","0","0","0","0","0","0","0","1","5","1","4","1","1","1","2","4","5","2","781830643909922818","WQ","90","","","","","","","","","","","","","","","","","","","true","4","4","ability","661","self","本人","","","","","","","","","","","","","","",""
"null","","null","html-keyboard-response","158","227704","0.0-6.0-0.0-8.0-0.25","4","3","4","4","4","3","3","4","4","4","5","5","5","4","5","4","5","5","4","5","2","2","2","2","1","2","2","4","2","1","1","1","0","1","0","0","0","0","0","0","0","0","0","1","5","1","4","1","1","1","2","4","5","2","781830643909922818","WQ","90","","","","","","","","","","","","","","","","","","","","","","","","","","","","","","","","","","","","","","","",""
"723","<p style=""color:white; font-size: 35px;"">全能</p>","i","categorize-html","159","228428","0.0-6.0-0.0-8.0-1.25","4","3","4","4","4","3","3","4","4","4","5","5","5","4","5","4","5","5","4","5","2","2","2","2","1","2","2","4","2","1","1","1","0","1","0","0","0","0","0","0","0","0","0","1","5","1","4","1","1","1","2","4","5","2","781830643909922818","WQ","90","","","","","","","","","","","","","","","","","","","true","4","4","ability","723","positive","全能","","","","","","","","","","","","","","",""
"null","","null","html-keyboard-response","160","228680","0.0-6.0-0.0-8.0-0.26","4","3","4","4","4","3","3","4","4","4","5","5","5","4","5","4","5","5","4","5","2","2","2","2","1","2","2","4","2","1","1","1","0","1","0","0","0","0","0","0","0","0","0","1","5","1","4","1","1","1","2","4","5","2","781830643909922818","WQ","90","","","","","","","","","","","","","","","","","","","","","","","","","","","","","","","","","","","","","","","",""
"618","<p style=""color:rgb(150, 250, 100); font-size: 35px;"">别人的</p>","e","categorize-html","161","229298","0.0-6.0-0.0-8.0-1.26","4","3","4","4","4","3","3","4","4","4","5","5","5","4","5","4","5","5","4","5","2","2","2","2","1","2","2","4","2","1","1","1","0","1","0","0","0","0","0","0","0","0","0","1","5","1","4","1","1","1","2","4","5","2","781830643909922818","WQ","90","","","","","","","","","","","","","","","","","","","true","4","4","ability","618","other","别人的","","","","","","","","","","","","","","",""
"null","","null","html-keyboard-response","162","229550","0.0-6.0-0.0-8.0-0.27","4","3","4","4","4","3","3","4","4","4","5","5","5","4","5","4","5","5","4","5","2","2","2","2","1","2","2","4","2","1","1","1","0","1","0","0","0","0","0","0","0","0","0","1","5","1","4","1","1","1","2","4","5","2","781830643909922818","WQ","90","","","","","","","","","","","","","","","","","","","","","","","","","","","","","","","","","","","","","","","",""
"836","<p style=""color:white; font-size: 35px;"">低能</p>","e","categorize-html","163","230386","0.0-6.0-0.0-8.0-1.27","4","3","4","4","4","3","3","4","4","4","5","5","5","4","5","4","5","5","4","5","2","2","2","2","1","2","2","4","2","1","1","1","0","1","0","0","0","0","0","0","0","0","0","1","5","1","4","1","1","1","2","4","5","2","781830643909922818","WQ","90","","","","","","","","","","","","","","","","","","","true","4","4","ability","836","negative","低能","","","","","","","","","","","","","","",""
"null","","null","html-keyboard-response","164","230638","0.0-6.0-0.0-8.0-0.28","4","3","4","4","4","3","3","4","4","4","5","5","5","4","5","4","5","5","4","5","2","2","2","2","1","2","2","4","2","1","1","1","0","1","0","0","0","0","0","0","0","0","0","1","5","1","4","1","1","1","2","4","5","2","781830643909922818","WQ","90","","","","","","","","","","","","","","","","","","","","","","","","","","","","","","","","","","","","","","","",""
"507","<p style=""color:rgb(150, 250, 100); font-size: 35px;"">别人</p>","e","categorize-html","165","231146","0.0-6.0-0.0-8.0-1.28","4","3","4","4","4","3","3","4","4","4","5","5","5","4","5","4","5","5","4","5","2","2","2","2","1","2","2","4","2","1","1","1","0","1","0","0","0","0","0","0","0","0","0","1","5","1","4","1","1","1","2","4","5","2","781830643909922818","WQ","90","","","","","","","","","","","","","","","","","","","true","4","4","ability","507","other","别人","","","","","","","","","","","","","","",""
"null","","null","html-keyboard-response","166","231398","0.0-6.0-0.0-8.0-0.29","4","3","4","4","4","3","3","4","4","4","5","5","5","4","5","4","5","5","4","5","2","2","2","2","1","2","2","4","2","1","1","1","0","1","0","0","0","0","0","0","0","0","0","1","5","1","4","1","1","1","2","4","5","2","781830643909922818","WQ","90","","","","","","","","","","","","","","","","","","","","","","","","","","","","","","","","","","","","","","","",""
"740","<p style=""color:white; font-size: 35px;"">能干</p>","i","categorize-html","167","232139","0.0-6.0-0.0-8.0-1.29","4","3","4","4","4","3","3","4","4","4","5","5","5","4","5","4","5","5","4","5","2","2","2","2","1","2","2","4","2","1","1","1","0","1","0","0","0","0","0","0","0","0","0","1","5","1","4","1","1","1","2","4","5","2","781830643909922818","WQ","90","","","","","","","","","","","","","","","","","","","true","4","4","ability","740","positive","能干","","","","","","","","","","","","","","",""
"null","","null","html-keyboard-response","168","232391","0.0-6.0-0.0-8.0-0.30","4","3","4","4","4","3","3","4","4","4","5","5","5","4","5","4","5","5","4","5","2","2","2","2","1","2","2","4","2","1","1","1","0","1","0","0","0","0","0","0","0","0","0","1","5","1","4","1","1","1","2","4","5","2","781830643909922818","WQ","90","","","","","","","","","","","","","","","","","","","","","","","","","","","","","","","","","","","","","","","",""
"570","<p style=""color:rgb(150, 250, 100); font-size: 35px;"">我的</p>","i","categorize-html","169","232963","0.0-6.0-0.0-8.0-1.30","4","3","4","4","4","3","3","4","4","4","5","5","5","4","5","4","5","5","4","5","2","2","2","2","1","2","2","4","2","1","1","1","0","1","0","0","0","0","0","0","0","0","0","1","5","1","4","1","1","1","2","4","5","2","781830643909922818","WQ","90","","","","","","","","","","","","","","","","","","","true","4","4","ability","570","self","我的","","","","","","","","","","","","","","",""
"null","","null","html-keyboard-response","170","233214","0.0-6.0-0.0-8.0-0.31","4","3","4","4","4","3","3","4","4","4","5","5","5","4","5","4","5","5","4","5","2","2","2","2","1","2","2","4","2","1","1","1","0","1","0","0","0","0","0","0","0","0","0","1","5","1","4","1","1","1","2","4","5","2","781830643909922818","WQ","90","","","","","","","","","","","","","","","","","","","","","","","","","","","","","","","","","","","","","","","",""
"667","<p style=""color:white; font-size: 35px;"">蠢笨</p>","e","categorize-html","171","233883","0.0-6.0-0.0-8.0-1.31","4","3","4","4","4","3","3","4","4","4","5","5","5","4","5","4","5","5","4","5","2","2","2","2","1","2","2","4","2","1","1","1","0","1","0","0","0","0","0","0","0","0","0","1","5","1","4","1","1","1","2","4","5","2","781830643909922818","WQ","90","","","","","","","","","","","","","","","","","","","true","4","4","ability","667","negative","蠢笨","","","","","","","","","","","","","","",""
"null","","null","html-keyboard-response","172","234134","0.0-6.0-0.0-8.0-0.32","4","3","4","4","4","3","3","4","4","4","5","5","5","4","5","4","5","5","4","5","2","2","2","2","1","2","2","4","2","1","1","1","0","1","0","0","0","0","0","0","0","0","0","1","5","1","4","1","1","1","2","4","5","2","781830643909922818","WQ","90","","","","","","","","","","","","","","","","","","","","","","","","","","","","","","","","","","","","","","","",""
"580","<p style=""color:rgb(150, 250, 100); font-size: 35px;"">别人的</p>","e","categorize-html","173","234716","0.0-6.0-0.0-8.0-1.32","4","3","4","4","4","3","3","4","4","4","5","5","5","4","5","4","5","5","4","5","2","2","2","2","1","2","2","4","2","1","1","1","0","1","0","0","0","0","0","0","0","0","0","1","5","1","4","1","1","1","2","4","5","2","781830643909922818","WQ","90","","","","","","","","","","","","","","","","","","","true","4","4","ability","580","other","别人的","","","","","","","","","","","","","","",""
"null","","null","html-keyboard-response","174","234968","0.0-6.0-0.0-8.0-0.33","4","3","4","4","4","3","3","4","4","4","5","5","5","4","5","4","5","5","4","5","2","2","2","2","1","2","2","4","2","1","1","1","0","1","0","0","0","0","0","0","0","0","0","1","5","1","4","1","1","1","2","4","5","2","781830643909922818","WQ","90","","","","","","","","","","","","","","","","","","","","","","","","","","","","","","","","","","","","","","","",""
"601","<p style=""color:white; font-size: 35px;"">废物</p>","e","categorize-html","175","235571","0.0-6.0-0.0-8.0-1.33","4","3","4","4","4","3","3","4","4","4","5","5","5","4","5","4","5","5","4","5","2","2","2","2","1","2","2","4","2","1","1","1","0","1","0","0","0","0","0","0","0","0","0","1","5","1","4","1","1","1","2","4","5","2","781830643909922818","WQ","90","","","","","","","","","","","","","","","","","","","true","4","4","ability","601","negative","废物","","","","","","","","","","","","","","",""
"null","","null","html-keyboard-response","176","235823","0.0-6.0-0.0-8.0-0.34","4","3","4","4","4","3","3","4","4","4","5","5","5","4","5","4","5","5","4","5","2","2","2","2","1","2","2","4","2","1","1","1","0","1","0","0","0","0","0","0","0","0","0","1","5","1","4","1","1","1","2","4","5","2","781830643909922818","WQ","90","","","","","","","","","","","","","","","","","","","","","","","","","","","","","","","","","","","","","","","",""
"635","<p style=""color:rgb(150, 250, 100); font-size: 35px;"">本人的</p>","i","categorize-html","177","236459","0.0-6.0-0.0-8.0-1.34","4","3","4","4","4","3","3","4","4","4","5","5","5","4","5","4","5","5","4","5","2","2","2","2","1","2","2","4","2","1","1","1","0","1","0","0","0","0","0","0","0","0","0","1","5","1","4","1","1","1","2","4","5","2","781830643909922818","WQ","90","","","","","","","","","","","","","","","","","","","true","4","4","ability","635","self","本人的","","","","","","","","","","","","","","",""
"null","","null","html-keyboard-response","178","236710","0.0-6.0-0.0-8.0-0.35","4","3","4","4","4","3","3","4","4","4","5","5","5","4","5","4","5","5","4","5","2","2","2","2","1","2","2","4","2","1","1","1","0","1","0","0","0","0","0","0","0","0","0","1","5","1","4","1","1","1","2","4","5","2","781830643909922818","WQ","90","","","","","","","","","","","","","","","","","","","","","","","","","","","","","","","","","","","","","","","",""
"573","<p style=""color:white; font-size: 35px;"">精干</p>","i","categorize-html","179","237284","0.0-6.0-0.0-8.0-1.35","4","3","4","4","4","3","3","4","4","4","5","5","5","4","5","4","5","5","4","5","2","2","2","2","1","2","2","4","2","1","1","1","0","1","0","0","0","0","0","0","0","0","0","1","5","1","4","1","1","1","2","4","5","2","781830643909922818","WQ","90","","","","","","","","","","","","","","","","","","","true","4","4","ability","573","positive","精干","","","","","","","","","","","","","","",""
"null","","null","html-keyboard-response","180","237535","0.0-6.0-0.0-8.0-0.36","4","3","4","4","4","3","3","4","4","4","5","5","5","4","5","4","5","5","4","5","2","2","2","2","1","2","2","4","2","1","1","1","0","1","0","0","0","0","0","0","0","0","0","1","5","1","4","1","1","1","2","4","5","2","781830643909922818","WQ","90","","","","","","","","","","","","","","","","","","","","","","","","","","","","","","","","","","","","","","","",""
"657","<p style=""color:rgb(150, 250, 100); font-size: 35px;"">他人的</p>","e","categorize-html","181","238195","0.0-6.0-0.0-8.0-1.36","4","3","4","4","4","3","3","4","4","4","5","5","5","4","5","4","5","5","4","5","2","2","2","2","1","2","2","4","2","1","1","1","0","1","0","0","0","0","0","0","0","0","0","1","5","1","4","1","1","1","2","4","5","2","781830643909922818","WQ","90","","","","","","","","","","","","","","","","","","","true","4","4","ability","657","other","他人的","","","","","","","","","","","","","","",""
"null","","null","html-keyboard-response","182","238446","0.0-6.0-0.0-8.0-0.37","4","3","4","4","4","3","3","4","4","4","5","5","5","4","5","4","5","5","4","5","2","2","2","2","1","2","2","4","2","1","1","1","0","1","0","0","0","0","0","0","0","0","0","1","5","1","4","1","1","1","2","4","5","2","781830643909922818","WQ","90","","","","","","","","","","","","","","","","","","","","","","","","","","","","","","","","","","","","","","","",""
"756","<p style=""color:white; font-size: 35px;"">全能</p>","i","categorize-html","183","239203","0.0-6.0-0.0-8.0-1.37","4","3","4","4","4","3","3","4","4","4","5","5","5","4","5","4","5","5","4","5","2","2","2","2","1","2","2","4","2","1","1","1","0","1","0","0","0","0","0","0","0","0","0","1","5","1","4","1","1","1","2","4","5","2","781830643909922818","WQ","90","","","","","","","","","","","","","","","","","","","true","4","4","ability","756","positive","全能","","","","","","","","","","","","","","",""
"null","","null","html-keyboard-response","184","239454","0.0-6.0-0.0-8.0-0.38","4","3","4","4","4","3","3","4","4","4","5","5","5","4","5","4","5","5","4","5","2","2","2","2","1","2","2","4","2","1","1","1","0","1","0","0","0","0","0","0","0","0","0","1","5","1","4","1","1","1","2","4","5","2","781830643909922818","WQ","90","","","","","","","","","","","","","","","","","","","","","","","","","","","","","","","","","","","","","","","",""
"564","<p style=""color:rgb(150, 250, 100); font-size: 35px;"">我</p>","i","categorize-html","185","240019","0.0-6.0-0.0-8.0-1.38","4","3","4","4","4","3","3","4","4","4","5","5","5","4","5","4","5","5","4","5","2","2","2","2","1","2","2","4","2","1","1","1","0","1","0","0","0","0","0","0","0","0","0","1","5","1","4","1","1","1","2","4","5","2","781830643909922818","WQ","90","","","","","","","","","","","","","","","","","","","true","4","4","ability","564","self","我","","","","","","","","","","","","","","",""
"null","","null","html-keyboard-response","186","240269","0.0-6.0-0.0-8.0-0.39","4","3","4","4","4","3","3","4","4","4","5","5","5","4","5","4","5","5","4","5","2","2","2","2","1","2","2","4","2","1","1","1","0","1","0","0","0","0","0","0","0","0","0","1","5","1","4","1","1","1","2","4","5","2","781830643909922818","WQ","90","","","","","","","","","","","","","","","","","","","","","","","","","","","","","","","","","","","","","","","",""
"756","<p style=""color:white; font-size: 35px;"">拙笨</p>","e","categorize-html","187","241027","0.0-6.0-0.0-8.0-1.39","4","3","4","4","4","3","3","4","4","4","5","5","5","4","5","4","5","5","4","5","2","2","2","2","1","2","2","4","2","1","1","1","0","1","0","0","0","0","0","0","0","0","0","1","5","1","4","1","1","1","2","4","5","2","781830643909922818","WQ","90","","","","","","","","","","","","","","","","","","","true","4","4","ability","756","negative","拙笨","","","","","","","","","","","","","","",""
"null","","null","html-keyboard-response","188","241278","0.0-6.0-0.0-8.0-0.40","4","3","4","4","4","3","3","4","4","4","5","5","5","4","5","4","5","5","4","5","2","2","2","2","1","2","2","4","2","1","1","1","0","1","0","0","0","0","0","0","0","0","0","1","5","1","4","1","1","1","2","4","5","2","781830643909922818","WQ","90","","","","","","","","","","","","","","","","","","","","","","","","","","","","","","","","","","","","","","","",""
"963","<p style=""color:rgb(150, 250, 100); font-size: 35px;"">自己</p>","i","categorize-html","189","242243","0.0-6.0-0.0-8.0-1.40","4","3","4","4","4","3","3","4","4","4","5","5","5","4","5","4","5","5","4","5","2","2","2","2","1","2","2","4","2","1","1","1","0","1","0","0","0","0","0","0","0","0","0","1","5","1","4","1","1","1","2","4","5","2","781830643909922818","WQ","90","","","","","","","","","","","","","","","","","","","true","4","4","ability","963","self","自己","","","","","","","","","","","","","","",""
"null","","null","html-keyboard-response","190","242494","0.0-6.0-0.0-8.0-0.41","4","3","4","4","4","3","3","4","4","4","5","5","5","4","5","4","5","5","4","5","2","2","2","2","1","2","2","4","2","1","1","1","0","1","0","0","0","0","0","0","0","0","0","1","5","1","4","1","1","1","2","4","5","2","781830643909922818","WQ","90","","","","","","","","","","","","","","","","","","","","","","","","","","","","","","","","","","","","","","","",""
"2027","<p style=""color:white; font-size: 35px;"">低能</p>","e","categorize-html","191","244523","0.0-6.0-0.0-8.0-1.41","4","3","4","4","4","3","3","4","4","4","5","5","5","4","5","4","5","5","4","5","2","2","2","2","1","2","2","4","2","1","1","1","0","1","0","0","0","0","0","0","0","0","0","1","5","1","4","1","1","1","2","4","5","2","781830643909922818","WQ","90","","","","","","","","","","","","","","","","","","","true","4","4","ability","2027","negative","低能","","","","","","","","","","","","","","",""
"null","","null","html-keyboard-response","192","244773","0.0-6.0-0.0-8.0-0.42","4","3","4","4","4","3","3","4","4","4","5","5","5","4","5","4","5","5","4","5","2","2","2","2","1","2","2","4","2","1","1","1","0","1","0","0","0","0","0","0","0","0","0","1","5","1","4","1","1","1","2","4","5","2","781830643909922818","WQ","90","","","","","","","","","","","","","","","","","","","","","","","","","","","","","","","","","","","","","","","",""
"1140","<p style=""color:rgb(150, 250, 100); font-size: 35px;"">别人</p>","e","categorize-html","193","245915","0.0-6.0-0.0-8.0-1.42","4","3","4","4","4","3","3","4","4","4","5","5","5","4","5","4","5","5","4","5","2","2","2","2","1","2","2","4","2","1","1","1","0","1","0","0","0","0","0","0","0","0","0","1","5","1","4","1","1","1","2","4","5","2","781830643909922818","WQ","90","","","","","","","","","","","","","","","","","","","true","4","4","ability","1140","other","别人","","","","","","","","","","","","","","",""
"null","","null","html-keyboard-response","194","246166","0.0-6.0-0.0-8.0-0.43","4","3","4","4","4","3","3","4","4","4","5","5","5","4","5","4","5","5","4","5","2","2","2","2","1","2","2","4","2","1","1","1","0","1","0","0","0","0","0","0","0","0","0","1","5","1","4","1","1","1","2","4","5","2","781830643909922818","WQ","90","","","","","","","","","","","","","","","","","","","","","","","","","","","","","","","","","","","","","","","",""
"603","<p style=""color:white; font-size: 35px;"">精干</p>","i","categorize-html","195","246771","0.0-6.0-0.0-8.0-1.43","4","3","4","4","4","3","3","4","4","4","5","5","5","4","5","4","5","5","4","5","2","2","2","2","1","2","2","4","2","1","1","1","0","1","0","0","0","0","0","0","0","0","0","1","5","1","4","1","1","1","2","4","5","2","781830643909922818","WQ","90","","","","","","","","","","","","","","","","","","","true","4","4","ability","603","positive","精干","","","","","","","","","","","","","","",""
"null","","null","html-keyboard-response","196","247022","0.0-6.0-0.0-8.0-0.44","4","3","4","4","4","3","3","4","4","4","5","5","5","4","5","4","5","5","4","5","2","2","2","2","1","2","2","4","2","1","1","1","0","1","0","0","0","0","0","0","0","0","0","1","5","1","4","1","1","1","2","4","5","2","781830643909922818","WQ","90","","","","","","","","","","","","","","","","","","","","","","","","","","","","","","","","","","","","","","","",""
"588","<p style=""color:rgb(150, 250, 100); font-size: 35px;"">我的</p>","i","categorize-html","197","247612","0.0-6.0-0.0-8.0-1.44","4","3","4","4","4","3","3","4","4","4","5","5","5","4","5","4","5","5","4","5","2","2","2","2","1","2","2","4","2","1","1","1","0","1","0","0","0","0","0","0","0","0","0","1","5","1","4","1","1","1","2","4","5","2","781830643909922818","WQ","90","","","","","","","","","","","","","","","","","","","true","4","4","ability","588","self","我的","","","","","","","","","","","","","","",""
