"rt","stimulus","response","trial_type","trial_index","time_elapsed","internal_node_id","ses_1","ses_2","ses_3","ses_4","ses_5","ses_6","ses_7","ses_8","ses_9","ses_10","coreself_1","coreself_2","coreself_3","coreself_4","coreself_5","coreself_6","coreself_7","coreself_8","coreself_9","coreself_10","SGPS_1","SGPS_2","SGPS_3","SGPS_4","SGPS_5","SGPS_6","SGPS_7","SGPS_8","SGPS_9","NPI1","NPI2","NPI3","NPI4","NPI5","NPI6","NPI7","NPI8","NPI9","NPI10","NPI11","NPI12","NPI13","NPI14","NPI15","hsns_1","hsns_2","hsns_3","hsns_4","hsns_5","hsns_6","hsns_7","hsns_8","hsns_9","hsns_10","subj_idx","friend_name","ParticipantID","value","success","user_agent","responses","item_order","radio_event_ids","radio_event_times","key_event_times","mouse_event_times","straightlining","zigzagging","honeypot","timeout","failed_images","failed_audio","failed_video","version_attrib","version_target","correct","IAT","screen_id","task_id","RT","condition","word","varname","summary","version_attrib2","version_target2","time_stamp","view_history","response_type","key_press","avg_frame_time","center_x","center_y","correct_response","identity","Image","question_order"
"13215","
   <p><div style = ""color: white;font-size:25px;"">您好，欢迎参加本次实验。</div> </p>
   <p><div style = ""color: white;font-size:25px;"">为充分保障您的权利，请确保您已经知晓并同意《参与实验同意书》以及《数据公开知情同意书》。</div></p>
   <p><div style = ""color: white;font-size:25px;"">如果您未见过上述内容，请咨询实验员。</div></p>
   <p><div style = ""color: white;font-size:25px;"">如果您选择继续实验，则表示您已经清楚两份知情同意书的内容并同意。</div></p>
   <p><div style = ""color: red;font-size:30px;"">请确保您记得day0的实验编号，您将在本次实验输入该编号，若您忘记，请咨询实验员后作答。</div></p>
   <p> <div style = ""color: green;font-size:25px;""><按空格键至下页></div> </p>
   "," ","html-keyboard-response","0","13216","0.0-0.0","3","4","4","3","4","4","3","3","4","4","5","5","4","4","4","5","5","5","4","4","1","1","2","2","2","1","1","1","2","0","0","1","1","0","0","0","1","0","0","1","0","1","0","0","4","1","2","2","1","3","5","4","1","2","656564690050088960","张","358","","","","","","","","","","","","","","","","","","","","","","","","","","","","","","","","","","","","","","","",""
"","","","call-function","1","13218","0.0-1.0-0.0","3","4","4","3","4","4","3","3","4","4","5","5","4","4","4","5","5","5","4","4","1","1","2","2","2","1","1","1","2","0","0","1","1","0","0","0","1","0","0","1","0","1","0","0","4","1","2","2","1","3","5","4","1","2","656564690050088960","张","358","","","","","","","","","","","","","","","","","","","","","","","","","","","","","","","","","","","","","","","",""
"45454","","{""friend_name"":""张"",""ParticipantID"":""358""}","survey-html-form","2","58672","0.0-1.0-1.0","3","4","4","3","4","4","3","3","4","4","5","5","4","4","4","5","5","5","4","4","1","1","2","2","2","1","1","1","2","0","0","1","1","0","0","0","1","0","0","1","0","1","0","0","4","1","2","2","1","3","5","4","1","2","656564690050088960","张","358","","","","","","","","","","","","","","","","","","","","","","","","","","","","","","","","","","","","","","","",""
"","","","fullscreen","3","60283","0.0-2.0","3","4","4","3","4","4","3","3","4","4","5","5","4","4","4","5","5","5","4","4","1","1","2","2","2","1","1","1","2","0","0","1","1","0","0","0","1","0","0","1","0","1","0","0","4","1","2","2","1","3","5","4","1","2","656564690050088960","张","358","","true","{}","","","","","","","","","","","","","","","","","","","","","","","","","","","","","","","","","","","","",""
"73779.80000007153","","{""Q01"":""3"",""Q02"":""4"",""Q03"":""4"",""Q04"":""3"",""Q05"":""4"",""Q06"":""4"",""Q07"":""3"",""Q08"":""3"",""Q09"":""4"",""Q10"":""4""}","survey-template","4","134065","0.0-3.0","3","4","4","3","4","4","3","3","4","4","5","5","4","4","4","5","5","5","4","4","1","1","2","2","2","1","1","1","2","0","0","1","1","0","0","0","1","0","0","1","0","1","0","0","4","1","2","2","1","3","5","4","1","2","656564690050088960","张","358","","","","{""Q01"":""3"",""Q02"":""4"",""Q03"":""4"",""Q04"":""3"",""Q05"":""4"",""Q06"":""4"",""Q07"":""3"",""Q08"":""3"",""Q09"":""4"",""Q10"":""4""}","[0,1,2,3,4,5,6,7,8,9]","[""Q01"",""Q02"",""Q03"",""Q04"",""Q05"",""Q06"",""Q07"",""Q08"",""Q09"",""Q08"",""Q08"",""Q08"",""Q10"",""Q10"",""Q08""]","[3666.8000000715256,5082.600000023842,6746.899999976158,8218.899999976158,10074.800000071526,11364.100000023842,13530.800000071526,17874.700000047684,19626.600000023842,20434.800000071526,21162.800000071526,23114.600000023842,26754.5,67514.80000007153,70186.5]","[]","[906.8000000715256,3666.8000000715256,5082.600000023842,6746.899999976158,8218.899999976158,10074.800000071526,11364.100000023842,13530.800000071526,17874.700000047684,19626.600000023842,20434.800000071526,21162.800000071526,23114.600000023842,23547.100000023842,26754.5,27147,39914.800000071526,41962.800000071526,43155.300000071526,44850.60000002384,46610.700000047684,47874.60000002384,56235.200000047684,57850.60000002384,60754.60000002384,67514.80000007153,70186.5,73778.89999997616]","0.4","0.6666666666666666","0","","","","","","","","","","","","","","","","","","","","","","","","","","","",""
"94802.89999997616","","{""Q01"":""5"",""Q02"":""5"",""Q03"":""4"",""Q04"":""4"",""Q05"":""4"",""Q06"":""5"",""Q07"":""5"",""Q08"":""5"",""Q09"":""4"",""Q10"":""4""}","survey-template","5","228873","0.0-4.0","3","4","4","3","4","4","3","3","4","4","5","5","4","4","4","5","5","5","4","4","1","1","2","2","2","1","1","1","2","0","0","1","1","0","0","0","1","0","0","1","0","1","0","0","4","1","2","2","1","3","5","4","1","2","656564690050088960","张","358","","","","{""Q01"":""5"",""Q02"":""5"",""Q03"":""4"",""Q04"":""4"",""Q05"":""4"",""Q06"":""5"",""Q07"":""5"",""Q08"":""5"",""Q09"":""4"",""Q10"":""4""}","[0,1,2,3,4,5,6,7,8,9]","[""Q01"",""Q02"",""Q03"",""Q04"",""Q05"",""Q06"",""Q07"",""Q08"",""Q09"",""Q10""]","[3074,5186.100000023842,6611.299999952316,9265.899999976158,13939.399999976158,17682.200000047684,19906,22850.200000047684,27490.200000047684,34034.39999997616]","[]","[738.2000000476837,1810.3999999761581,3074,5186.100000023842,6611.299999952316,8282.5,9265.899999976158,12594.299999952316,13939.399999976158,14522,17682.200000047684,18170.299999952316,19906,20490.100000023842,22850.200000047684,23250.299999952316,26802,27490.200000047684,27922.100000023842,30602.200000047684,34034.39999997616,34714.299999952316,37498,41986.10000002384,47634.10000002384,51346,54730.10000002384,55650,59986.200000047684,62410.10000002384,66434.20000004768,69330.10000002384,71394.20000004768,74722,78026.10000002384,85954.20000004768,94802.10000002384]","0.3","0.3333333333333333","0","","","","","","","","","","","","","","","","","","","","","","","","","","","",""
"","","","preload","6","229227","0.0-5.0","3","4","4","3","4","4","3","3","4","4","5","5","4","4","4","5","5","5","4","4","1","1","2","2","2","1","1","1","2","0","0","1","1","0","0","0","1","0","0","1","0","1","0","0","4","1","2","2","1","3","5","4","1","2","656564690050088960","张","358","","true","","","","","","","","","","","false","[]","[]","[]","","","","","","","","","","","","","","","","","","","","","","","",""
"11076","
    <h3>词语分类任务</h3>
    <p>在接下来的任务中，你需要对一系列词语进行分类。</p>
    <p>请先熟悉这些词语，这有利于你完成接下来的任务。</p>
    <table align=""center"" border=1 cellpadding=3 cellspacing=0>
    <tr> <th>类别</th> <th>词语</th> </tr>
    <tr> <td>&emsp;积极&emsp;</td> <td>&emsp;能干、全能、全才、高效、精干、天才&emsp;</td> </tr>
    <tr> <td>&emsp;消极&emsp;</td> <td>&emsp;无能、低能、废物、拙笨、愚钝、蠢笨&emsp;</td> </tr>
    <tr> <td>&emsp;自我&emsp;</td> <td>&emsp;我、我的、自己、自己的、本人、本人的&emsp;</td> </tr>
    <tr> <td>&emsp;他人&emsp;</td> <td>&emsp;他、他的、别人、别人的、他人、他人的&emsp;</td> </tr>
    </table><br/>","0","html-button-response","7","240304","0.0-6.0-0.0-0.0","3","4","4","3","4","4","3","3","4","4","5","5","4","4","4","5","5","5","4","4","1","1","2","2","2","1","1","1","2","0","0","1","1","0","0","0","1","0","0","1","0","1","0","0","4","1","2","2","1","3","5","4","1","2","656564690050088960","张","358","","","","","","","","","","","","","","","","","1","1","","","","","","","","","","","","","","","","","","","","","",""
"6878","
    <div class=""tag-bottom"">
    <p> —— 任务1：对“自我”词和“他人”词分类 ——<p/>
    不同词语会出现在屏幕中央，类别标签将始终显示在屏幕上方<p/>   
    <span style=""color:#FFD866""><b>请根据上方标签的提示，尽可能正确并且快速地做出按键反应</b></span><p/>
    当按键错误时屏幕中会出现<span style=""color:red""> X </span>，需要按另一个键纠正才能继续<br/><p/>
    请把双手食指分别放在键盘的“E”键和“I”键上<p/>
    按<空格键>开始
    </p></div>"," ","html-keyboard-response","8","247183","0.0-6.0-0.0-1.0","3","4","4","3","4","4","3","3","4","4","5","5","4","4","4","5","5","5","4","4","1","1","2","2","2","1","1","1","2","0","0","1","1","0","0","0","1","0","0","1","0","1","0","0","4","1","2","2","1","3","5","4","1","2","656564690050088960","张","358","","","","","","","","","","","","","","","","","","","","","","","","","","","","","","","","","","","","","","","",""
"null","","null","html-keyboard-response","9","247435","0.0-6.0-0.0-2.0-0.0","3","4","4","3","4","4","3","3","4","4","5","5","4","4","4","5","5","5","4","4","1","1","2","2","2","1","1","1","2","0","0","1","1","0","0","0","1","0","0","1","0","1","0","0","4","1","2","2","1","3","5","4","1","2","656564690050088960","张","358","","","","","","","","","","","","","","","","","","","","","","","","","","","","","","","","","","","","","","","",""
"852","<p style=""color:rgb(150, 250, 100); font-size: 35px;"">自己的</p>","e","categorize-html","10","248288","0.0-6.0-0.0-2.0-1.0","3","4","4","3","4","4","3","3","4","4","5","5","4","4","4","5","5","5","4","4","1","1","2","2","2","1","1","1","2","0","0","1","1","0","0","0","1","0","0","1","0","1","0","0","4","1","2","2","1","3","5","4","1","2","656564690050088960","张","358","","","","","","","","","","","","","","","","","","","true","1","1","ability","852","self","自己的","","","","","","","","","","","","","","",""
"null","","null","html-keyboard-response","11","248539","0.0-6.0-0.0-2.0-0.1","3","4","4","3","4","4","3","3","4","4","5","5","4","4","4","5","5","5","4","4","1","1","2","2","2","1","1","1","2","0","0","1","1","0","0","0","1","0","0","1","0","1","0","0","4","1","2","2","1","3","5","4","1","2","656564690050088960","张","358","","","","","","","","","","","","","","","","","","","","","","","","","","","","","","","","","","","","","","","",""
"645","<p style=""color:rgb(150, 250, 100); font-size: 35px;"">本人</p>","e","categorize-html","12","249184","0.0-6.0-0.0-2.0-1.1","3","4","4","3","4","4","3","3","4","4","5","5","4","4","4","5","5","5","4","4","1","1","2","2","2","1","1","1","2","0","0","1","1","0","0","0","1","0","0","1","0","1","0","0","4","1","2","2","1","3","5","4","1","2","656564690050088960","张","358","","","","","","","","","","","","","","","","","","","true","1","1","ability","645","self","本人","","","","","","","","","","","","","","",""
"null","","null","html-keyboard-response","13","249436","0.0-6.0-0.0-2.0-0.2","3","4","4","3","4","4","3","3","4","4","5","5","4","4","4","5","5","5","4","4","1","1","2","2","2","1","1","1","2","0","0","1","1","0","0","0","1","0","0","1","0","1","0","0","4","1","2","2","1","3","5","4","1","2","656564690050088960","张","358","","","","","","","","","","","","","","","","","","","","","","","","","","","","","","","","","","","","","","","",""
"420","<p style=""color:rgb(150, 250, 100); font-size: 35px;"">本人的</p>","e","categorize-html","14","249856","0.0-6.0-0.0-2.0-1.2","3","4","4","3","4","4","3","3","4","4","5","5","4","4","4","5","5","5","4","4","1","1","2","2","2","1","1","1","2","0","0","1","1","0","0","0","1","0","0","1","0","1","0","0","4","1","2","2","1","3","5","4","1","2","656564690050088960","张","358","","","","","","","","","","","","","","","","","","","true","1","1","ability","420","self","本人的","","","","","","","","","","","","","","",""
"null","","null","html-keyboard-response","15","250107","0.0-6.0-0.0-2.0-0.3","3","4","4","3","4","4","3","3","4","4","5","5","4","4","4","5","5","5","4","4","1","1","2","2","2","1","1","1","2","0","0","1","1","0","0","0","1","0","0","1","0","1","0","0","4","1","2","2","1","3","5","4","1","2","656564690050088960","张","358","","","","","","","","","","","","","","","","","","","","","","","","","","","","","","","","","","","","","","","",""
"421","<p style=""color:rgb(150, 250, 100); font-size: 35px;"">别人的</p>","e","categorize-html","16","250898","0.0-6.0-0.0-2.0-1.3","3","4","4","3","4","4","3","3","4","4","5","5","4","4","4","5","5","5","4","4","1","1","2","2","2","1","1","1","2","0","0","1","1","0","0","0","1","0","0","1","0","1","0","0","4","1","2","2","1","3","5","4","1","2","656564690050088960","张","358","","","","","","","","","","","","","","","","","","","false","1","1","ability","421","other","别人的","","","","","","","","","","","","","","",""
"null","","null","html-keyboard-response","17","251149","0.0-6.0-0.0-2.0-0.4","3","4","4","3","4","4","3","3","4","4","5","5","4","4","4","5","5","5","4","4","1","1","2","2","2","1","1","1","2","0","0","1","1","0","0","0","1","0","0","1","0","1","0","0","4","1","2","2","1","3","5","4","1","2","656564690050088960","张","358","","","","","","","","","","","","","","","","","","","","","","","","","","","","","","","","","","","","","","","",""
"610","<p style=""color:rgb(150, 250, 100); font-size: 35px;"">他</p>","i","categorize-html","18","251760","0.0-6.0-0.0-2.0-1.4","3","4","4","3","4","4","3","3","4","4","5","5","4","4","4","5","5","5","4","4","1","1","2","2","2","1","1","1","2","0","0","1","1","0","0","0","1","0","0","1","0","1","0","0","4","1","2","2","1","3","5","4","1","2","656564690050088960","张","358","","","","","","","","","","","","","","","","","","","true","1","1","ability","610","other","他","","","","","","","","","","","","","","",""
"null","","null","html-keyboard-response","19","252011","0.0-6.0-0.0-2.0-0.5","3","4","4","3","4","4","3","3","4","4","5","5","4","4","4","5","5","5","4","4","1","1","2","2","2","1","1","1","2","0","0","1","1","0","0","0","1","0","0","1","0","1","0","0","4","1","2","2","1","3","5","4","1","2","656564690050088960","张","358","","","","","","","","","","","","","","","","","","","","","","","","","","","","","","","","","","","","","","","",""
"565","<p style=""color:rgb(150, 250, 100); font-size: 35px;"">他人的</p>","i","categorize-html","20","252576","0.0-6.0-0.0-2.0-1.5","3","4","4","3","4","4","3","3","4","4","5","5","4","4","4","5","5","5","4","4","1","1","2","2","2","1","1","1","2","0","0","1","1","0","0","0","1","0","0","1","0","1","0","0","4","1","2","2","1","3","5","4","1","2","656564690050088960","张","358","","","","","","","","","","","","","","","","","","","true","1","1","ability","565","other","他人的","","","","","","","","","","","","","","",""
"null","","null","html-keyboard-response","21","252827","0.0-6.0-0.0-2.0-0.6","3","4","4","3","4","4","3","3","4","4","5","5","4","4","4","5","5","5","4","4","1","1","2","2","2","1","1","1","2","0","0","1","1","0","0","0","1","0","0","1","0","1","0","0","4","1","2","2","1","3","5","4","1","2","656564690050088960","张","358","","","","","","","","","","","","","","","","","","","","","","","","","","","","","","","","","","","","","","","",""
"492","<p style=""color:rgb(150, 250, 100); font-size: 35px;"">他的</p>","i","categorize-html","22","253320","0.0-6.0-0.0-2.0-1.6","3","4","4","3","4","4","3","3","4","4","5","5","4","4","4","5","5","5","4","4","1","1","2","2","2","1","1","1","2","0","0","1","1","0","0","0","1","0","0","1","0","1","0","0","4","1","2","2","1","3","5","4","1","2","656564690050088960","张","358","","","","","","","","","","","","","","","","","","","true","1","1","ability","492","other","他的","","","","","","","","","","","","","","",""
"null","","null","html-keyboard-response","23","253572","0.0-6.0-0.0-2.0-0.7","3","4","4","3","4","4","3","3","4","4","5","5","4","4","4","5","5","5","4","4","1","1","2","2","2","1","1","1","2","0","0","1","1","0","0","0","1","0","0","1","0","1","0","0","4","1","2","2","1","3","5","4","1","2","656564690050088960","张","358","","","","","","","","","","","","","","","","","","","","","","","","","","","","","","","","","","","","","","","",""
"628","<p style=""color:rgb(150, 250, 100); font-size: 35px;"">我的</p>","e","categorize-html","24","254200","0.0-6.0-0.0-2.0-1.7","3","4","4","3","4","4","3","3","4","4","5","5","4","4","4","5","5","5","4","4","1","1","2","2","2","1","1","1","2","0","0","1","1","0","0","0","1","0","0","1","0","1","0","0","4","1","2","2","1","3","5","4","1","2","656564690050088960","张","358","","","","","","","","","","","","","","","","","","","true","1","1","ability","628","self","我的","","","","","","","","","","","","","","",""
"null","","null","html-keyboard-response","25","254451","0.0-6.0-0.0-2.0-0.8","3","4","4","3","4","4","3","3","4","4","5","5","4","4","4","5","5","5","4","4","1","1","2","2","2","1","1","1","2","0","0","1","1","0","0","0","1","0","0","1","0","1","0","0","4","1","2","2","1","3","5","4","1","2","656564690050088960","张","358","","","","","","","","","","","","","","","","","","","","","","","","","","","","","","","","","","","","","","","",""
"997","<p style=""color:rgb(150, 250, 100); font-size: 35px;"">别人</p>","i","categorize-html","26","255448","0.0-6.0-0.0-2.0-1.8","3","4","4","3","4","4","3","3","4","4","5","5","4","4","4","5","5","5","4","4","1","1","2","2","2","1","1","1","2","0","0","1","1","0","0","0","1","0","0","1","0","1","0","0","4","1","2","2","1","3","5","4","1","2","656564690050088960","张","358","","","","","","","","","","","","","","","","","","","true","1","1","ability","997","other","别人","","","","","","","","","","","","","","",""
"null","","null","html-keyboard-response","27","255698","0.0-6.0-0.0-2.0-0.9","3","4","4","3","4","4","3","3","4","4","5","5","4","4","4","5","5","5","4","4","1","1","2","2","2","1","1","1","2","0","0","1","1","0","0","0","1","0","0","1","0","1","0","0","4","1","2","2","1","3","5","4","1","2","656564690050088960","张","358","","","","","","","","","","","","","","","","","","","","","","","","","","","","","","","","","","","","","","","",""
"605","<p style=""color:rgb(150, 250, 100); font-size: 35px;"">自己</p>","e","categorize-html","28","256305","0.0-6.0-0.0-2.0-1.9","3","4","4","3","4","4","3","3","4","4","5","5","4","4","4","5","5","5","4","4","1","1","2","2","2","1","1","1","2","0","0","1","1","0","0","0","1","0","0","1","0","1","0","0","4","1","2","2","1","3","5","4","1","2","656564690050088960","张","358","","","","","","","","","","","","","","","","","","","true","1","1","ability","605","self","自己","","","","","","","","","","","","","","",""
"null","","null","html-keyboard-response","29","256556","0.0-6.0-0.0-2.0-0.10","3","4","4","3","4","4","3","3","4","4","5","5","4","4","4","5","5","5","4","4","1","1","2","2","2","1","1","1","2","0","0","1","1","0","0","0","1","0","0","1","0","1","0","0","4","1","2","2","1","3","5","4","1","2","656564690050088960","张","358","","","","","","","","","","","","","","","","","","","","","","","","","","","","","","","","","","","","","","","",""
"460","<p style=""color:rgb(150, 250, 100); font-size: 35px;"">我</p>","e","categorize-html","30","257016","0.0-6.0-0.0-2.0-1.10","3","4","4","3","4","4","3","3","4","4","5","5","4","4","4","5","5","5","4","4","1","1","2","2","2","1","1","1","2","0","0","1","1","0","0","0","1","0","0","1","0","1","0","0","4","1","2","2","1","3","5","4","1","2","656564690050088960","张","358","","","","","","","","","","","","","","","","","","","true","1","1","ability","460","self","我","","","","","","","","","","","","","","",""
"null","","null","html-keyboard-response","31","257267","0.0-6.0-0.0-2.0-0.11","3","4","4","3","4","4","3","3","4","4","5","5","4","4","4","5","5","5","4","4","1","1","2","2","2","1","1","1","2","0","0","1","1","0","0","0","1","0","0","1","0","1","0","0","4","1","2","2","1","3","5","4","1","2","656564690050088960","张","358","","","","","","","","","","","","","","","","","","","","","","","","","","","","","","","","","","","","","","","",""
"596","<p style=""color:rgb(150, 250, 100); font-size: 35px;"">他人</p>","i","categorize-html","32","257864","0.0-6.0-0.0-2.0-1.11","3","4","4","3","4","4","3","3","4","4","5","5","4","4","4","5","5","5","4","4","1","1","2","2","2","1","1","1","2","0","0","1","1","0","0","0","1","0","0","1","0","1","0","0","4","1","2","2","1","3","5","4","1","2","656564690050088960","张","358","","","","","","","","","","","","","","","","","","","true","1","1","ability","596","other","他人","","","","","","","","","","","","","","",""
"1552","
    <div class=""tag-bottom""><p>
    —— 任务2：对“积极”词和“消极”词分类 ——<p/>   
    <span style=""color:#78DCE8""><b>注意上方，类别标签和需要分类的词语都已经改变</b></span><p/>
    <span style=""color:#FFD866""><b>请根据上方标签的提示，尽可能正确并且快速地做出按键反应</b></span><p/>
    当按键错误时屏幕中会出现<span style=""color:red""> X </span>，需要按另一个键纠正才能继续<br/><p/>
    请把双手食指分别放在键盘的“E”键和“I”键上<p/>
    按<空格键>开始
    </p></div>"," ","html-keyboard-response","33","259416","0.0-6.0-0.0-3.0","3","4","4","3","4","4","3","3","4","4","5","5","4","4","4","5","5","5","4","4","1","1","2","2","2","1","1","1","2","0","0","1","1","0","0","0","1","0","0","1","0","1","0","0","4","1","2","2","1","3","5","4","1","2","656564690050088960","张","358","","","","","","","","","","","","","","","","","","","","","","","","","","","","","","","","","","","","","","","",""
"null","","null","html-keyboard-response","34","259667","0.0-6.0-0.0-4.0-0.0","3","4","4","3","4","4","3","3","4","4","5","5","4","4","4","5","5","5","4","4","1","1","2","2","2","1","1","1","2","0","0","1","1","0","0","0","1","0","0","1","0","1","0","0","4","1","2","2","1","3","5","4","1","2","656564690050088960","张","358","","","","","","","","","","","","","","","","","","","","","","","","","","","","","","","","","","","","","","","",""
"1189","<p style=""color:white; font-size: 35px;"">全能</p>","e","categorize-html","35","260857","0.0-6.0-0.0-4.0-1.0","3","4","4","3","4","4","3","3","4","4","5","5","4","4","4","5","5","5","4","4","1","1","2","2","2","1","1","1","2","0","0","1","1","0","0","0","1","0","0","1","0","1","0","0","4","1","2","2","1","3","5","4","1","2","656564690050088960","张","358","","","","","","","","","","","","","","","","","","","true","2","2","ability","1189","positive","全能","","","","","","","","","","","","","","",""
"null","","null","html-keyboard-response","36","261108","0.0-6.0-0.0-4.0-0.1","3","4","4","3","4","4","3","3","4","4","5","5","4","4","4","5","5","5","4","4","1","1","2","2","2","1","1","1","2","0","0","1","1","0","0","0","1","0","0","1","0","1","0","0","4","1","2","2","1","3","5","4","1","2","656564690050088960","张","358","","","","","","","","","","","","","","","","","","","","","","","","","","","","","","","","","","","","","","","",""
"684","<p style=""color:white; font-size: 35px;"">无能</p>","i","categorize-html","37","261792","0.0-6.0-0.0-4.0-1.1","3","4","4","3","4","4","3","3","4","4","5","5","4","4","4","5","5","5","4","4","1","1","2","2","2","1","1","1","2","0","0","1","1","0","0","0","1","0","0","1","0","1","0","0","4","1","2","2","1","3","5","4","1","2","656564690050088960","张","358","","","","","","","","","","","","","","","","","","","true","2","2","ability","684","negative","无能","","","","","","","","","","","","","","",""
"null","","null","html-keyboard-response","38","262043","0.0-6.0-0.0-4.0-0.2","3","4","4","3","4","4","3","3","4","4","5","5","4","4","4","5","5","5","4","4","1","1","2","2","2","1","1","1","2","0","0","1","1","0","0","0","1","0","0","1","0","1","0","0","4","1","2","2","1","3","5","4","1","2","656564690050088960","张","358","","","","","","","","","","","","","","","","","","","","","","","","","","","","","","","","","","","","","","","",""
"556","<p style=""color:white; font-size: 35px;"">愚钝</p>","i","categorize-html","39","262600","0.0-6.0-0.0-4.0-1.2","3","4","4","3","4","4","3","3","4","4","5","5","4","4","4","5","5","5","4","4","1","1","2","2","2","1","1","1","2","0","0","1","1","0","0","0","1","0","0","1","0","1","0","0","4","1","2","2","1","3","5","4","1","2","656564690050088960","张","358","","","","","","","","","","","","","","","","","","","true","2","2","ability","556","negative","愚钝","","","","","","","","","","","","","","",""
"null","","null","html-keyboard-response","40","262850","0.0-6.0-0.0-4.0-0.3","3","4","4","3","4","4","3","3","4","4","5","5","4","4","4","5","5","5","4","4","1","1","2","2","2","1","1","1","2","0","0","1","1","0","0","0","1","0","0","1","0","1","0","0","4","1","2","2","1","3","5","4","1","2","656564690050088960","张","358","","","","","","","","","","","","","","","","","","","","","","","","","","","","","","","","","","","","","","","",""
"781","<p style=""color:white; font-size: 35px;"">拙笨</p>","i","categorize-html","41","263632","0.0-6.0-0.0-4.0-1.3","3","4","4","3","4","4","3","3","4","4","5","5","4","4","4","5","5","5","4","4","1","1","2","2","2","1","1","1","2","0","0","1","1","0","0","0","1","0","0","1","0","1","0","0","4","1","2","2","1","3","5","4","1","2","656564690050088960","张","358","","","","","","","","","","","","","","","","","","","true","2","2","ability","781","negative","拙笨","","","","","","","","","","","","","","",""
"null","","null","html-keyboard-response","42","263883","0.0-6.0-0.0-4.0-0.4","3","4","4","3","4","4","3","3","4","4","5","5","4","4","4","5","5","5","4","4","1","1","2","2","2","1","1","1","2","0","0","1","1","0","0","0","1","0","0","1","0","1","0","0","4","1","2","2","1","3","5","4","1","2","656564690050088960","张","358","","","","","","","","","","","","","","","","","","","","","","","","","","","","","","","","","","","","","","","",""
"2589","<p style=""color:white; font-size: 35px;"">精干</p>","e","categorize-html","43","266472","0.0-6.0-0.0-4.0-1.4","3","4","4","3","4","4","3","3","4","4","5","5","4","4","4","5","5","5","4","4","1","1","2","2","2","1","1","1","2","0","0","1","1","0","0","0","1","0","0","1","0","1","0","0","4","1","2","2","1","3","5","4","1","2","656564690050088960","张","358","","","","","","","","","","","","","","","","","","","true","2","2","ability","2589","positive","精干","","","","","","","","","","","","","","",""
"null","","null","html-keyboard-response","44","266723","0.0-6.0-0.0-4.0-0.5","3","4","4","3","4","4","3","3","4","4","5","5","4","4","4","5","5","5","4","4","1","1","2","2","2","1","1","1","2","0","0","1","1","0","0","0","1","0","0","1","0","1","0","0","4","1","2","2","1","3","5","4","1","2","656564690050088960","张","358","","","","","","","","","","","","","","","","","","","","","","","","","","","","","","","","","","","","","","","",""
"853","<p style=""color:white; font-size: 35px;"">天才</p>","e","categorize-html","45","267576","0.0-6.0-0.0-4.0-1.5","3","4","4","3","4","4","3","3","4","4","5","5","4","4","4","5","5","5","4","4","1","1","2","2","2","1","1","1","2","0","0","1","1","0","0","0","1","0","0","1","0","1","0","0","4","1","2","2","1","3","5","4","1","2","656564690050088960","张","358","","","","","","","","","","","","","","","","","","","true","2","2","ability","853","positive","天才","","","","","","","","","","","","","","",""
"null","","null","html-keyboard-response","46","267827","0.0-6.0-0.0-4.0-0.6","3","4","4","3","4","4","3","3","4","4","5","5","4","4","4","5","5","5","4","4","1","1","2","2","2","1","1","1","2","0","0","1","1","0","0","0","1","0","0","1","0","1","0","0","4","1","2","2","1","3","5","4","1","2","656564690050088960","张","358","","","","","","","","","","","","","","","","","","","","","","","","","","","","","","","","","","","","","","","",""
"701","<p style=""color:white; font-size: 35px;"">高效</p>","e","categorize-html","47","268528","0.0-6.0-0.0-4.0-1.6","3","4","4","3","4","4","3","3","4","4","5","5","4","4","4","5","5","5","4","4","1","1","2","2","2","1","1","1","2","0","0","1","1","0","0","0","1","0","0","1","0","1","0","0","4","1","2","2","1","3","5","4","1","2","656564690050088960","张","358","","","","","","","","","","","","","","","","","","","true","2","2","ability","701","positive","高效","","","","","","","","","","","","","","",""
"null","","null","html-keyboard-response","48","268779","0.0-6.0-0.0-4.0-0.7","3","4","4","3","4","4","3","3","4","4","5","5","4","4","4","5","5","5","4","4","1","1","2","2","2","1","1","1","2","0","0","1","1","0","0","0","1","0","0","1","0","1","0","0","4","1","2","2","1","3","5","4","1","2","656564690050088960","张","358","","","","","","","","","","","","","","","","","","","","","","","","","","","","","","","","","","","","","","","",""
"780","<p style=""color:white; font-size: 35px;"">蠢笨</p>","i","categorize-html","49","269560","0.0-6.0-0.0-4.0-1.7","3","4","4","3","4","4","3","3","4","4","5","5","4","4","4","5","5","5","4","4","1","1","2","2","2","1","1","1","2","0","0","1","1","0","0","0","1","0","0","1","0","1","0","0","4","1","2","2","1","3","5","4","1","2","656564690050088960","张","358","","","","","","","","","","","","","","","","","","","true","2","2","ability","780","negative","蠢笨","","","","","","","","","","","","","","",""
"null","","null","html-keyboard-response","50","269811","0.0-6.0-0.0-4.0-0.8","3","4","4","3","4","4","3","3","4","4","5","5","4","4","4","5","5","5","4","4","1","1","2","2","2","1","1","1","2","0","0","1","1","0","0","0","1","0","0","1","0","1","0","0","4","1","2","2","1","3","5","4","1","2","656564690050088960","张","358","","","","","","","","","","","","","","","","","","","","","","","","","","","","","","","","","","","","","","","",""
"548","<p style=""color:white; font-size: 35px;"">全才</p>","e","categorize-html","51","270360","0.0-6.0-0.0-4.0-1.8","3","4","4","3","4","4","3","3","4","4","5","5","4","4","4","5","5","5","4","4","1","1","2","2","2","1","1","1","2","0","0","1","1","0","0","0","1","0","0","1","0","1","0","0","4","1","2","2","1","3","5","4","1","2","656564690050088960","张","358","","","","","","","","","","","","","","","","","","","true","2","2","ability","548","positive","全才","","","","","","","","","","","","","","",""
"null","","null","html-keyboard-response","52","270611","0.0-6.0-0.0-4.0-0.9","3","4","4","3","4","4","3","3","4","4","5","5","4","4","4","5","5","5","4","4","1","1","2","2","2","1","1","1","2","0","0","1","1","0","0","0","1","0","0","1","0","1","0","0","4","1","2","2","1","3","5","4","1","2","656564690050088960","张","358","","","","","","","","","","","","","","","","","","","","","","","","","","","","","","","","","","","","","","","",""
"741","<p style=""color:white; font-size: 35px;"">能干</p>","e","categorize-html","53","271353","0.0-6.0-0.0-4.0-1.9","3","4","4","3","4","4","3","3","4","4","5","5","4","4","4","5","5","5","4","4","1","1","2","2","2","1","1","1","2","0","0","1","1","0","0","0","1","0","0","1","0","1","0","0","4","1","2","2","1","3","5","4","1","2","656564690050088960","张","358","","","","","","","","","","","","","","","","","","","true","2","2","ability","741","positive","能干","","","","","","","","","","","","","","",""
"null","","null","html-keyboard-response","54","271605","0.0-6.0-0.0-4.0-0.10","3","4","4","3","4","4","3","3","4","4","5","5","4","4","4","5","5","5","4","4","1","1","2","2","2","1","1","1","2","0","0","1","1","0","0","0","1","0","0","1","0","1","0","0","4","1","2","2","1","3","5","4","1","2","656564690050088960","张","358","","","","","","","","","","","","","","","","","","","","","","","","","","","","","","","","","","","","","","","",""
"803","<p style=""color:white; font-size: 35px;"">低能</p>","i","categorize-html","55","272408","0.0-6.0-0.0-4.0-1.10","3","4","4","3","4","4","3","3","4","4","5","5","4","4","4","5","5","5","4","4","1","1","2","2","2","1","1","1","2","0","0","1","1","0","0","0","1","0","0","1","0","1","0","0","4","1","2","2","1","3","5","4","1","2","656564690050088960","张","358","","","","","","","","","","","","","","","","","","","true","2","2","ability","803","negative","低能","","","","","","","","","","","","","","",""
"null","","null","html-keyboard-response","56","272659","0.0-6.0-0.0-4.0-0.11","3","4","4","3","4","4","3","3","4","4","5","5","4","4","4","5","5","5","4","4","1","1","2","2","2","1","1","1","2","0","0","1","1","0","0","0","1","0","0","1","0","1","0","0","4","1","2","2","1","3","5","4","1","2","656564690050088960","张","358","","","","","","","","","","","","","","","","","","","","","","","","","","","","","","","","","","","","","","","",""
"1533","<p style=""color:white; font-size: 35px;"">废物</p>","i","categorize-html","57","274192","0.0-6.0-0.0-4.0-1.11","3","4","4","3","4","4","3","3","4","4","5","5","4","4","4","5","5","5","4","4","1","1","2","2","2","1","1","1","2","0","0","1","1","0","0","0","1","0","0","1","0","1","0","0","4","1","2","2","1","3","5","4","1","2","656564690050088960","张","358","","","","","","","","","","","","","","","","","","","true","2","2","ability","1533","negative","废物","","","","","","","","","","","","","","",""
"888","
    <div class=""tag-bottom""><p>
    —— 任务3：对“自我/积极”词和“他人/消极”词分类 ——<p/>
    <span style=""color:#78DCE8""><b>注意上方，之前的四类词语将混合在一起交替呈现</b></span><p/>
    <span style=""color:#FFD866""><b>请根据上方标签的提示，尽可能正确并且快速地做出按键反应</b></span><p/>
    当按键错误时屏幕中会出现<span style=""color:red""> X </span>，需要按另一个键纠正才能继续<br/><p/>
    请把双手食指分别放在键盘的“E”键和“I”键上<p/>
    按<空格键>开始
    </p></div>"," ","html-keyboard-response","58","275081","0.0-6.0-0.0-5.0","3","4","4","3","4","4","3","3","4","4","5","5","4","4","4","5","5","5","4","4","1","1","2","2","2","1","1","1","2","0","0","1","1","0","0","0","1","0","0","1","0","1","0","0","4","1","2","2","1","3","5","4","1","2","656564690050088960","张","358","","","","","","","","","","","","","","","","","","","","","","","","","","","","","","","","","","","","","","","",""
"null","","null","html-keyboard-response","59","275332","0.0-6.0-0.0-6.0-0.0","3","4","4","3","4","4","3","3","4","4","5","5","4","4","4","5","5","5","4","4","1","1","2","2","2","1","1","1","2","0","0","1","1","0","0","0","1","0","0","1","0","1","0","0","4","1","2","2","1","3","5","4","1","2","656564690050088960","张","358","","","","","","","","","","","","","","","","","","","","","","","","","","","","","","","","","","","","","","","",""
"803","<p style=""color:rgb(150, 250, 100); font-size: 35px;"">别人</p>","i","categorize-html","60","276136","0.0-6.0-0.0-6.0-1.0","3","4","4","3","4","4","3","3","4","4","5","5","4","4","4","5","5","5","4","4","1","1","2","2","2","1","1","1","2","0","0","1","1","0","0","0","1","0","0","1","0","1","0","0","4","1","2","2","1","3","5","4","1","2","656564690050088960","张","358","","","","","","","","","","","","","","","","","","","true","3","3","ability","803","other","别人","","","","","","","","","","","","","","",""
"null","","null","html-keyboard-response","61","276387","0.0-6.0-0.0-6.0-0.1","3","4","4","3","4","4","3","3","4","4","5","5","4","4","4","5","5","5","4","4","1","1","2","2","2","1","1","1","2","0","0","1","1","0","0","0","1","0","0","1","0","1","0","0","4","1","2","2","1","3","5","4","1","2","656564690050088960","张","358","","","","","","","","","","","","","","","","","","","","","","","","","","","","","","","","","","","","","","","",""
"836","<p style=""color:white; font-size: 35px;"">全才</p>","e","categorize-html","62","277224","0.0-6.0-0.0-6.0-1.1","3","4","4","3","4","4","3","3","4","4","5","5","4","4","4","5","5","5","4","4","1","1","2","2","2","1","1","1","2","0","0","1","1","0","0","0","1","0","0","1","0","1","0","0","4","1","2","2","1","3","5","4","1","2","656564690050088960","张","358","","","","","","","","","","","","","","","","","","","true","3","3","ability","836","positive","全才","","","","","","","","","","","","","","",""
"null","","null","html-keyboard-response","63","277475","0.0-6.0-0.0-6.0-0.2","3","4","4","3","4","4","3","3","4","4","5","5","4","4","4","5","5","5","4","4","1","1","2","2","2","1","1","1","2","0","0","1","1","0","0","0","1","0","0","1","0","1","0","0","4","1","2","2","1","3","5","4","1","2","656564690050088960","张","358","","","","","","","","","","","","","","","","","","","","","","","","","","","","","","","","","","","","","","","",""
"621","<p style=""color:rgb(150, 250, 100); font-size: 35px;"">自己的</p>","e","categorize-html","64","278097","0.0-6.0-0.0-6.0-1.2","3","4","4","3","4","4","3","3","4","4","5","5","4","4","4","5","5","5","4","4","1","1","2","2","2","1","1","1","2","0","0","1","1","0","0","0","1","0","0","1","0","1","0","0","4","1","2","2","1","3","5","4","1","2","656564690050088960","张","358","","","","","","","","","","","","","","","","","","","true","3","3","ability","621","self","自己的","","","","","","","","","","","","","","",""
"null","","null","html-keyboard-response","65","278348","0.0-6.0-0.0-6.0-0.3","3","4","4","3","4","4","3","3","4","4","5","5","4","4","4","5","5","5","4","4","1","1","2","2","2","1","1","1","2","0","0","1","1","0","0","0","1","0","0","1","0","1","0","0","4","1","2","2","1","3","5","4","1","2","656564690050088960","张","358","","","","","","","","","","","","","","","","","","","","","","","","","","","","","","","","","","","","","","","",""
"667","<p style=""color:white; font-size: 35px;"">低能</p>","i","categorize-html","66","279016","0.0-6.0-0.0-6.0-1.3","3","4","4","3","4","4","3","3","4","4","5","5","4","4","4","5","5","5","4","4","1","1","2","2","2","1","1","1","2","0","0","1","1","0","0","0","1","0","0","1","0","1","0","0","4","1","2","2","1","3","5","4","1","2","656564690050088960","张","358","","","","","","","","","","","","","","","","","","","true","3","3","ability","667","negative","低能","","","","","","","","","","","","","","",""
"null","","null","html-keyboard-response","67","279267","0.0-6.0-0.0-6.0-0.4","3","4","4","3","4","4","3","3","4","4","5","5","4","4","4","5","5","5","4","4","1","1","2","2","2","1","1","1","2","0","0","1","1","0","0","0","1","0","0","1","0","1","0","0","4","1","2","2","1","3","5","4","1","2","656564690050088960","张","358","","","","","","","","","","","","","","","","","","","","","","","","","","","","","","","","","","","","","","","",""
"556","<p style=""color:rgb(150, 250, 100); font-size: 35px;"">他人的</p>","i","categorize-html","68","279824","0.0-6.0-0.0-6.0-1.4","3","4","4","3","4","4","3","3","4","4","5","5","4","4","4","5","5","5","4","4","1","1","2","2","2","1","1","1","2","0","0","1","1","0","0","0","1","0","0","1","0","1","0","0","4","1","2","2","1","3","5","4","1","2","656564690050088960","张","358","","","","","","","","","","","","","","","","","","","true","3","3","ability","556","other","他人的","","","","","","","","","","","","","","",""
"null","","null","html-keyboard-response","69","280075","0.0-6.0-0.0-6.0-0.5","3","4","4","3","4","4","3","3","4","4","5","5","4","4","4","5","5","5","4","4","1","1","2","2","2","1","1","1","2","0","0","1","1","0","0","0","1","0","0","1","0","1","0","0","4","1","2","2","1","3","5","4","1","2","656564690050088960","张","358","","","","","","","","","","","","","","","","","","","","","","","","","","","","","","","","","","","","","","","",""
"1365","<p style=""color:white; font-size: 35px;"">全能</p>","e","categorize-html","70","281441","0.0-6.0-0.0-6.0-1.5","3","4","4","3","4","4","3","3","4","4","5","5","4","4","4","5","5","5","4","4","1","1","2","2","2","1","1","1","2","0","0","1","1","0","0","0","1","0","0","1","0","1","0","0","4","1","2","2","1","3","5","4","1","2","656564690050088960","张","358","","","","","","","","","","","","","","","","","","","true","3","3","ability","1365","positive","全能","","","","","","","","","","","","","","",""
"null","","null","html-keyboard-response","71","281691","0.0-6.0-0.0-6.0-0.6","3","4","4","3","4","4","3","3","4","4","5","5","4","4","4","5","5","5","4","4","1","1","2","2","2","1","1","1","2","0","0","1","1","0","0","0","1","0","0","1","0","1","0","0","4","1","2","2","1","3","5","4","1","2","656564690050088960","张","358","","","","","","","","","","","","","","","","","","","","","","","","","","","","","","","","","","","","","","","",""
"540","<p style=""color:rgb(150, 250, 100); font-size: 35px;"">自己</p>","e","categorize-html","72","282232","0.0-6.0-0.0-6.0-1.6","3","4","4","3","4","4","3","3","4","4","5","5","4","4","4","5","5","5","4","4","1","1","2","2","2","1","1","1","2","0","0","1","1","0","0","0","1","0","0","1","0","1","0","0","4","1","2","2","1","3","5","4","1","2","656564690050088960","张","358","","","","","","","","","","","","","","","","","","","true","3","3","ability","540","self","自己","","","","","","","","","","","","","","",""
"null","","null","html-keyboard-response","73","282482","0.0-6.0-0.0-6.0-0.7","3","4","4","3","4","4","3","3","4","4","5","5","4","4","4","5","5","5","4","4","1","1","2","2","2","1","1","1","2","0","0","1","1","0","0","0","1","0","0","1","0","1","0","0","4","1","2","2","1","3","5","4","1","2","656564690050088960","张","358","","","","","","","","","","","","","","","","","","","","","","","","","","","","","","","","","","","","","","","",""
"669","<p style=""color:white; font-size: 35px;"">愚钝</p>","i","categorize-html","74","283152","0.0-6.0-0.0-6.0-1.7","3","4","4","3","4","4","3","3","4","4","5","5","4","4","4","5","5","5","4","4","1","1","2","2","2","1","1","1","2","0","0","1","1","0","0","0","1","0","0","1","0","1","0","0","4","1","2","2","1","3","5","4","1","2","656564690050088960","张","358","","","","","","","","","","","","","","","","","","","true","3","3","ability","669","negative","愚钝","","","","","","","","","","","","","","",""
"null","","null","html-keyboard-response","75","283402","0.0-6.0-0.0-6.0-0.8","3","4","4","3","4","4","3","3","4","4","5","5","4","4","4","5","5","5","4","4","1","1","2","2","2","1","1","1","2","0","0","1","1","0","0","0","1","0","0","1","0","1","0","0","4","1","2","2","1","3","5","4","1","2","656564690050088960","张","358","","","","","","","","","","","","","","","","","","","","","","","","","","","","","","","","","","","","","","","",""
"2933","<p style=""color:rgb(150, 250, 100); font-size: 35px;"">他的</p>","i","categorize-html","76","286336","0.0-6.0-0.0-6.0-1.8","3","4","4","3","4","4","3","3","4","4","5","5","4","4","4","5","5","5","4","4","1","1","2","2","2","1","1","1","2","0","0","1","1","0","0","0","1","0","0","1","0","1","0","0","4","1","2","2","1","3","5","4","1","2","656564690050088960","张","358","","","","","","","","","","","","","","","","","","","true","3","3","ability","2933","other","他的","","","","","","","","","","","","","","",""
"null","","null","html-keyboard-response","77","286587","0.0-6.0-0.0-6.0-0.9","3","4","4","3","4","4","3","3","4","4","5","5","4","4","4","5","5","5","4","4","1","1","2","2","2","1","1","1","2","0","0","1","1","0","0","0","1","0","0","1","0","1","0","0","4","1","2","2","1","3","5","4","1","2","656564690050088960","张","358","","","","","","","","","","","","","","","","","","","","","","","","","","","","","","","","","","","","","","","",""
"1164","<p style=""color:white; font-size: 35px;"">精干</p>","e","categorize-html","78","287752","0.0-6.0-0.0-6.0-1.9","3","4","4","3","4","4","3","3","4","4","5","5","4","4","4","5","5","5","4","4","1","1","2","2","2","1","1","1","2","0","0","1","1","0","0","0","1","0","0","1","0","1","0","0","4","1","2","2","1","3","5","4","1","2","656564690050088960","张","358","","","","","","","","","","","","","","","","","","","true","3","3","ability","1164","positive","精干","","","","","","","","","","","","","","",""
"null","","null","html-keyboard-response","79","288004","0.0-6.0-0.0-6.0-0.10","3","4","4","3","4","4","3","3","4","4","5","5","4","4","4","5","5","5","4","4","1","1","2","2","2","1","1","1","2","0","0","1","1","0","0","0","1","0","0","1","0","1","0","0","4","1","2","2","1","3","5","4","1","2","656564690050088960","张","358","","","","","","","","","","","","","","","","","","","","","","","","","","","","","","","","","","","","","","","",""
"547","<p style=""color:rgb(150, 250, 100); font-size: 35px;"">我的</p>","e","categorize-html","80","288552","0.0-6.0-0.0-6.0-1.10","3","4","4","3","4","4","3","3","4","4","5","5","4","4","4","5","5","5","4","4","1","1","2","2","2","1","1","1","2","0","0","1","1","0","0","0","1","0","0","1","0","1","0","0","4","1","2","2","1","3","5","4","1","2","656564690050088960","张","358","","","","","","","","","","","","","","","","","","","true","3","3","ability","547","self","我的","","","","","","","","","","","","","","",""
"null","","null","html-keyboard-response","81","288804","0.0-6.0-0.0-6.0-0.11","3","4","4","3","4","4","3","3","4","4","5","5","4","4","4","5","5","5","4","4","1","1","2","2","2","1","1","1","2","0","0","1","1","0","0","0","1","0","0","1","0","1","0","0","4","1","2","2","1","3","5","4","1","2","656564690050088960","张","358","","","","","","","","","","","","","","","","","","","","","","","","","","","","","","","","","","","","","","","",""
"3030","<p style=""color:white; font-size: 35px;"">废物</p>","i","categorize-html","82","291834","0.0-6.0-0.0-6.0-1.11","3","4","4","3","4","4","3","3","4","4","5","5","4","4","4","5","5","5","4","4","1","1","2","2","2","1","1","1","2","0","0","1","1","0","0","0","1","0","0","1","0","1","0","0","4","1","2","2","1","3","5","4","1","2","656564690050088960","张","358","","","","","","","","","","","","","","","","","","","true","3","3","ability","3030","negative","废物","","","","","","","","","","","","","","",""
"null","","null","html-keyboard-response","83","292086","0.0-6.0-0.0-6.0-0.12","3","4","4","3","4","4","3","3","4","4","5","5","4","4","4","5","5","5","4","4","1","1","2","2","2","1","1","1","2","0","0","1","1","0","0","0","1","0","0","1","0","1","0","0","4","1","2","2","1","3","5","4","1","2","656564690050088960","张","358","","","","","","","","","","","","","","","","","","","","","","","","","","","","","","","","","","","","","","","",""
"698","<p style=""color:rgb(150, 250, 100); font-size: 35px;"">他人</p>","i","categorize-html","84","292784","0.0-6.0-0.0-6.0-1.12","3","4","4","3","4","4","3","3","4","4","5","5","4","4","4","5","5","5","4","4","1","1","2","2","2","1","1","1","2","0","0","1","1","0","0","0","1","0","0","1","0","1","0","0","4","1","2","2","1","3","5","4","1","2","656564690050088960","张","358","","","","","","","","","","","","","","","","","","","true","3","3","ability","698","other","他人","","","","","","","","","","","","","","",""
"null","","null","html-keyboard-response","85","293035","0.0-6.0-0.0-6.0-0.13","3","4","4","3","4","4","3","3","4","4","5","5","4","4","4","5","5","5","4","4","1","1","2","2","2","1","1","1","2","0","0","1","1","0","0","0","1","0","0","1","0","1","0","0","4","1","2","2","1","3","5","4","1","2","656564690050088960","张","358","","","","","","","","","","","","","","","","","","","","","","","","","","","","","","","","","","","","","","","",""
"813","<p style=""color:white; font-size: 35px;"">能干</p>","e","categorize-html","86","293848","0.0-6.0-0.0-6.0-1.13","3","4","4","3","4","4","3","3","4","4","5","5","4","4","4","5","5","5","4","4","1","1","2","2","2","1","1","1","2","0","0","1","1","0","0","0","1","0","0","1","0","1","0","0","4","1","2","2","1","3","5","4","1","2","656564690050088960","张","358","","","","","","","","","","","","","","","","","","","true","3","3","ability","813","positive","能干","","","","","","","","","","","","","","",""
"null","","null","html-keyboard-response","87","294099","0.0-6.0-0.0-6.0-0.14","3","4","4","3","4","4","3","3","4","4","5","5","4","4","4","5","5","5","4","4","1","1","2","2","2","1","1","1","2","0","0","1","1","0","0","0","1","0","0","1","0","1","0","0","4","1","2","2","1","3","5","4","1","2","656564690050088960","张","358","","","","","","","","","","","","","","","","","","","","","","","","","","","","","","","","","","","","","","","",""
"612","<p style=""color:rgb(150, 250, 100); font-size: 35px;"">我</p>","e","categorize-html","88","294712","0.0-6.0-0.0-6.0-1.14","3","4","4","3","4","4","3","3","4","4","5","5","4","4","4","5","5","5","4","4","1","1","2","2","2","1","1","1","2","0","0","1","1","0","0","0","1","0","0","1","0","1","0","0","4","1","2","2","1","3","5","4","1","2","656564690050088960","张","358","","","","","","","","","","","","","","","","","","","true","3","3","ability","612","self","我","","","","","","","","","","","","","","",""
"null","","null","html-keyboard-response","89","294964","0.0-6.0-0.0-6.0-0.15","3","4","4","3","4","4","3","3","4","4","5","5","4","4","4","5","5","5","4","4","1","1","2","2","2","1","1","1","2","0","0","1","1","0","0","0","1","0","0","1","0","1","0","0","4","1","2","2","1","3","5","4","1","2","656564690050088960","张","358","","","","","","","","","","","","","","","","","","","","","","","","","","","","","","","","","","","","","","","",""
"699","<p style=""color:white; font-size: 35px;"">无能</p>","i","categorize-html","90","295664","0.0-6.0-0.0-6.0-1.15","3","4","4","3","4","4","3","3","4","4","5","5","4","4","4","5","5","5","4","4","1","1","2","2","2","1","1","1","2","0","0","1","1","0","0","0","1","0","0","1","0","1","0","0","4","1","2","2","1","3","5","4","1","2","656564690050088960","张","358","","","","","","","","","","","","","","","","","","","true","3","3","ability","699","negative","无能","","","","","","","","","","","","","","",""
"null","","null","html-keyboard-response","91","295915","0.0-6.0-0.0-6.0-0.16","3","4","4","3","4","4","3","3","4","4","5","5","4","4","4","5","5","5","4","4","1","1","2","2","2","1","1","1","2","0","0","1","1","0","0","0","1","0","0","1","0","1","0","0","4","1","2","2","1","3","5","4","1","2","656564690050088960","张","358","","","","","","","","","","","","","","","","","","","","","","","","","","","","","","","","","","","","","","","",""
"638","<p style=""color:rgb(150, 250, 100); font-size: 35px;"">本人的</p>","e","categorize-html","92","296553","0.0-6.0-0.0-6.0-1.16","3","4","4","3","4","4","3","3","4","4","5","5","4","4","4","5","5","5","4","4","1","1","2","2","2","1","1","1","2","0","0","1","1","0","0","0","1","0","0","1","0","1","0","0","4","1","2","2","1","3","5","4","1","2","656564690050088960","张","358","","","","","","","","","","","","","","","","","","","true","3","3","ability","638","self","本人的","","","","","","","","","","","","","","",""
"null","","null","html-keyboard-response","93","296804","0.0-6.0-0.0-6.0-0.17","3","4","4","3","4","4","3","3","4","4","5","5","4","4","4","5","5","5","4","4","1","1","2","2","2","1","1","1","2","0","0","1","1","0","0","0","1","0","0","1","0","1","0","0","4","1","2","2","1","3","5","4","1","2","656564690050088960","张","358","","","","","","","","","","","","","","","","","","","","","","","","","","","","","","","","","","","","","","","",""
"964","<p style=""color:white; font-size: 35px;"">天才</p>","e","categorize-html","94","297768","0.0-6.0-0.0-6.0-1.17","3","4","4","3","4","4","3","3","4","4","5","5","4","4","4","5","5","5","4","4","1","1","2","2","2","1","1","1","2","0","0","1","1","0","0","0","1","0","0","1","0","1","0","0","4","1","2","2","1","3","5","4","1","2","656564690050088960","张","358","","","","","","","","","","","","","","","","","","","true","3","3","ability","964","positive","天才","","","","","","","","","","","","","","",""
"null","","null","html-keyboard-response","95","298020","0.0-6.0-0.0-6.0-0.18","3","4","4","3","4","4","3","3","4","4","5","5","4","4","4","5","5","5","4","4","1","1","2","2","2","1","1","1","2","0","0","1","1","0","0","0","1","0","0","1","0","1","0","0","4","1","2","2","1","3","5","4","1","2","656564690050088960","张","358","","","","","","","","","","","","","","","","","","","","","","","","","","","","","","","","","","","","","","","",""
"780","<p style=""color:rgb(150, 250, 100); font-size: 35px;"">别人的</p>","i","categorize-html","96","298801","0.0-6.0-0.0-6.0-1.18","3","4","4","3","4","4","3","3","4","4","5","5","4","4","4","5","5","5","4","4","1","1","2","2","2","1","1","1","2","0","0","1","1","0","0","0","1","0","0","1","0","1","0","0","4","1","2","2","1","3","5","4","1","2","656564690050088960","张","358","","","","","","","","","","","","","","","","","","","true","3","3","ability","780","other","别人的","","","","","","","","","","","","","","",""
"null","","null","html-keyboard-response","97","299052","0.0-6.0-0.0-6.0-0.19","3","4","4","3","4","4","3","3","4","4","5","5","4","4","4","5","5","5","4","4","1","1","2","2","2","1","1","1","2","0","0","1","1","0","0","0","1","0","0","1","0","1","0","0","4","1","2","2","1","3","5","4","1","2","656564690050088960","张","358","","","","","","","","","","","","","","","","","","","","","","","","","","","","","","","","","","","","","","","",""
"764","<p style=""color:white; font-size: 35px;"">蠢笨</p>","i","categorize-html","98","299816","0.0-6.0-0.0-6.0-1.19","3","4","4","3","4","4","3","3","4","4","5","5","4","4","4","5","5","5","4","4","1","1","2","2","2","1","1","1","2","0","0","1","1","0","0","0","1","0","0","1","0","1","0","0","4","1","2","2","1","3","5","4","1","2","656564690050088960","张","358","","","","","","","","","","","","","","","","","","","true","3","3","ability","764","negative","蠢笨","","","","","","","","","","","","","","",""
"null","","null","html-keyboard-response","99","300068","0.0-6.0-0.0-6.0-0.20","3","4","4","3","4","4","3","3","4","4","5","5","4","4","4","5","5","5","4","4","1","1","2","2","2","1","1","1","2","0","0","1","1","0","0","0","1","0","0","1","0","1","0","0","4","1","2","2","1","3","5","4","1","2","656564690050088960","张","358","","","","","","","","","","","","","","","","","","","","","","","","","","","","","","","","","","","","","","","",""
"604","<p style=""color:rgb(150, 250, 100); font-size: 35px;"">他</p>","i","categorize-html","100","300672","0.0-6.0-0.0-6.0-1.20","3","4","4","3","4","4","3","3","4","4","5","5","4","4","4","5","5","5","4","4","1","1","2","2","2","1","1","1","2","0","0","1","1","0","0","0","1","0","0","1","0","1","0","0","4","1","2","2","1","3","5","4","1","2","656564690050088960","张","358","","","","","","","","","","","","","","","","","","","true","3","3","ability","604","other","他","","","","","","","","","","","","","","",""
"null","","null","html-keyboard-response","101","300923","0.0-6.0-0.0-6.0-0.21","3","4","4","3","4","4","3","3","4","4","5","5","4","4","4","5","5","5","4","4","1","1","2","2","2","1","1","1","2","0","0","1","1","0","0","0","1","0","0","1","0","1","0","0","4","1","2","2","1","3","5","4","1","2","656564690050088960","张","358","","","","","","","","","","","","","","","","","","","","","","","","","","","","","","","","","","","","","","","",""
"581","<p style=""color:white; font-size: 35px;"">拙笨</p>","i","categorize-html","102","301505","0.0-6.0-0.0-6.0-1.21","3","4","4","3","4","4","3","3","4","4","5","5","4","4","4","5","5","5","4","4","1","1","2","2","2","1","1","1","2","0","0","1","1","0","0","0","1","0","0","1","0","1","0","0","4","1","2","2","1","3","5","4","1","2","656564690050088960","张","358","","","","","","","","","","","","","","","","","","","true","3","3","ability","581","negative","拙笨","","","","","","","","","","","","","","",""
"null","","null","html-keyboard-response","103","301755","0.0-6.0-0.0-6.0-0.22","3","4","4","3","4","4","3","3","4","4","5","5","4","4","4","5","5","5","4","4","1","1","2","2","2","1","1","1","2","0","0","1","1","0","0","0","1","0","0","1","0","1","0","0","4","1","2","2","1","3","5","4","1","2","656564690050088960","张","358","","","","","","","","","","","","","","","","","","","","","","","","","","","","","","","","","","","","","","","",""
"629","<p style=""color:rgb(150, 250, 100); font-size: 35px;"">本人</p>","e","categorize-html","104","302385","0.0-6.0-0.0-6.0-1.22","3","4","4","3","4","4","3","3","4","4","5","5","4","4","4","5","5","5","4","4","1","1","2","2","2","1","1","1","2","0","0","1","1","0","0","0","1","0","0","1","0","1","0","0","4","1","2","2","1","3","5","4","1","2","656564690050088960","张","358","","","","","","","","","","","","","","","","","","","true","3","3","ability","629","self","本人","","","","","","","","","","","","","","",""
"null","","null","html-keyboard-response","105","302636","0.0-6.0-0.0-6.0-0.23","3","4","4","3","4","4","3","3","4","4","5","5","4","4","4","5","5","5","4","4","1","1","2","2","2","1","1","1","2","0","0","1","1","0","0","0","1","0","0","1","0","1","0","0","4","1","2","2","1","3","5","4","1","2","656564690050088960","张","358","","","","","","","","","","","","","","","","","","","","","","","","","","","","","","","","","","","","","","","",""
"564","<p style=""color:white; font-size: 35px;"">高效</p>","e","categorize-html","106","303200","0.0-6.0-0.0-6.0-1.23","3","4","4","3","4","4","3","3","4","4","5","5","4","4","4","5","5","5","4","4","1","1","2","2","2","1","1","1","2","0","0","1","1","0","0","0","1","0","0","1","0","1","0","0","4","1","2","2","1","3","5","4","1","2","656564690050088960","张","358","","","","","","","","","","","","","","","","","","","true","3","3","ability","564","positive","高效","","","","","","","","","","","","","","",""
"863","
    <div class=""tag-bottom""><p>
    —— 任务4：对“自我/积极”词和“他人/消极”词分类 ——<p/>
    <span style=""color:#78DCE8""><b>与刚才的任务完全相同，请再次对这四类词语分类</b></span><p/>
    <span style=""color:#FFD866""><b>请根据上方标签的提示，尽可能正确并且快速地做出按键反应</b></span><p/>
    当按键错误时屏幕中会出现<span style=""color:red""> X </span>，需要按另一个键纠正才能继续<br/><p/>
    请把双手食指分别放在键盘的“E”键和“I”键上<p/>
    按<空格键>开始
    </p></div>"," ","html-keyboard-response","107","304064","0.0-6.0-0.0-7.0","3","4","4","3","4","4","3","3","4","4","5","5","4","4","4","5","5","5","4","4","1","1","2","2","2","1","1","1","2","0","0","1","1","0","0","0","1","0","0","1","0","1","0","0","4","1","2","2","1","3","5","4","1","2","656564690050088960","张","358","","","","","","","","","","","","","","","","","","","","","","","","","","","","","","","","","","","","","","","",""
"null","","null","html-keyboard-response","108","304316","0.0-6.0-0.0-8.0-0.0","3","4","4","3","4","4","3","3","4","4","5","5","4","4","4","5","5","5","4","4","1","1","2","2","2","1","1","1","2","0","0","1","1","0","0","0","1","0","0","1","0","1","0","0","4","1","2","2","1","3","5","4","1","2","656564690050088960","张","358","","","","","","","","","","","","","","","","","","","","","","","","","","","","","","","","","","","","","","","",""
"1131","<p style=""color:rgb(150, 250, 100); font-size: 35px;"">他的</p>","i","categorize-html","109","305448","0.0-6.0-0.0-8.0-1.0","3","4","4","3","4","4","3","3","4","4","5","5","4","4","4","5","5","5","4","4","1","1","2","2","2","1","1","1","2","0","0","1","1","0","0","0","1","0","0","1","0","1","0","0","4","1","2","2","1","3","5","4","1","2","656564690050088960","张","358","","","","","","","","","","","","","","","","","","","true","4","4","ability","1131","other","他的","","","","","","","","","","","","","","",""
"null","","null","html-keyboard-response","110","305699","0.0-6.0-0.0-8.0-0.1","3","4","4","3","4","4","3","3","4","4","5","5","4","4","4","5","5","5","4","4","1","1","2","2","2","1","1","1","2","0","0","1","1","0","0","0","1","0","0","1","0","1","0","0","4","1","2","2","1","3","5","4","1","2","656564690050088960","张","358","","","","","","","","","","","","","","","","","","","","","","","","","","","","","","","","","","","","","","","",""
"621","<p style=""color:white; font-size: 35px;"">愚钝</p>","i","categorize-html","111","306320","0.0-6.0-0.0-8.0-1.1","3","4","4","3","4","4","3","3","4","4","5","5","4","4","4","5","5","5","4","4","1","1","2","2","2","1","1","1","2","0","0","1","1","0","0","0","1","0","0","1","0","1","0","0","4","1","2","2","1","3","5","4","1","2","656564690050088960","张","358","","","","","","","","","","","","","","","","","","","true","4","4","ability","621","negative","愚钝","","","","","","","","","","","","","","",""
"null","","null","html-keyboard-response","112","306570","0.0-6.0-0.0-8.0-0.2","3","4","4","3","4","4","3","3","4","4","5","5","4","4","4","5","5","5","4","4","1","1","2","2","2","1","1","1","2","0","0","1","1","0","0","0","1","0","0","1","0","1","0","0","4","1","2","2","1","3","5","4","1","2","656564690050088960","张","358","","","","","","","","","","","","","","","","","","","","","","","","","","","","","","","","","","","","","","","",""
"565","<p style=""color:rgb(150, 250, 100); font-size: 35px;"">我</p>","e","categorize-html","113","307136","0.0-6.0-0.0-8.0-1.2","3","4","4","3","4","4","3","3","4","4","5","5","4","4","4","5","5","5","4","4","1","1","2","2","2","1","1","1","2","0","0","1","1","0","0","0","1","0","0","1","0","1","0","0","4","1","2","2","1","3","5","4","1","2","656564690050088960","张","358","","","","","","","","","","","","","","","","","","","true","4","4","ability","565","self","我","","","","","","","","","","","","","","",""
"null","","null","html-keyboard-response","114","307386","0.0-6.0-0.0-8.0-0.3","3","4","4","3","4","4","3","3","4","4","5","5","4","4","4","5","5","5","4","4","1","1","2","2","2","1","1","1","2","0","0","1","1","0","0","0","1","0","0","1","0","1","0","0","4","1","2","2","1","3","5","4","1","2","656564690050088960","张","358","","","","","","","","","","","","","","","","","","","","","","","","","","","","","","","","","","","","","","","",""
"806","<p style=""color:white; font-size: 35px;"">能干</p>","e","categorize-html","115","308192","0.0-6.0-0.0-8.0-1.3","3","4","4","3","4","4","3","3","4","4","5","5","4","4","4","5","5","5","4","4","1","1","2","2","2","1","1","1","2","0","0","1","1","0","0","0","1","0","0","1","0","1","0","0","4","1","2","2","1","3","5","4","1","2","656564690050088960","张","358","","","","","","","","","","","","","","","","","","","true","4","4","ability","806","positive","能干","","","","","","","","","","","","","","",""
"null","","null","html-keyboard-response","116","308443","0.0-6.0-0.0-8.0-0.4","3","4","4","3","4","4","3","3","4","4","5","5","4","4","4","5","5","5","4","4","1","1","2","2","2","1","1","1","2","0","0","1","1","0","0","0","1","0","0","1","0","1","0","0","4","1","2","2","1","3","5","4","1","2","656564690050088960","张","358","","","","","","","","","","","","","","","","","","","","","","","","","","","","","","","","","","","","","","","",""
"1142","<p style=""color:rgb(150, 250, 100); font-size: 35px;"">本人</p>","e","categorize-html","117","309585","0.0-6.0-0.0-8.0-1.4","3","4","4","3","4","4","3","3","4","4","5","5","4","4","4","5","5","5","4","4","1","1","2","2","2","1","1","1","2","0","0","1","1","0","0","0","1","0","0","1","0","1","0","0","4","1","2","2","1","3","5","4","1","2","656564690050088960","张","358","","","","","","","","","","","","","","","","","","","true","4","4","ability","1142","self","本人","","","","","","","","","","","","","","",""
"null","","null","html-keyboard-response","118","309836","0.0-6.0-0.0-8.0-0.5","3","4","4","3","4","4","3","3","4","4","5","5","4","4","4","5","5","5","4","4","1","1","2","2","2","1","1","1","2","0","0","1","1","0","0","0","1","0","0","1","0","1","0","0","4","1","2","2","1","3","5","4","1","2","656564690050088960","张","358","","","","","","","","","","","","","","","","","","","","","","","","","","","","","","","","","","","","","","","",""
"668","<p style=""color:white; font-size: 35px;"">废物</p>","i","categorize-html","119","310505","0.0-6.0-0.0-8.0-1.5","3","4","4","3","4","4","3","3","4","4","5","5","4","4","4","5","5","5","4","4","1","1","2","2","2","1","1","1","2","0","0","1","1","0","0","0","1","0","0","1","0","1","0","0","4","1","2","2","1","3","5","4","1","2","656564690050088960","张","358","","","","","","","","","","","","","","","","","","","true","4","4","ability","668","negative","废物","","","","","","","","","","","","","","",""
"null","","null","html-keyboard-response","120","310756","0.0-6.0-0.0-8.0-0.6","3","4","4","3","4","4","3","3","4","4","5","5","4","4","4","5","5","5","4","4","1","1","2","2","2","1","1","1","2","0","0","1","1","0","0","0","1","0","0","1","0","1","0","0","4","1","2","2","1","3","5","4","1","2","656564690050088960","张","358","","","","","","","","","","","","","","","","","","","","","","","","","","","","","","","","","","","","","","","",""
"715","<p style=""color:rgb(150, 250, 100); font-size: 35px;"">他</p>","i","categorize-html","121","311472","0.0-6.0-0.0-8.0-1.6","3","4","4","3","4","4","3","3","4","4","5","5","4","4","4","5","5","5","4","4","1","1","2","2","2","1","1","1","2","0","0","1","1","0","0","0","1","0","0","1","0","1","0","0","4","1","2","2","1","3","5","4","1","2","656564690050088960","张","358","","","","","","","","","","","","","","","","","","","true","4","4","ability","715","other","他","","","","","","","","","","","","","","",""
"null","","null","html-keyboard-response","122","311723","0.0-6.0-0.0-8.0-0.7","3","4","4","3","4","4","3","3","4","4","5","5","4","4","4","5","5","5","4","4","1","1","2","2","2","1","1","1","2","0","0","1","1","0","0","0","1","0","0","1","0","1","0","0","4","1","2","2","1","3","5","4","1","2","656564690050088960","张","358","","","","","","","","","","","","","","","","","","","","","","","","","","","","","","","","","","","","","","","",""
"717","<p style=""color:white; font-size: 35px;"">高效</p>","e","categorize-html","123","312440","0.0-6.0-0.0-8.0-1.7","3","4","4","3","4","4","3","3","4","4","5","5","4","4","4","5","5","5","4","4","1","1","2","2","2","1","1","1","2","0","0","1","1","0","0","0","1","0","0","1","0","1","0","0","4","1","2","2","1","3","5","4","1","2","656564690050088960","张","358","","","","","","","","","","","","","","","","","","","true","4","4","ability","717","positive","高效","","","","","","","","","","","","","","",""
"null","","null","html-keyboard-response","124","312691","0.0-6.0-0.0-8.0-0.8","3","4","4","3","4","4","3","3","4","4","5","5","4","4","4","5","5","5","4","4","1","1","2","2","2","1","1","1","2","0","0","1","1","0","0","0","1","0","0","1","0","1","0","0","4","1","2","2","1","3","5","4","1","2","656564690050088960","张","358","","","","","","","","","","","","","","","","","","","","","","","","","","","","","","","","","","","","","","","",""
"572","<p style=""color:rgb(150, 250, 100); font-size: 35px;"">别人的</p>","i","categorize-html","125","313264","0.0-6.0-0.0-8.0-1.8","3","4","4","3","4","4","3","3","4","4","5","5","4","4","4","5","5","5","4","4","1","1","2","2","2","1","1","1","2","0","0","1","1","0","0","0","1","0","0","1","0","1","0","0","4","1","2","2","1","3","5","4","1","2","656564690050088960","张","358","","","","","","","","","","","","","","","","","","","true","4","4","ability","572","other","别人的","","","","","","","","","","","","","","",""
"null","","null","html-keyboard-response","126","313515","0.0-6.0-0.0-8.0-0.9","3","4","4","3","4","4","3","3","4","4","5","5","4","4","4","5","5","5","4","4","1","1","2","2","2","1","1","1","2","0","0","1","1","0","0","0","1","0","0","1","0","1","0","0","4","1","2","2","1","3","5","4","1","2","656564690050088960","张","358","","","","","","","","","","","","","","","","","","","","","","","","","","","","","","","","","","","","","","","",""
"820","<p style=""color:white; font-size: 35px;"">拙笨</p>","i","categorize-html","127","314336","0.0-6.0-0.0-8.0-1.9","3","4","4","3","4","4","3","3","4","4","5","5","4","4","4","5","5","5","4","4","1","1","2","2","2","1","1","1","2","0","0","1","1","0","0","0","1","0","0","1","0","1","0","0","4","1","2","2","1","3","5","4","1","2","656564690050088960","张","358","","","","","","","","","","","","","","","","","","","true","4","4","ability","820","negative","拙笨","","","","","","","","","","","","","","",""
"null","","null","html-keyboard-response","128","314587","0.0-6.0-0.0-8.0-0.10","3","4","4","3","4","4","3","3","4","4","5","5","4","4","4","5","5","5","4","4","1","1","2","2","2","1","1","1","2","0","0","1","1","0","0","0","1","0","0","1","0","1","0","0","4","1","2","2","1","3","5","4","1","2","656564690050088960","张","358","","","","","","","","","","","","","","","","","","","","","","","","","","","","","","","","","","","","","","","",""
"557","<p style=""color:rgb(150, 250, 100); font-size: 35px;"">自己的</p>","e","categorize-html","129","315144","0.0-6.0-0.0-8.0-1.10","3","4","4","3","4","4","3","3","4","4","5","5","4","4","4","5","5","5","4","4","1","1","2","2","2","1","1","1","2","0","0","1","1","0","0","0","1","0","0","1","0","1","0","0","4","1","2","2","1","3","5","4","1","2","656564690050088960","张","358","","","","","","","","","","","","","","","","","","","true","4","4","ability","557","self","自己的","","","","","","","","","","","","","","",""
"null","","null","html-keyboard-response","130","315396","0.0-6.0-0.0-8.0-0.11","3","4","4","3","4","4","3","3","4","4","5","5","4","4","4","5","5","5","4","4","1","1","2","2","2","1","1","1","2","0","0","1","1","0","0","0","1","0","0","1","0","1","0","0","4","1","2","2","1","3","5","4","1","2","656564690050088960","张","358","","","","","","","","","","","","","","","","","","","","","","","","","","","","","","","","","","","","","","","",""
"763","<p style=""color:white; font-size: 35px;"">精干</p>","e","categorize-html","131","316160","0.0-6.0-0.0-8.0-1.11","3","4","4","3","4","4","3","3","4","4","5","5","4","4","4","5","5","5","4","4","1","1","2","2","2","1","1","1","2","0","0","1","1","0","0","0","1","0","0","1","0","1","0","0","4","1","2","2","1","3","5","4","1","2","656564690050088960","张","358","","","","","","","","","","","","","","","","","","","true","4","4","ability","763","positive","精干","","","","","","","","","","","","","","",""
"null","","null","html-keyboard-response","132","316411","0.0-6.0-0.0-8.0-0.12","3","4","4","3","4","4","3","3","4","4","5","5","4","4","4","5","5","5","4","4","1","1","2","2","2","1","1","1","2","0","0","1","1","0","0","0","1","0","0","1","0","1","0","0","4","1","2","2","1","3","5","4","1","2","656564690050088960","张","358","","","","","","","","","","","","","","","","","","","","","","","","","","","","","","","","","","","","","","","",""
"548","<p style=""color:rgb(150, 250, 100); font-size: 35px;"">我的</p>","e","categorize-html","133","316960","0.0-6.0-0.0-8.0-1.12","3","4","4","3","4","4","3","3","4","4","5","5","4","4","4","5","5","5","4","4","1","1","2","2","2","1","1","1","2","0","0","1","1","0","0","0","1","0","0","1","0","1","0","0","4","1","2","2","1","3","5","4","1","2","656564690050088960","张","358","","","","","","","","","","","","","","","","","","","true","4","4","ability","548","self","我的","","","","","","","","","","","","","","",""
"null","","null","html-keyboard-response","134","317211","0.0-6.0-0.0-8.0-0.13","3","4","4","3","4","4","3","3","4","4","5","5","4","4","4","5","5","5","4","4","1","1","2","2","2","1","1","1","2","0","0","1","1","0","0","0","1","0","0","1","0","1","0","0","4","1","2","2","1","3","5","4","1","2","656564690050088960","张","358","","","","","","","","","","","","","","","","","","","","","","","","","","","","","","","","","","","","","","","",""
"837","<p style=""color:white; font-size: 35px;"">精干</p>","e","categorize-html","135","318049","0.0-6.0-0.0-8.0-1.13","3","4","4","3","4","4","3","3","4","4","5","5","4","4","4","5","5","5","4","4","1","1","2","2","2","1","1","1","2","0","0","1","1","0","0","0","1","0","0","1","0","1","0","0","4","1","2","2","1","3","5","4","1","2","656564690050088960","张","358","","","","","","","","","","","","","","","","","","","true","4","4","ability","837","positive","精干","","","","","","","","","","","","","","",""
"null","","null","html-keyboard-response","136","318300","0.0-6.0-0.0-8.0-0.14","3","4","4","3","4","4","3","3","4","4","5","5","4","4","4","5","5","5","4","4","1","1","2","2","2","1","1","1","2","0","0","1","1","0","0","0","1","0","0","1","0","1","0","0","4","1","2","2","1","3","5","4","1","2","656564690050088960","张","358","","","","","","","","","","","","","","","","","","","","","","","","","","","","","","","","","","","","","","","",""
"604","<p style=""color:rgb(150, 250, 100); font-size: 35px;"">他</p>","i","categorize-html","137","318904","0.0-6.0-0.0-8.0-1.14","3","4","4","3","4","4","3","3","4","4","5","5","4","4","4","5","5","5","4","4","1","1","2","2","2","1","1","1","2","0","0","1","1","0","0","0","1","0","0","1","0","1","0","0","4","1","2","2","1","3","5","4","1","2","656564690050088960","张","358","","","","","","","","","","","","","","","","","","","true","4","4","ability","604","other","他","","","","","","","","","","","","","","",""
"null","","null","html-keyboard-response","138","319154","0.0-6.0-0.0-8.0-0.15","3","4","4","3","4","4","3","3","4","4","5","5","4","4","4","5","5","5","4","4","1","1","2","2","2","1","1","1","2","0","0","1","1","0","0","0","1","0","0","1","0","1","0","0","4","1","2","2","1","3","5","4","1","2","656564690050088960","张","358","","","","","","","","","","","","","","","","","","","","","","","","","","","","","","","","","","","","","","","",""
"861","<p style=""color:white; font-size: 35px;"">废物</p>","i","categorize-html","139","320016","0.0-6.0-0.0-8.0-1.15","3","4","4","3","4","4","3","3","4","4","5","5","4","4","4","5","5","5","4","4","1","1","2","2","2","1","1","1","2","0","0","1","1","0","0","0","1","0","0","1","0","1","0","0","4","1","2","2","1","3","5","4","1","2","656564690050088960","张","358","","","","","","","","","","","","","","","","","","","true","4","4","ability","861","negative","废物","","","","","","","","","","","","","","",""
"null","","null","html-keyboard-response","140","320268","0.0-6.0-0.0-8.0-0.16","3","4","4","3","4","4","3","3","4","4","5","5","4","4","4","5","5","5","4","4","1","1","2","2","2","1","1","1","2","0","0","1","1","0","0","0","1","0","0","1","0","1","0","0","4","1","2","2","1","3","5","4","1","2","656564690050088960","张","358","","","","","","","","","","","","","","","","","","","","","","","","","","","","","","","","","","","","","","","",""
"668","<p style=""color:rgb(150, 250, 100); font-size: 35px;"">本人的</p>","e","categorize-html","141","320936","0.0-6.0-0.0-8.0-1.16","3","4","4","3","4","4","3","3","4","4","5","5","4","4","4","5","5","5","4","4","1","1","2","2","2","1","1","1","2","0","0","1","1","0","0","0","1","0","0","1","0","1","0","0","4","1","2","2","1","3","5","4","1","2","656564690050088960","张","358","","","","","","","","","","","","","","","","","","","true","4","4","ability","668","self","本人的","","","","","","","","","","","","","","",""
"null","","null","html-keyboard-response","142","321187","0.0-6.0-0.0-8.0-0.17","3","4","4","3","4","4","3","3","4","4","5","5","4","4","4","5","5","5","4","4","1","1","2","2","2","1","1","1","2","0","0","1","1","0","0","0","1","0","0","1","0","1","0","0","4","1","2","2","1","3","5","4","1","2","656564690050088960","张","358","","","","","","","","","","","","","","","","","","","","","","","","","","","","","","","","","","","","","","","",""
"1101","<p style=""color:white; font-size: 35px;"">蠢笨</p>","i","categorize-html","143","322288","0.0-6.0-0.0-8.0-1.17","3","4","4","3","4","4","3","3","4","4","5","5","4","4","4","5","5","5","4","4","1","1","2","2","2","1","1","1","2","0","0","1","1","0","0","0","1","0","0","1","0","1","0","0","4","1","2","2","1","3","5","4","1","2","656564690050088960","张","358","","","","","","","","","","","","","","","","","","","true","4","4","ability","1101","negative","蠢笨","","","","","","","","","","","","","","",""
"null","","null","html-keyboard-response","144","322540","0.0-6.0-0.0-8.0-0.18","3","4","4","3","4","4","3","3","4","4","5","5","4","4","4","5","5","5","4","4","1","1","2","2","2","1","1","1","2","0","0","1","1","0","0","0","1","0","0","1","0","1","0","0","4","1","2","2","1","3","5","4","1","2","656564690050088960","张","358","","","","","","","","","","","","","","","","","","","","","","","","","","","","","","","","","","","","","","","",""
"852","<p style=""color:rgb(150, 250, 100); font-size: 35px;"">别人</p>","e","categorize-html","145","323824","0.0-6.0-0.0-8.0-1.18","3","4","4","3","4","4","3","3","4","4","5","5","4","4","4","5","5","5","4","4","1","1","2","2","2","1","1","1","2","0","0","1","1","0","0","0","1","0","0","1","0","1","0","0","4","1","2","2","1","3","5","4","1","2","656564690050088960","张","358","","","","","","","","","","","","","","","","","","","false","4","4","ability","1288.6521739130435","other","别人","","","","","","","","","","","","","","",""
"null","","null","html-keyboard-response","146","324076","0.0-6.0-0.0-8.0-0.19","3","4","4","3","4","4","3","3","4","4","5","5","4","4","4","5","5","5","4","4","1","1","2","2","2","1","1","1","2","0","0","1","1","0","0","0","1","0","0","1","0","1","0","0","4","1","2","2","1","3","5","4","1","2","656564690050088960","张","358","","","","","","","","","","","","","","","","","","","","","","","","","","","","","","","","","","","","","","","",""
"660","<p style=""color:white; font-size: 35px;"">天才</p>","e","categorize-html","147","324736","0.0-6.0-0.0-8.0-1.19","3","4","4","3","4","4","3","3","4","4","5","5","4","4","4","5","5","5","4","4","1","1","2","2","2","1","1","1","2","0","0","1","1","0","0","0","1","0","0","1","0","1","0","0","4","1","2","2","1","3","5","4","1","2","656564690050088960","张","358","","","","","","","","","","","","","","","","","","","true","4","4","ability","660","positive","天才","","","","","","","","","","","","","","",""
"null","","null","html-keyboard-response","148","324987","0.0-6.0-0.0-8.0-0.20","3","4","4","3","4","4","3","3","4","4","5","5","4","4","4","5","5","5","4","4","1","1","2","2","2","1","1","1","2","0","0","1","1","0","0","0","1","0","0","1","0","1","0","0","4","1","2","2","1","3","5","4","1","2","656564690050088960","张","358","","","","","","","","","","","","","","","","","","","","","","","","","","","","","","","","","","","","","","","",""
"588","<p style=""color:rgb(150, 250, 100); font-size: 35px;"">我的</p>","e","categorize-html","149","325576","0.0-6.0-0.0-8.0-1.20","3","4","4","3","4","4","3","3","4","4","5","5","4","4","4","5","5","5","4","4","1","1","2","2","2","1","1","1","2","0","0","1","1","0","0","0","1","0","0","1","0","1","0","0","4","1","2","2","1","3","5","4","1","2","656564690050088960","张","358","","","","","","","","","","","","","","","","","","","true","4","4","ability","588","self","我的","","","","","","","","","","","","","","",""
"null","","null","html-keyboard-response","150","325826","0.0-6.0-0.0-8.0-0.21","3","4","4","3","4","4","3","3","4","4","5","5","4","4","4","5","5","5","4","4","1","1","2","2","2","1","1","1","2","0","0","1","1","0","0","0","1","0","0","1","0","1","0","0","4","1","2","2","1","3","5","4","1","2","656564690050088960","张","358","","","","","","","","","","","","","","","","","","","","","","","","","","","","","","","","","","","","","","","",""
"549","<p style=""color:white; font-size: 35px;"">能干</p>","e","categorize-html","151","326376","0.0-6.0-0.0-8.0-1.21","3","4","4","3","4","4","3","3","4","4","5","5","4","4","4","5","5","5","4","4","1","1","2","2","2","1","1","1","2","0","0","1","1","0","0","0","1","0","0","1","0","1","0","0","4","1","2","2","1","3","5","4","1","2","656564690050088960","张","358","","","","","","","","","","","","","","","","","","","true","4","4","ability","549","positive","能干","","","","","","","","","","","","","","",""
"null","","null","html-keyboard-response","152","326627","0.0-6.0-0.0-8.0-0.22","3","4","4","3","4","4","3","3","4","4","5","5","4","4","4","5","5","5","4","4","1","1","2","2","2","1","1","1","2","0","0","1","1","0","0","0","1","0","0","1","0","1","0","0","4","1","2","2","1","3","5","4","1","2","656564690050088960","张","358","","","","","","","","","","","","","","","","","","","","","","","","","","","","","","","","","","","","","","","",""
"613","<p style=""color:rgb(150, 250, 100); font-size: 35px;"">他人的</p>","i","categorize-html","153","327240","0.0-6.0-0.0-8.0-1.22","3","4","4","3","4","4","3","3","4","4","5","5","4","4","4","5","5","5","4","4","1","1","2","2","2","1","1","1","2","0","0","1","1","0","0","0","1","0","0","1","0","1","0","0","4","1","2","2","1","3","5","4","1","2","656564690050088960","张","358","","","","","","","","","","","","","","","","","","","true","4","4","ability","613","other","他人的","","","","","","","","","","","","","","",""
"null","","null","html-keyboard-response","154","327490","0.0-6.0-0.0-8.0-0.23","3","4","4","3","4","4","3","3","4","4","5","5","4","4","4","5","5","5","4","4","1","1","2","2","2","1","1","1","2","0","0","1","1","0","0","0","1","0","0","1","0","1","0","0","4","1","2","2","1","3","5","4","1","2","656564690050088960","张","358","","","","","","","","","","","","","","","","","","","","","","","","","","","","","","","","","","","","","","","",""
"557","<p style=""color:white; font-size: 35px;"">蠢笨</p>","i","categorize-html","155","328048","0.0-6.0-0.0-8.0-1.23","3","4","4","3","4","4","3","3","4","4","5","5","4","4","4","5","5","5","4","4","1","1","2","2","2","1","1","1","2","0","0","1","1","0","0","0","1","0","0","1","0","1","0","0","4","1","2","2","1","3","5","4","1","2","656564690050088960","张","358","","","","","","","","","","","","","","","","","","","true","4","4","ability","557","negative","蠢笨","","","","","","","","","","","","","","",""
"null","","null","html-keyboard-response","156","328299","0.0-6.0-0.0-8.0-0.24","3","4","4","3","4","4","3","3","4","4","5","5","4","4","4","5","5","5","4","4","1","1","2","2","2","1","1","1","2","0","0","1","1","0","0","0","1","0","0","1","0","1","0","0","4","1","2","2","1","3","5","4","1","2","656564690050088960","张","358","","","","","","","","","","","","","","","","","","","","","","","","","","","","","","","","","","","","","","","",""
"485","<p style=""color:rgb(150, 250, 100); font-size: 35px;"">他人</p>","i","categorize-html","157","328784","0.0-6.0-0.0-8.0-1.24","3","4","4","3","4","4","3","3","4","4","5","5","4","4","4","5","5","5","4","4","1","1","2","2","2","1","1","1","2","0","0","1","1","0","0","0","1","0","0","1","0","1","0","0","4","1","2","2","1","3","5","4","1","2","656564690050088960","张","358","","","","","","","","","","","","","","","","","","","true","4","4","ability","485","other","他人","","","","","","","","","","","","","","",""
"null","","null","html-keyboard-response","158","329035","0.0-6.0-0.0-8.0-0.25","3","4","4","3","4","4","3","3","4","4","5","5","4","4","4","5","5","5","4","4","1","1","2","2","2","1","1","1","2","0","0","1","1","0","0","0","1","0","0","1","0","1","0","0","4","1","2","2","1","3","5","4","1","2","656564690050088960","张","358","","","","","","","","","","","","","","","","","","","","","","","","","","","","","","","","","","","","","","","",""
"621","<p style=""color:white; font-size: 35px;"">全能</p>","e","categorize-html","159","329655","0.0-6.0-0.0-8.0-1.25","3","4","4","3","4","4","3","3","4","4","5","5","4","4","4","5","5","5","4","4","1","1","2","2","2","1","1","1","2","0","0","1","1","0","0","0","1","0","0","1","0","1","0","0","4","1","2","2","1","3","5","4","1","2","656564690050088960","张","358","","","","","","","","","","","","","","","","","","","true","4","4","ability","621","positive","全能","","","","","","","","","","","","","","",""
"null","","null","html-keyboard-response","160","329907","0.0-6.0-0.0-8.0-0.26","3","4","4","3","4","4","3","3","4","4","5","5","4","4","4","5","5","5","4","4","1","1","2","2","2","1","1","1","2","0","0","1","1","0","0","0","1","0","0","1","0","1","0","0","4","1","2","2","1","3","5","4","1","2","656564690050088960","张","358","","","","","","","","","","","","","","","","","","","","","","","","","","","","","","","","","","","","","","","",""
"516","<p style=""color:rgb(150, 250, 100); font-size: 35px;"">本人</p>","e","categorize-html","161","330423","0.0-6.0-0.0-8.0-1.26","3","4","4","3","4","4","3","3","4","4","5","5","4","4","4","5","5","5","4","4","1","1","2","2","2","1","1","1","2","0","0","1","1","0","0","0","1","0","0","1","0","1","0","0","4","1","2","2","1","3","5","4","1","2","656564690050088960","张","358","","","","","","","","","","","","","","","","","","","true","4","4","ability","516","self","本人","","","","","","","","","","","","","","",""
"null","","null","html-keyboard-response","162","330673","0.0-6.0-0.0-8.0-0.27","3","4","4","3","4","4","3","3","4","4","5","5","4","4","4","5","5","5","4","4","1","1","2","2","2","1","1","1","2","0","0","1","1","0","0","0","1","0","0","1","0","1","0","0","4","1","2","2","1","3","5","4","1","2","656564690050088960","张","358","","","","","","","","","","","","","","","","","","","","","","","","","","","","","","","","","","","","","","","",""
"557","<p style=""color:white; font-size: 35px;"">愚钝</p>","i","categorize-html","163","331231","0.0-6.0-0.0-8.0-1.27","3","4","4","3","4","4","3","3","4","4","5","5","4","4","4","5","5","5","4","4","1","1","2","2","2","1","1","1","2","0","0","1","1","0","0","0","1","0","0","1","0","1","0","0","4","1","2","2","1","3","5","4","1","2","656564690050088960","张","358","","","","","","","","","","","","","","","","","","","true","4","4","ability","557","negative","愚钝","","","","","","","","","","","","","","",""
"null","","null","html-keyboard-response","164","331482","0.0-6.0-0.0-8.0-0.28","3","4","4","3","4","4","3","3","4","4","5","5","4","4","4","5","5","5","4","4","1","1","2","2","2","1","1","1","2","0","0","1","1","0","0","0","1","0","0","1","0","1","0","0","4","1","2","2","1","3","5","4","1","2","656564690050088960","张","358","","","","","","","","","","","","","","","","","","","","","","","","","","","","","","","","","","","","","","","",""
"589","<p style=""color:rgb(150, 250, 100); font-size: 35px;"">别人的</p>","i","categorize-html","165","332071","0.0-6.0-0.0-8.0-1.28","3","4","4","3","4","4","3","3","4","4","5","5","4","4","4","5","5","5","4","4","1","1","2","2","2","1","1","1","2","0","0","1","1","0","0","0","1","0","0","1","0","1","0","0","4","1","2","2","1","3","5","4","1","2","656564690050088960","张","358","","","","","","","","","","","","","","","","","","","true","4","4","ability","589","other","别人的","","","","","","","","","","","","","","",""
"null","","null","html-keyboard-response","166","332323","0.0-6.0-0.0-8.0-0.29","3","4","4","3","4","4","3","3","4","4","5","5","4","4","4","5","5","5","4","4","1","1","2","2","2","1","1","1","2","0","0","1","1","0","0","0","1","0","0","1","0","1","0","0","4","1","2","2","1","3","5","4","1","2","656564690050088960","张","358","","","","","","","","","","","","","","","","","","","","","","","","","","","","","","","","","","","","","","","",""
"652","<p style=""color:white; font-size: 35px;"">全才</p>","e","categorize-html","167","332975","0.0-6.0-0.0-8.0-1.29","3","4","4","3","4","4","3","3","4","4","5","5","4","4","4","5","5","5","4","4","1","1","2","2","2","1","1","1","2","0","0","1","1","0","0","0","1","0","0","1","0","1","0","0","4","1","2","2","1","3","5","4","1","2","656564690050088960","张","358","","","","","","","","","","","","","","","","","","","true","4","4","ability","652","positive","全才","","","","","","","","","","","","","","",""
"null","","null","html-keyboard-response","168","333226","0.0-6.0-0.0-8.0-0.30","3","4","4","3","4","4","3","3","4","4","5","5","4","4","4","5","5","5","4","4","1","1","2","2","2","1","1","1","2","0","0","1","1","0","0","0","1","0","0","1","0","1","0","0","4","1","2","2","1","3","5","4","1","2","656564690050088960","张","358","","","","","","","","","","","","","","","","","","","","","","","","","","","","","","","","","","","","","","","",""
"757","<p style=""color:rgb(150, 250, 100); font-size: 35px;"">自己</p>","e","categorize-html","169","333984","0.0-6.0-0.0-8.0-1.30","3","4","4","3","4","4","3","3","4","4","5","5","4","4","4","5","5","5","4","4","1","1","2","2","2","1","1","1","2","0","0","1","1","0","0","0","1","0","0","1","0","1","0","0","4","1","2","2","1","3","5","4","1","2","656564690050088960","张","358","","","","","","","","","","","","","","","","","","","true","4","4","ability","757","self","自己","","","","","","","","","","","","","","",""
"null","","null","html-keyboard-response","170","334235","0.0-6.0-0.0-8.0-0.31","3","4","4","3","4","4","3","3","4","4","5","5","4","4","4","5","5","5","4","4","1","1","2","2","2","1","1","1","2","0","0","1","1","0","0","0","1","0","0","1","0","1","0","0","4","1","2","2","1","3","5","4","1","2","656564690050088960","张","358","","","","","","","","","","","","","","","","","","","","","","","","","","","","","","","","","","","","","","","",""
"572","<p style=""color:white; font-size: 35px;"">无能</p>","i","categorize-html","171","334808","0.0-6.0-0.0-8.0-1.31","3","4","4","3","4","4","3","3","4","4","5","5","4","4","4","5","5","5","4","4","1","1","2","2","2","1","1","1","2","0","0","1","1","0","0","0","1","0","0","1","0","1","0","0","4","1","2","2","1","3","5","4","1","2","656564690050088960","张","358","","","","","","","","","","","","","","","","","","","true","4","4","ability","572","negative","无能","","","","","","","","","","","","","","",""
"null","","null","html-keyboard-response","172","335059","0.0-6.0-0.0-8.0-0.32","3","4","4","3","4","4","3","3","4","4","5","5","4","4","4","5","5","5","4","4","1","1","2","2","2","1","1","1","2","0","0","1","1","0","0","0","1","0","0","1","0","1","0","0","4","1","2","2","1","3","5","4","1","2","656564690050088960","张","358","","","","","","","","","","","","","","","","","","","","","","","","","","","","","","","","","","","","","","","",""
"484","<p style=""color:rgb(150, 250, 100); font-size: 35px;"">我</p>","e","categorize-html","173","335543","0.0-6.0-0.0-8.0-1.32","3","4","4","3","4","4","3","3","4","4","5","5","4","4","4","5","5","5","4","4","1","1","2","2","2","1","1","1","2","0","0","1","1","0","0","0","1","0","0","1","0","1","0","0","4","1","2","2","1","3","5","4","1","2","656564690050088960","张","358","","","","","","","","","","","","","","","","","","","true","4","4","ability","484","self","我","","","","","","","","","","","","","","",""
"null","","null","html-keyboard-response","174","335794","0.0-6.0-0.0-8.0-0.33","3","4","4","3","4","4","3","3","4","4","5","5","4","4","4","5","5","5","4","4","1","1","2","2","2","1","1","1","2","0","0","1","1","0","0","0","1","0","0","1","0","1","0","0","4","1","2","2","1","3","5","4","1","2","656564690050088960","张","358","","","","","","","","","","","","","","","","","","","","","","","","","","","","","","","","","","","","","","","",""
"573","<p style=""color:white; font-size: 35px;"">低能</p>","i","categorize-html","175","336367","0.0-6.0-0.0-8.0-1.33","3","4","4","3","4","4","3","3","4","4","5","5","4","4","4","5","5","5","4","4","1","1","2","2","2","1","1","1","2","0","0","1","1","0","0","0","1","0","0","1","0","1","0","0","4","1","2","2","1","3","5","4","1","2","656564690050088960","张","358","","","","","","","","","","","","","","","","","","","true","4","4","ability","573","negative","低能","","","","","","","","","","","","","","",""
"null","","null","html-keyboard-response","176","336618","0.0-6.0-0.0-8.0-0.34","3","4","4","3","4","4","3","3","4","4","5","5","4","4","4","5","5","5","4","4","1","1","2","2","2","1","1","1","2","0","0","1","1","0","0","0","1","0","0","1","0","1","0","0","4","1","2","2","1","3","5","4","1","2","656564690050088960","张","358","","","","","","","","","","","","","","","","","","","","","","","","","","","","","","","","","","","","","","","",""
"622","<p style=""color:rgb(150, 250, 100); font-size: 35px;"">他人的</p>","i","categorize-html","177","337241","0.0-6.0-0.0-8.0-1.34","3","4","4","3","4","4","3","3","4","4","5","5","4","4","4","5","5","5","4","4","1","1","2","2","2","1","1","1","2","0","0","1","1","0","0","0","1","0","0","1","0","1","0","0","4","1","2","2","1","3","5","4","1","2","656564690050088960","张","358","","","","","","","","","","","","","","","","","","","true","4","4","ability","622","other","他人的","","","","","","","","","","","","","","",""
"null","","null","html-keyboard-response","178","337492","0.0-6.0-0.0-8.0-0.35","3","4","4","3","4","4","3","3","4","4","5","5","4","4","4","5","5","5","4","4","1","1","2","2","2","1","1","1","2","0","0","1","1","0","0","0","1","0","0","1","0","1","0","0","4","1","2","2","1","3","5","4","1","2","656564690050088960","张","358","","","","","","","","","","","","","","","","","","","","","","","","","","","","","","","","","","","","","","","",""
"629","<p style=""color:white; font-size: 35px;"">高效</p>","e","categorize-html","179","338122","0.0-6.0-0.0-8.0-1.35","3","4","4","3","4","4","3","3","4","4","5","5","4","4","4","5","5","5","4","4","1","1","2","2","2","1","1","1","2","0","0","1","1","0","0","0","1","0","0","1","0","1","0","0","4","1","2","2","1","3","5","4","1","2","656564690050088960","张","358","","","","","","","","","","","","","","","","","","","true","4","4","ability","629","positive","高效","","","","","","","","","","","","","","",""
"null","","null","html-keyboard-response","180","338373","0.0-6.0-0.0-8.0-0.36","3","4","4","3","4","4","3","3","4","4","5","5","4","4","4","5","5","5","4","4","1","1","2","2","2","1","1","1","2","0","0","1","1","0","0","0","1","0","0","1","0","1","0","0","4","1","2","2","1","3","5","4","1","2","656564690050088960","张","358","","","","","","","","","","","","","","","","","","","","","","","","","","","","","","","","","","","","","","","",""
"626","<p style=""color:rgb(150, 250, 100); font-size: 35px;"">他人</p>","i","categorize-html","181","338999","0.0-6.0-0.0-8.0-1.36","3","4","4","3","4","4","3","3","4","4","5","5","4","4","4","5","5","5","4","4","1","1","2","2","2","1","1","1","2","0","0","1","1","0","0","0","1","0","0","1","0","1","0","0","4","1","2","2","1","3","5","4","1","2","656564690050088960","张","358","","","","","","","","","","","","","","","","","","","true","4","4","ability","626","other","他人","","","","","","","","","","","","","","",""
"null","","null","html-keyboard-response","182","339250","0.0-6.0-0.0-8.0-0.37","3","4","4","3","4","4","3","3","4","4","5","5","4","4","4","5","5","5","4","4","1","1","2","2","2","1","1","1","2","0","0","1","1","0","0","0","1","0","0","1","0","1","0","0","4","1","2","2","1","3","5","4","1","2","656564690050088960","张","358","","","","","","","","","","","","","","","","","","","","","","","","","","","","","","","","","","","","","","","",""
"621","<p style=""color:white; font-size: 35px;"">拙笨</p>","i","categorize-html","183","339871","0.0-6.0-0.0-8.0-1.37","3","4","4","3","4","4","3","3","4","4","5","5","4","4","4","5","5","5","4","4","1","1","2","2","2","1","1","1","2","0","0","1","1","0","0","0","1","0","0","1","0","1","0","0","4","1","2","2","1","3","5","4","1","2","656564690050088960","张","358","","","","","","","","","","","","","","","","","","","true","4","4","ability","621","negative","拙笨","","","","","","","","","","","","","","",""
"null","","null","html-keyboard-response","184","340122","0.0-6.0-0.0-8.0-0.38","3","4","4","3","4","4","3","3","4","4","5","5","4","4","4","5","5","5","4","4","1","1","2","2","2","1","1","1","2","0","0","1","1","0","0","0","1","0","0","1","0","1","0","0","4","1","2","2","1","3","5","4","1","2","656564690050088960","张","358","","","","","","","","","","","","","","","","","","","","","","","","","","","","","","","","","","","","","","","",""
"669","<p style=""color:rgb(150, 250, 100); font-size: 35px;"">自己</p>","e","categorize-html","185","340791","0.0-6.0-0.0-8.0-1.38","3","4","4","3","4","4","3","3","4","4","5","5","4","4","4","5","5","5","4","4","1","1","2","2","2","1","1","1","2","0","0","1","1","0","0","0","1","0","0","1","0","1","0","0","4","1","2","2","1","3","5","4","1","2","656564690050088960","张","358","","","","","","","","","","","","","","","","","","","true","4","4","ability","669","self","自己","","","","","","","","","","","","","","",""
"null","","null","html-keyboard-response","186","341042","0.0-6.0-0.0-8.0-0.39","3","4","4","3","4","4","3","3","4","4","5","5","4","4","4","5","5","5","4","4","1","1","2","2","2","1","1","1","2","0","0","1","1","0","0","0","1","0","0","1","0","1","0","0","4","1","2","2","1","3","5","4","1","2","656564690050088960","张","358","","","","","","","","","","","","","","","","","","","","","","","","","","","","","","","","","","","","","","","",""
"1045","<p style=""color:white; font-size: 35px;"">天才</p>","e","categorize-html","187","342087","0.0-6.0-0.0-8.0-1.39","3","4","4","3","4","4","3","3","4","4","5","5","4","4","4","5","5","5","4","4","1","1","2","2","2","1","1","1","2","0","0","1","1","0","0","0","1","0","0","1","0","1","0","0","4","1","2","2","1","3","5","4","1","2","656564690050088960","张","358","","","","","","","","","","","","","","","","","","","true","4","4","ability","1045","positive","天才","","","","","","","","","","","","","","",""
"null","","null","html-keyboard-response","188","342338","0.0-6.0-0.0-8.0-0.40","3","4","4","3","4","4","3","3","4","4","5","5","4","4","4","5","5","5","4","4","1","1","2","2","2","1","1","1","2","0","0","1","1","0","0","0","1","0","0","1","0","1","0","0","4","1","2","2","1","3","5","4","1","2","656564690050088960","张","358","","","","","","","","","","","","","","","","","","","","","","","","","","","","","","","","","","","","","","","",""
"573","<p style=""color:rgb(150, 250, 100); font-size: 35px;"">他的</p>","i","categorize-html","189","342911","0.0-6.0-0.0-8.0-1.40","3","4","4","3","4","4","3","3","4","4","5","5","4","4","4","5","5","5","4","4","1","1","2","2","2","1","1","1","2","0","0","1","1","0","0","0","1","0","0","1","0","1","0","0","4","1","2","2","1","3","5","4","1","2","656564690050088960","张","358","","","","","","","","","","","","","","","","","","","true","4","4","ability","573","other","他的","","","","","","","","","","","","","","",""
"null","","null","html-keyboard-response","190","343163","0.0-6.0-0.0-8.0-0.41","3","4","4","3","4","4","3","3","4","4","5","5","4","4","4","5","5","5","4","4","1","1","2","2","2","1","1","1","2","0","0","1","1","0","0","0","1","0","0","1","0","1","0","0","4","1","2","2","1","3","5","4","1","2","656564690050088960","张","358","","","","","","","","","","","","","","","","","","","","","","","","","","","","","","","","","","","","","","","",""
"604","<p style=""color:white; font-size: 35px;"">全能</p>","e","categorize-html","191","343767","0.0-6.0-0.0-8.0-1.41","3","4","4","3","4","4","3","3","4","4","5","5","4","4","4","5","5","5","4","4","1","1","2","2","2","1","1","1","2","0","0","1","1","0","0","0","1","0","0","1","0","1","0","0","4","1","2","2","1","3","5","4","1","2","656564690050088960","张","358","","","","","","","","","","","","","","","","","","","true","4","4","ability","604","positive","全能","","","","","","","","","","","","","","",""
"null","","null","html-keyboard-response","192","344018","0.0-6.0-0.0-8.0-0.42","3","4","4","3","4","4","3","3","4","4","5","5","4","4","4","5","5","5","4","4","1","1","2","2","2","1","1","1","2","0","0","1","1","0","0","0","1","0","0","1","0","1","0","0","4","1","2","2","1","3","5","4","1","2","656564690050088960","张","358","","","","","","","","","","","","","","","","","","","","","","","","","","","","","","","","","","","","","","","",""
"1205","<p style=""color:rgb(150, 250, 100); font-size: 35px;"">自己的</p>","e","categorize-html","193","345224","0.0-6.0-0.0-8.0-1.42","3","4","4","3","4","4","3","3","4","4","5","5","4","4","4","5","5","5","4","4","1","1","2","2","2","1","1","1","2","0","0","1","1","0","0","0","1","0","0","1","0","1","0","0","4","1","2","2","1","3","5","4","1","2","656564690050088960","张","358","","","","","","","","","","","","","","","","","","","true","4","4","ability","1205","self","自己的","","","","","","","","","","","","","","",""
"null","","null","html-keyboard-response","194","345476","0.0-6.0-0.0-8.0-0.43","3","4","4","3","4","4","3","3","4","4","5","5","4","4","4","5","5","5","4","4","1","1","2","2","2","1","1","1","2","0","0","1","1","0","0","0","1","0","0","1","0","1","0","0","4","1","2","2","1","3","5","4","1","2","656564690050088960","张","358","","","","","","","","","","","","","","","","","","","","","","","","","","","","","","","","","","","","","","","",""
"619","<p style=""color:white; font-size: 35px;"">无能</p>","i","categorize-html","195","346095","0.0-6.0-0.0-8.0-1.43","3","4","4","3","4","4","3","3","4","4","5","5","4","4","4","5","5","5","4","4","1","1","2","2","2","1","1","1","2","0","0","1","1","0","0","0","1","0","0","1","0","1","0","0","4","1","2","2","1","3","5","4","1","2","656564690050088960","张","358","","","","","","","","","","","","","","","","","","","true","4","4","ability","619","negative","无能","","","","","","","","","","","","","","",""
