"rt","stimulus","response","trial_type","trial_index","time_elapsed","internal_node_id","ses_1","ses_2","ses_3","ses_4","ses_5","ses_6","ses_7","ses_8","ses_9","ses_10","coreself_1","coreself_2","coreself_3","coreself_4","coreself_5","coreself_6","coreself_7","coreself_8","coreself_9","coreself_10","SGPS_1","SGPS_2","SGPS_3","SGPS_4","SGPS_5","SGPS_6","SGPS_7","SGPS_8","SGPS_9","NPI1","NPI2","NPI3","NPI4","NPI5","NPI6","NPI7","NPI8","NPI9","NPI10","NPI11","NPI12","NPI13","NPI14","NPI15","hsns_1","hsns_2","hsns_3","hsns_4","hsns_5","hsns_6","hsns_7","hsns_8","hsns_9","hsns_10","subj_idx","friend_name","ParticipantID","value","success","user_agent","responses","item_order","radio_event_ids","radio_event_times","key_event_times","mouse_event_times","straightlining","zigzagging","honeypot","timeout","failed_images","failed_audio","failed_video","view_history","response_type","key_press","avg_frame_time","center_x","center_y","correct_response","correct","identity","Image","word","condition","task_id","screen_id","time_stamp","version_attrib","version_target","IAT","RT","varname","summary","version_attrib2","version_target2","question_order"
"16773","
   <p><div style = ""color: white;font-size:25px;"">您好，欢迎参加本次实验。</div> </p>
   <p><div style = ""color: white;font-size:25px;"">为充分保障您的权利，请确保您已经知晓并同意《参与实验同意书》以及《数据公开知情同意书》。</div></p>
   <p><div style = ""color: white;font-size:25px;"">如果您未见过上述内容，请咨询实验员。</div></p>
   <p><div style = ""color: white;font-size:25px;"">如果您选择继续实验，则表示您已经清楚两份知情同意书的内容并同意。</div></p>
   <p><div style = ""color: red;font-size:30px;"">请确保您记得day0的实验编号，您将在本次实验输入该编号，若您忘记，请咨询实验员后作答。</div></p>
   <p> <div style = ""color: green;font-size:25px;""><按空格键至下页></div> </p>
   "," ","html-keyboard-response","0","16776","0.0-0.0","3","2","3","3","2","2","2","2","2","2","3","2","2","3","2","2","2","2","3","2","2","4","2","2","3","2","2","2","1","1","0","1","1","0","0","1","1","0","1","1","0","1","0","1","4","4","4","5","2","3","4","2","4","2","758376715339960322","赵","448","","","","","","","","","","","","","","","","","","","","","","","","","","","","","","","","","","","","","","","",""
"","","","call-function","1","16779","0.0-1.0-0.0","3","2","3","3","2","2","2","2","2","2","3","2","2","3","2","2","2","2","3","2","2","4","2","2","3","2","2","2","1","1","0","1","1","0","0","1","1","0","1","1","0","1","0","1","4","4","4","5","2","3","4","2","4","2","758376715339960322","赵","448","","","","","","","","","","","","","","","","","","","","","","","","","","","","","","","","","","","","","","","",""
"22423","","{""friend_name"":""赵"",""ParticipantID"":""448""}","survey-html-form","2","39206","0.0-1.0-1.0","3","2","3","3","2","2","2","2","2","2","3","2","2","3","2","2","2","2","3","2","2","4","2","2","3","2","2","2","1","1","0","1","1","0","0","1","1","0","1","1","0","1","0","1","4","4","4","5","2","3","4","2","4","2","758376715339960322","赵","448","","","","","","","","","","","","","","","","","","","","","","","","","","","","","","","","","","","","","","","",""
"","","","fullscreen","3","84904","0.0-2.0","3","2","3","3","2","2","2","2","2","2","3","2","2","3","2","2","2","2","3","2","2","4","2","2","3","2","2","2","1","1","0","1","1","0","0","1","1","0","1","1","0","1","0","1","4","4","4","5","2","3","4","2","4","2","758376715339960322","赵","448","","true","{}","","","","","","","","","","","","","","","","","","","","","","","","","","","","","","","","","","","","",""
"33310.40000009537","","{""Q01"":""3"",""Q02"":""2"",""Q03"":""3"",""Q04"":""3"",""Q05"":""2"",""Q06"":""2"",""Q07"":""2"",""Q08"":""2"",""Q09"":""2"",""Q10"":""2""}","survey-template","4","118220","0.0-3.0","3","2","3","3","2","2","2","2","2","2","3","2","2","3","2","2","2","2","3","2","2","4","2","2","3","2","2","2","1","1","0","1","1","0","0","1","1","0","1","1","0","1","0","1","4","4","4","5","2","3","4","2","4","2","758376715339960322","赵","448","","","","{""Q01"":""3"",""Q02"":""2"",""Q03"":""3"",""Q04"":""3"",""Q05"":""2"",""Q06"":""2"",""Q07"":""2"",""Q08"":""2"",""Q09"":""2"",""Q10"":""2""}","[0,1,2,3,4,5,6,7,8,9]","[""Q01"",""Q02"",""Q03"",""Q04"",""Q05"",""Q06"",""Q07"",""Q08"",""Q09"",""Q10""]","[3588.5,10222.900000095367,12547,18060.700000047684,20012.400000095367,22742.5,25274.400000095367,28394.900000095367,30360.400000095367,32080.60000014305]","[]","[3588.5,10222.900000095367,12547,18060.700000047684,20012.400000095367,22742.5,25274.400000095367,28394.900000095367,30360.400000095367,32080.60000014305,33308.5]","0.6","0.4444444444444444","0","","","","","","","","","","","","","","","","","","","","","","","","","","","",""
"35449.09999990463","","{""Q01"":""3"",""Q02"":""2"",""Q03"":""2"",""Q04"":""3"",""Q05"":""2"",""Q06"":""2"",""Q07"":""2"",""Q08"":""2"",""Q09"":""3"",""Q10"":""2""}","survey-template","5","153680","0.0-4.0","3","2","3","3","2","2","2","2","2","2","3","2","2","3","2","2","2","2","3","2","2","4","2","2","3","2","2","2","1","1","0","1","1","0","0","1","1","0","1","1","0","1","0","1","4","4","4","5","2","3","4","2","4","2","758376715339960322","赵","448","","","","{""Q01"":""3"",""Q02"":""2"",""Q03"":""2"",""Q04"":""3"",""Q05"":""2"",""Q06"":""2"",""Q07"":""2"",""Q08"":""2"",""Q09"":""3"",""Q10"":""2""}","[0,1,2,3,4,5,6,7,8,9]","[""Q01"",""Q02"",""Q03"",""Q04"",""Q05"",""Q06"",""Q07"",""Q08"",""Q09"",""Q10""]","[12408.299999952316,14850.400000095367,17306.099999904633,21889.900000095367,24416.599999904633,25452.5,26840.200000047684,30854.299999952316,32174,34186]","[]","[12408.299999952316,14850.400000095367,17306.099999904633,21889.900000095367,24416.599999904633,25452.5,26840.200000047684,28488.599999904633,30854.299999952316,31702.400000095367,32174,34186,35447.200000047684]","0.6","0.5555555555555556","0","","","","","","","","","","","","","","","","","","","","","","","","","","","",""
"","","","preload","6","153910","0.0-5.0","3","2","3","3","2","2","2","2","2","2","3","2","2","3","2","2","2","2","3","2","2","4","2","2","3","2","2","2","1","1","0","1","1","0","0","1","1","0","1","1","0","1","0","1","4","4","4","5","2","3","4","2","4","2","758376715339960322","赵","448","","true","","","","","","","","","","","false","[]","[]","[]","","","","","","","","","","","","","","","","","","","","","","","",""
"36269","","","instructions","7","190179","0.0-6.0","3","2","3","3","2","2","2","2","2","2","3","2","2","3","2","2","2","2","3","2","2","4","2","2","3","2","2","2","1","1","0","1","1","0","0","1","1","0","1","1","0","1","0","1","4","4","4","5","2","3","4","2","4","2","758376715339960322","赵","448","","","","","","","","","","","","","","","","","[{""page_index"":0,""viewing_time"":36268}]","","","","","","","","","","","","","","","","","","","","","","",""
"50292","","","instructions","8","240474","0.0-7.0-1.0-0.0","3","2","3","3","2","2","2","2","2","2","3","2","2","3","2","2","2","2","3","2","2","4","2","2","3","2","2","2","1","1","0","1","1","0","0","1","1","0","1","1","0","1","0","1","4","4","4","5","2","3","4","2","4","2","758376715339960322","赵","448","","","","","","","","","","","","","","","","","[{""page_index"":0,""viewing_time"":30537},{""page_index"":1,""viewing_time"":16488},{""page_index"":2,""viewing_time"":3268}]","","","","","","","","","","","","","","","","","","","","","","",""
"null","","null","psychophysics","9","242698","0.0-7.0-1.0-1.0-0.0-0.0","3","2","3","3","2","2","2","2","2","2","3","2","2","3","2","2","2","2","3","2","2","4","2","2","3","2","2","2","1","1","0","1","1","0","0","1","1","0","1","1","0","1","0","1","4","4","4","5","2","3","4","2","4","2","758376715339960322","赵","448","","","","null","","","","","","","","","","","","","","key","null","16.793809160305354","768","428","f","false","match","img/pentagon.png","五边","五边","ALT1_2","prac_ALT1_2","","","","","","","","","",""
"null","<span class='add_' style='color:yellow; font-size: 70px;'> 太慢! </span>","null","html-keyboard-response","10","243209","0.0-7.0-1.0-1.0-0.0-1.0","3","2","3","3","2","2","2","2","2","2","3","2","2","3","2","2","2","2","3","2","2","4","2","2","3","2","2","2","1","1","0","1","1","0","0","1","1","0","1","1","0","1","0","1","4","4","4","5","2","3","4","2","4","2","758376715339960322","赵","448","","","","","","","","","","","","","","","","","","","","","","","","","","","","","","feedback_test","","","","","","","","","",""
"342","","f","psychophysics","11","244574","0.0-7.0-1.0-1.0-0.0-0.1","3","2","3","3","2","2","2","2","2","2","3","2","2","3","2","2","2","2","3","2","2","4","2","2","3","2","2","2","1","1","0","1","1","0","0","1","1","0","1","1","0","1","0","1","4","4","4","5","2","3","4","2","4","2","758376715339960322","赵","448","","","","match","","","","","","","","","","","","","","key","f","16.619802469135777","768","428","j","false","nonmatch","img/ellipse.png","五边","椭圆","ALT1_2","prac_ALT1_2","","","","","","","","","",""
"null","<span style='color:red; font-size: 70px;'>错误! </span>","null","html-keyboard-response","12","245075","0.0-7.0-1.0-1.0-0.0-1.1","3","2","3","3","2","2","2","2","2","2","3","2","2","3","2","2","2","2","3","2","2","4","2","2","3","2","2","2","1","1","0","1","1","0","0","1","1","0","1","1","0","1","0","1","4","4","4","5","2","3","4","2","4","2","758376715339960322","赵","448","","","","","","","","","","","","","","","","","","","","","","","","","","","","","","feedback_test","","","","","","","","","",""
"null","","null","psychophysics","13","247284","0.0-7.0-1.0-1.0-0.0-0.2","3","2","3","3","2","2","2","2","2","2","3","2","2","3","2","2","2","2","3","2","2","4","2","2","3","2","2","2","1","1","0","1","1","0","0","1","1","0","1","1","0","1","0","1","4","4","4","5","2","3","4","2","4","2","758376715339960322","赵","448","","","","null","","","","","","","","","","","","","","key","null","16.670630769230776","768","428","f","false","match","img/ellipse.png","椭圆","椭圆","ALT1_2","prac_ALT1_2","","","","","","","","","",""
"null","<span class='add_' style='color:yellow; font-size: 70px;'> 太慢! </span>","null","html-keyboard-response","14","247786","0.0-7.0-1.0-1.0-0.0-1.2","3","2","3","3","2","2","2","2","2","2","3","2","2","3","2","2","2","2","3","2","2","4","2","2","3","2","2","2","1","1","0","1","1","0","0","1","1","0","1","1","0","1","0","1","4","4","4","5","2","3","4","2","4","2","758376715339960322","赵","448","","","","","","","","","","","","","","","","","","","","","","","","","","","","","","feedback_test","","","","","","","","","",""
"null","","null","psychophysics","15","250018","0.0-7.0-1.0-1.0-0.0-0.3","3","2","3","3","2","2","2","2","2","2","3","2","2","3","2","2","2","2","3","2","2","4","2","2","3","2","2","2","1","1","0","1","1","0","0","1","1","0","1","1","0","1","0","1","4","4","4","5","2","3","4","2","4","2","758376715339960322","赵","448","","","","null","","","","","","","","","","","","","","key","null","16.65851879699236","768","428","j","false","nonmatch","img/pentagon.png","椭圆","五边","ALT1_2","prac_ALT1_2","","","","","","","","","",""
"null","<span class='add_' style='color:yellow; font-size: 70px;'> 太慢! </span>","null","html-keyboard-response","16","250540","0.0-7.0-1.0-1.0-0.0-1.3","3","2","3","3","2","2","2","2","2","2","3","2","2","3","2","2","2","2","3","2","2","4","2","2","3","2","2","2","1","1","0","1","1","0","0","1","1","0","1","1","0","1","0","1","4","4","4","5","2","3","4","2","4","2","758376715339960322","赵","448","","","","","","","","","","","","","","","","","","","","","","","","","","","","","","feedback_test","","","","","","","","","",""
"null","","null","psychophysics","17","252750","0.0-7.0-1.0-1.0-0.0-0.4","3","2","3","3","2","2","2","2","2","2","3","2","2","3","2","2","2","2","3","2","2","4","2","2","3","2","2","2","1","1","0","1","1","0","0","1","1","0","1","1","0","1","0","1","4","4","4","5","2","3","4","2","4","2","758376715339960322","赵","448","","","","null","","","","","","","","","","","","","","key","null","16.58465648854959","768","428","j","false","nonmatch","img/pentagon.png","三角","五边","ALT1_2","prac_ALT1_2","","","","","","","","","",""
"null","<span class='add_' style='color:yellow; font-size: 70px;'> 太慢! </span>","null","html-keyboard-response","18","253258","0.0-7.0-1.0-1.0-0.0-1.4","3","2","3","3","2","2","2","2","2","2","3","2","2","3","2","2","2","2","3","2","2","4","2","2","3","2","2","2","1","1","0","1","1","0","0","1","1","0","1","1","0","1","0","1","4","4","4","5","2","3","4","2","4","2","758376715339960322","赵","448","","","","","","","","","","","","","","","","","","","","","","","","","","","","","","feedback_test","","","","","","","","","",""
"521","","f","psychophysics","19","254799","0.0-7.0-1.0-1.0-0.0-0.5","3","2","3","3","2","2","2","2","2","2","3","2","2","3","2","2","2","2","3","2","2","4","2","2","3","2","2","2","1","1","0","1","1","0","0","1","1","0","1","1","0","1","0","1","4","4","4","5","2","3","4","2","4","2","758376715339960322","赵","448","","","","match","","","","","","","","","","","","","","key","f","16.66392307692293","768","428","j","false","nonmatch","img/trapezoid.png","五边","梯形","ALT1_2","prac_ALT1_2","","","","","","","","","",""
"null","<span style='color:red; font-size: 70px;'>错误! </span>","null","html-keyboard-response","20","255301","0.0-7.0-1.0-1.0-0.0-1.5","3","2","3","3","2","2","2","2","2","2","3","2","2","3","2","2","2","2","3","2","2","4","2","2","3","2","2","2","1","1","0","1","1","0","0","1","1","0","1","1","0","1","0","1","4","4","4","5","2","3","4","2","4","2","758376715339960322","赵","448","","","","","","","","","","","","","","","","","","","","","","","","","","","","","","feedback_test","","","","","","","","","",""
"815","","j","psychophysics","21","257122","0.0-7.0-1.0-1.0-0.0-0.6","3","2","3","3","2","2","2","2","2","2","3","2","2","3","2","2","2","2","3","2","2","4","2","2","3","2","2","2","1","1","0","1","1","0","0","1","1","0","1","1","0","1","0","1","4","4","4","5","2","3","4","2","4","2","758376715339960322","赵","448","","","","nonmatch","","","","","","","","","","","","","","key","j","16.53928703703719","768","428","j","true","nonmatch","img/trapezoid.png","椭圆","梯形","ALT1_2","prac_ALT1_2","","","","","","","","","",""
"null","<span style='color:GreenYellow; font-size: 70px;'>正确! </span>","null","html-keyboard-response","22","257632","0.0-7.0-1.0-1.0-0.0-1.6","3","2","3","3","2","2","2","2","2","2","3","2","2","3","2","2","2","2","3","2","2","4","2","2","3","2","2","2","1","1","0","1","1","0","0","1","1","0","1","1","0","1","0","1","4","4","4","5","2","3","4","2","4","2","758376715339960322","赵","448","","","","","","","","","","","","","","","","","","","","","","","","","","","","","","feedback_test","","","","","","","","","",""
"632","","j","psychophysics","23","259267","0.0-7.0-1.0-1.0-0.0-0.7","3","2","3","3","2","2","2","2","2","2","3","2","2","3","2","2","2","2","3","2","2","4","2","2","3","2","2","2","1","1","0","1","1","0","0","1","1","0","1","1","0","1","0","1","4","4","4","5","2","3","4","2","4","2","758376715339960322","赵","448","","","","nonmatch","","","","","","","","","","","","","","key","j","16.55447422680427","768","428","j","true","nonmatch","img/triangle.png","椭圆","三角","ALT1_2","prac_ALT1_2","","","","","","","","","",""
"null","<span style='color:GreenYellow; font-size: 70px;'>正确! </span>","null","html-keyboard-response","24","259769","0.0-7.0-1.0-1.0-0.0-1.7","3","2","3","3","2","2","2","2","2","2","3","2","2","3","2","2","2","2","3","2","2","4","2","2","3","2","2","2","1","1","0","1","1","0","0","1","1","0","1","1","0","1","0","1","4","4","4","5","2","3","4","2","4","2","758376715339960322","赵","448","","","","","","","","","","","","","","","","","","","","","","","","","","","","","","feedback_test","","","","","","","","","",""
"649","","f","psychophysics","25","261441","0.0-7.0-1.0-1.0-0.0-0.8","3","2","3","3","2","2","2","2","2","2","3","2","2","3","2","2","2","2","3","2","2","4","2","2","3","2","2","2","1","1","0","1","1","0","0","1","1","0","1","1","0","1","0","1","4","4","4","5","2","3","4","2","4","2","758376715339960322","赵","448","","","","match","","","","","","","","","","","","","","key","f","16.664545454545536","768","428","f","true","match","img/trapezoid.png","梯形","梯形","ALT1_2","prac_ALT1_2","","","","","","","","","",""
"null","<span style='color:GreenYellow; font-size: 70px;'>正确! </span>","null","html-keyboard-response","26","261946","0.0-7.0-1.0-1.0-0.0-1.8","3","2","3","3","2","2","2","2","2","2","3","2","2","3","2","2","2","2","3","2","2","4","2","2","3","2","2","2","1","1","0","1","1","0","0","1","1","0","1","1","0","1","0","1","4","4","4","5","2","3","4","2","4","2","758376715339960322","赵","448","","","","","","","","","","","","","","","","","","","","","","","","","","","","","","feedback_test","","","","","","","","","",""
"641","","j","psychophysics","27","263590","0.0-7.0-1.0-1.0-0.0-0.9","3","2","3","3","2","2","2","2","2","2","3","2","2","3","2","2","2","2","3","2","2","4","2","2","3","2","2","2","1","1","0","1","1","0","0","1","1","0","1","1","0","1","0","1","4","4","4","5","2","3","4","2","4","2","758376715339960322","赵","448","","","","nonmatch","","","","","","","","","","","","","","key","j","16.666556701031105","768","428","j","true","nonmatch","img/triangle.png","梯形","三角","ALT1_2","prac_ALT1_2","","","","","","","","","",""
"null","<span style='color:GreenYellow; font-size: 70px;'>正确! </span>","null","html-keyboard-response","28","264093","0.0-7.0-1.0-1.0-0.0-1.9","3","2","3","3","2","2","2","2","2","2","3","2","2","3","2","2","2","2","3","2","2","4","2","2","3","2","2","2","1","1","0","1","1","0","0","1","1","0","1","1","0","1","0","1","4","4","4","5","2","3","4","2","4","2","758376715339960322","赵","448","","","","","","","","","","","","","","","","","","","","","","","","","","","","","","feedback_test","","","","","","","","","",""
"694","","f","psychophysics","29","265792","0.0-7.0-1.0-1.0-0.0-0.10","3","2","3","3","2","2","2","2","2","2","3","2","2","3","2","2","2","2","3","2","2","4","2","2","3","2","2","2","1","1","0","1","1","0","0","1","1","0","1","1","0","1","0","1","4","4","4","5","2","3","4","2","4","2","758376715339960322","赵","448","","","","match","","","","","","","","","","","","","","key","f","16.667089108910783","768","428","j","false","nonmatch","img/pentagon.png","梯形","五边","ALT1_2","prac_ALT1_2","","","","","","","","","",""
"null","<span style='color:red; font-size: 70px;'>错误! </span>","null","html-keyboard-response","30","266296","0.0-7.0-1.0-1.0-0.0-1.10","3","2","3","3","2","2","2","2","2","2","3","2","2","3","2","2","2","2","3","2","2","4","2","2","3","2","2","2","1","1","0","1","1","0","0","1","1","0","1","1","0","1","0","1","4","4","4","5","2","3","4","2","4","2","758376715339960322","赵","448","","","","","","","","","","","","","","","","","","","","","","","","","","","","","","feedback_test","","","","","","","","","",""
"657","","f","psychophysics","31","267988","0.0-7.0-1.0-1.0-0.0-0.11","3","2","3","3","2","2","2","2","2","2","3","2","2","3","2","2","2","2","3","2","2","4","2","2","3","2","2","2","1","1","0","1","1","0","0","1","1","0","1","1","0","1","0","1","4","4","4","5","2","3","4","2","4","2","758376715339960322","赵","448","","","","match","","","","","","","","","","","","","","key","f","16.615520000000252","768","428","f","true","match","img/ellipse.png","椭圆","椭圆","ALT1_2","prac_ALT1_2","","","","","","","","","",""
"null","<span style='color:GreenYellow; font-size: 70px;'>正确! </span>","null","html-keyboard-response","32","268490","0.0-7.0-1.0-1.0-0.0-1.11","3","2","3","3","2","2","2","2","2","2","3","2","2","3","2","2","2","2","3","2","2","4","2","2","3","2","2","2","1","1","0","1","1","0","0","1","1","0","1","1","0","1","0","1","4","4","4","5","2","3","4","2","4","2","758376715339960322","赵","448","","","","","","","","","","","","","","","","","","","","","","","","","","","","","","feedback_test","","","","","","","","","",""
"510","","f","psychophysics","33","270004","0.0-7.0-1.0-1.0-0.0-0.12","3","2","3","3","2","2","2","2","2","2","3","2","2","3","2","2","2","2","3","2","2","4","2","2","3","2","2","2","1","1","0","1","1","0","0","1","1","0","1","1","0","1","0","1","4","4","4","5","2","3","4","2","4","2","758376715339960322","赵","448","","","","match","","","","","","","","","","","","","","key","f","16.61939999999983","768","428","f","true","match","img/triangle.png","三角","三角","ALT1_2","prac_ALT1_2","","","","","","","","","",""
"null","<span style='color:GreenYellow; font-size: 70px;'>正确! </span>","null","html-keyboard-response","34","270508","0.0-7.0-1.0-1.0-0.0-1.12","3","2","3","3","2","2","2","2","2","2","3","2","2","3","2","2","2","2","3","2","2","4","2","2","3","2","2","2","1","1","0","1","1","0","0","1","1","0","1","1","0","1","0","1","4","4","4","5","2","3","4","2","4","2","758376715339960322","赵","448","","","","","","","","","","","","","","","","","","","","","","","","","","","","","","feedback_test","","","","","","","","","",""
"575","","f","psychophysics","35","272086","0.0-7.0-1.0-1.0-0.0-0.13","3","2","3","3","2","2","2","2","2","2","3","2","2","3","2","2","2","2","3","2","2","4","2","2","3","2","2","2","1","1","0","1","1","0","0","1","1","0","1","1","0","1","0","1","4","4","4","5","2","3","4","2","4","2","758376715339960322","赵","448","","","","match","","","","","","","","","","","","","","key","f","16.66420212765955","768","428","f","true","match","img/pentagon.png","五边","五边","ALT1_2","prac_ALT1_2","","","","","","","","","",""
"null","<span style='color:GreenYellow; font-size: 70px;'>正确! </span>","null","html-keyboard-response","36","272595","0.0-7.0-1.0-1.0-0.0-1.13","3","2","3","3","2","2","2","2","2","2","3","2","2","3","2","2","2","2","3","2","2","4","2","2","3","2","2","2","1","1","0","1","1","0","0","1","1","0","1","1","0","1","0","1","4","4","4","5","2","3","4","2","4","2","758376715339960322","赵","448","","","","","","","","","","","","","","","","","","","","","","","","","","","","","","feedback_test","","","","","","","","","",""
"406","","f","psychophysics","37","274035","0.0-7.0-1.0-1.0-0.0-0.14","3","2","3","3","2","2","2","2","2","2","3","2","2","3","2","2","2","2","3","2","2","4","2","2","3","2","2","2","1","1","0","1","1","0","0","1","1","0","1","1","0","1","0","1","4","4","4","5","2","3","4","2","4","2","758376715339960322","赵","448","","","","match","","","","","","","","","","","","","","key","f","16.66385882352958","768","428","f","true","match","img/triangle.png","三角","三角","ALT1_2","prac_ALT1_2","","","","","","","","","",""
"null","<span style='color:GreenYellow; font-size: 70px;'>正确! </span>","null","html-keyboard-response","38","274548","0.0-7.0-1.0-1.0-0.0-1.14","3","2","3","3","2","2","2","2","2","2","3","2","2","3","2","2","2","2","3","2","2","4","2","2","3","2","2","2","1","1","0","1","1","0","0","1","1","0","1","1","0","1","0","1","4","4","4","5","2","3","4","2","4","2","758376715339960322","赵","448","","","","","","","","","","","","","","","","","","","","","","","","","","","","","","feedback_test","","","","","","","","","",""
"461","","f","psychophysics","39","276013","0.0-7.0-1.0-1.0-0.0-0.15","3","2","3","3","2","2","2","2","2","2","3","2","2","3","2","2","2","2","3","2","2","4","2","2","3","2","2","2","1","1","0","1","1","0","0","1","1","0","1","1","0","1","0","1","4","4","4","5","2","3","4","2","4","2","758376715339960322","赵","448","","","","match","","","","","","","","","","","","","","key","f","16.542275862069133","768","428","j","false","nonmatch","img/ellipse.png","三角","椭圆","ALT1_2","prac_ALT1_2","","","","","","","","","",""
"null","<span style='color:red; font-size: 70px;'>错误! </span>","null","html-keyboard-response","40","276517","0.0-7.0-1.0-1.0-0.0-1.15","3","2","3","3","2","2","2","2","2","2","3","2","2","3","2","2","2","2","3","2","2","4","2","2","3","2","2","2","1","1","0","1","1","0","0","1","1","0","1","1","0","1","0","1","4","4","4","5","2","3","4","2","4","2","758376715339960322","赵","448","","","","","","","","","","","","","","","","","","","","","","","","","","","","","","feedback_test","","","","","","","","","",""
"764","","f","psychophysics","41","278284","0.0-7.0-1.0-1.0-0.0-0.16","3","2","3","3","2","2","2","2","2","2","3","2","2","3","2","2","2","2","3","2","2","4","2","2","3","2","2","2","1","1","0","1","1","0","0","1","1","0","1","1","0","1","0","1","4","4","4","5","2","3","4","2","4","2","758376715339960322","赵","448","","","","match","","","","","","","","","","","","","","key","f","16.570742857142996","768","428","f","true","match","img/trapezoid.png","梯形","梯形","ALT1_2","prac_ALT1_2","","","","","","","","","",""
"null","<span style='color:GreenYellow; font-size: 70px;'>正确! </span>","null","html-keyboard-response","42","278787","0.0-7.0-1.0-1.0-0.0-1.16","3","2","3","3","2","2","2","2","2","2","3","2","2","3","2","2","2","2","3","2","2","4","2","2","3","2","2","2","1","1","0","1","1","0","0","1","1","0","1","1","0","1","0","1","4","4","4","5","2","3","4","2","4","2","758376715339960322","赵","448","","","","","","","","","","","","","","","","","","","","","","","","","","","","","","feedback_test","","","","","","","","","",""
"600","","j","psychophysics","43","280411","0.0-7.0-1.0-1.0-0.0-0.17","3","2","3","3","2","2","2","2","2","2","3","2","2","3","2","2","2","2","3","2","2","4","2","2","3","2","2","2","1","1","0","1","1","0","0","1","1","0","1","1","0","1","0","1","4","4","4","5","2","3","4","2","4","2","758376715339960322","赵","448","","","","nonmatch","","","","","","","","","","","","","","key","j","16.578416666666573","768","428","j","true","nonmatch","img/triangle.png","五边","三角","ALT1_2","prac_ALT1_2","","","","","","","","","",""
"null","<span style='color:GreenYellow; font-size: 70px;'>正确! </span>","null","html-keyboard-response","44","280913","0.0-7.0-1.0-1.0-0.0-1.17","3","2","3","3","2","2","2","2","2","2","3","2","2","3","2","2","2","2","3","2","2","4","2","2","3","2","2","2","1","1","0","1","1","0","0","1","1","0","1","1","0","1","0","1","4","4","4","5","2","3","4","2","4","2","758376715339960322","赵","448","","","","","","","","","","","","","","","","","","","","","","","","","","","","","","feedback_test","","","","","","","","","",""
"532","","f","psychophysics","45","282451","0.0-7.0-1.0-1.0-0.0-0.18","3","2","3","3","2","2","2","2","2","2","3","2","2","3","2","2","2","2","3","2","2","4","2","2","3","2","2","2","1","1","0","1","1","0","0","1","1","0","1","1","0","1","0","1","4","4","4","5","2","3","4","2","4","2","758376715339960322","赵","448","","","","match","","","","","","","","","","","","","","key","f","16.665274725274497","768","428","f","true","match","img/trapezoid.png","梯形","梯形","ALT1_2","prac_ALT1_2","","","","","","","","","",""
"null","<span style='color:GreenYellow; font-size: 70px;'>正确! </span>","null","html-keyboard-response","46","282953","0.0-7.0-1.0-1.0-0.0-1.18","3","2","3","3","2","2","2","2","2","2","3","2","2","3","2","2","2","2","3","2","2","4","2","2","3","2","2","2","1","1","0","1","1","0","0","1","1","0","1","1","0","1","0","1","4","4","4","5","2","3","4","2","4","2","758376715339960322","赵","448","","","","","","","","","","","","","","","","","","","","","","","","","","","","","","feedback_test","","","","","","","","","",""
"475","","f","psychophysics","47","284431","0.0-7.0-1.0-1.0-0.0-0.19","3","2","3","3","2","2","2","2","2","2","3","2","2","3","2","2","2","2","3","2","2","4","2","2","3","2","2","2","1","1","0","1","1","0","0","1","1","0","1","1","0","1","0","1","4","4","4","5","2","3","4","2","4","2","758376715339960322","赵","448","","","","match","","","","","","","","","","","","","","key","f","16.664647727272744","768","428","f","true","match","img/triangle.png","三角","三角","ALT1_2","prac_ALT1_2","","","","","","","","","",""
"null","<span style='color:GreenYellow; font-size: 70px;'>正确! </span>","null","html-keyboard-response","48","284933","0.0-7.0-1.0-1.0-0.0-1.19","3","2","3","3","2","2","2","2","2","2","3","2","2","3","2","2","2","2","3","2","2","4","2","2","3","2","2","2","1","1","0","1","1","0","0","1","1","0","1","1","0","1","0","1","4","4","4","5","2","3","4","2","4","2","758376715339960322","赵","448","","","","","","","","","","","","","","","","","","","","","","","","","","","","","","feedback_test","","","","","","","","","",""
"372","","f","psychophysics","49","286332","0.0-7.0-1.0-1.0-0.0-0.20","3","2","3","3","2","2","2","2","2","2","3","2","2","3","2","2","2","2","3","2","2","4","2","2","3","2","2","2","1","1","0","1","1","0","0","1","1","0","1","1","0","1","0","1","4","4","4","5","2","3","4","2","4","2","758376715339960322","赵","448","","","","match","","","","","","","","","","","","","","key","f","16.580156626505918","768","428","f","true","match","img/pentagon.png","五边","五边","ALT1_2","prac_ALT1_2","","","","","","","","","",""
"null","<span style='color:GreenYellow; font-size: 70px;'>正确! </span>","null","html-keyboard-response","50","286836","0.0-7.0-1.0-1.0-0.0-1.20","3","2","3","3","2","2","2","2","2","2","3","2","2","3","2","2","2","2","3","2","2","4","2","2","3","2","2","2","1","1","0","1","1","0","0","1","1","0","1","1","0","1","0","1","4","4","4","5","2","3","4","2","4","2","758376715339960322","赵","448","","","","","","","","","","","","","","","","","","","","","","","","","","","","","","feedback_test","","","","","","","","","",""
"673","","j","psychophysics","51","288515","0.0-7.0-1.0-1.0-0.0-0.21","3","2","3","3","2","2","2","2","2","2","3","2","2","3","2","2","2","2","3","2","2","4","2","2","3","2","2","2","1","1","0","1","1","0","0","1","1","0","1","1","0","1","0","1","4","4","4","5","2","3","4","2","4","2","758376715339960322","赵","448","","","","nonmatch","","","","","","","","","","","","","","key","j","16.536410000000032","768","428","j","true","nonmatch","img/ellipse.png","梯形","椭圆","ALT1_2","prac_ALT1_2","","","","","","","","","",""
"null","<span style='color:GreenYellow; font-size: 70px;'>正确! </span>","null","html-keyboard-response","52","289020","0.0-7.0-1.0-1.0-0.0-1.21","3","2","3","3","2","2","2","2","2","2","3","2","2","3","2","2","2","2","3","2","2","4","2","2","3","2","2","2","1","1","0","1","1","0","0","1","1","0","1","1","0","1","0","1","4","4","4","5","2","3","4","2","4","2","758376715339960322","赵","448","","","","","","","","","","","","","","","","","","","","","","","","","","","","","","feedback_test","","","","","","","","","",""
"514","","f","psychophysics","53","290539","0.0-7.0-1.0-1.0-0.0-0.22","3","2","3","3","2","2","2","2","2","2","3","2","2","3","2","2","2","2","3","2","2","4","2","2","3","2","2","2","1","1","0","1","1","0","0","1","1","0","1","1","0","1","0","1","4","4","4","5","2","3","4","2","4","2","758376715339960322","赵","448","","","","match","","","","","","","","","","","","","","key","f","16.66487777777818","768","428","f","true","match","img/ellipse.png","椭圆","椭圆","ALT1_2","prac_ALT1_2","","","","","","","","","",""
"null","<span style='color:GreenYellow; font-size: 70px;'>正确! </span>","null","html-keyboard-response","54","291045","0.0-7.0-1.0-1.0-0.0-1.22","3","2","3","3","2","2","2","2","2","2","3","2","2","3","2","2","2","2","3","2","2","4","2","2","3","2","2","2","1","1","0","1","1","0","0","1","1","0","1","1","0","1","0","1","4","4","4","5","2","3","4","2","4","2","758376715339960322","赵","448","","","","","","","","","","","","","","","","","","","","","","","","","","","","","","feedback_test","","","","","","","","","",""
"536","","j","psychophysics","55","292614","0.0-7.0-1.0-1.0-0.0-0.23","3","2","3","3","2","2","2","2","2","2","3","2","2","3","2","2","2","2","3","2","2","4","2","2","3","2","2","2","1","1","0","1","1","0","0","1","1","0","1","1","0","1","0","1","4","4","4","5","2","3","4","2","4","2","758376715339960322","赵","448","","","","nonmatch","","","","","","","","","","","","","","key","j","16.66760215053763","768","428","j","true","nonmatch","img/trapezoid.png","三角","梯形","ALT1_2","prac_ALT1_2","","","","","","","","","",""
"null","<span style='color:GreenYellow; font-size: 70px;'>正确! </span>","null","html-keyboard-response","56","293118","0.0-7.0-1.0-1.0-0.0-1.23","3","2","3","3","2","2","2","2","2","2","3","2","2","3","2","2","2","2","3","2","2","4","2","2","3","2","2","2","1","1","0","1","1","0","0","1","1","0","1","1","0","1","0","1","4","4","4","5","2","3","4","2","4","2","758376715339960322","赵","448","","","","","","","","","","","","","","","","","","","","","","","","","","","","","","feedback_test","","","","","","","","","",""
"736","","f","psychophysics","57","294861","0.0-7.0-1.0-1.0-0.0-0.24","3","2","3","3","2","2","2","2","2","2","3","2","2","3","2","2","2","2","3","2","2","4","2","2","3","2","2","2","1","1","0","1","1","0","0","1","1","0","1","1","0","1","0","1","4","4","4","5","2","3","4","2","4","2","758376715339960322","赵","448","","","","match","","","","","","","","","","","","","","key","f","16.613586538461767","768","428","f","true","match","img/triangle.png","三角","三角","ALT1_2","prac_ALT1_2","","","","","","","","","",""
"null","<span style='color:GreenYellow; font-size: 70px;'>正确! </span>","null","html-keyboard-response","58","295365","0.0-7.0-1.0-1.0-0.0-1.24","3","2","3","3","2","2","2","2","2","2","3","2","2","3","2","2","2","2","3","2","2","4","2","2","3","2","2","2","1","1","0","1","1","0","0","1","1","0","1","1","0","1","0","1","4","4","4","5","2","3","4","2","4","2","758376715339960322","赵","448","","","","","","","","","","","","","","","","","","","","","","","","","","","","","","feedback_test","","","","","","","","","",""
"475","","f","psychophysics","59","296845","0.0-7.0-1.0-1.0-0.0-0.25","3","2","3","3","2","2","2","2","2","2","3","2","2","3","2","2","2","2","3","2","2","4","2","2","3","2","2","2","1","1","0","1","1","0","0","1","1","0","1","1","0","1","0","1","4","4","4","5","2","3","4","2","4","2","758376715339960322","赵","448","","","","match","","","","","","","","","","","","","","key","f","16.66234482758633","768","428","j","false","nonmatch","img/ellipse.png","五边","椭圆","ALT1_2","prac_ALT1_2","","","","","","","","","",""
"null","<span style='color:red; font-size: 70px;'>错误! </span>","null","html-keyboard-response","60","297349","0.0-7.0-1.0-1.0-0.0-1.25","3","2","3","3","2","2","2","2","2","2","3","2","2","3","2","2","2","2","3","2","2","4","2","2","3","2","2","2","1","1","0","1","1","0","0","1","1","0","1","1","0","1","0","1","4","4","4","5","2","3","4","2","4","2","758376715339960322","赵","448","","","","","","","","","","","","","","","","","","","","","","","","","","","","","","feedback_test","","","","","","","","","",""
"589","","j","psychophysics","61","298980","0.0-7.0-1.0-1.0-0.0-0.26","3","2","3","3","2","2","2","2","2","2","3","2","2","3","2","2","2","2","3","2","2","4","2","2","3","2","2","2","1","1","0","1","1","0","0","1","1","0","1","1","0","1","0","1","4","4","4","5","2","3","4","2","4","2","758376715339960322","赵","448","","","","nonmatch","","","","","","","","","","","","","","key","j","16.639458333333703","768","428","f","false","match","img/trapezoid.png","梯形","梯形","ALT1_2","prac_ALT1_2","","","","","","","","","",""
"null","<span style='color:red; font-size: 70px;'>错误! </span>","null","html-keyboard-response","62","299484","0.0-7.0-1.0-1.0-0.0-1.26","3","2","3","3","2","2","2","2","2","2","3","2","2","3","2","2","2","2","3","2","2","4","2","2","3","2","2","2","1","1","0","1","1","0","0","1","1","0","1","1","0","1","0","1","4","4","4","5","2","3","4","2","4","2","758376715339960322","赵","448","","","","","","","","","","","","","","","","","","","","","","","","","","","","","","feedback_test","","","","","","","","","",""
"631","","f","psychophysics","63","301120","0.0-7.0-1.0-1.0-0.0-0.27","3","2","3","3","2","2","2","2","2","2","3","2","2","3","2","2","2","2","3","2","2","4","2","2","3","2","2","2","1","1","0","1","1","0","0","1","1","0","1","1","0","1","0","1","4","4","4","5","2","3","4","2","4","2","758376715339960322","赵","448","","","","match","","","","","","","","","","","","","","key","f","16.62365624999984","768","428","f","true","match","img/trapezoid.png","梯形","梯形","ALT1_2","prac_ALT1_2","","","","","","","","","",""
"null","<span style='color:GreenYellow; font-size: 70px;'>正确! </span>","null","html-keyboard-response","64","301622","0.0-7.0-1.0-1.0-0.0-1.27","3","2","3","3","2","2","2","2","2","2","3","2","2","3","2","2","2","2","3","2","2","4","2","2","3","2","2","2","1","1","0","1","1","0","0","1","1","0","1","1","0","1","0","1","4","4","4","5","2","3","4","2","4","2","758376715339960322","赵","448","","","","","","","","","","","","","","","","","","","","","","","","","","","","","","feedback_test","","","","","","","","","",""
"754","","j","psychophysics","65","303380","0.0-7.0-1.0-1.0-0.0-0.28","3","2","3","3","2","2","2","2","2","2","3","2","2","3","2","2","2","2","3","2","2","4","2","2","3","2","2","2","1","1","0","1","1","0","0","1","1","0","1","1","0","1","0","1","4","4","4","5","2","3","4","2","4","2","758376715339960322","赵","448","","","","nonmatch","","","","","","","","","","","","","","key","j","16.665211538461826","768","428","j","true","nonmatch","img/ellipse.png","三角","椭圆","ALT1_2","prac_ALT1_2","","","","","","","","","",""
"null","<span style='color:GreenYellow; font-size: 70px;'>正确! </span>","null","html-keyboard-response","66","303883","0.0-7.0-1.0-1.0-0.0-1.28","3","2","3","3","2","2","2","2","2","2","3","2","2","3","2","2","2","2","3","2","2","4","2","2","3","2","2","2","1","1","0","1","1","0","0","1","1","0","1","1","0","1","0","1","4","4","4","5","2","3","4","2","4","2","758376715339960322","赵","448","","","","","","","","","","","","","","","","","","","","","","","","","","","","","","feedback_test","","","","","","","","","",""
"564","","f","psychophysics","67","305454","0.0-7.0-1.0-1.0-0.0-0.29","3","2","3","3","2","2","2","2","2","2","3","2","2","3","2","2","2","2","3","2","2","4","2","2","3","2","2","2","1","1","0","1","1","0","0","1","1","0","1","1","0","1","0","1","4","4","4","5","2","3","4","2","4","2","758376715339960322","赵","448","","","","match","","","","","","","","","","","","","","key","f","16.662054347825926","768","428","f","true","match","img/pentagon.png","五边","五边","ALT1_2","prac_ALT1_2","","","","","","","","","",""
"null","<span style='color:GreenYellow; font-size: 70px;'>正确! </span>","null","html-keyboard-response","68","305957","0.0-7.0-1.0-1.0-0.0-1.29","3","2","3","3","2","2","2","2","2","2","3","2","2","3","2","2","2","2","3","2","2","4","2","2","3","2","2","2","1","1","0","1","1","0","0","1","1","0","1","1","0","1","0","1","4","4","4","5","2","3","4","2","4","2","758376715339960322","赵","448","","","","","","","","","","","","","","","","","","","","","","","","","","","","","","feedback_test","","","","","","","","","",""
"573","","f","psychophysics","69","307538","0.0-7.0-1.0-1.0-0.0-0.30","3","2","3","3","2","2","2","2","2","2","3","2","2","3","2","2","2","2","3","2","2","4","2","2","3","2","2","2","1","1","0","1","1","0","0","1","1","0","1","1","0","1","0","1","4","4","4","5","2","3","4","2","4","2","758376715339960322","赵","448","","","","match","","","","","","","","","","","","","","key","f","16.66460215053784","768","428","f","true","match","img/ellipse.png","椭圆","椭圆","ALT1_2","prac_ALT1_2","","","","","","","","","",""
"null","<span style='color:GreenYellow; font-size: 70px;'>正确! </span>","null","html-keyboard-response","70","308042","0.0-7.0-1.0-1.0-0.0-1.30","3","2","3","3","2","2","2","2","2","2","3","2","2","3","2","2","2","2","3","2","2","4","2","2","3","2","2","2","1","1","0","1","1","0","0","1","1","0","1","1","0","1","0","1","4","4","4","5","2","3","4","2","4","2","758376715339960322","赵","448","","","","","","","","","","","","","","","","","","","","","","","","","","","","","","feedback_test","","","","","","","","","",""
"541","","f","psychophysics","71","309586","0.0-7.0-1.0-1.0-0.0-0.31","3","2","3","3","2","2","2","2","2","2","3","2","2","3","2","2","2","2","3","2","2","4","2","2","3","2","2","2","1","1","0","1","1","0","0","1","1","0","1","1","0","1","0","1","4","4","4","5","2","3","4","2","4","2","758376715339960322","赵","448","","","","match","","","","","","","","","","","","","","key","f","16.51975824175835","768","428","f","true","match","img/triangle.png","三角","三角","ALT1_2","prac_ALT1_2","","","","","","","","","",""
"null","<span style='color:GreenYellow; font-size: 70px;'>正确! </span>","null","html-keyboard-response","72","310099","0.0-7.0-1.0-1.0-0.0-1.31","3","2","3","3","2","2","2","2","2","2","3","2","2","3","2","2","2","2","3","2","2","4","2","2","3","2","2","2","1","1","0","1","1","0","0","1","1","0","1","1","0","1","0","1","4","4","4","5","2","3","4","2","4","2","758376715339960322","赵","448","","","","","","","","","","","","","","","","","","","","","","","","","","","","","","feedback_test","","","","","","","","","",""
"696","","j","psychophysics","73","311824","0.0-7.0-1.0-1.0-0.0-0.32","3","2","3","3","2","2","2","2","2","2","3","2","2","3","2","2","2","2","3","2","2","4","2","2","3","2","2","2","1","1","0","1","1","0","0","1","1","0","1","1","0","1","0","1","4","4","4","5","2","3","4","2","4","2","758376715339960322","赵","448","","","","nonmatch","","","","","","","","","","","","","","key","j","16.663631067961088","768","428","j","true","nonmatch","img/trapezoid.png","椭圆","梯形","ALT1_2","prac_ALT1_2","","","","","","","","","",""
"null","<span style='color:GreenYellow; font-size: 70px;'>正确! </span>","null","html-keyboard-response","74","312336","0.0-7.0-1.0-1.0-0.0-1.32","3","2","3","3","2","2","2","2","2","2","3","2","2","3","2","2","2","2","3","2","2","4","2","2","3","2","2","2","1","1","0","1","1","0","0","1","1","0","1","1","0","1","0","1","4","4","4","5","2","3","4","2","4","2","758376715339960322","赵","448","","","","","","","","","","","","","","","","","","","","","","","","","","","","","","feedback_test","","","","","","","","","",""
"977","","f","psychophysics","75","314317","0.0-7.0-1.0-1.0-0.0-0.33","3","2","3","3","2","2","2","2","2","2","3","2","2","3","2","2","2","2","3","2","2","4","2","2","3","2","2","2","1","1","0","1","1","0","0","1","1","0","1","1","0","1","0","1","4","4","4","5","2","3","4","2","4","2","758376715339960322","赵","448","","","","match","","","","","","","","","","","","","","key","f","16.571376068376274","768","428","j","false","nonmatch","img/trapezoid.png","五边","梯形","ALT1_2","prac_ALT1_2","","","","","","","","","",""
"null","<span style='color:red; font-size: 70px;'>错误! </span>","null","html-keyboard-response","76","314826","0.0-7.0-1.0-1.0-0.0-1.33","3","2","3","3","2","2","2","2","2","2","3","2","2","3","2","2","2","2","3","2","2","4","2","2","3","2","2","2","1","1","0","1","1","0","0","1","1","0","1","1","0","1","0","1","4","4","4","5","2","3","4","2","4","2","758376715339960322","赵","448","","","","","","","","","","","","","","","","","","","","","","","","","","","","","","feedback_test","","","","","","","","","",""
"599","","f","psychophysics","77","316429","0.0-7.0-1.0-1.0-0.0-0.34","3","2","3","3","2","2","2","2","2","2","3","2","2","3","2","2","2","2","3","2","2","4","2","2","3","2","2","2","1","1","0","1","1","0","0","1","1","0","1","1","0","1","0","1","4","4","4","5","2","3","4","2","4","2","758376715339960322","赵","448","","","","match","","","","","","","","","","","","","","key","f","16.66792631578926","768","428","f","true","match","img/pentagon.png","五边","五边","ALT1_2","prac_ALT1_2","","","","","","","","","",""
"null","<span style='color:GreenYellow; font-size: 70px;'>正确! </span>","null","html-keyboard-response","78","316948","0.0-7.0-1.0-1.0-0.0-1.34","3","2","3","3","2","2","2","2","2","2","3","2","2","3","2","2","2","2","3","2","2","4","2","2","3","2","2","2","1","1","0","1","1","0","0","1","1","0","1","1","0","1","0","1","4","4","4","5","2","3","4","2","4","2","758376715339960322","赵","448","","","","","","","","","","","","","","","","","","","","","","","","","","","","","","feedback_test","","","","","","","","","",""
"855","","j","psychophysics","79","318823","0.0-7.0-1.0-1.0-0.0-0.35","3","2","3","3","2","2","2","2","2","2","3","2","2","3","2","2","2","2","3","2","2","4","2","2","3","2","2","2","1","1","0","1","1","0","0","1","1","0","1","1","0","1","0","1","4","4","4","5","2","3","4","2","4","2","758376715339960322","赵","448","","","","nonmatch","","","","","","","","","","","","","","key","j","16.594357142856875","768","428","j","true","nonmatch","img/ellipse.png","梯形","椭圆","ALT1_2","prac_ALT1_2","","","","","","","","","",""
"null","<span style='color:GreenYellow; font-size: 70px;'>正确! </span>","null","html-keyboard-response","80","319335","0.0-7.0-1.0-1.0-0.0-1.35","3","2","3","3","2","2","2","2","2","2","3","2","2","3","2","2","2","2","3","2","2","4","2","2","3","2","2","2","1","1","0","1","1","0","0","1","1","0","1","1","0","1","0","1","4","4","4","5","2","3","4","2","4","2","758376715339960322","赵","448","","","","","","","","","","","","","","","","","","","","","","","","","","","","","","feedback_test","","","","","","","","","",""
"536","","f","psychophysics","81","320874","0.0-7.0-1.0-1.0-0.0-0.36","3","2","3","3","2","2","2","2","2","2","3","2","2","3","2","2","2","2","3","2","2","4","2","2","3","2","2","2","1","1","0","1","1","0","0","1","1","0","1","1","0","1","0","1","4","4","4","5","2","3","4","2","4","2","758376715339960322","赵","448","","","","match","","","","","","","","","","","","","","key","f","16.555505494505248","768","428","f","true","match","img/triangle.png","三角","三角","ALT1_2","prac_ALT1_2","","","","","","","","","",""
"null","<span style='color:GreenYellow; font-size: 70px;'>正确! </span>","null","html-keyboard-response","82","321378","0.0-7.0-1.0-1.0-0.0-1.36","3","2","3","3","2","2","2","2","2","2","3","2","2","3","2","2","2","2","3","2","2","4","2","2","3","2","2","2","1","1","0","1","1","0","0","1","1","0","1","1","0","1","0","1","4","4","4","5","2","3","4","2","4","2","758376715339960322","赵","448","","","","","","","","","","","","","","","","","","","","","","","","","","","","","","feedback_test","","","","","","","","","",""
"889","","j","psychophysics","83","323273","0.0-7.0-1.0-1.0-0.0-0.37","3","2","3","3","2","2","2","2","2","2","3","2","2","3","2","2","2","2","3","2","2","4","2","2","3","2","2","2","1","1","0","1","1","0","0","1","1","0","1","1","0","1","0","1","4","4","4","5","2","3","4","2","4","2","758376715339960322","赵","448","","","","nonmatch","","","","","","","","","","","","","","key","j","16.664008849557487","768","428","j","true","nonmatch","img/pentagon.png","梯形","五边","ALT1_2","prac_ALT1_2","","","","","","","","","",""
"null","<span style='color:GreenYellow; font-size: 70px;'>正确! </span>","null","html-keyboard-response","84","323778","0.0-7.0-1.0-1.0-0.0-1.37","3","2","3","3","2","2","2","2","2","2","3","2","2","3","2","2","2","2","3","2","2","4","2","2","3","2","2","2","1","1","0","1","1","0","0","1","1","0","1","1","0","1","0","1","4","4","4","5","2","3","4","2","4","2","758376715339960322","赵","448","","","","","","","","","","","","","","","","","","","","","","","","","","","","","","feedback_test","","","","","","","","","",""
"514","","f","psychophysics","85","325322","0.0-7.0-1.0-1.0-0.0-0.38","3","2","3","3","2","2","2","2","2","2","3","2","2","3","2","2","2","2","3","2","2","4","2","2","3","2","2","2","1","1","0","1","1","0","0","1","1","0","1","1","0","1","0","1","4","4","4","5","2","3","4","2","4","2","758376715339960322","赵","448","","","","match","","","","","","","","","","","","","","key","f","16.612021739130874","768","428","f","true","match","img/ellipse.png","椭圆","椭圆","ALT1_2","prac_ALT1_2","","","","","","","","","",""
"null","<span style='color:GreenYellow; font-size: 70px;'>正确! </span>","null","html-keyboard-response","86","325824","0.0-7.0-1.0-1.0-0.0-1.38","3","2","3","3","2","2","2","2","2","2","3","2","2","3","2","2","2","2","3","2","2","4","2","2","3","2","2","2","1","1","0","1","1","0","0","1","1","0","1","1","0","1","0","1","4","4","4","5","2","3","4","2","4","2","758376715339960322","赵","448","","","","","","","","","","","","","","","","","","","","","","","","","","","","","","feedback_test","","","","","","","","","",""
"680","","j","psychophysics","87","327507","0.0-7.0-1.0-1.0-0.0-0.39","3","2","3","3","2","2","2","2","2","2","3","2","2","3","2","2","2","2","3","2","2","4","2","2","3","2","2","2","1","1","0","1","1","0","0","1","1","0","1","1","0","1","0","1","4","4","4","5","2","3","4","2","4","2","758376715339960322","赵","448","","","","nonmatch","","","","","","","","","","","","","","key","j","16.62243000000017","768","428","j","true","nonmatch","img/triangle.png","椭圆","三角","ALT1_2","prac_ALT1_2","","","","","","","","","",""
"null","<span style='color:GreenYellow; font-size: 70px;'>正确! </span>","null","html-keyboard-response","88","328010","0.0-7.0-1.0-1.0-0.0-1.39","3","2","3","3","2","2","2","2","2","2","3","2","2","3","2","2","2","2","3","2","2","4","2","2","3","2","2","2","1","1","0","1","1","0","0","1","1","0","1","1","0","1","0","1","4","4","4","5","2","3","4","2","4","2","758376715339960322","赵","448","","","","","","","","","","","","","","","","","","","","","","","","","","","","","","feedback_test","","","","","","","","","",""
"731","","j","psychophysics","89","329745","0.0-7.0-1.0-1.0-0.0-0.40","3","2","3","3","2","2","2","2","2","2","3","2","2","3","2","2","2","2","3","2","2","4","2","2","3","2","2","2","1","1","0","1","1","0","0","1","1","0","1","1","0","1","0","1","4","4","4","5","2","3","4","2","4","2","758376715339960322","赵","448","","","","nonmatch","","","","","","","","","","","","","","key","j","16.666087378640388","768","428","j","true","nonmatch","img/pentagon.png","椭圆","五边","ALT1_2","prac_ALT1_2","","","","","","","","","",""
"null","<span style='color:GreenYellow; font-size: 70px;'>正确! </span>","null","html-keyboard-response","90","330250","0.0-7.0-1.0-1.0-0.0-1.40","3","2","3","3","2","2","2","2","2","2","3","2","2","3","2","2","2","2","3","2","2","4","2","2","3","2","2","2","1","1","0","1","1","0","0","1","1","0","1","1","0","1","0","1","4","4","4","5","2","3","4","2","4","2","758376715339960322","赵","448","","","","","","","","","","","","","","","","","","","","","","","","","","","","","","feedback_test","","","","","","","","","",""
"556","","f","psychophysics","91","331817","0.0-7.0-1.0-1.0-0.0-0.41","3","2","3","3","2","2","2","2","2","2","3","2","2","3","2","2","2","2","3","2","2","4","2","2","3","2","2","2","1","1","0","1","1","0","0","1","1","0","1","1","0","1","0","1","4","4","4","5","2","3","4","2","4","2","758376715339960322","赵","448","","","","match","","","","","","","","","","","","","","key","f","16.66530434782655","768","428","f","true","match","img/pentagon.png","五边","五边","ALT1_2","prac_ALT1_2","","","","","","","","","",""
"null","<span style='color:GreenYellow; font-size: 70px;'>正确! </span>","null","html-keyboard-response","92","332320","0.0-7.0-1.0-1.0-0.0-1.41","3","2","3","3","2","2","2","2","2","2","3","2","2","3","2","2","2","2","3","2","2","4","2","2","3","2","2","2","1","1","0","1","1","0","0","1","1","0","1","1","0","1","0","1","4","4","4","5","2","3","4","2","4","2","758376715339960322","赵","448","","","","","","","","","","","","","","","","","","","","","","","","","","","","","","feedback_test","","","","","","","","","",""
"683","","j","psychophysics","93","334009","0.0-7.0-1.0-1.0-0.0-0.42","3","2","3","3","2","2","2","2","2","2","3","2","2","3","2","2","2","2","3","2","2","4","2","2","3","2","2","2","1","1","0","1","1","0","0","1","1","0","1","1","0","1","0","1","4","4","4","5","2","3","4","2","4","2","758376715339960322","赵","448","","","","nonmatch","","","","","","","","","","","","","","key","j","16.55968999999983","768","428","j","true","nonmatch","img/pentagon.png","三角","五边","ALT1_2","prac_ALT1_2","","","","","","","","","",""
"null","<span style='color:GreenYellow; font-size: 70px;'>正确! </span>","null","html-keyboard-response","94","334527","0.0-7.0-1.0-1.0-0.0-1.42","3","2","3","3","2","2","2","2","2","2","3","2","2","3","2","2","2","2","3","2","2","4","2","2","3","2","2","2","1","1","0","1","1","0","0","1","1","0","1","1","0","1","0","1","4","4","4","5","2","3","4","2","4","2","758376715339960322","赵","448","","","","","","","","","","","","","","","","","","","","","","","","","","","","","","feedback_test","","","","","","","","","",""
"618","","f","psychophysics","95","336149","0.0-7.0-1.0-1.0-0.0-0.43","3","2","3","3","2","2","2","2","2","2","3","2","2","3","2","2","2","2","3","2","2","4","2","2","3","2","2","2","1","1","0","1","1","0","0","1","1","0","1","1","0","1","0","1","4","4","4","5","2","3","4","2","4","2","758376715339960322","赵","448","","","","match","","","","","","","","","","","","","","key","f","16.664874999999785","768","428","f","true","match","img/ellipse.png","椭圆","椭圆","ALT1_2","prac_ALT1_2","","","","","","","","","",""
"null","<span style='color:GreenYellow; font-size: 70px;'>正确! </span>","null","html-keyboard-response","96","336655","0.0-7.0-1.0-1.0-0.0-1.43","3","2","3","3","2","2","2","2","2","2","3","2","2","3","2","2","2","2","3","2","2","4","2","2","3","2","2","2","1","1","0","1","1","0","0","1","1","0","1","1","0","1","0","1","4","4","4","5","2","3","4","2","4","2","758376715339960322","赵","448","","","","","","","","","","","","","","","","","","","","","","","","","","","","","","feedback_test","","","","","","","","","",""
"682","","j","psychophysics","97","338362","0.0-7.0-1.0-1.0-0.0-0.44","3","2","3","3","2","2","2","2","2","2","3","2","2","3","2","2","2","2","3","2","2","4","2","2","3","2","2","2","1","1","0","1","1","0","0","1","1","0","1","1","0","1","0","1","4","4","4","5","2","3","4","2","4","2","758376715339960322","赵","448","","","","nonmatch","","","","","","","","","","","","","","key","j","16.64416831683213","768","428","j","true","nonmatch","img/trapezoid.png","三角","梯形","ALT1_2","prac_ALT1_2","","","","","","","","","",""
"null","<span style='color:GreenYellow; font-size: 70px;'>正确! </span>","null","html-keyboard-response","98","338864","0.0-7.0-1.0-1.0-0.0-1.44","3","2","3","3","2","2","2","2","2","2","3","2","2","3","2","2","2","2","3","2","2","4","2","2","3","2","2","2","1","1","0","1","1","0","0","1","1","0","1","1","0","1","0","1","4","4","4","5","2","3","4","2","4","2","758376715339960322","赵","448","","","","","","","","","","","","","","","","","","","","","","","","","","","","","","feedback_test","","","","","","","","","",""
"644","","j","psychophysics","99","340511","0.0-7.0-1.0-1.0-0.0-0.45","3","2","3","3","2","2","2","2","2","2","3","2","2","3","2","2","2","2","3","2","2","4","2","2","3","2","2","2","1","1","0","1","1","0","0","1","1","0","1","1","0","1","0","1","4","4","4","5","2","3","4","2","4","2","758376715339960322","赵","448","","","","nonmatch","","","","","","","","","","","","","","key","j","16.590371134020653","768","428","j","true","nonmatch","img/triangle.png","五边","三角","ALT1_2","prac_ALT1_2","","","","","","","","","",""
"null","<span style='color:GreenYellow; font-size: 70px;'>正确! </span>","null","html-keyboard-response","100","341012","0.0-7.0-1.0-1.0-0.0-1.45","3","2","3","3","2","2","2","2","2","2","3","2","2","3","2","2","2","2","3","2","2","4","2","2","3","2","2","2","1","1","0","1","1","0","0","1","1","0","1","1","0","1","0","1","4","4","4","5","2","3","4","2","4","2","758376715339960322","赵","448","","","","","","","","","","","","","","","","","","","","","","","","","","","","","","feedback_test","","","","","","","","","",""
"556","","f","psychophysics","101","342572","0.0-7.0-1.0-1.0-0.0-0.46","3","2","3","3","2","2","2","2","2","2","3","2","2","3","2","2","2","2","3","2","2","4","2","2","3","2","2","2","1","1","0","1","1","0","0","1","1","0","1","1","0","1","0","1","4","4","4","5","2","3","4","2","4","2","758376715339960322","赵","448","","","","match","","","","","","","","","","","","","","key","f","16.656456521738818","768","428","f","true","match","img/trapezoid.png","梯形","梯形","ALT1_2","prac_ALT1_2","","","","","","","","","",""
"null","<span style='color:GreenYellow; font-size: 70px;'>正确! </span>","null","html-keyboard-response","102","343076","0.0-7.0-1.0-1.0-0.0-1.46","3","2","3","3","2","2","2","2","2","2","3","2","2","3","2","2","2","2","3","2","2","4","2","2","3","2","2","2","1","1","0","1","1","0","0","1","1","0","1","1","0","1","0","1","4","4","4","5","2","3","4","2","4","2","758376715339960322","赵","448","","","","","","","","","","","","","","","","","","","","","","","","","","","","","","feedback_test","","","","","","","","","",""
"442","","f","psychophysics","103","344540","0.0-7.0-1.0-1.0-0.0-0.47","3","2","3","3","2","2","2","2","2","2","3","2","2","3","2","2","2","2","3","2","2","4","2","2","3","2","2","2","1","1","0","1","1","0","0","1","1","0","1","1","0","1","0","1","4","4","4","5","2","3","4","2","4","2","758376715339960322","赵","448","","","","match","","","","","","","","","","","","","","key","f","16.631333333333746","768","428","j","false","nonmatch","img/triangle.png","梯形","三角","ALT1_2","prac_ALT1_2","","","","","","","","","",""
"null","<span style='color:red; font-size: 70px;'>错误! </span>","null","html-keyboard-response","104","345044","0.0-7.0-1.0-1.0-0.0-1.47","3","2","3","3","2","2","2","2","2","2","3","2","2","3","2","2","2","2","3","2","2","4","2","2","3","2","2","2","1","1","0","1","1","0","0","1","1","0","1","1","0","1","0","1","4","4","4","5","2","3","4","2","4","2","758376715339960322","赵","448","","","","","","","","","","","","","","","","","","","","","","","","","","","","","","feedback_test","","","","","","","","","",""
"8403","<style>.context{color:white; font-size: 35px; line-height:40px}</style>                          <div><p class='context'>您正确回答了75% 的试次。</p><p class='context'>您的平均反应时为622毫秒。</p><p class='context'>恭喜您完成练习。按空格键进入正式实验。</p><p class='footer' style='font-size: 35px; line-height:40px;'>请在进入正式实验实验之前将您的<span style='color: lightgreen;'>食指</span>放在电脑键盘的相应键位上进行按键。</p>"," ","html-keyboard-response","105","353455","0.0-7.0-1.0-2.0","3","2","3","3","2","2","2","2","2","2","3","2","2","3","2","2","2","2","3","2","2","4","2","2","3","2","2","2","1","1","0","1","1","0","0","1","1","0","1","1","0","1","0","1","4","4","4","5","2","3","4","2","4","2","758376715339960322","赵","448","","","","","","","","","","","","","","","","","","","","","","","","","","","","","","","","","","","","","","","",""
"3403","
  <p style='color: white; font-size: 22px'>请您将手指放在按键上，准备进入正式的匹配任务。</p>
  <p> <div style = ""color: green""><按空格键进入下一阶段的匹配任务></div></p>
  "," ","html-keyboard-response","106","356875","0.0-7.0-1.0-3.0","3","2","3","3","2","2","2","2","2","2","3","2","2","3","2","2","2","2","3","2","2","4","2","2","3","2","2","2","1","1","0","1","1","0","0","1","1","0","1","1","0","1","0","1","4","4","4","5","2","3","4","2","4","2","758376715339960322","赵","448","","","","","","","","","","","","","","","","","","","","","","","","","","","","","","","","","","","","","","","",""
"595","","f","psychophysics","107","358474","0.0-7.0-1.0-4.0-0.0-0.0","3","2","3","3","2","2","2","2","2","2","3","2","2","3","2","2","2","2","3","2","2","4","2","2","3","2","2","2","1","1","0","1","1","0","0","1","1","0","1","1","0","1","0","1","4","4","4","5","2","3","4","2","4","2","758376715339960322","赵","448","","","","match","","","","","","","","","","","","","","key","f","16.666168421052248","768","428","f","true","match","img/trapezoid.png","梯形","梯形","ALT1","formal_ALT1_2","","","","","","","","","",""
"null","<span style='color:GreenYellow; font-size: 70px;'>正确! </span>","null","html-keyboard-response","108","358977","0.0-7.0-1.0-4.0-0.0-1.0","3","2","3","3","2","2","2","2","2","2","3","2","2","3","2","2","2","2","3","2","2","4","2","2","3","2","2","2","1","1","0","1","1","0","0","1","1","0","1","1","0","1","0","1","4","4","4","5","2","3","4","2","4","2","758376715339960322","赵","448","","","","","","","","","","","","","","","","","","","","","","","","","","","","","","feedback_test","","","","","","","","","",""
"629","","f","psychophysics","109","360610","0.0-7.0-1.0-4.0-0.0-0.1","3","2","3","3","2","2","2","2","2","2","3","2","2","3","2","2","2","2","3","2","2","4","2","2","3","2","2","2","1","1","0","1","1","0","0","1","1","0","1","1","0","1","0","1","4","4","4","5","2","3","4","2","4","2","758376715339960322","赵","448","","","","match","","","","","","","","","","","","","","key","f","16.53591666666701","768","428","f","true","match","img/pentagon.png","五边","五边","ALT1","formal_ALT1_2","","","","","","","","","",""
"null","<span style='color:GreenYellow; font-size: 70px;'>正确! </span>","null","html-keyboard-response","110","361115","0.0-7.0-1.0-4.0-0.0-1.1","3","2","3","3","2","2","2","2","2","2","3","2","2","3","2","2","2","2","3","2","2","4","2","2","3","2","2","2","1","1","0","1","1","0","0","1","1","0","1","1","0","1","0","1","4","4","4","5","2","3","4","2","4","2","758376715339960322","赵","448","","","","","","","","","","","","","","","","","","","","","","","","","","","","","","feedback_test","","","","","","","","","",""
"464","","f","psychophysics","111","362584","0.0-7.0-1.0-4.0-0.0-0.2","3","2","3","3","2","2","2","2","2","2","3","2","2","3","2","2","2","2","3","2","2","4","2","2","3","2","2","2","1","1","0","1","1","0","0","1","1","0","1","1","0","1","0","1","4","4","4","5","2","3","4","2","4","2","758376715339960322","赵","448","","","","match","","","","","","","","","","","","","","key","f","16.649402298850152","768","428","f","true","match","img/triangle.png","三角","三角","ALT1","formal_ALT1_2","","","","","","","","","",""
"null","<span style='color:GreenYellow; font-size: 70px;'>正确! </span>","null","html-keyboard-response","112","363089","0.0-7.0-1.0-4.0-0.0-1.2","3","2","3","3","2","2","2","2","2","2","3","2","2","3","2","2","2","2","3","2","2","4","2","2","3","2","2","2","1","1","0","1","1","0","0","1","1","0","1","1","0","1","0","1","4","4","4","5","2","3","4","2","4","2","758376715339960322","赵","448","","","","","","","","","","","","","","","","","","","","","","","","","","","","","","feedback_test","","","","","","","","","",""
"543","","j","psychophysics","113","364653","0.0-7.0-1.0-4.0-0.0-0.3","3","2","3","3","2","2","2","2","2","2","3","2","2","3","2","2","2","2","3","2","2","4","2","2","3","2","2","2","1","1","0","1","1","0","0","1","1","0","1","1","0","1","0","1","4","4","4","5","2","3","4","2","4","2","758376715339960322","赵","448","","","","nonmatch","","","","","","","","","","","","","","key","j","16.667387096774615","768","428","j","true","nonmatch","img/triangle.png","椭圆","三角","ALT1","formal_ALT1_2","","","","","","","","","",""
"null","<span style='color:GreenYellow; font-size: 70px;'>正确! </span>","null","html-keyboard-response","114","365158","0.0-7.0-1.0-4.0-0.0-1.3","3","2","3","3","2","2","2","2","2","2","3","2","2","3","2","2","2","2","3","2","2","4","2","2","3","2","2","2","1","1","0","1","1","0","0","1","1","0","1","1","0","1","0","1","4","4","4","5","2","3","4","2","4","2","758376715339960322","赵","448","","","","","","","","","","","","","","","","","","","","","","","","","","","","","","feedback_test","","","","","","","","","",""
"539","","f","psychophysics","115","366699","0.0-7.0-1.0-4.0-0.0-0.4","3","2","3","3","2","2","2","2","2","2","3","2","2","3","2","2","2","2","3","2","2","4","2","2","3","2","2","2","1","1","0","1","1","0","0","1","1","0","1","1","0","1","0","1","4","4","4","5","2","3","4","2","4","2","758376715339960322","赵","448","","","","match","","","","","","","","","","","","","","key","f","16.60645054945093","768","428","f","true","match","img/triangle.png","三角","三角","ALT1","formal_ALT1_2","","","","","","","","","",""
"null","<span style='color:GreenYellow; font-size: 70px;'>正确! </span>","null","html-keyboard-response","116","367212","0.0-7.0-1.0-4.0-0.0-1.4","3","2","3","3","2","2","2","2","2","2","3","2","2","3","2","2","2","2","3","2","2","4","2","2","3","2","2","2","1","1","0","1","1","0","0","1","1","0","1","1","0","1","0","1","4","4","4","5","2","3","4","2","4","2","758376715339960322","赵","448","","","","","","","","","","","","","","","","","","","","","","","","","","","","","","feedback_test","","","","","","","","","",""
"544","","f","psychophysics","117","368759","0.0-7.0-1.0-4.0-0.0-0.5","3","2","3","3","2","2","2","2","2","2","3","2","2","3","2","2","2","2","3","2","2","4","2","2","3","2","2","2","1","1","0","1","1","0","0","1","1","0","1","1","0","1","0","1","4","4","4","5","2","3","4","2","4","2","758376715339960322","赵","448","","","","match","","","","","","","","","","","","","","key","f","16.596318681318834","768","428","f","true","match","img/pentagon.png","五边","五边","ALT1","formal_ALT1_2","","","","","","","","","",""
"null","<span style='color:GreenYellow; font-size: 70px;'>正确! </span>","null","html-keyboard-response","118","369271","0.0-7.0-1.0-4.0-0.0-1.5","3","2","3","3","2","2","2","2","2","2","3","2","2","3","2","2","2","2","3","2","2","4","2","2","3","2","2","2","1","1","0","1","1","0","0","1","1","0","1","1","0","1","0","1","4","4","4","5","2","3","4","2","4","2","758376715339960322","赵","448","","","","","","","","","","","","","","","","","","","","","","","","","","","","","","feedback_test","","","","","","","","","",""
"599","","f","psychophysics","119","370890","0.0-7.0-1.0-4.0-0.0-0.6","3","2","3","3","2","2","2","2","2","2","3","2","2","3","2","2","2","2","3","2","2","4","2","2","3","2","2","2","1","1","0","1","1","0","0","1","1","0","1","1","0","1","0","1","4","4","4","5","2","3","4","2","4","2","758376715339960322","赵","448","","","","match","","","","","","","","","","","","","","key","f","16.66305208333324","768","428","f","true","match","img/ellipse.png","椭圆","椭圆","ALT1","formal_ALT1_2","","","","","","","","","",""
"null","<span style='color:GreenYellow; font-size: 70px;'>正确! </span>","null","html-keyboard-response","120","371402","0.0-7.0-1.0-4.0-0.0-1.6","3","2","3","3","2","2","2","2","2","2","3","2","2","3","2","2","2","2","3","2","2","4","2","2","3","2","2","2","1","1","0","1","1","0","0","1","1","0","1","1","0","1","0","1","4","4","4","5","2","3","4","2","4","2","758376715339960322","赵","448","","","","","","","","","","","","","","","","","","","","","","","","","","","","","","feedback_test","","","","","","","","","",""
"694","","j","psychophysics","121","373099","0.0-7.0-1.0-4.0-0.0-0.7","3","2","3","3","2","2","2","2","2","2","3","2","2","3","2","2","2","2","3","2","2","4","2","2","3","2","2","2","1","1","0","1","1","0","0","1","1","0","1","1","0","1","0","1","4","4","4","5","2","3","4","2","4","2","758376715339960322","赵","448","","","","nonmatch","","","","","","","","","","","","","","key","j","16.64902999999991","768","428","j","true","nonmatch","img/trapezoid.png","椭圆","梯形","ALT1","formal_ALT1_2","","","","","","","","","",""
"null","<span style='color:GreenYellow; font-size: 70px;'>正确! </span>","null","html-keyboard-response","122","373601","0.0-7.0-1.0-4.0-0.0-1.7","3","2","3","3","2","2","2","2","2","2","3","2","2","3","2","2","2","2","3","2","2","4","2","2","3","2","2","2","1","1","0","1","1","0","0","1","1","0","1","1","0","1","0","1","4","4","4","5","2","3","4","2","4","2","758376715339960322","赵","448","","","","","","","","","","","","","","","","","","","","","","","","","","","","","","feedback_test","","","","","","","","","",""
"973","","f","psychophysics","123","375578","0.0-7.0-1.0-4.0-0.0-0.8","3","2","3","3","2","2","2","2","2","2","3","2","2","3","2","2","2","2","3","2","2","4","2","2","3","2","2","2","1","1","0","1","1","0","0","1","1","0","1","1","0","1","0","1","4","4","4","5","2","3","4","2","4","2","758376715339960322","赵","448","","","","match","","","","","","","","","","","","","","key","f","16.664889830508432","768","428","f","true","match","img/trapezoid.png","梯形","梯形","ALT1","formal_ALT1_2","","","","","","","","","",""
"null","<span style='color:GreenYellow; font-size: 70px;'>正确! </span>","null","html-keyboard-response","124","376118","0.0-7.0-1.0-4.0-0.0-1.8","3","2","3","3","2","2","2","2","2","2","3","2","2","3","2","2","2","2","3","2","2","4","2","2","3","2","2","2","1","1","0","1","1","0","0","1","1","0","1","1","0","1","0","1","4","4","4","5","2","3","4","2","4","2","758376715339960322","赵","448","","","","","","","","","","","","","","","","","","","","","","","","","","","","","","feedback_test","","","","","","","","","",""
"634","","j","psychophysics","125","377762","0.0-7.0-1.0-4.0-0.0-0.9","3","2","3","3","2","2","2","2","2","2","3","2","2","3","2","2","2","2","3","2","2","4","2","2","3","2","2","2","1","1","0","1","1","0","0","1","1","0","1","1","0","1","0","1","4","4","4","5","2","3","4","2","4","2","758376715339960322","赵","448","","","","nonmatch","","","","","","","","","","","","","","key","j","16.54731632653049","768","428","f","false","match","img/trapezoid.png","梯形","梯形","ALT1","formal_ALT1_2","","","","","","","","","",""
"null","<span style='color:red; font-size: 70px;'>错误! </span>","null","html-keyboard-response","126","378265","0.0-7.0-1.0-4.0-0.0-1.9","3","2","3","3","2","2","2","2","2","2","3","2","2","3","2","2","2","2","3","2","2","4","2","2","3","2","2","2","1","1","0","1","1","0","0","1","1","0","1","1","0","1","0","1","4","4","4","5","2","3","4","2","4","2","758376715339960322","赵","448","","","","","","","","","","","","","","","","","","","","","","","","","","","","","","feedback_test","","","","","","","","","",""
"505","","f","psychophysics","127","379773","0.0-7.0-1.0-4.0-0.0-0.10","3","2","3","3","2","2","2","2","2","2","3","2","2","3","2","2","2","2","3","2","2","4","2","2","3","2","2","2","1","1","0","1","1","0","0","1","1","0","1","1","0","1","0","1","4","4","4","5","2","3","4","2","4","2","758376715339960322","赵","448","","","","match","","","","","","","","","","","","","","key","f","16.665235955056243","768","428","f","true","match","img/triangle.png","三角","三角","ALT1","formal_ALT1_2","","","","","","","","","",""
"null","<span style='color:GreenYellow; font-size: 70px;'>正确! </span>","null","html-keyboard-response","128","380275","0.0-7.0-1.0-4.0-0.0-1.10","3","2","3","3","2","2","2","2","2","2","3","2","2","3","2","2","2","2","3","2","2","4","2","2","3","2","2","2","1","1","0","1","1","0","0","1","1","0","1","1","0","1","0","1","4","4","4","5","2","3","4","2","4","2","758376715339960322","赵","448","","","","","","","","","","","","","","","","","","","","","","","","","","","","","","feedback_test","","","","","","","","","",""
"609","","j","psychophysics","129","381888","0.0-7.0-1.0-4.0-0.0-0.11","3","2","3","3","2","2","2","2","2","2","3","2","2","3","2","2","2","2","3","2","2","4","2","2","3","2","2","2","1","1","0","1","1","0","0","1","1","0","1","1","0","1","0","1","4","4","4","5","2","3","4","2","4","2","758376715339960322","赵","448","","","","nonmatch","","","","","","","","","","","","","","key","j","16.570431578947893","768","428","j","true","nonmatch","img/ellipse.png","三角","椭圆","ALT1","formal_ALT1_2","","","","","","","","","",""
"null","<span style='color:GreenYellow; font-size: 70px;'>正确! </span>","null","html-keyboard-response","130","382390","0.0-7.0-1.0-4.0-0.0-1.11","3","2","3","3","2","2","2","2","2","2","3","2","2","3","2","2","2","2","3","2","2","4","2","2","3","2","2","2","1","1","0","1","1","0","0","1","1","0","1","1","0","1","0","1","4","4","4","5","2","3","4","2","4","2","758376715339960322","赵","448","","","","","","","","","","","","","","","","","","","","","","","","","","","","","","feedback_test","","","","","","","","","",""
"565","","j","psychophysics","131","383965","0.0-7.0-1.0-4.0-0.0-0.12","3","2","3","3","2","2","2","2","2","2","3","2","2","3","2","2","2","2","3","2","2","4","2","2","3","2","2","2","1","1","0","1","1","0","0","1","1","0","1","1","0","1","0","1","4","4","4","5","2","3","4","2","4","2","758376715339960322","赵","448","","","","nonmatch","","","","","","","","","","","","","","key","j","16.5730537634408","768","428","j","true","nonmatch","img/pentagon.png","三角","五边","ALT1","formal_ALT1_2","","","","","","","","","",""
"null","<span style='color:GreenYellow; font-size: 70px;'>正确! </span>","null","html-keyboard-response","132","384478","0.0-7.0-1.0-4.0-0.0-1.12","3","2","3","3","2","2","2","2","2","2","3","2","2","3","2","2","2","2","3","2","2","4","2","2","3","2","2","2","1","1","0","1","1","0","0","1","1","0","1","1","0","1","0","1","4","4","4","5","2","3","4","2","4","2","758376715339960322","赵","448","","","","","","","","","","","","","","","","","","","","","","","","","","","","","","feedback_test","","","","","","","","","",""
"546","","f","psychophysics","133","386029","0.0-7.0-1.0-4.0-0.0-0.13","3","2","3","3","2","2","2","2","2","2","3","2","2","3","2","2","2","2","3","2","2","4","2","2","3","2","2","2","1","1","0","1","1","0","0","1","1","0","1","1","0","1","0","1","4","4","4","5","2","3","4","2","4","2","758376715339960322","赵","448","","","","match","","","","","","","","","","","","","","key","f","16.649630434782644","768","428","f","true","match","img/ellipse.png","椭圆","椭圆","ALT1","formal_ALT1_2","","","","","","","","","",""
"null","<span style='color:GreenYellow; font-size: 70px;'>正确! </span>","null","html-keyboard-response","134","386530","0.0-7.0-1.0-4.0-0.0-1.13","3","2","3","3","2","2","2","2","2","2","3","2","2","3","2","2","2","2","3","2","2","4","2","2","3","2","2","2","1","1","0","1","1","0","0","1","1","0","1","1","0","1","0","1","4","4","4","5","2","3","4","2","4","2","758376715339960322","赵","448","","","","","","","","","","","","","","","","","","","","","","","","","","","","","","feedback_test","","","","","","","","","",""
"594","","f","psychophysics","135","388129","0.0-7.0-1.0-4.0-0.0-0.14","3","2","3","3","2","2","2","2","2","2","3","2","2","3","2","2","2","2","3","2","2","4","2","2","3","2","2","2","1","1","0","1","1","0","0","1","1","0","1","1","0","1","0","1","4","4","4","5","2","3","4","2","4","2","758376715339960322","赵","448","","","","match","","","","","","","","","","","","","","key","f","16.626127659574156","768","428","j","false","nonmatch","img/trapezoid.png","五边","梯形","ALT1","formal_ALT1_2","","","","","","","","","",""
"null","<span style='color:red; font-size: 70px;'>错误! </span>","null","html-keyboard-response","136","388634","0.0-7.0-1.0-4.0-0.0-1.14","3","2","3","3","2","2","2","2","2","2","3","2","2","3","2","2","2","2","3","2","2","4","2","2","3","2","2","2","1","1","0","1","1","0","0","1","1","0","1","1","0","1","0","1","4","4","4","5","2","3","4","2","4","2","758376715339960322","赵","448","","","","","","","","","","","","","","","","","","","","","","","","","","","","","","feedback_test","","","","","","","","","",""
"944","","j","psychophysics","137","390582","0.0-7.0-1.0-4.0-0.0-0.15","3","2","3","3","2","2","2","2","2","2","3","2","2","3","2","2","2","2","3","2","2","4","2","2","3","2","2","2","1","1","0","1","1","0","0","1","1","0","1","1","0","1","0","1","4","4","4","5","2","3","4","2","4","2","758376715339960322","赵","448","","","","nonmatch","","","","","","","","","","","","","","key","j","16.628008695652344","768","428","j","true","nonmatch","img/ellipse.png","五边","椭圆","ALT1","formal_ALT1_2","","","","","","","","","",""
"null","<span style='color:GreenYellow; font-size: 70px;'>正确! </span>","null","html-keyboard-response","138","391087","0.0-7.0-1.0-4.0-0.0-1.15","3","2","3","3","2","2","2","2","2","2","3","2","2","3","2","2","2","2","3","2","2","4","2","2","3","2","2","2","1","1","0","1","1","0","0","1","1","0","1","1","0","1","0","1","4","4","4","5","2","3","4","2","4","2","758376715339960322","赵","448","","","","","","","","","","","","","","","","","","","","","","","","","","","","","","feedback_test","","","","","","","","","",""
"867","","f","psychophysics","139","392959","0.0-7.0-1.0-4.0-0.0-0.16","3","2","3","3","2","2","2","2","2","2","3","2","2","3","2","2","2","2","3","2","2","4","2","2","3","2","2","2","1","1","0","1","1","0","0","1","1","0","1","1","0","1","0","1","4","4","4","5","2","3","4","2","4","2","758376715339960322","赵","448","","","","match","","","","","","","","","","","","","","key","f","16.634675675675354","768","428","f","true","match","img/pentagon.png","五边","五边","ALT1","formal_ALT1_2","","","","","","","","","",""
"null","<span style='color:GreenYellow; font-size: 70px;'>正确! </span>","null","html-keyboard-response","140","393461","0.0-7.0-1.0-4.0-0.0-1.16","3","2","3","3","2","2","2","2","2","2","3","2","2","3","2","2","2","2","3","2","2","4","2","2","3","2","2","2","1","1","0","1","1","0","0","1","1","0","1","1","0","1","0","1","4","4","4","5","2","3","4","2","4","2","758376715339960322","赵","448","","","","","","","","","","","","","","","","","","","","","","","","","","","","","","feedback_test","","","","","","","","","",""
"609","","j","psychophysics","141","395076","0.0-7.0-1.0-4.0-0.0-0.17","3","2","3","3","2","2","2","2","2","2","3","2","2","3","2","2","2","2","3","2","2","4","2","2","3","2","2","2","1","1","0","1","1","0","0","1","1","0","1","1","0","1","0","1","4","4","4","5","2","3","4","2","4","2","758376715339960322","赵","448","","","","nonmatch","","","","","","","","","","","","","","key","j","16.66645833333314","768","428","j","true","nonmatch","img/pentagon.png","椭圆","五边","ALT1","formal_ALT1_2","","","","","","","","","",""
"null","<span style='color:GreenYellow; font-size: 70px;'>正确! </span>","null","html-keyboard-response","142","395579","0.0-7.0-1.0-4.0-0.0-1.17","3","2","3","3","2","2","2","2","2","2","3","2","2","3","2","2","2","2","3","2","2","4","2","2","3","2","2","2","1","1","0","1","1","0","0","1","1","0","1","1","0","1","0","1","4","4","4","5","2","3","4","2","4","2","758376715339960322","赵","448","","","","","","","","","","","","","","","","","","","","","","","","","","","","","","feedback_test","","","","","","","","","",""
"651","","j","psychophysics","143","397249","0.0-7.0-1.0-4.0-0.0-0.18","3","2","3","3","2","2","2","2","2","2","3","2","2","3","2","2","2","2","3","2","2","4","2","2","3","2","2","2","1","1","0","1","1","0","0","1","1","0","1","1","0","1","0","1","4","4","4","5","2","3","4","2","4","2","758376715339960322","赵","448","","","","nonmatch","","","","","","","","","","","","","","key","j","16.664585858585802","768","428","j","true","nonmatch","img/triangle.png","五边","三角","ALT1","formal_ALT1_2","","","","","","","","","",""
"null","<span style='color:GreenYellow; font-size: 70px;'>正确! </span>","null","html-keyboard-response","144","397751","0.0-7.0-1.0-4.0-0.0-1.18","3","2","3","3","2","2","2","2","2","2","3","2","2","3","2","2","2","2","3","2","2","4","2","2","3","2","2","2","1","1","0","1","1","0","0","1","1","0","1","1","0","1","0","1","4","4","4","5","2","3","4","2","4","2","758376715339960322","赵","448","","","","","","","","","","","","","","","","","","","","","","","","","","","","","","feedback_test","","","","","","","","","",""
"734","","j","psychophysics","145","399488","0.0-7.0-1.0-4.0-0.0-0.19","3","2","3","3","2","2","2","2","2","2","3","2","2","3","2","2","2","2","3","2","2","4","2","2","3","2","2","2","1","1","0","1","1","0","0","1","1","0","1","1","0","1","0","1","4","4","4","5","2","3","4","2","4","2","758376715339960322","赵","448","","","","nonmatch","","","","","","","","","","","","","","key","j","16.66700000000001","768","428","j","true","nonmatch","img/trapezoid.png","三角","梯形","ALT1","formal_ALT1_2","","","","","","","","","",""
"null","<span style='color:GreenYellow; font-size: 70px;'>正确! </span>","null","html-keyboard-response","146","399990","0.0-7.0-1.0-4.0-0.0-1.19","3","2","3","3","2","2","2","2","2","2","3","2","2","3","2","2","2","2","3","2","2","4","2","2","3","2","2","2","1","1","0","1","1","0","0","1","1","0","1","1","0","1","0","1","4","4","4","5","2","3","4","2","4","2","758376715339960322","赵","448","","","","","","","","","","","","","","","","","","","","","","","","","","","","","","feedback_test","","","","","","","","","",""
"880","","j","psychophysics","147","401883","0.0-7.0-1.0-4.0-0.0-0.20","3","2","3","3","2","2","2","2","2","2","3","2","2","3","2","2","2","2","3","2","2","4","2","2","3","2","2","2","1","1","0","1","1","0","0","1","1","0","1","1","0","1","0","1","4","4","4","5","2","3","4","2","4","2","758376715339960322","赵","448","","","","nonmatch","","","","","","","","","","","","","","key","j","16.563625000000425","768","428","j","true","nonmatch","img/ellipse.png","梯形","椭圆","ALT1","formal_ALT1_2","","","","","","","","","",""
"null","<span style='color:GreenYellow; font-size: 70px;'>正确! </span>","null","html-keyboard-response","148","402389","0.0-7.0-1.0-4.0-0.0-1.20","3","2","3","3","2","2","2","2","2","2","3","2","2","3","2","2","2","2","3","2","2","4","2","2","3","2","2","2","1","1","0","1","1","0","0","1","1","0","1","1","0","1","0","1","4","4","4","5","2","3","4","2","4","2","758376715339960322","赵","448","","","","","","","","","","","","","","","","","","","","","","","","","","","","","","feedback_test","","","","","","","","","",""
"568","","f","psychophysics","149","403979","0.0-7.0-1.0-4.0-0.0-0.21","3","2","3","3","2","2","2","2","2","2","3","2","2","3","2","2","2","2","3","2","2","4","2","2","3","2","2","2","1","1","0","1","1","0","0","1","1","0","1","1","0","1","0","1","4","4","4","5","2","3","4","2","4","2","758376715339960322","赵","448","","","","match","","","","","","","","","","","","","","key","f","16.523595744680783","768","428","f","true","match","img/ellipse.png","椭圆","椭圆","ALT1","formal_ALT1_2","","","","","","","","","",""
"null","<span style='color:GreenYellow; font-size: 70px;'>正确! </span>","null","html-keyboard-response","150","404483","0.0-7.0-1.0-4.0-0.0-1.21","3","2","3","3","2","2","2","2","2","2","3","2","2","3","2","2","2","2","3","2","2","4","2","2","3","2","2","2","1","1","0","1","1","0","0","1","1","0","1","1","0","1","0","1","4","4","4","5","2","3","4","2","4","2","758376715339960322","赵","448","","","","","","","","","","","","","","","","","","","","","","","","","","","","","","feedback_test","","","","","","","","","",""
"604","","j","psychophysics","151","406090","0.0-7.0-1.0-4.0-0.0-0.22","3","2","3","3","2","2","2","2","2","2","3","2","2","3","2","2","2","2","3","2","2","4","2","2","3","2","2","2","1","1","0","1","1","0","0","1","1","0","1","1","0","1","0","1","4","4","4","5","2","3","4","2","4","2","758376715339960322","赵","448","","","","nonmatch","","","","","","","","","","","","","","key","j","16.637231578947485","768","428","j","true","nonmatch","img/triangle.png","梯形","三角","ALT1","formal_ALT1_2","","","","","","","","","",""
"null","<span style='color:GreenYellow; font-size: 70px;'>正确! </span>","null","html-keyboard-response","152","406592","0.0-7.0-1.0-4.0-0.0-1.22","3","2","3","3","2","2","2","2","2","2","3","2","2","3","2","2","2","2","3","2","2","4","2","2","3","2","2","2","1","1","0","1","1","0","0","1","1","0","1","1","0","1","0","1","4","4","4","5","2","3","4","2","4","2","758376715339960322","赵","448","","","","","","","","","","","","","","","","","","","","","","","","","","","","","","feedback_test","","","","","","","","","",""
"728","","j","psychophysics","153","408323","0.0-7.0-1.0-4.0-0.0-0.23","3","2","3","3","2","2","2","2","2","2","3","2","2","3","2","2","2","2","3","2","2","4","2","2","3","2","2","2","1","1","0","1","1","0","0","1","1","0","1","1","0","1","0","1","4","4","4","5","2","3","4","2","4","2","758376715339960322","赵","448","","","","nonmatch","","","","","","","","","","","","","","key","j","16.663941176470676","768","428","j","true","nonmatch","img/pentagon.png","梯形","五边","ALT1","formal_ALT1_2","","","","","","","","","",""
"null","<span style='color:GreenYellow; font-size: 70px;'>正确! </span>","null","html-keyboard-response","154","408828","0.0-7.0-1.0-4.0-0.0-1.23","3","2","3","3","2","2","2","2","2","2","3","2","2","3","2","2","2","2","3","2","2","4","2","2","3","2","2","2","1","1","0","1","1","0","0","1","1","0","1","1","0","1","0","1","4","4","4","5","2","3","4","2","4","2","758376715339960322","赵","448","","","","","","","","","","","","","","","","","","","","","","","","","","","","","","feedback_test","","","","","","","","","",""
"812","","j","psychophysics","155","410674","0.0-7.0-1.0-4.0-0.0-0.24","3","2","3","3","2","2","2","2","2","2","3","2","2","3","2","2","2","2","3","2","2","4","2","2","3","2","2","2","1","1","0","1","1","0","0","1","1","0","1","1","0","1","0","1","4","4","4","5","2","3","4","2","4","2","758376715339960322","赵","448","","","","nonmatch","","","","","","","","","","","","","","key","j","16.639254545454275","768","428","j","true","nonmatch","img/trapezoid.png","椭圆","梯形","ALT1","formal_ALT1_2","","","","","","","","","",""
"null","<span style='color:GreenYellow; font-size: 70px;'>正确! </span>","null","html-keyboard-response","156","411175","0.0-7.0-1.0-4.0-0.0-1.24","3","2","3","3","2","2","2","2","2","2","3","2","2","3","2","2","2","2","3","2","2","4","2","2","3","2","2","2","1","1","0","1","1","0","0","1","1","0","1","1","0","1","0","1","4","4","4","5","2","3","4","2","4","2","758376715339960322","赵","448","","","","","","","","","","","","","","","","","","","","","","","","","","","","","","feedback_test","","","","","","","","","",""
"536","","f","psychophysics","157","412714","0.0-7.0-1.0-4.0-0.0-0.25","3","2","3","3","2","2","2","2","2","2","3","2","2","3","2","2","2","2","3","2","2","4","2","2","3","2","2","2","1","1","0","1","1","0","0","1","1","0","1","1","0","1","0","1","4","4","4","5","2","3","4","2","4","2","758376715339960322","赵","448","","","","match","","","","","","","","","","","","","","key","f","16.655533333333572","768","428","f","true","match","img/triangle.png","三角","三角","ALT1","formal_ALT1_2","","","","","","","","","",""
"null","<span style='color:GreenYellow; font-size: 70px;'>正确! </span>","null","html-keyboard-response","158","413217","0.0-7.0-1.0-4.0-0.0-1.25","3","2","3","3","2","2","2","2","2","2","3","2","2","3","2","2","2","2","3","2","2","4","2","2","3","2","2","2","1","1","0","1","1","0","0","1","1","0","1","1","0","1","0","1","4","4","4","5","2","3","4","2","4","2","758376715339960322","赵","448","","","","","","","","","","","","","","","","","","","","","","","","","","","","","","feedback_test","","","","","","","","","",""
"737","","j","psychophysics","159","414957","0.0-7.0-1.0-4.0-0.0-0.26","3","2","3","3","2","2","2","2","2","2","3","2","2","3","2","2","2","2","3","2","2","4","2","2","3","2","2","2","1","1","0","1","1","0","0","1","1","0","1","1","0","1","0","1","4","4","4","5","2","3","4","2","4","2","758376715339960322","赵","448","","","","nonmatch","","","","","","","","","","","","","","key","j","16.664495145631342","768","428","j","true","nonmatch","img/pentagon.png","梯形","五边","ALT1","formal_ALT1_2","","","","","","","","","",""
"null","<span style='color:GreenYellow; font-size: 70px;'>正确! </span>","null","html-keyboard-response","160","415460","0.0-7.0-1.0-4.0-0.0-1.26","3","2","3","3","2","2","2","2","2","2","3","2","2","3","2","2","2","2","3","2","2","4","2","2","3","2","2","2","1","1","0","1","1","0","0","1","1","0","1","1","0","1","0","1","4","4","4","5","2","3","4","2","4","2","758376715339960322","赵","448","","","","","","","","","","","","","","","","","","","","","","","","","","","","","","feedback_test","","","","","","","","","",""
"610","","f","psychophysics","161","417100","0.0-7.0-1.0-4.0-0.0-0.27","3","2","3","3","2","2","2","2","2","2","3","2","2","3","2","2","2","2","3","2","2","4","2","2","3","2","2","2","1","1","0","1","1","0","0","1","1","0","1","1","0","1","0","1","4","4","4","5","2","3","4","2","4","2","758376715339960322","赵","448","","","","match","","","","","","","","","","","","","","key","f","16.66691752577311","768","428","f","true","match","img/pentagon.png","五边","五边","ALT1","formal_ALT1_2","","","","","","","","","",""
"null","<span style='color:GreenYellow; font-size: 70px;'>正确! </span>","null","html-keyboard-response","162","417607","0.0-7.0-1.0-4.0-0.0-1.27","3","2","3","3","2","2","2","2","2","2","3","2","2","3","2","2","2","2","3","2","2","4","2","2","3","2","2","2","1","1","0","1","1","0","0","1","1","0","1","1","0","1","0","1","4","4","4","5","2","3","4","2","4","2","758376715339960322","赵","448","","","","","","","","","","","","","","","","","","","","","","","","","","","","","","feedback_test","","","","","","","","","",""
"655","","j","psychophysics","163","419266","0.0-7.0-1.0-4.0-0.0-0.28","3","2","3","3","2","2","2","2","2","2","3","2","2","3","2","2","2","2","3","2","2","4","2","2","3","2","2","2","1","1","0","1","1","0","0","1","1","0","1","1","0","1","0","1","4","4","4","5","2","3","4","2","4","2","758376715339960322","赵","448","","","","nonmatch","","","","","","","","","","","","","","key","j","16.668288659794044","768","428","j","true","nonmatch","img/pentagon.png","椭圆","五边","ALT1","formal_ALT1_2","","","","","","","","","",""
"null","<span style='color:GreenYellow; font-size: 70px;'>正确! </span>","null","html-keyboard-response","164","419767","0.0-7.0-1.0-4.0-0.0-1.28","3","2","3","3","2","2","2","2","2","2","3","2","2","3","2","2","2","2","3","2","2","4","2","2","3","2","2","2","1","1","0","1","1","0","0","1","1","0","1","1","0","1","0","1","4","4","4","5","2","3","4","2","4","2","758376715339960322","赵","448","","","","","","","","","","","","","","","","","","","","","","","","","","","","","","feedback_test","","","","","","","","","",""
"687","","j","psychophysics","165","421457","0.0-7.0-1.0-4.0-0.0-0.29","3","2","3","3","2","2","2","2","2","2","3","2","2","3","2","2","2","2","3","2","2","4","2","2","3","2","2","2","1","1","0","1","1","0","0","1","1","0","1","1","0","1","0","1","4","4","4","5","2","3","4","2","4","2","758376715339960322","赵","448","","","","nonmatch","","","","","","","","","","","","","","key","j","16.61603999999992","768","428","j","true","nonmatch","img/triangle.png","梯形","三角","ALT1","formal_ALT1_2","","","","","","","","","",""
"null","<span style='color:GreenYellow; font-size: 70px;'>正确! </span>","null","html-keyboard-response","166","421959","0.0-7.0-1.0-4.0-0.0-1.29","3","2","3","3","2","2","2","2","2","2","3","2","2","3","2","2","2","2","3","2","2","4","2","2","3","2","2","2","1","1","0","1","1","0","0","1","1","0","1","1","0","1","0","1","4","4","4","5","2","3","4","2","4","2","758376715339960322","赵","448","","","","","","","","","","","","","","","","","","","","","","","","","","","","","","feedback_test","","","","","","","","","",""
"560","","f","psychophysics","167","423527","0.0-7.0-1.0-4.0-0.0-0.30","3","2","3","3","2","2","2","2","2","2","3","2","2","3","2","2","2","2","3","2","2","4","2","2","3","2","2","2","1","1","0","1","1","0","0","1","1","0","1","1","0","1","0","1","4","4","4","5","2","3","4","2","4","2","758376715339960322","赵","448","","","","match","","","","","","","","","","","","","","key","f","16.66617204301104","768","428","f","true","match","img/ellipse.png","椭圆","椭圆","ALT1","formal_ALT1_2","","","","","","","","","",""
"null","<span style='color:GreenYellow; font-size: 70px;'>正确! </span>","null","html-keyboard-response","168","424037","0.0-7.0-1.0-4.0-0.0-1.30","3","2","3","3","2","2","2","2","2","2","3","2","2","3","2","2","2","2","3","2","2","4","2","2","3","2","2","2","1","1","0","1","1","0","0","1","1","0","1","1","0","1","0","1","4","4","4","5","2","3","4","2","4","2","758376715339960322","赵","448","","","","","","","","","","","","","","","","","","","","","","","","","","","","","","feedback_test","","","","","","","","","",""
"747","","j","psychophysics","169","425791","0.0-7.0-1.0-4.0-0.0-0.31","3","2","3","3","2","2","2","2","2","2","3","2","2","3","2","2","2","2","3","2","2","4","2","2","3","2","2","2","1","1","0","1","1","0","0","1","1","0","1","1","0","1","0","1","4","4","4","5","2","3","4","2","4","2","758376715339960322","赵","448","","","","nonmatch","","","","","","","","","","","","","","key","j","16.66711650485426","768","428","j","true","nonmatch","img/triangle.png","椭圆","三角","ALT1","formal_ALT1_2","","","","","","","","","",""
"null","<span style='color:GreenYellow; font-size: 70px;'>正确! </span>","null","html-keyboard-response","170","426294","0.0-7.0-1.0-4.0-0.0-1.31","3","2","3","3","2","2","2","2","2","2","3","2","2","3","2","2","2","2","3","2","2","4","2","2","3","2","2","2","1","1","0","1","1","0","0","1","1","0","1","1","0","1","0","1","4","4","4","5","2","3","4","2","4","2","758376715339960322","赵","448","","","","","","","","","","","","","","","","","","","","","","","","","","","","","","feedback_test","","","","","","","","","",""
"597","","f","psychophysics","171","427893","0.0-7.0-1.0-4.0-0.0-0.32","3","2","3","3","2","2","2","2","2","2","3","2","2","3","2","2","2","2","3","2","2","4","2","2","3","2","2","2","1","1","0","1","1","0","0","1","1","0","1","1","0","1","0","1","4","4","4","5","2","3","4","2","4","2","758376715339960322","赵","448","","","","match","","","","","","","","","","","","","","key","f","16.664757894736248","768","428","f","true","match","img/pentagon.png","五边","五边","ALT1","formal_ALT1_2","","","","","","","","","",""
"null","<span style='color:GreenYellow; font-size: 70px;'>正确! </span>","null","html-keyboard-response","172","428400","0.0-7.0-1.0-4.0-0.0-1.32","3","2","3","3","2","2","2","2","2","2","3","2","2","3","2","2","2","2","3","2","2","4","2","2","3","2","2","2","1","1","0","1","1","0","0","1","1","0","1","1","0","1","0","1","4","4","4","5","2","3","4","2","4","2","758376715339960322","赵","448","","","","","","","","","","","","","","","","","","","","","","","","","","","","","","feedback_test","","","","","","","","","",""
"672","","f","psychophysics","173","430090","0.0-7.0-1.0-4.0-0.0-0.33","3","2","3","3","2","2","2","2","2","2","3","2","2","3","2","2","2","2","3","2","2","4","2","2","3","2","2","2","1","1","0","1","1","0","0","1","1","0","1","1","0","1","0","1","4","4","4","5","2","3","4","2","4","2","758376715339960322","赵","448","","","","match","","","","","","","","","","","","","","key","f","16.544249999999884","768","428","f","true","match","img/trapezoid.png","梯形","梯形","ALT1","formal_ALT1_2","","","","","","","","","",""
"null","<span style='color:GreenYellow; font-size: 70px;'>正确! </span>","null","html-keyboard-response","174","430595","0.0-7.0-1.0-4.0-0.0-1.33","3","2","3","3","2","2","2","2","2","2","3","2","2","3","2","2","2","2","3","2","2","4","2","2","3","2","2","2","1","1","0","1","1","0","0","1","1","0","1","1","0","1","0","1","4","4","4","5","2","3","4","2","4","2","758376715339960322","赵","448","","","","","","","","","","","","","","","","","","","","","","","","","","","","","","feedback_test","","","","","","","","","",""
"540","","f","psychophysics","175","432138","0.0-7.0-1.0-4.0-0.0-0.34","3","2","3","3","2","2","2","2","2","2","3","2","2","3","2","2","2","2","3","2","2","4","2","2","3","2","2","2","1","1","0","1","1","0","0","1","1","0","1","1","0","1","0","1","4","4","4","5","2","3","4","2","4","2","758376715339960322","赵","448","","","","match","","","","","","","","","","","","","","key","f","16.666615384615508","768","428","f","true","match","img/pentagon.png","五边","五边","ALT1","formal_ALT1_2","","","","","","","","","",""
"null","<span style='color:GreenYellow; font-size: 70px;'>正确! </span>","null","html-keyboard-response","176","432641","0.0-7.0-1.0-4.0-0.0-1.34","3","2","3","3","2","2","2","2","2","2","3","2","2","3","2","2","2","2","3","2","2","4","2","2","3","2","2","2","1","1","0","1","1","0","0","1","1","0","1","1","0","1","0","1","4","4","4","5","2","3","4","2","4","2","758376715339960322","赵","448","","","","","","","","","","","","","","","","","","","","","","","","","","","","","","feedback_test","","","","","","","","","",""
"426","","f","psychophysics","177","434070","0.0-7.0-1.0-4.0-0.0-0.35","3","2","3","3","2","2","2","2","2","2","3","2","2","3","2","2","2","2","3","2","2","4","2","2","3","2","2","2","1","1","0","1","1","0","0","1","1","0","1","1","0","1","0","1","4","4","4","5","2","3","4","2","4","2","758376715339960322","赵","448","","","","match","","","","","","","","","","","","","","key","f","16.6296547619048","768","428","f","true","match","img/triangle.png","三角","三角","ALT1","formal_ALT1_2","","","","","","","","","",""
"null","<span style='color:GreenYellow; font-size: 70px;'>正确! </span>","null","html-keyboard-response","178","434575","0.0-7.0-1.0-4.0-0.0-1.35","3","2","3","3","2","2","2","2","2","2","3","2","2","3","2","2","2","2","3","2","2","4","2","2","3","2","2","2","1","1","0","1","1","0","0","1","1","0","1","1","0","1","0","1","4","4","4","5","2","3","4","2","4","2","758376715339960322","赵","448","","","","","","","","","","","","","","","","","","","","","","","","","","","","","","feedback_test","","","","","","","","","",""
"535","","f","psychophysics","179","436134","0.0-7.0-1.0-4.0-0.0-0.36","3","2","3","3","2","2","2","2","2","2","3","2","2","3","2","2","2","2","3","2","2","4","2","2","3","2","2","2","1","1","0","1","1","0","0","1","1","0","1","1","0","1","0","1","4","4","4","5","2","3","4","2","4","2","758376715339960322","赵","448","","","","match","","","","","","","","","","","","","","key","f","16.664258064516265","768","428","f","true","match","img/triangle.png","三角","三角","ALT1","formal_ALT1_2","","","","","","","","","",""
"null","<span style='color:GreenYellow; font-size: 70px;'>正确! </span>","null","html-keyboard-response","180","436640","0.0-7.0-1.0-4.0-0.0-1.36","3","2","3","3","2","2","2","2","2","2","3","2","2","3","2","2","2","2","3","2","2","4","2","2","3","2","2","2","1","1","0","1","1","0","0","1","1","0","1","1","0","1","0","1","4","4","4","5","2","3","4","2","4","2","758376715339960322","赵","448","","","","","","","","","","","","","","","","","","","","","","","","","","","","","","feedback_test","","","","","","","","","",""
"449","","f","psychophysics","181","438093","0.0-7.0-1.0-4.0-0.0-0.37","3","2","3","3","2","2","2","2","2","2","3","2","2","3","2","2","2","2","3","2","2","4","2","2","3","2","2","2","1","1","0","1","1","0","0","1","1","0","1","1","0","1","0","1","4","4","4","5","2","3","4","2","4","2","758376715339960322","赵","448","","","","match","","","","","","","","","","","","","","key","f","16.683895348837236","768","428","j","false","nonmatch","img/triangle.png","五边","三角","ALT1","formal_ALT1_2","","","","","","","","","",""
"null","<span style='color:red; font-size: 70px;'>错误! </span>","null","html-keyboard-response","182","438596","0.0-7.0-1.0-4.0-0.0-1.37","3","2","3","3","2","2","2","2","2","2","3","2","2","3","2","2","2","2","3","2","2","4","2","2","3","2","2","2","1","1","0","1","1","0","0","1","1","0","1","1","0","1","0","1","4","4","4","5","2","3","4","2","4","2","758376715339960322","赵","448","","","","","","","","","","","","","","","","","","","","","","","","","","","","","","feedback_test","","","","","","","","","",""
"627","","f","psychophysics","183","440229","0.0-7.0-1.0-4.0-0.0-0.38","3","2","3","3","2","2","2","2","2","2","3","2","2","3","2","2","2","2","3","2","2","4","2","2","3","2","2","2","1","1","0","1","1","0","0","1","1","0","1","1","0","1","0","1","4","4","4","5","2","3","4","2","4","2","758376715339960322","赵","448","","","","match","","","","","","","","","","","","","","key","f","16.569406250000004","768","428","j","false","nonmatch","img/trapezoid.png","五边","梯形","ALT1","formal_ALT1_2","","","","","","","","","",""
"null","<span style='color:red; font-size: 70px;'>错误! </span>","null","html-keyboard-response","184","440732","0.0-7.0-1.0-4.0-0.0-1.38","3","2","3","3","2","2","2","2","2","2","3","2","2","3","2","2","2","2","3","2","2","4","2","2","3","2","2","2","1","1","0","1","1","0","0","1","1","0","1","1","0","1","0","1","4","4","4","5","2","3","4","2","4","2","758376715339960322","赵","448","","","","","","","","","","","","","","","","","","","","","","","","","","","","","","feedback_test","","","","","","","","","",""
"487","","f","psychophysics","185","442236","0.0-7.0-1.0-4.0-0.0-0.39","3","2","3","3","2","2","2","2","2","2","3","2","2","3","2","2","2","2","3","2","2","4","2","2","3","2","2","2","1","1","0","1","1","0","0","1","1","0","1","1","0","1","0","1","4","4","4","5","2","3","4","2","4","2","758376715339960322","赵","448","","","","match","","","","","","","","","","","","","","key","f","16.66721348314588","768","428","j","false","nonmatch","img/ellipse.png","三角","椭圆","ALT1","formal_ALT1_2","","","","","","","","","",""
