"rt","stimulus","response","trial_type","trial_index","time_elapsed","internal_node_id","ses_1","ses_2","ses_3","ses_4","ses_5","ses_6","ses_7","ses_8","ses_9","ses_10","coreself_1","coreself_2","coreself_3","coreself_4","coreself_5","coreself_6","coreself_7","coreself_8","coreself_9","coreself_10","SGPS_1","SGPS_2","SGPS_3","SGPS_4","SGPS_5","SGPS_6","SGPS_7","SGPS_8","SGPS_9","NPI1","NPI2","NPI3","NPI4","NPI5","NPI6","NPI7","NPI8","NPI9","NPI10","NPI11","NPI12","NPI13","NPI14","NPI15","hsns_1","hsns_2","hsns_3","hsns_4","hsns_5","hsns_6","hsns_7","hsns_8","hsns_9","hsns_10","subj_idx","friend_name","ParticipantID","value","success","user_agent","responses","item_order","radio_event_ids","radio_event_times","key_event_times","mouse_event_times","straightlining","zigzagging","honeypot","timeout","failed_images","failed_audio","failed_video","version_attrib2","version_target2","correct","IAT","screen_id","task_id","RT","condition","word","varname","summary","version_attrib","version_target","time_stamp","view_history","response_type","key_press","avg_frame_time","center_x","center_y","correct_response","identity","Image","question_order"
"26947","
   <p><div style = ""color: white;font-size:25px;"">您好，欢迎参加本次实验。</div> </p>
   <p><div style = ""color: white;font-size:25px;"">为充分保障您的权利，请确保您已经知晓并同意《参与实验同意书》以及《数据公开知情同意书》。</div></p>
   <p><div style = ""color: white;font-size:25px;"">如果您未见过上述内容，请咨询实验员。</div></p>
   <p><div style = ""color: white;font-size:25px;"">如果您选择继续实验，则表示您已经清楚两份知情同意书的内容并同意。</div></p>
   <p><div style = ""color: red;font-size:30px;"">请确保您记得day0的实验编号，您将在本次实验输入该编号，若您忘记，请咨询实验员后作答。</div></p>
   <p> <div style = ""color: green;font-size:25px;""><按空格键至下页></div> </p>
   "," ","html-keyboard-response","0","26954","0.0-0.0","4","4","4","3","4","4","3","4","4","4","4","4","4","4","4","5","4","4","5","5","3","4","4","3","4","4","2","4","3","1","0","1","0","0","1","0","1","0","1","1","0","1","0","1","4","3","4","2","4","3","4","4","4","2","767700606512271362","刘","496","","","","","","","","","","","","","","","","","","","","","","","","","","","","","","","","","","","","","","","",""
"","","","call-function","1","26956","0.0-1.0-0.0","4","4","4","3","4","4","3","4","4","4","4","4","4","4","4","5","4","4","5","5","3","4","4","3","4","4","2","4","3","1","0","1","0","0","1","0","1","0","1","1","0","1","0","1","4","3","4","2","4","3","4","4","4","2","767700606512271362","刘","496","","","","","","","","","","","","","","","","","","","","","","","","","","","","","","","","","","","","","","","",""
"81992","","{""friend_name"":""刘"",""ParticipantID"":""496""}","survey-html-form","2","108958","0.0-1.0-1.0","4","4","4","3","4","4","3","4","4","4","4","4","4","4","4","5","4","4","5","5","3","4","4","3","4","4","2","4","3","1","0","1","0","0","1","0","1","0","1","1","0","1","0","1","4","3","4","2","4","3","4","4","4","2","767700606512271362","刘","496","","","","","","","","","","","","","","","","","","","","","","","","","","","","","","","","","","","","","","","",""
"","","","fullscreen","3","143030","0.0-2.0","4","4","4","3","4","4","3","4","4","4","4","4","4","4","4","5","4","4","5","5","3","4","4","3","4","4","2","4","3","1","0","1","0","0","1","0","1","0","1","1","0","1","0","1","4","3","4","2","4","3","4","4","4","2","767700606512271362","刘","496","","true","{}","","","","","","","","","","","","","","","","","","","","","","","","","","","","","","","","","","","","",""
"38980.89999961853","","{""Q01"":""4"",""Q02"":""4"",""Q03"":""4"",""Q04"":""3"",""Q05"":""4"",""Q06"":""4"",""Q07"":""3"",""Q08"":""4"",""Q09"":""4"",""Q10"":""4""}","survey-template","4","182014","0.0-3.0","4","4","4","3","4","4","3","4","4","4","4","4","4","4","4","5","4","4","5","5","3","4","4","3","4","4","2","4","3","1","0","1","0","0","1","0","1","0","1","1","0","1","0","1","4","3","4","2","4","3","4","4","4","2","767700606512271362","刘","496","","","","{""Q01"":""4"",""Q02"":""4"",""Q03"":""4"",""Q04"":""3"",""Q05"":""4"",""Q06"":""4"",""Q07"":""3"",""Q08"":""4"",""Q09"":""4"",""Q10"":""4""}","[0,1,2,3,4,5,6,7,8,9]","[""Q01"",""Q02"",""Q03"",""Q04"",""Q05"",""Q06"",""Q07"",""Q08"",""Q09"",""Q10""]","[8362.300000190735,16913.5,18571.89999961853,20813.60000038147,25305.300000190735,27256.800000190735,30023.60000038147,32082.60000038147,36541.5,37651.10000038147]","[]","[8362.300000190735,10240.699999809265,16913.5,18571.89999961853,20813.60000038147,23926,25305.300000190735,27256.800000190735,30023.60000038147,32082.60000038147,36541.5,37651.10000038147,38979.800000190735]","0.5","0.3333333333333333","0","","","","","","","","","","","","","","","","","","","","","","","","","","","",""
"31571.79999923706","","{""Q01"":""4"",""Q02"":""4"",""Q03"":""4"",""Q04"":""4"",""Q05"":""4"",""Q06"":""5"",""Q07"":""4"",""Q08"":""4"",""Q09"":""5"",""Q10"":""5""}","survey-template","5","213592","0.0-4.0","4","4","4","3","4","4","3","4","4","4","4","4","4","4","4","5","4","4","5","5","3","4","4","3","4","4","2","4","3","1","0","1","0","0","1","0","1","0","1","1","0","1","0","1","4","3","4","2","4","3","4","4","4","2","767700606512271362","刘","496","","","","{""Q01"":""4"",""Q02"":""4"",""Q03"":""4"",""Q04"":""4"",""Q05"":""4"",""Q06"":""5"",""Q07"":""4"",""Q08"":""4"",""Q09"":""5"",""Q10"":""5""}","[0,1,2,3,4,5,6,7,8,9]","[""Q01"",""Q02"",""Q03"",""Q04"",""Q05"",""Q06"",""Q06"",""Q07"",""Q08"",""Q09"",""Q10""]","[3130.0999994277954,5091.699999809265,7115.699999809265,8964.599999427795,11344.5,13512.39999961853,15030,17139.39999961853,20114,23325.5,25932]","[]","[3130.0999994277954,5091.699999809265,7115.699999809265,8964.599999427795,11344.5,13512.39999961853,15030,17139.39999961853,20114,23325.5,25932,31568.89999961853]","0.5","0.1111111111111111","0","","","","","","","","","","","","","","","","","","","","","","","","","","","",""
"","","","preload","6","214226","0.0-5.0","4","4","4","3","4","4","3","4","4","4","4","4","4","4","4","5","4","4","5","5","3","4","4","3","4","4","2","4","3","1","0","1","0","0","1","0","1","0","1","1","0","1","0","1","4","3","4","2","4","3","4","4","4","2","767700606512271362","刘","496","","true","","","","","","","","","","","false","[]","[]","[]","","","","","","","","","","","","","","","","","","","","","","","",""
"14642","
    <h3>词语分类任务</h3>
    <p>在接下来的任务中，你需要对一系列词语进行分类。<p/>
    请先熟悉这些词语，这有利于你完成接下来的任务。</p>
    <table align=""center"" border=1 cellpadding=3 cellspacing=0>
    <tr> <th>类别</th> <th>词语</th> </tr>
    <tr> <td>&emsp;积极&emsp;</td> <td>&emsp;高尚、诚信、善良、君子、廉正、正直&emsp;</td> </tr>
    <tr> <td>&emsp;消极&emsp;</td> <td>&emsp;缺德、卑鄙、不孝、不仁、小人、黑心&emsp;</td> </tr>
    <tr> <td>&emsp;自我&emsp;</td> <td>&emsp;我、我的、自己、自己的、本人、本人的&emsp;</td> </tr>
    <tr> <td>&emsp;他人&emsp;</td> <td>&emsp;他、他的、别人、别人的、他人、他人的&emsp;</td> </tr>
    </table><br/>","0","html-button-response","7","228870","0.0-6.0-1.0-0.0","4","4","4","3","4","4","3","4","4","4","4","4","4","4","4","5","4","4","5","5","3","4","4","3","4","4","2","4","3","1","0","1","0","0","1","0","1","0","1","1","0","1","0","1","4","3","4","2","4","3","4","4","4","2","767700606512271362","刘","496","","","","","","","","","","","","","","","","","1","1","","","","","","","","","","","","","","","","","","","","","",""
"18287","
    <div class=""tag-bottom""><p>
    —— 任务1：对“自我”词和“他人”词分类 ——<p/>
    不同词语会出现在屏幕中央，类别标签将始终显示在屏幕上方<p/>   
    <span style=""color:#FFD866""><b>请根据上方标签的提示，尽可能正确并且快速地做出按键反应</b></span><p/>
    当按键错误时屏幕中会出现<span style=""color:red""> X </span>，需要按另一个键纠正才能继续<br/><p/>
    请把双手食指分别放在键盘的“E”键和“I”键上<p/>
    按<空格键>开始
    </p></div>"," ","html-keyboard-response","8","247166","0.0-6.0-1.0-1.0","4","4","4","3","4","4","3","4","4","4","4","4","4","4","4","5","4","4","5","5","3","4","4","3","4","4","2","4","3","1","0","1","0","0","1","0","1","0","1","1","0","1","0","1","4","3","4","2","4","3","4","4","4","2","767700606512271362","刘","496","","","","","","","","","","","","","","","","","","","","","","","","","","","","","","","","","","","","","","","",""
"null","","null","html-keyboard-response","9","247419","0.0-6.0-1.0-2.0-0.0","4","4","4","3","4","4","3","4","4","4","4","4","4","4","4","5","4","4","5","5","3","4","4","3","4","4","2","4","3","1","0","1","0","0","1","0","1","0","1","1","0","1","0","1","4","3","4","2","4","3","4","4","4","2","767700606512271362","刘","496","","","","","","","","","","","","","","","","","","","","","","","","","","","","","","","","","","","","","","","",""
"1139","<p style=""color:rgb(150, 250, 100); font-size: 35px;"">他的</p>","i","categorize-html","10","248562","0.0-6.0-1.0-2.0-1.0","4","4","4","3","4","4","3","4","4","4","4","4","4","4","4","5","4","4","5","5","3","4","4","3","4","4","2","4","3","1","0","1","0","0","1","0","1","0","1","1","0","1","0","1","4","3","4","2","4","3","4","4","4","2","767700606512271362","刘","496","","","","","","","","","","","","","","","","","","","true","11","1","moral","1139","other","他的","","","","","","","","","","","","","","",""
"null","","null","html-keyboard-response","11","248813","0.0-6.0-1.0-2.0-0.1","4","4","4","3","4","4","3","4","4","4","4","4","4","4","4","5","4","4","5","5","3","4","4","3","4","4","2","4","3","1","0","1","0","0","1","0","1","0","1","1","0","1","0","1","4","3","4","2","4","3","4","4","4","2","767700606512271362","刘","496","","","","","","","","","","","","","","","","","","","","","","","","","","","","","","","","","","","","","","","",""
"684","<p style=""color:rgb(150, 250, 100); font-size: 35px;"">他人</p>","i","categorize-html","12","249498","0.0-6.0-1.0-2.0-1.1","4","4","4","3","4","4","3","4","4","4","4","4","4","4","4","5","4","4","5","5","3","4","4","3","4","4","2","4","3","1","0","1","0","0","1","0","1","0","1","1","0","1","0","1","4","3","4","2","4","3","4","4","4","2","767700606512271362","刘","496","","","","","","","","","","","","","","","","","","","true","11","1","moral","684","other","他人","","","","","","","","","","","","","","",""
"null","","null","html-keyboard-response","13","249749","0.0-6.0-1.0-2.0-0.2","4","4","4","3","4","4","3","4","4","4","4","4","4","4","4","5","4","4","5","5","3","4","4","3","4","4","2","4","3","1","0","1","0","0","1","0","1","0","1","1","0","1","0","1","4","3","4","2","4","3","4","4","4","2","767700606512271362","刘","496","","","","","","","","","","","","","","","","","","","","","","","","","","","","","","","","","","","","","","","",""
"689","<p style=""color:rgb(150, 250, 100); font-size: 35px;"">自己</p>","e","categorize-html","14","250439","0.0-6.0-1.0-2.0-1.2","4","4","4","3","4","4","3","4","4","4","4","4","4","4","4","5","4","4","5","5","3","4","4","3","4","4","2","4","3","1","0","1","0","0","1","0","1","0","1","1","0","1","0","1","4","3","4","2","4","3","4","4","4","2","767700606512271362","刘","496","","","","","","","","","","","","","","","","","","","true","11","1","moral","689","self","自己","","","","","","","","","","","","","","",""
"null","","null","html-keyboard-response","15","250690","0.0-6.0-1.0-2.0-0.3","4","4","4","3","4","4","3","4","4","4","4","4","4","4","4","5","4","4","5","5","3","4","4","3","4","4","2","4","3","1","0","1","0","0","1","0","1","0","1","1","0","1","0","1","4","3","4","2","4","3","4","4","4","2","767700606512271362","刘","496","","","","","","","","","","","","","","","","","","","","","","","","","","","","","","","","","","","","","","","",""
"538","<p style=""color:rgb(150, 250, 100); font-size: 35px;"">别人</p>","i","categorize-html","16","251232","0.0-6.0-1.0-2.0-1.3","4","4","4","3","4","4","3","4","4","4","4","4","4","4","4","5","4","4","5","5","3","4","4","3","4","4","2","4","3","1","0","1","0","0","1","0","1","0","1","1","0","1","0","1","4","3","4","2","4","3","4","4","4","2","767700606512271362","刘","496","","","","","","","","","","","","","","","","","","","true","11","1","moral","538","other","别人","","","","","","","","","","","","","","",""
"null","","null","html-keyboard-response","17","251484","0.0-6.0-1.0-2.0-0.4","4","4","4","3","4","4","3","4","4","4","4","4","4","4","4","5","4","4","5","5","3","4","4","3","4","4","2","4","3","1","0","1","0","0","1","0","1","0","1","1","0","1","0","1","4","3","4","2","4","3","4","4","4","2","767700606512271362","刘","496","","","","","","","","","","","","","","","","","","","","","","","","","","","","","","","","","","","","","","","",""
"1140","<p style=""color:rgb(150, 250, 100); font-size: 35px;"">本人的</p>","e","categorize-html","18","252625","0.0-6.0-1.0-2.0-1.4","4","4","4","3","4","4","3","4","4","4","4","4","4","4","4","5","4","4","5","5","3","4","4","3","4","4","2","4","3","1","0","1","0","0","1","0","1","0","1","1","0","1","0","1","4","3","4","2","4","3","4","4","4","2","767700606512271362","刘","496","","","","","","","","","","","","","","","","","","","true","11","1","moral","1140","self","本人的","","","","","","","","","","","","","","",""
"null","","null","html-keyboard-response","19","252877","0.0-6.0-1.0-2.0-0.5","4","4","4","3","4","4","3","4","4","4","4","4","4","4","4","5","4","4","5","5","3","4","4","3","4","4","2","4","3","1","0","1","0","0","1","0","1","0","1","1","0","1","0","1","4","3","4","2","4","3","4","4","4","2","767700606512271362","刘","496","","","","","","","","","","","","","","","","","","","","","","","","","","","","","","","","","","","","","","","",""
"1107","<p style=""color:rgb(150, 250, 100); font-size: 35px;"">自己的</p>","e","categorize-html","20","253984","0.0-6.0-1.0-2.0-1.5","4","4","4","3","4","4","3","4","4","4","4","4","4","4","4","5","4","4","5","5","3","4","4","3","4","4","2","4","3","1","0","1","0","0","1","0","1","0","1","1","0","1","0","1","4","3","4","2","4","3","4","4","4","2","767700606512271362","刘","496","","","","","","","","","","","","","","","","","","","true","11","1","moral","1107","self","自己的","","","","","","","","","","","","","","",""
"null","","null","html-keyboard-response","21","254235","0.0-6.0-1.0-2.0-0.6","4","4","4","3","4","4","3","4","4","4","4","4","4","4","4","5","4","4","5","5","3","4","4","3","4","4","2","4","3","1","0","1","0","0","1","0","1","0","1","1","0","1","0","1","4","3","4","2","4","3","4","4","4","2","767700606512271362","刘","496","","","","","","","","","","","","","","","","","","","","","","","","","","","","","","","","","","","","","","","",""
"481","<p style=""color:rgb(150, 250, 100); font-size: 35px;"">本人</p>","i","categorize-html","22","256950","0.0-6.0-1.0-2.0-1.6","4","4","4","3","4","4","3","4","4","4","4","4","4","4","4","5","4","4","5","5","3","4","4","3","4","4","2","4","3","1","0","1","0","0","1","0","1","0","1","1","0","1","0","1","4","3","4","2","4","3","4","4","4","2","767700606512271362","刘","496","","","","","","","","","","","","","","","","","","","false","11","1","moral","481","self","本人","","","","","","","","","","","","","","",""
"null","","null","html-keyboard-response","23","257202","0.0-6.0-1.0-2.0-0.7","4","4","4","3","4","4","3","4","4","4","4","4","4","4","4","5","4","4","5","5","3","4","4","3","4","4","2","4","3","1","0","1","0","0","1","0","1","0","1","1","0","1","0","1","4","3","4","2","4","3","4","4","4","2","767700606512271362","刘","496","","","","","","","","","","","","","","","","","","","","","","","","","","","","","","","","","","","","","","","",""
"1031","<p style=""color:rgb(150, 250, 100); font-size: 35px;"">他人的</p>","i","categorize-html","24","258238","0.0-6.0-1.0-2.0-1.7","4","4","4","3","4","4","3","4","4","4","4","4","4","4","4","5","4","4","5","5","3","4","4","3","4","4","2","4","3","1","0","1","0","0","1","0","1","0","1","1","0","1","0","1","4","3","4","2","4","3","4","4","4","2","767700606512271362","刘","496","","","","","","","","","","","","","","","","","","","true","11","1","moral","1031","other","他人的","","","","","","","","","","","","","","",""
"null","","null","html-keyboard-response","25","258489","0.0-6.0-1.0-2.0-0.8","4","4","4","3","4","4","3","4","4","4","4","4","4","4","4","5","4","4","5","5","3","4","4","3","4","4","2","4","3","1","0","1","0","0","1","0","1","0","1","1","0","1","0","1","4","3","4","2","4","3","4","4","4","2","767700606512271362","刘","496","","","","","","","","","","","","","","","","","","","","","","","","","","","","","","","","","","","","","","","",""
"794","<p style=""color:rgb(150, 250, 100); font-size: 35px;"">我</p>","e","categorize-html","26","259286","0.0-6.0-1.0-2.0-1.8","4","4","4","3","4","4","3","4","4","4","4","4","4","4","4","5","4","4","5","5","3","4","4","3","4","4","2","4","3","1","0","1","0","0","1","0","1","0","1","1","0","1","0","1","4","3","4","2","4","3","4","4","4","2","767700606512271362","刘","496","","","","","","","","","","","","","","","","","","","true","11","1","moral","794","self","我","","","","","","","","","","","","","","",""
"null","","null","html-keyboard-response","27","259537","0.0-6.0-1.0-2.0-0.9","4","4","4","3","4","4","3","4","4","4","4","4","4","4","4","5","4","4","5","5","3","4","4","3","4","4","2","4","3","1","0","1","0","0","1","0","1","0","1","1","0","1","0","1","4","3","4","2","4","3","4","4","4","2","767700606512271362","刘","496","","","","","","","","","","","","","","","","","","","","","","","","","","","","","","","","","","","","","","","",""
"783","<p style=""color:rgb(150, 250, 100); font-size: 35px;"">他</p>","i","categorize-html","28","260322","0.0-6.0-1.0-2.0-1.9","4","4","4","3","4","4","3","4","4","4","4","4","4","4","4","5","4","4","5","5","3","4","4","3","4","4","2","4","3","1","0","1","0","0","1","0","1","0","1","1","0","1","0","1","4","3","4","2","4","3","4","4","4","2","767700606512271362","刘","496","","","","","","","","","","","","","","","","","","","true","11","1","moral","783","other","他","","","","","","","","","","","","","","",""
"null","","null","html-keyboard-response","29","260574","0.0-6.0-1.0-2.0-0.10","4","4","4","3","4","4","3","4","4","4","4","4","4","4","4","5","4","4","5","5","3","4","4","3","4","4","2","4","3","1","0","1","0","0","1","0","1","0","1","1","0","1","0","1","4","3","4","2","4","3","4","4","4","2","767700606512271362","刘","496","","","","","","","","","","","","","","","","","","","","","","","","","","","","","","","","","","","","","","","",""
"390","<p style=""color:rgb(150, 250, 100); font-size: 35px;"">我的</p>","e","categorize-html","30","260964","0.0-6.0-1.0-2.0-1.10","4","4","4","3","4","4","3","4","4","4","4","4","4","4","4","5","4","4","5","5","3","4","4","3","4","4","2","4","3","1","0","1","0","0","1","0","1","0","1","1","0","1","0","1","4","3","4","2","4","3","4","4","4","2","767700606512271362","刘","496","","","","","","","","","","","","","","","","","","","true","11","1","moral","390","self","我的","","","","","","","","","","","","","","",""
"null","","null","html-keyboard-response","31","261215","0.0-6.0-1.0-2.0-0.11","4","4","4","3","4","4","3","4","4","4","4","4","4","4","4","5","4","4","5","5","3","4","4","3","4","4","2","4","3","1","0","1","0","0","1","0","1","0","1","1","0","1","0","1","4","3","4","2","4","3","4","4","4","2","767700606512271362","刘","496","","","","","","","","","","","","","","","","","","","","","","","","","","","","","","","","","","","","","","","",""
"567","<p style=""color:rgb(150, 250, 100); font-size: 35px;"">别人的</p>","i","categorize-html","32","261787","0.0-6.0-1.0-2.0-1.11","4","4","4","3","4","4","3","4","4","4","4","4","4","4","4","5","4","4","5","5","3","4","4","3","4","4","2","4","3","1","0","1","0","0","1","0","1","0","1","1","0","1","0","1","4","3","4","2","4","3","4","4","4","2","767700606512271362","刘","496","","","","","","","","","","","","","","","","","","","true","11","1","moral","567","other","别人的","","","","","","","","","","","","","","",""
"3961","
    <div class=""tag-bottom""><p>
    —— 任务2：对“积极”词和“消极”词分类 ——<p/>   
    <span style=""color:#78DCE8""><b>注意上方，类别标签和需要分类的词语都已经改变</b></span><p/>
    <span style=""color:#FFD866""><b>请根据上方标签的提示，尽可能正确并且快速地做出按键反应</b></span><p/>
    当按键错误时屏幕中会出现<span style=""color:red""> X </span>，需要按另一个键纠正才能继续<br/><p/>
    请把双手食指分别放在键盘的“E”键和“I”键上<p/>
    按<空格键>开始
    </p></div>"," ","html-keyboard-response","33","265750","0.0-6.0-1.0-3.0","4","4","4","3","4","4","3","4","4","4","4","4","4","4","4","5","4","4","5","5","3","4","4","3","4","4","2","4","3","1","0","1","0","0","1","0","1","0","1","1","0","1","0","1","4","3","4","2","4","3","4","4","4","2","767700606512271362","刘","496","","","","","","","","","","","","","","","","","","","","","","","","","","","","","","","","","","","","","","","",""
"null","","null","html-keyboard-response","34","266011","0.0-6.0-1.0-4.0-0.0","4","4","4","3","4","4","3","4","4","4","4","4","4","4","4","5","4","4","5","5","3","4","4","3","4","4","2","4","3","1","0","1","0","0","1","0","1","0","1","1","0","1","0","1","4","3","4","2","4","3","4","4","4","2","767700606512271362","刘","496","","","","","","","","","","","","","","","","","","","","","","","","","","","","","","","","","","","","","","","",""
"1195","<p style=""color:white; font-size: 35px;"">小人</p>","i","categorize-html","35","267210","0.0-6.0-1.0-4.0-1.0","4","4","4","3","4","4","3","4","4","4","4","4","4","4","4","5","4","4","5","5","3","4","4","3","4","4","2","4","3","1","0","1","0","0","1","0","1","0","1","1","0","1","0","1","4","3","4","2","4","3","4","4","4","2","767700606512271362","刘","496","","","","","","","","","","","","","","","","","","","true","12","2","moral","1195","negative","小人","","","","","","","","","","","","","","",""
"null","","null","html-keyboard-response","36","267461","0.0-6.0-1.0-4.0-0.1","4","4","4","3","4","4","3","4","4","4","4","4","4","4","4","5","4","4","5","5","3","4","4","3","4","4","2","4","3","1","0","1","0","0","1","0","1","0","1","1","0","1","0","1","4","3","4","2","4","3","4","4","4","2","767700606512271362","刘","496","","","","","","","","","","","","","","","","","","","","","","","","","","","","","","","","","","","","","","","",""
"1176","<p style=""color:white; font-size: 35px;"">不孝</p>","i","categorize-html","37","268638","0.0-6.0-1.0-4.0-1.1","4","4","4","3","4","4","3","4","4","4","4","4","4","4","4","5","4","4","5","5","3","4","4","3","4","4","2","4","3","1","0","1","0","0","1","0","1","0","1","1","0","1","0","1","4","3","4","2","4","3","4","4","4","2","767700606512271362","刘","496","","","","","","","","","","","","","","","","","","","true","12","2","moral","1176","negative","不孝","","","","","","","","","","","","","","",""
"null","","null","html-keyboard-response","38","268889","0.0-6.0-1.0-4.0-0.2","4","4","4","3","4","4","3","4","4","4","4","4","4","4","4","5","4","4","5","5","3","4","4","3","4","4","2","4","3","1","0","1","0","0","1","0","1","0","1","1","0","1","0","1","4","3","4","2","4","3","4","4","4","2","767700606512271362","刘","496","","","","","","","","","","","","","","","","","","","","","","","","","","","","","","","","","","","","","","","",""
"597","<p style=""color:white; font-size: 35px;"">卑鄙</p>","i","categorize-html","39","269489","0.0-6.0-1.0-4.0-1.2","4","4","4","3","4","4","3","4","4","4","4","4","4","4","4","5","4","4","5","5","3","4","4","3","4","4","2","4","3","1","0","1","0","0","1","0","1","0","1","1","0","1","0","1","4","3","4","2","4","3","4","4","4","2","767700606512271362","刘","496","","","","","","","","","","","","","","","","","","","true","12","2","moral","597","negative","卑鄙","","","","","","","","","","","","","","",""
"null","","null","html-keyboard-response","40","269740","0.0-6.0-1.0-4.0-0.3","4","4","4","3","4","4","3","4","4","4","4","4","4","4","4","5","4","4","5","5","3","4","4","3","4","4","2","4","3","1","0","1","0","0","1","0","1","0","1","1","0","1","0","1","4","3","4","2","4","3","4","4","4","2","767700606512271362","刘","496","","","","","","","","","","","","","","","","","","","","","","","","","","","","","","","","","","","","","","","",""
"546","<p style=""color:white; font-size: 35px;"">诚信</p>","e","categorize-html","41","270288","0.0-6.0-1.0-4.0-1.3","4","4","4","3","4","4","3","4","4","4","4","4","4","4","4","5","4","4","5","5","3","4","4","3","4","4","2","4","3","1","0","1","0","0","1","0","1","0","1","1","0","1","0","1","4","3","4","2","4","3","4","4","4","2","767700606512271362","刘","496","","","","","","","","","","","","","","","","","","","true","12","2","moral","546","positive","诚信","","","","","","","","","","","","","","",""
"null","","null","html-keyboard-response","42","270539","0.0-6.0-1.0-4.0-0.4","4","4","4","3","4","4","3","4","4","4","4","4","4","4","4","5","4","4","5","5","3","4","4","3","4","4","2","4","3","1","0","1","0","0","1","0","1","0","1","1","0","1","0","1","4","3","4","2","4","3","4","4","4","2","767700606512271362","刘","496","","","","","","","","","","","","","","","","","","","","","","","","","","","","","","","","","","","","","","","",""
"706","<p style=""color:white; font-size: 35px;"">廉正</p>","e","categorize-html","43","271247","0.0-6.0-1.0-4.0-1.4","4","4","4","3","4","4","3","4","4","4","4","4","4","4","4","5","4","4","5","5","3","4","4","3","4","4","2","4","3","1","0","1","0","0","1","0","1","0","1","1","0","1","0","1","4","3","4","2","4","3","4","4","4","2","767700606512271362","刘","496","","","","","","","","","","","","","","","","","","","true","12","2","moral","706","positive","廉正","","","","","","","","","","","","","","",""
"null","","null","html-keyboard-response","44","271499","0.0-6.0-1.0-4.0-0.5","4","4","4","3","4","4","3","4","4","4","4","4","4","4","4","5","4","4","5","5","3","4","4","3","4","4","2","4","3","1","0","1","0","0","1","0","1","0","1","1","0","1","0","1","4","3","4","2","4","3","4","4","4","2","767700606512271362","刘","496","","","","","","","","","","","","","","","","","","","","","","","","","","","","","","","","","","","","","","","",""
"623","<p style=""color:white; font-size: 35px;"">不仁</p>","e","categorize-html","45","273137","0.0-6.0-1.0-4.0-1.5","4","4","4","3","4","4","3","4","4","4","4","4","4","4","4","5","4","4","5","5","3","4","4","3","4","4","2","4","3","1","0","1","0","0","1","0","1","0","1","1","0","1","0","1","4","3","4","2","4","3","4","4","4","2","767700606512271362","刘","496","","","","","","","","","","","","","","","","","","","false","12","2","moral","623","negative","不仁","","","","","","","","","","","","","","",""
"null","","null","html-keyboard-response","46","273388","0.0-6.0-1.0-4.0-0.6","4","4","4","3","4","4","3","4","4","4","4","4","4","4","4","5","4","4","5","5","3","4","4","3","4","4","2","4","3","1","0","1","0","0","1","0","1","0","1","1","0","1","0","1","4","3","4","2","4","3","4","4","4","2","767700606512271362","刘","496","","","","","","","","","","","","","","","","","","","","","","","","","","","","","","","","","","","","","","","",""
"960","<p style=""color:white; font-size: 35px;"">善良</p>","e","categorize-html","47","274350","0.0-6.0-1.0-4.0-1.6","4","4","4","3","4","4","3","4","4","4","4","4","4","4","4","5","4","4","5","5","3","4","4","3","4","4","2","4","3","1","0","1","0","0","1","0","1","0","1","1","0","1","0","1","4","3","4","2","4","3","4","4","4","2","767700606512271362","刘","496","","","","","","","","","","","","","","","","","","","true","12","2","moral","960","positive","善良","","","","","","","","","","","","","","",""
"null","","null","html-keyboard-response","48","274601","0.0-6.0-1.0-4.0-0.7","4","4","4","3","4","4","3","4","4","4","4","4","4","4","4","5","4","4","5","5","3","4","4","3","4","4","2","4","3","1","0","1","0","0","1","0","1","0","1","1","0","1","0","1","4","3","4","2","4","3","4","4","4","2","767700606512271362","刘","496","","","","","","","","","","","","","","","","","","","","","","","","","","","","","","","","","","","","","","","",""
"596","<p style=""color:white; font-size: 35px;"">高尚</p>","e","categorize-html","49","275200","0.0-6.0-1.0-4.0-1.7","4","4","4","3","4","4","3","4","4","4","4","4","4","4","4","5","4","4","5","5","3","4","4","3","4","4","2","4","3","1","0","1","0","0","1","0","1","0","1","1","0","1","0","1","4","3","4","2","4","3","4","4","4","2","767700606512271362","刘","496","","","","","","","","","","","","","","","","","","","true","12","2","moral","596","positive","高尚","","","","","","","","","","","","","","",""
"null","","null","html-keyboard-response","50","275452","0.0-6.0-1.0-4.0-0.8","4","4","4","3","4","4","3","4","4","4","4","4","4","4","4","5","4","4","5","5","3","4","4","3","4","4","2","4","3","1","0","1","0","0","1","0","1","0","1","1","0","1","0","1","4","3","4","2","4","3","4","4","4","2","767700606512271362","刘","496","","","","","","","","","","","","","","","","","","","","","","","","","","","","","","","","","","","","","","","",""
"612","<p style=""color:white; font-size: 35px;"">正直</p>","e","categorize-html","51","276067","0.0-6.0-1.0-4.0-1.8","4","4","4","3","4","4","3","4","4","4","4","4","4","4","4","5","4","4","5","5","3","4","4","3","4","4","2","4","3","1","0","1","0","0","1","0","1","0","1","1","0","1","0","1","4","3","4","2","4","3","4","4","4","2","767700606512271362","刘","496","","","","","","","","","","","","","","","","","","","true","12","2","moral","612","positive","正直","","","","","","","","","","","","","","",""
"null","","null","html-keyboard-response","52","276328","0.0-6.0-1.0-4.0-0.9","4","4","4","3","4","4","3","4","4","4","4","4","4","4","4","5","4","4","5","5","3","4","4","3","4","4","2","4","3","1","0","1","0","0","1","0","1","0","1","1","0","1","0","1","4","3","4","2","4","3","4","4","4","2","767700606512271362","刘","496","","","","","","","","","","","","","","","","","","","","","","","","","","","","","","","","","","","","","","","",""
"811","<p style=""color:white; font-size: 35px;"">黑心</p>","i","categorize-html","53","277141","0.0-6.0-1.0-4.0-1.9","4","4","4","3","4","4","3","4","4","4","4","4","4","4","4","5","4","4","5","5","3","4","4","3","4","4","2","4","3","1","0","1","0","0","1","0","1","0","1","1","0","1","0","1","4","3","4","2","4","3","4","4","4","2","767700606512271362","刘","496","","","","","","","","","","","","","","","","","","","true","12","2","moral","811","negative","黑心","","","","","","","","","","","","","","",""
"null","","null","html-keyboard-response","54","277393","0.0-6.0-1.0-4.0-0.10","4","4","4","3","4","4","3","4","4","4","4","4","4","4","4","5","4","4","5","5","3","4","4","3","4","4","2","4","3","1","0","1","0","0","1","0","1","0","1","1","0","1","0","1","4","3","4","2","4","3","4","4","4","2","767700606512271362","刘","496","","","","","","","","","","","","","","","","","","","","","","","","","","","","","","","","","","","","","","","",""
"945","<p style=""color:white; font-size: 35px;"">缺德</p>","i","categorize-html","55","278339","0.0-6.0-1.0-4.0-1.10","4","4","4","3","4","4","3","4","4","4","4","4","4","4","4","5","4","4","5","5","3","4","4","3","4","4","2","4","3","1","0","1","0","0","1","0","1","0","1","1","0","1","0","1","4","3","4","2","4","3","4","4","4","2","767700606512271362","刘","496","","","","","","","","","","","","","","","","","","","true","12","2","moral","945","negative","缺德","","","","","","","","","","","","","","",""
"null","","null","html-keyboard-response","56","278591","0.0-6.0-1.0-4.0-0.11","4","4","4","3","4","4","3","4","4","4","4","4","4","4","4","5","4","4","5","5","3","4","4","3","4","4","2","4","3","1","0","1","0","0","1","0","1","0","1","1","0","1","0","1","4","3","4","2","4","3","4","4","4","2","767700606512271362","刘","496","","","","","","","","","","","","","","","","","","","","","","","","","","","","","","","","","","","","","","","",""
"1762","<p style=""color:white; font-size: 35px;"">君子</p>","e","categorize-html","57","280355","0.0-6.0-1.0-4.0-1.11","4","4","4","3","4","4","3","4","4","4","4","4","4","4","4","5","4","4","5","5","3","4","4","3","4","4","2","4","3","1","0","1","0","0","1","0","1","0","1","1","0","1","0","1","4","3","4","2","4","3","4","4","4","2","767700606512271362","刘","496","","","","","","","","","","","","","","","","","","","true","12","2","moral","1762","positive","君子","","","","","","","","","","","","","","",""
"5217","
    <div class=""tag-bottom""><p>
    —— 任务3：对“自我/积极”词和“他人/消极”词分类 ——<p/>
    <span style=""color:#78DCE8""><b>注意上方，之前的四类词语将混合在一起交替呈现</b></span><p/>
    <span style=""color:#FFD866""><b>请根据上方标签的提示，尽可能正确并且快速地做出按键反应</b></span><p/>
    当按键错误时屏幕中会出现<span style=""color:red""> X </span>，需要按另一个键纠正才能继续<br/><p/>
    请把双手食指分别放在键盘的“E”键和“I”键上<p/>
    按<空格键>开始
    </p></div>"," ","html-keyboard-response","58","285573","0.0-6.0-1.0-5.0","4","4","4","3","4","4","3","4","4","4","4","4","4","4","4","5","4","4","5","5","3","4","4","3","4","4","2","4","3","1","0","1","0","0","1","0","1","0","1","1","0","1","0","1","4","3","4","2","4","3","4","4","4","2","767700606512271362","刘","496","","","","","","","","","","","","","","","","","","","","","","","","","","","","","","","","","","","","","","","",""
"null","","null","html-keyboard-response","59","285826","0.0-6.0-1.0-6.0-0.0","4","4","4","3","4","4","3","4","4","4","4","4","4","4","4","5","4","4","5","5","3","4","4","3","4","4","2","4","3","1","0","1","0","0","1","0","1","0","1","1","0","1","0","1","4","3","4","2","4","3","4","4","4","2","767700606512271362","刘","496","","","","","","","","","","","","","","","","","","","","","","","","","","","","","","","","","","","","","","","",""
"1221","<p style=""color:rgb(150, 250, 100); font-size: 35px;"">他</p>","i","categorize-html","60","287050","0.0-6.0-1.0-6.0-1.0","4","4","4","3","4","4","3","4","4","4","4","4","4","4","4","5","4","4","5","5","3","4","4","3","4","4","2","4","3","1","0","1","0","0","1","0","1","0","1","1","0","1","0","1","4","3","4","2","4","3","4","4","4","2","767700606512271362","刘","496","","","","","","","","","","","","","","","","","","","true","13","3","moral","1221","other","他","","","","","","","","","","","","","","",""
"null","","null","html-keyboard-response","61","287303","0.0-6.0-1.0-6.0-0.1","4","4","4","3","4","4","3","4","4","4","4","4","4","4","4","5","4","4","5","5","3","4","4","3","4","4","2","4","3","1","0","1","0","0","1","0","1","0","1","1","0","1","0","1","4","3","4","2","4","3","4","4","4","2","767700606512271362","刘","496","","","","","","","","","","","","","","","","","","","","","","","","","","","","","","","","","","","","","","","",""
"2430","<p style=""color:white; font-size: 35px;"">不孝</p>","i","categorize-html","62","289734","0.0-6.0-1.0-6.0-1.1","4","4","4","3","4","4","3","4","4","4","4","4","4","4","4","5","4","4","5","5","3","4","4","3","4","4","2","4","3","1","0","1","0","0","1","0","1","0","1","1","0","1","0","1","4","3","4","2","4","3","4","4","4","2","767700606512271362","刘","496","","","","","","","","","","","","","","","","","","","true","13","3","moral","2430","negative","不孝","","","","","","","","","","","","","","",""
"null","","null","html-keyboard-response","63","289985","0.0-6.0-1.0-6.0-0.2","4","4","4","3","4","4","3","4","4","4","4","4","4","4","4","5","4","4","5","5","3","4","4","3","4","4","2","4","3","1","0","1","0","0","1","0","1","0","1","1","0","1","0","1","4","3","4","2","4","3","4","4","4","2","767700606512271362","刘","496","","","","","","","","","","","","","","","","","","","","","","","","","","","","","","","","","","","","","","","",""
"961","<p style=""color:rgb(150, 250, 100); font-size: 35px;"">我的</p>","e","categorize-html","64","290947","0.0-6.0-1.0-6.0-1.2","4","4","4","3","4","4","3","4","4","4","4","4","4","4","4","5","4","4","5","5","3","4","4","3","4","4","2","4","3","1","0","1","0","0","1","0","1","0","1","1","0","1","0","1","4","3","4","2","4","3","4","4","4","2","767700606512271362","刘","496","","","","","","","","","","","","","","","","","","","true","13","3","moral","961","self","我的","","","","","","","","","","","","","","",""
"null","","null","html-keyboard-response","65","291198","0.0-6.0-1.0-6.0-0.3","4","4","4","3","4","4","3","4","4","4","4","4","4","4","4","5","4","4","5","5","3","4","4","3","4","4","2","4","3","1","0","1","0","0","1","0","1","0","1","1","0","1","0","1","4","3","4","2","4","3","4","4","4","2","767700606512271362","刘","496","","","","","","","","","","","","","","","","","","","","","","","","","","","","","","","","","","","","","","","",""
"674","<p style=""color:white; font-size: 35px;"">善良</p>","e","categorize-html","66","291877","0.0-6.0-1.0-6.0-1.3","4","4","4","3","4","4","3","4","4","4","4","4","4","4","4","5","4","4","5","5","3","4","4","3","4","4","2","4","3","1","0","1","0","0","1","0","1","0","1","1","0","1","0","1","4","3","4","2","4","3","4","4","4","2","767700606512271362","刘","496","","","","","","","","","","","","","","","","","","","true","13","3","moral","674","positive","善良","","","","","","","","","","","","","","",""
"null","","null","html-keyboard-response","67","292130","0.0-6.0-1.0-6.0-0.4","4","4","4","3","4","4","3","4","4","4","4","4","4","4","4","5","4","4","5","5","3","4","4","3","4","4","2","4","3","1","0","1","0","0","1","0","1","0","1","1","0","1","0","1","4","3","4","2","4","3","4","4","4","2","767700606512271362","刘","496","","","","","","","","","","","","","","","","","","","","","","","","","","","","","","","","","","","","","","","",""
"548","<p style=""color:rgb(150, 250, 100); font-size: 35px;"">自己的</p>","e","categorize-html","68","292680","0.0-6.0-1.0-6.0-1.4","4","4","4","3","4","4","3","4","4","4","4","4","4","4","4","5","4","4","5","5","3","4","4","3","4","4","2","4","3","1","0","1","0","0","1","0","1","0","1","1","0","1","0","1","4","3","4","2","4","3","4","4","4","2","767700606512271362","刘","496","","","","","","","","","","","","","","","","","","","true","13","3","moral","548","self","自己的","","","","","","","","","","","","","","",""
"null","","null","html-keyboard-response","69","292932","0.0-6.0-1.0-6.0-0.5","4","4","4","3","4","4","3","4","4","4","4","4","4","4","4","5","4","4","5","5","3","4","4","3","4","4","2","4","3","1","0","1","0","0","1","0","1","0","1","1","0","1","0","1","4","3","4","2","4","3","4","4","4","2","767700606512271362","刘","496","","","","","","","","","","","","","","","","","","","","","","","","","","","","","","","","","","","","","","","",""
"622","<p style=""color:white; font-size: 35px;"">小人</p>","i","categorize-html","70","293556","0.0-6.0-1.0-6.0-1.5","4","4","4","3","4","4","3","4","4","4","4","4","4","4","4","5","4","4","5","5","3","4","4","3","4","4","2","4","3","1","0","1","0","0","1","0","1","0","1","1","0","1","0","1","4","3","4","2","4","3","4","4","4","2","767700606512271362","刘","496","","","","","","","","","","","","","","","","","","","true","13","3","moral","622","negative","小人","","","","","","","","","","","","","","",""
"null","","null","html-keyboard-response","71","293808","0.0-6.0-1.0-6.0-0.6","4","4","4","3","4","4","3","4","4","4","4","4","4","4","4","5","4","4","5","5","3","4","4","3","4","4","2","4","3","1","0","1","0","0","1","0","1","0","1","1","0","1","0","1","4","3","4","2","4","3","4","4","4","2","767700606512271362","刘","496","","","","","","","","","","","","","","","","","","","","","","","","","","","","","","","","","","","","","","","",""
"925","<p style=""color:rgb(150, 250, 100); font-size: 35px;"">别人的</p>","i","categorize-html","72","294735","0.0-6.0-1.0-6.0-1.6","4","4","4","3","4","4","3","4","4","4","4","4","4","4","4","5","4","4","5","5","3","4","4","3","4","4","2","4","3","1","0","1","0","0","1","0","1","0","1","1","0","1","0","1","4","3","4","2","4","3","4","4","4","2","767700606512271362","刘","496","","","","","","","","","","","","","","","","","","","true","13","3","moral","925","other","别人的","","","","","","","","","","","","","","",""
"null","","null","html-keyboard-response","73","294985","0.0-6.0-1.0-6.0-0.7","4","4","4","3","4","4","3","4","4","4","4","4","4","4","4","5","4","4","5","5","3","4","4","3","4","4","2","4","3","1","0","1","0","0","1","0","1","0","1","1","0","1","0","1","4","3","4","2","4","3","4","4","4","2","767700606512271362","刘","496","","","","","","","","","","","","","","","","","","","","","","","","","","","","","","","","","","","","","","","",""
"795","<p style=""color:white; font-size: 35px;"">君子</p>","e","categorize-html","74","295781","0.0-6.0-1.0-6.0-1.7","4","4","4","3","4","4","3","4","4","4","4","4","4","4","4","5","4","4","5","5","3","4","4","3","4","4","2","4","3","1","0","1","0","0","1","0","1","0","1","1","0","1","0","1","4","3","4","2","4","3","4","4","4","2","767700606512271362","刘","496","","","","","","","","","","","","","","","","","","","true","13","3","moral","795","positive","君子","","","","","","","","","","","","","","",""
"null","","null","html-keyboard-response","75","296034","0.0-6.0-1.0-6.0-0.8","4","4","4","3","4","4","3","4","4","4","4","4","4","4","4","5","4","4","5","5","3","4","4","3","4","4","2","4","3","1","0","1","0","0","1","0","1","0","1","1","0","1","0","1","4","3","4","2","4","3","4","4","4","2","767700606512271362","刘","496","","","","","","","","","","","","","","","","","","","","","","","","","","","","","","","","","","","","","","","",""
"940","<p style=""color:rgb(150, 250, 100); font-size: 35px;"">他的</p>","i","categorize-html","76","296978","0.0-6.0-1.0-6.0-1.8","4","4","4","3","4","4","3","4","4","4","4","4","4","4","4","5","4","4","5","5","3","4","4","3","4","4","2","4","3","1","0","1","0","0","1","0","1","0","1","1","0","1","0","1","4","3","4","2","4","3","4","4","4","2","767700606512271362","刘","496","","","","","","","","","","","","","","","","","","","true","13","3","moral","940","other","他的","","","","","","","","","","","","","","",""
"null","","null","html-keyboard-response","77","297230","0.0-6.0-1.0-6.0-0.9","4","4","4","3","4","4","3","4","4","4","4","4","4","4","4","5","4","4","5","5","3","4","4","3","4","4","2","4","3","1","0","1","0","0","1","0","1","0","1","1","0","1","0","1","4","3","4","2","4","3","4","4","4","2","767700606512271362","刘","496","","","","","","","","","","","","","","","","","","","","","","","","","","","","","","","","","","","","","","","",""
"674","<p style=""color:white; font-size: 35px;"">正直</p>","e","categorize-html","78","297905","0.0-6.0-1.0-6.0-1.9","4","4","4","3","4","4","3","4","4","4","4","4","4","4","4","5","4","4","5","5","3","4","4","3","4","4","2","4","3","1","0","1","0","0","1","0","1","0","1","1","0","1","0","1","4","3","4","2","4","3","4","4","4","2","767700606512271362","刘","496","","","","","","","","","","","","","","","","","","","true","13","3","moral","674","positive","正直","","","","","","","","","","","","","","",""
"null","","null","html-keyboard-response","79","298157","0.0-6.0-1.0-6.0-0.10","4","4","4","3","4","4","3","4","4","4","4","4","4","4","4","5","4","4","5","5","3","4","4","3","4","4","2","4","3","1","0","1","0","0","1","0","1","0","1","1","0","1","0","1","4","3","4","2","4","3","4","4","4","2","767700606512271362","刘","496","","","","","","","","","","","","","","","","","","","","","","","","","","","","","","","","","","","","","","","",""
"715","<p style=""color:rgb(150, 250, 100); font-size: 35px;"">自己</p>","e","categorize-html","80","298873","0.0-6.0-1.0-6.0-1.10","4","4","4","3","4","4","3","4","4","4","4","4","4","4","4","5","4","4","5","5","3","4","4","3","4","4","2","4","3","1","0","1","0","0","1","0","1","0","1","1","0","1","0","1","4","3","4","2","4","3","4","4","4","2","767700606512271362","刘","496","","","","","","","","","","","","","","","","","","","true","13","3","moral","715","self","自己","","","","","","","","","","","","","","",""
"null","","null","html-keyboard-response","81","299125","0.0-6.0-1.0-6.0-0.11","4","4","4","3","4","4","3","4","4","4","4","4","4","4","4","5","4","4","5","5","3","4","4","3","4","4","2","4","3","1","0","1","0","0","1","0","1","0","1","1","0","1","0","1","4","3","4","2","4","3","4","4","4","2","767700606512271362","刘","496","","","","","","","","","","","","","","","","","","","","","","","","","","","","","","","","","","","","","","","",""
"897","<p style=""color:white; font-size: 35px;"">卑鄙</p>","i","categorize-html","82","300025","0.0-6.0-1.0-6.0-1.11","4","4","4","3","4","4","3","4","4","4","4","4","4","4","4","5","4","4","5","5","3","4","4","3","4","4","2","4","3","1","0","1","0","0","1","0","1","0","1","1","0","1","0","1","4","3","4","2","4","3","4","4","4","2","767700606512271362","刘","496","","","","","","","","","","","","","","","","","","","true","13","3","moral","897","negative","卑鄙","","","","","","","","","","","","","","",""
"null","","null","html-keyboard-response","83","300276","0.0-6.0-1.0-6.0-0.12","4","4","4","3","4","4","3","4","4","4","4","4","4","4","4","5","4","4","5","5","3","4","4","3","4","4","2","4","3","1","0","1","0","0","1","0","1","0","1","1","0","1","0","1","4","3","4","2","4","3","4","4","4","2","767700606512271362","刘","496","","","","","","","","","","","","","","","","","","","","","","","","","","","","","","","","","","","","","","","",""
"792","<p style=""color:rgb(150, 250, 100); font-size: 35px;"">他人的</p>","i","categorize-html","84","301070","0.0-6.0-1.0-6.0-1.12","4","4","4","3","4","4","3","4","4","4","4","4","4","4","4","5","4","4","5","5","3","4","4","3","4","4","2","4","3","1","0","1","0","0","1","0","1","0","1","1","0","1","0","1","4","3","4","2","4","3","4","4","4","2","767700606512271362","刘","496","","","","","","","","","","","","","","","","","","","true","13","3","moral","792","other","他人的","","","","","","","","","","","","","","",""
"null","","null","html-keyboard-response","85","301321","0.0-6.0-1.0-6.0-0.13","4","4","4","3","4","4","3","4","4","4","4","4","4","4","4","5","4","4","5","5","3","4","4","3","4","4","2","4","3","1","0","1","0","0","1","0","1","0","1","1","0","1","0","1","4","3","4","2","4","3","4","4","4","2","767700606512271362","刘","496","","","","","","","","","","","","","","","","","","","","","","","","","","","","","","","","","","","","","","","",""
"970","<p style=""color:white; font-size: 35px;"">缺德</p>","i","categorize-html","86","302292","0.0-6.0-1.0-6.0-1.13","4","4","4","3","4","4","3","4","4","4","4","4","4","4","4","5","4","4","5","5","3","4","4","3","4","4","2","4","3","1","0","1","0","0","1","0","1","0","1","1","0","1","0","1","4","3","4","2","4","3","4","4","4","2","767700606512271362","刘","496","","","","","","","","","","","","","","","","","","","true","13","3","moral","970","negative","缺德","","","","","","","","","","","","","","",""
"null","","null","html-keyboard-response","87","302543","0.0-6.0-1.0-6.0-0.14","4","4","4","3","4","4","3","4","4","4","4","4","4","4","4","5","4","4","5","5","3","4","4","3","4","4","2","4","3","1","0","1","0","0","1","0","1","0","1","1","0","1","0","1","4","3","4","2","4","3","4","4","4","2","767700606512271362","刘","496","","","","","","","","","","","","","","","","","","","","","","","","","","","","","","","","","","","","","","","",""
"693","<p style=""color:rgb(150, 250, 100); font-size: 35px;"">本人的</p>","e","categorize-html","88","303238","0.0-6.0-1.0-6.0-1.14","4","4","4","3","4","4","3","4","4","4","4","4","4","4","4","5","4","4","5","5","3","4","4","3","4","4","2","4","3","1","0","1","0","0","1","0","1","0","1","1","0","1","0","1","4","3","4","2","4","3","4","4","4","2","767700606512271362","刘","496","","","","","","","","","","","","","","","","","","","true","13","3","moral","693","self","本人的","","","","","","","","","","","","","","",""
"null","","null","html-keyboard-response","89","303489","0.0-6.0-1.0-6.0-0.15","4","4","4","3","4","4","3","4","4","4","4","4","4","4","4","5","4","4","5","5","3","4","4","3","4","4","2","4","3","1","0","1","0","0","1","0","1","0","1","1","0","1","0","1","4","3","4","2","4","3","4","4","4","2","767700606512271362","刘","496","","","","","","","","","","","","","","","","","","","","","","","","","","","","","","","","","","","","","","","",""
"579","<p style=""color:white; font-size: 35px;"">诚信</p>","e","categorize-html","90","304070","0.0-6.0-1.0-6.0-1.15","4","4","4","3","4","4","3","4","4","4","4","4","4","4","4","5","4","4","5","5","3","4","4","3","4","4","2","4","3","1","0","1","0","0","1","0","1","0","1","1","0","1","0","1","4","3","4","2","4","3","4","4","4","2","767700606512271362","刘","496","","","","","","","","","","","","","","","","","","","true","13","3","moral","579","positive","诚信","","","","","","","","","","","","","","",""
"null","","null","html-keyboard-response","91","304322","0.0-6.0-1.0-6.0-0.16","4","4","4","3","4","4","3","4","4","4","4","4","4","4","4","5","4","4","5","5","3","4","4","3","4","4","2","4","3","1","0","1","0","0","1","0","1","0","1","1","0","1","0","1","4","3","4","2","4","3","4","4","4","2","767700606512271362","刘","496","","","","","","","","","","","","","","","","","","","","","","","","","","","","","","","","","","","","","","","",""
"529","<p style=""color:rgb(150, 250, 100); font-size: 35px;"">我</p>","e","categorize-html","92","304852","0.0-6.0-1.0-6.0-1.16","4","4","4","3","4","4","3","4","4","4","4","4","4","4","4","5","4","4","5","5","3","4","4","3","4","4","2","4","3","1","0","1","0","0","1","0","1","0","1","1","0","1","0","1","4","3","4","2","4","3","4","4","4","2","767700606512271362","刘","496","","","","","","","","","","","","","","","","","","","true","13","3","moral","529","self","我","","","","","","","","","","","","","","",""
"null","","null","html-keyboard-response","93","305104","0.0-6.0-1.0-6.0-0.17","4","4","4","3","4","4","3","4","4","4","4","4","4","4","4","5","4","4","5","5","3","4","4","3","4","4","2","4","3","1","0","1","0","0","1","0","1","0","1","1","0","1","0","1","4","3","4","2","4","3","4","4","4","2","767700606512271362","刘","496","","","","","","","","","","","","","","","","","","","","","","","","","","","","","","","","","","","","","","","",""
"542","<p style=""color:white; font-size: 35px;"">高尚</p>","e","categorize-html","94","305653","0.0-6.0-1.0-6.0-1.17","4","4","4","3","4","4","3","4","4","4","4","4","4","4","4","5","4","4","5","5","3","4","4","3","4","4","2","4","3","1","0","1","0","0","1","0","1","0","1","1","0","1","0","1","4","3","4","2","4","3","4","4","4","2","767700606512271362","刘","496","","","","","","","","","","","","","","","","","","","true","13","3","moral","542","positive","高尚","","","","","","","","","","","","","","",""
"null","","null","html-keyboard-response","95","305905","0.0-6.0-1.0-6.0-0.18","4","4","4","3","4","4","3","4","4","4","4","4","4","4","4","5","4","4","5","5","3","4","4","3","4","4","2","4","3","1","0","1","0","0","1","0","1","0","1","1","0","1","0","1","4","3","4","2","4","3","4","4","4","2","767700606512271362","刘","496","","","","","","","","","","","","","","","","","","","","","","","","","","","","","","","","","","","","","","","",""
"569","<p style=""color:rgb(150, 250, 100); font-size: 35px;"">别人</p>","i","categorize-html","96","306474","0.0-6.0-1.0-6.0-1.18","4","4","4","3","4","4","3","4","4","4","4","4","4","4","4","5","4","4","5","5","3","4","4","3","4","4","2","4","3","1","0","1","0","0","1","0","1","0","1","1","0","1","0","1","4","3","4","2","4","3","4","4","4","2","767700606512271362","刘","496","","","","","","","","","","","","","","","","","","","true","13","3","moral","569","other","别人","","","","","","","","","","","","","","",""
"null","","null","html-keyboard-response","97","306726","0.0-6.0-1.0-6.0-0.19","4","4","4","3","4","4","3","4","4","4","4","4","4","4","4","5","4","4","5","5","3","4","4","3","4","4","2","4","3","1","0","1","0","0","1","0","1","0","1","1","0","1","0","1","4","3","4","2","4","3","4","4","4","2","767700606512271362","刘","496","","","","","","","","","","","","","","","","","","","","","","","","","","","","","","","","","","","","","","","",""
"561","<p style=""color:white; font-size: 35px;"">黑心</p>","i","categorize-html","98","307289","0.0-6.0-1.0-6.0-1.19","4","4","4","3","4","4","3","4","4","4","4","4","4","4","4","5","4","4","5","5","3","4","4","3","4","4","2","4","3","1","0","1","0","0","1","0","1","0","1","1","0","1","0","1","4","3","4","2","4","3","4","4","4","2","767700606512271362","刘","496","","","","","","","","","","","","","","","","","","","true","13","3","moral","561","negative","黑心","","","","","","","","","","","","","","",""
"null","","null","html-keyboard-response","99","307541","0.0-6.0-1.0-6.0-0.20","4","4","4","3","4","4","3","4","4","4","4","4","4","4","4","5","4","4","5","5","3","4","4","3","4","4","2","4","3","1","0","1","0","0","1","0","1","0","1","1","0","1","0","1","4","3","4","2","4","3","4","4","4","2","767700606512271362","刘","496","","","","","","","","","","","","","","","","","","","","","","","","","","","","","","","","","","","","","","","",""
"521","<p style=""color:rgb(150, 250, 100); font-size: 35px;"">本人</p>","e","categorize-html","100","308064","0.0-6.0-1.0-6.0-1.20","4","4","4","3","4","4","3","4","4","4","4","4","4","4","4","5","4","4","5","5","3","4","4","3","4","4","2","4","3","1","0","1","0","0","1","0","1","0","1","1","0","1","0","1","4","3","4","2","4","3","4","4","4","2","767700606512271362","刘","496","","","","","","","","","","","","","","","","","","","true","13","3","moral","521","self","本人","","","","","","","","","","","","","","",""
"null","","null","html-keyboard-response","101","308315","0.0-6.0-1.0-6.0-0.21","4","4","4","3","4","4","3","4","4","4","4","4","4","4","4","5","4","4","5","5","3","4","4","3","4","4","2","4","3","1","0","1","0","0","1","0","1","0","1","1","0","1","0","1","4","3","4","2","4","3","4","4","4","2","767700606512271362","刘","496","","","","","","","","","","","","","","","","","","","","","","","","","","","","","","","","","","","","","","","",""
"602","<p style=""color:white; font-size: 35px;"">不仁</p>","i","categorize-html","102","308918","0.0-6.0-1.0-6.0-1.21","4","4","4","3","4","4","3","4","4","4","4","4","4","4","4","5","4","4","5","5","3","4","4","3","4","4","2","4","3","1","0","1","0","0","1","0","1","0","1","1","0","1","0","1","4","3","4","2","4","3","4","4","4","2","767700606512271362","刘","496","","","","","","","","","","","","","","","","","","","true","13","3","moral","602","negative","不仁","","","","","","","","","","","","","","",""
"null","","null","html-keyboard-response","103","309168","0.0-6.0-1.0-6.0-0.22","4","4","4","3","4","4","3","4","4","4","4","4","4","4","4","5","4","4","5","5","3","4","4","3","4","4","2","4","3","1","0","1","0","0","1","0","1","0","1","1","0","1","0","1","4","3","4","2","4","3","4","4","4","2","767700606512271362","刘","496","","","","","","","","","","","","","","","","","","","","","","","","","","","","","","","","","","","","","","","",""
"806","<p style=""color:rgb(150, 250, 100); font-size: 35px;"">他人</p>","i","categorize-html","104","309976","0.0-6.0-1.0-6.0-1.22","4","4","4","3","4","4","3","4","4","4","4","4","4","4","4","5","4","4","5","5","3","4","4","3","4","4","2","4","3","1","0","1","0","0","1","0","1","0","1","1","0","1","0","1","4","3","4","2","4","3","4","4","4","2","767700606512271362","刘","496","","","","","","","","","","","","","","","","","","","true","13","3","moral","806","other","他人","","","","","","","","","","","","","","",""
"null","","null","html-keyboard-response","105","310229","0.0-6.0-1.0-6.0-0.23","4","4","4","3","4","4","3","4","4","4","4","4","4","4","4","5","4","4","5","5","3","4","4","3","4","4","2","4","3","1","0","1","0","0","1","0","1","0","1","1","0","1","0","1","4","3","4","2","4","3","4","4","4","2","767700606512271362","刘","496","","","","","","","","","","","","","","","","","","","","","","","","","","","","","","","","","","","","","","","",""
"655","<p style=""color:white; font-size: 35px;"">廉正</p>","e","categorize-html","106","310890","0.0-6.0-1.0-6.0-1.23","4","4","4","3","4","4","3","4","4","4","4","4","4","4","4","5","4","4","5","5","3","4","4","3","4","4","2","4","3","1","0","1","0","0","1","0","1","0","1","1","0","1","0","1","4","3","4","2","4","3","4","4","4","2","767700606512271362","刘","496","","","","","","","","","","","","","","","","","","","true","13","3","moral","655","positive","廉正","","","","","","","","","","","","","","",""
"1553","
    <div class=""tag-bottom""><p>
    —— 任务4：对“自我/积极”词和“他人/消极”词分类 ——<p/>
    <span style=""color:#78DCE8""><b>与刚才的任务完全相同，请再次对这四类词语分类</b></span><p/>
    <span style=""color:#FFD866""><b>请根据上方标签的提示，尽可能正确并且快速地做出按键反应</b></span><p/>
    当按键错误时屏幕中会出现<span style=""color:red""> X </span>，需要按另一个键纠正才能继续<br/><p/>
    请把双手食指分别放在键盘的“E”键和“I”键上<p/>
    按<空格键>开始
    </p></div>"," ","html-keyboard-response","107","312444","0.0-6.0-1.0-7.0","4","4","4","3","4","4","3","4","4","4","4","4","4","4","4","5","4","4","5","5","3","4","4","3","4","4","2","4","3","1","0","1","0","0","1","0","1","0","1","1","0","1","0","1","4","3","4","2","4","3","4","4","4","2","767700606512271362","刘","496","","","","","","","","","","","","","","","","","","","","","","","","","","","","","","","","","","","","","","","",""
"null","","null","html-keyboard-response","108","312695","0.0-6.0-1.0-8.0-0.0","4","4","4","3","4","4","3","4","4","4","4","4","4","4","4","5","4","4","5","5","3","4","4","3","4","4","2","4","3","1","0","1","0","0","1","0","1","0","1","1","0","1","0","1","4","3","4","2","4","3","4","4","4","2","767700606512271362","刘","496","","","","","","","","","","","","","","","","","","","","","","","","","","","","","","","","","","","","","","","",""
"876","<p style=""color:rgb(150, 250, 100); font-size: 35px;"">自己</p>","e","categorize-html","109","313575","0.0-6.0-1.0-8.0-1.0","4","4","4","3","4","4","3","4","4","4","4","4","4","4","4","5","4","4","5","5","3","4","4","3","4","4","2","4","3","1","0","1","0","0","1","0","1","0","1","1","0","1","0","1","4","3","4","2","4","3","4","4","4","2","767700606512271362","刘","496","","","","","","","","","","","","","","","","","","","true","14","4","moral","876","self","自己","","","","","","","","","","","","","","",""
"null","","null","html-keyboard-response","110","313827","0.0-6.0-1.0-8.0-0.1","4","4","4","3","4","4","3","4","4","4","4","4","4","4","4","5","4","4","5","5","3","4","4","3","4","4","2","4","3","1","0","1","0","0","1","0","1","0","1","1","0","1","0","1","4","3","4","2","4","3","4","4","4","2","767700606512271362","刘","496","","","","","","","","","","","","","","","","","","","","","","","","","","","","","","","","","","","","","","","",""
"949","<p style=""color:white; font-size: 35px;"">善良</p>","e","categorize-html","111","314777","0.0-6.0-1.0-8.0-1.1","4","4","4","3","4","4","3","4","4","4","4","4","4","4","4","5","4","4","5","5","3","4","4","3","4","4","2","4","3","1","0","1","0","0","1","0","1","0","1","1","0","1","0","1","4","3","4","2","4","3","4","4","4","2","767700606512271362","刘","496","","","","","","","","","","","","","","","","","","","true","14","4","moral","949","positive","善良","","","","","","","","","","","","","","",""
"null","","null","html-keyboard-response","112","315028","0.0-6.0-1.0-8.0-0.2","4","4","4","3","4","4","3","4","4","4","4","4","4","4","4","5","4","4","5","5","3","4","4","3","4","4","2","4","3","1","0","1","0","0","1","0","1","0","1","1","0","1","0","1","4","3","4","2","4","3","4","4","4","2","767700606512271362","刘","496","","","","","","","","","","","","","","","","","","","","","","","","","","","","","","","","","","","","","","","",""
"454","<p style=""color:rgb(150, 250, 100); font-size: 35px;"">他的</p>","i","categorize-html","113","315484","0.0-6.0-1.0-8.0-1.2","4","4","4","3","4","4","3","4","4","4","4","4","4","4","4","5","4","4","5","5","3","4","4","3","4","4","2","4","3","1","0","1","0","0","1","0","1","0","1","1","0","1","0","1","4","3","4","2","4","3","4","4","4","2","767700606512271362","刘","496","","","","","","","","","","","","","","","","","","","true","14","4","moral","454","other","他的","","","","","","","","","","","","","","",""
"null","","null","html-keyboard-response","114","315735","0.0-6.0-1.0-8.0-0.3","4","4","4","3","4","4","3","4","4","4","4","4","4","4","4","5","4","4","5","5","3","4","4","3","4","4","2","4","3","1","0","1","0","0","1","0","1","0","1","1","0","1","0","1","4","3","4","2","4","3","4","4","4","2","767700606512271362","刘","496","","","","","","","","","","","","","","","","","","","","","","","","","","","","","","","","","","","","","","","",""
"587","<p style=""color:white; font-size: 35px;"">小人</p>","i","categorize-html","115","316323","0.0-6.0-1.0-8.0-1.3","4","4","4","3","4","4","3","4","4","4","4","4","4","4","4","5","4","4","5","5","3","4","4","3","4","4","2","4","3","1","0","1","0","0","1","0","1","0","1","1","0","1","0","1","4","3","4","2","4","3","4","4","4","2","767700606512271362","刘","496","","","","","","","","","","","","","","","","","","","true","14","4","moral","587","negative","小人","","","","","","","","","","","","","","",""
"null","","null","html-keyboard-response","116","316574","0.0-6.0-1.0-8.0-0.4","4","4","4","3","4","4","3","4","4","4","4","4","4","4","4","5","4","4","5","5","3","4","4","3","4","4","2","4","3","1","0","1","0","0","1","0","1","0","1","1","0","1","0","1","4","3","4","2","4","3","4","4","4","2","767700606512271362","刘","496","","","","","","","","","","","","","","","","","","","","","","","","","","","","","","","","","","","","","","","",""
"545","<p style=""color:rgb(150, 250, 100); font-size: 35px;"">我</p>","e","categorize-html","117","317120","0.0-6.0-1.0-8.0-1.4","4","4","4","3","4","4","3","4","4","4","4","4","4","4","4","5","4","4","5","5","3","4","4","3","4","4","2","4","3","1","0","1","0","0","1","0","1","0","1","1","0","1","0","1","4","3","4","2","4","3","4","4","4","2","767700606512271362","刘","496","","","","","","","","","","","","","","","","","","","true","14","4","moral","545","self","我","","","","","","","","","","","","","","",""
"null","","null","html-keyboard-response","118","317371","0.0-6.0-1.0-8.0-0.5","4","4","4","3","4","4","3","4","4","4","4","4","4","4","4","5","4","4","5","5","3","4","4","3","4","4","2","4","3","1","0","1","0","0","1","0","1","0","1","1","0","1","0","1","4","3","4","2","4","3","4","4","4","2","767700606512271362","刘","496","","","","","","","","","","","","","","","","","","","","","","","","","","","","","","","","","","","","","","","",""
"663","<p style=""color:white; font-size: 35px;"">廉正</p>","e","categorize-html","119","318035","0.0-6.0-1.0-8.0-1.5","4","4","4","3","4","4","3","4","4","4","4","4","4","4","4","5","4","4","5","5","3","4","4","3","4","4","2","4","3","1","0","1","0","0","1","0","1","0","1","1","0","1","0","1","4","3","4","2","4","3","4","4","4","2","767700606512271362","刘","496","","","","","","","","","","","","","","","","","","","true","14","4","moral","663","positive","廉正","","","","","","","","","","","","","","",""
"null","","null","html-keyboard-response","120","318286","0.0-6.0-1.0-8.0-0.6","4","4","4","3","4","4","3","4","4","4","4","4","4","4","4","5","4","4","5","5","3","4","4","3","4","4","2","4","3","1","0","1","0","0","1","0","1","0","1","1","0","1","0","1","4","3","4","2","4","3","4","4","4","2","767700606512271362","刘","496","","","","","","","","","","","","","","","","","","","","","","","","","","","","","","","","","","","","","","","",""
"524","<p style=""color:rgb(150, 250, 100); font-size: 35px;"">别人的</p>","i","categorize-html","121","318813","0.0-6.0-1.0-8.0-1.6","4","4","4","3","4","4","3","4","4","4","4","4","4","4","4","5","4","4","5","5","3","4","4","3","4","4","2","4","3","1","0","1","0","0","1","0","1","0","1","1","0","1","0","1","4","3","4","2","4","3","4","4","4","2","767700606512271362","刘","496","","","","","","","","","","","","","","","","","","","true","14","4","moral","524","other","别人的","","","","","","","","","","","","","","",""
"null","","null","html-keyboard-response","122","319065","0.0-6.0-1.0-8.0-0.7","4","4","4","3","4","4","3","4","4","4","4","4","4","4","4","5","4","4","5","5","3","4","4","3","4","4","2","4","3","1","0","1","0","0","1","0","1","0","1","1","0","1","0","1","4","3","4","2","4","3","4","4","4","2","767700606512271362","刘","496","","","","","","","","","","","","","","","","","","","","","","","","","","","","","","","","","","","","","","","",""
"687","<p style=""color:white; font-size: 35px;"">不仁</p>","i","categorize-html","123","319757","0.0-6.0-1.0-8.0-1.7","4","4","4","3","4","4","3","4","4","4","4","4","4","4","4","5","4","4","5","5","3","4","4","3","4","4","2","4","3","1","0","1","0","0","1","0","1","0","1","1","0","1","0","1","4","3","4","2","4","3","4","4","4","2","767700606512271362","刘","496","","","","","","","","","","","","","","","","","","","true","14","4","moral","687","negative","不仁","","","","","","","","","","","","","","",""
"null","","null","html-keyboard-response","124","320010","0.0-6.0-1.0-8.0-0.8","4","4","4","3","4","4","3","4","4","4","4","4","4","4","4","5","4","4","5","5","3","4","4","3","4","4","2","4","3","1","0","1","0","0","1","0","1","0","1","1","0","1","0","1","4","3","4","2","4","3","4","4","4","2","767700606512271362","刘","496","","","","","","","","","","","","","","","","","","","","","","","","","","","","","","","","","","","","","","","",""
"585","<p style=""color:rgb(150, 250, 100); font-size: 35px;"">别人</p>","i","categorize-html","125","320597","0.0-6.0-1.0-8.0-1.8","4","4","4","3","4","4","3","4","4","4","4","4","4","4","4","5","4","4","5","5","3","4","4","3","4","4","2","4","3","1","0","1","0","0","1","0","1","0","1","1","0","1","0","1","4","3","4","2","4","3","4","4","4","2","767700606512271362","刘","496","","","","","","","","","","","","","","","","","","","true","14","4","moral","585","other","别人","","","","","","","","","","","","","","",""
"null","","null","html-keyboard-response","126","320849","0.0-6.0-1.0-8.0-0.9","4","4","4","3","4","4","3","4","4","4","4","4","4","4","4","5","4","4","5","5","3","4","4","3","4","4","2","4","3","1","0","1","0","0","1","0","1","0","1","1","0","1","0","1","4","3","4","2","4","3","4","4","4","2","767700606512271362","刘","496","","","","","","","","","","","","","","","","","","","","","","","","","","","","","","","","","","","","","","","",""
"450","<p style=""color:white; font-size: 35px;"">不仁</p>","i","categorize-html","127","321302","0.0-6.0-1.0-8.0-1.9","4","4","4","3","4","4","3","4","4","4","4","4","4","4","4","5","4","4","5","5","3","4","4","3","4","4","2","4","3","1","0","1","0","0","1","0","1","0","1","1","0","1","0","1","4","3","4","2","4","3","4","4","4","2","767700606512271362","刘","496","","","","","","","","","","","","","","","","","","","true","14","4","moral","450","negative","不仁","","","","","","","","","","","","","","",""
"null","","null","html-keyboard-response","128","321554","0.0-6.0-1.0-8.0-0.10","4","4","4","3","4","4","3","4","4","4","4","4","4","4","4","5","4","4","5","5","3","4","4","3","4","4","2","4","3","1","0","1","0","0","1","0","1","0","1","1","0","1","0","1","4","3","4","2","4","3","4","4","4","2","767700606512271362","刘","496","","","","","","","","","","","","","","","","","","","","","","","","","","","","","","","","","","","","","","","",""
"1729","<p style=""color:rgb(150, 250, 100); font-size: 35px;"">本人</p>","e","categorize-html","129","323285","0.0-6.0-1.0-8.0-1.10","4","4","4","3","4","4","3","4","4","4","4","4","4","4","4","5","4","4","5","5","3","4","4","3","4","4","2","4","3","1","0","1","0","0","1","0","1","0","1","1","0","1","0","1","4","3","4","2","4","3","4","4","4","2","767700606512271362","刘","496","","","","","","","","","","","","","","","","","","","true","14","4","moral","1729","self","本人","","","","","","","","","","","","","","",""
"null","","null","html-keyboard-response","130","323537","0.0-6.0-1.0-8.0-0.11","4","4","4","3","4","4","3","4","4","4","4","4","4","4","4","5","4","4","5","5","3","4","4","3","4","4","2","4","3","1","0","1","0","0","1","0","1","0","1","1","0","1","0","1","4","3","4","2","4","3","4","4","4","2","767700606512271362","刘","496","","","","","","","","","","","","","","","","","","","","","","","","","","","","","","","","","","","","","","","",""
"549","<p style=""color:white; font-size: 35px;"">善良</p>","e","categorize-html","131","324087","0.0-6.0-1.0-8.0-1.11","4","4","4","3","4","4","3","4","4","4","4","4","4","4","4","5","4","4","5","5","3","4","4","3","4","4","2","4","3","1","0","1","0","0","1","0","1","0","1","1","0","1","0","1","4","3","4","2","4","3","4","4","4","2","767700606512271362","刘","496","","","","","","","","","","","","","","","","","","","true","14","4","moral","549","positive","善良","","","","","","","","","","","","","","",""
"null","","null","html-keyboard-response","132","324338","0.0-6.0-1.0-8.0-0.12","4","4","4","3","4","4","3","4","4","4","4","4","4","4","4","5","4","4","5","5","3","4","4","3","4","4","2","4","3","1","0","1","0","0","1","0","1","0","1","1","0","1","0","1","4","3","4","2","4","3","4","4","4","2","767700606512271362","刘","496","","","","","","","","","","","","","","","","","","","","","","","","","","","","","","","","","","","","","","","",""
"423","<p style=""color:rgb(150, 250, 100); font-size: 35px;"">自己</p>","e","categorize-html","133","324763","0.0-6.0-1.0-8.0-1.12","4","4","4","3","4","4","3","4","4","4","4","4","4","4","4","5","4","4","5","5","3","4","4","3","4","4","2","4","3","1","0","1","0","0","1","0","1","0","1","1","0","1","0","1","4","3","4","2","4","3","4","4","4","2","767700606512271362","刘","496","","","","","","","","","","","","","","","","","","","true","14","4","moral","423","self","自己","","","","","","","","","","","","","","",""
"null","","null","html-keyboard-response","134","325015","0.0-6.0-1.0-8.0-0.13","4","4","4","3","4","4","3","4","4","4","4","4","4","4","4","5","4","4","5","5","3","4","4","3","4","4","2","4","3","1","0","1","0","0","1","0","1","0","1","1","0","1","0","1","4","3","4","2","4","3","4","4","4","2","767700606512271362","刘","496","","","","","","","","","","","","","","","","","","","","","","","","","","","","","","","","","","","","","","","",""
"733","<p style=""color:white; font-size: 35px;"">君子</p>","e","categorize-html","135","325749","0.0-6.0-1.0-8.0-1.13","4","4","4","3","4","4","3","4","4","4","4","4","4","4","4","5","4","4","5","5","3","4","4","3","4","4","2","4","3","1","0","1","0","0","1","0","1","0","1","1","0","1","0","1","4","3","4","2","4","3","4","4","4","2","767700606512271362","刘","496","","","","","","","","","","","","","","","","","","","true","14","4","moral","733","positive","君子","","","","","","","","","","","","","","",""
"null","","null","html-keyboard-response","136","326001","0.0-6.0-1.0-8.0-0.14","4","4","4","3","4","4","3","4","4","4","4","4","4","4","4","5","4","4","5","5","3","4","4","3","4","4","2","4","3","1","0","1","0","0","1","0","1","0","1","1","0","1","0","1","4","3","4","2","4","3","4","4","4","2","767700606512271362","刘","496","","","","","","","","","","","","","","","","","","","","","","","","","","","","","","","","","","","","","","","",""
"423","<p style=""color:rgb(150, 250, 100); font-size: 35px;"">他人</p>","e","categorize-html","137","326891","0.0-6.0-1.0-8.0-1.14","4","4","4","3","4","4","3","4","4","4","4","4","4","4","4","5","4","4","5","5","3","4","4","3","4","4","2","4","3","1","0","1","0","0","1","0","1","0","1","1","0","1","0","1","4","3","4","2","4","3","4","4","4","2","767700606512271362","刘","496","","","","","","","","","","","","","","","","","","","false","14","4","moral","1336.4680851063831","other","他人","","","","","","","","","","","","","","",""
"null","","null","html-keyboard-response","138","327143","0.0-6.0-1.0-8.0-0.15","4","4","4","3","4","4","3","4","4","4","4","4","4","4","4","5","4","4","5","5","3","4","4","3","4","4","2","4","3","1","0","1","0","0","1","0","1","0","1","1","0","1","0","1","4","3","4","2","4","3","4","4","4","2","767700606512271362","刘","496","","","","","","","","","","","","","","","","","","","","","","","","","","","","","","","","","","","","","","","",""
"564","<p style=""color:white; font-size: 35px;"">黑心</p>","i","categorize-html","139","327709","0.0-6.0-1.0-8.0-1.15","4","4","4","3","4","4","3","4","4","4","4","4","4","4","4","5","4","4","5","5","3","4","4","3","4","4","2","4","3","1","0","1","0","0","1","0","1","0","1","1","0","1","0","1","4","3","4","2","4","3","4","4","4","2","767700606512271362","刘","496","","","","","","","","","","","","","","","","","","","true","14","4","moral","564","negative","黑心","","","","","","","","","","","","","","",""
"null","","null","html-keyboard-response","140","327961","0.0-6.0-1.0-8.0-0.16","4","4","4","3","4","4","3","4","4","4","4","4","4","4","4","5","4","4","5","5","3","4","4","3","4","4","2","4","3","1","0","1","0","0","1","0","1","0","1","1","0","1","0","1","4","3","4","2","4","3","4","4","4","2","767700606512271362","刘","496","","","","","","","","","","","","","","","","","","","","","","","","","","","","","","","","","","","","","","","",""
"642","<p style=""color:rgb(150, 250, 100); font-size: 35px;"">他人的</p>","i","categorize-html","141","328604","0.0-6.0-1.0-8.0-1.16","4","4","4","3","4","4","3","4","4","4","4","4","4","4","4","5","4","4","5","5","3","4","4","3","4","4","2","4","3","1","0","1","0","0","1","0","1","0","1","1","0","1","0","1","4","3","4","2","4","3","4","4","4","2","767700606512271362","刘","496","","","","","","","","","","","","","","","","","","","true","14","4","moral","642","other","他人的","","","","","","","","","","","","","","",""
"null","","null","html-keyboard-response","142","328856","0.0-6.0-1.0-8.0-0.17","4","4","4","3","4","4","3","4","4","4","4","4","4","4","4","5","4","4","5","5","3","4","4","3","4","4","2","4","3","1","0","1","0","0","1","0","1","0","1","1","0","1","0","1","4","3","4","2","4","3","4","4","4","2","767700606512271362","刘","496","","","","","","","","","","","","","","","","","","","","","","","","","","","","","","","","","","","","","","","",""
"522","<p style=""color:white; font-size: 35px;"">不孝</p>","i","categorize-html","143","329380","0.0-6.0-1.0-8.0-1.17","4","4","4","3","4","4","3","4","4","4","4","4","4","4","4","5","4","4","5","5","3","4","4","3","4","4","2","4","3","1","0","1","0","0","1","0","1","0","1","1","0","1","0","1","4","3","4","2","4","3","4","4","4","2","767700606512271362","刘","496","","","","","","","","","","","","","","","","","","","true","14","4","moral","522","negative","不孝","","","","","","","","","","","","","","",""
"null","","null","html-keyboard-response","144","329632","0.0-6.0-1.0-8.0-0.18","4","4","4","3","4","4","3","4","4","4","4","4","4","4","4","5","4","4","5","5","3","4","4","3","4","4","2","4","3","1","0","1","0","0","1","0","1","0","1","1","0","1","0","1","4","3","4","2","4","3","4","4","4","2","767700606512271362","刘","496","","","","","","","","","","","","","","","","","","","","","","","","","","","","","","","","","","","","","","","",""
"565","<p style=""color:rgb(150, 250, 100); font-size: 35px;"">自己的</p>","e","categorize-html","145","330198","0.0-6.0-1.0-8.0-1.18","4","4","4","3","4","4","3","4","4","4","4","4","4","4","4","5","4","4","5","5","3","4","4","3","4","4","2","4","3","1","0","1","0","0","1","0","1","0","1","1","0","1","0","1","4","3","4","2","4","3","4","4","4","2","767700606512271362","刘","496","","","","","","","","","","","","","","","","","","","true","14","4","moral","565","self","自己的","","","","","","","","","","","","","","",""
"null","","null","html-keyboard-response","146","330450","0.0-6.0-1.0-8.0-0.19","4","4","4","3","4","4","3","4","4","4","4","4","4","4","4","5","4","4","5","5","3","4","4","3","4","4","2","4","3","1","0","1","0","0","1","0","1","0","1","1","0","1","0","1","4","3","4","2","4","3","4","4","4","2","767700606512271362","刘","496","","","","","","","","","","","","","","","","","","","","","","","","","","","","","","","","","","","","","","","",""
"626","<p style=""color:white; font-size: 35px;"">君子</p>","e","categorize-html","147","331078","0.0-6.0-1.0-8.0-1.19","4","4","4","3","4","4","3","4","4","4","4","4","4","4","4","5","4","4","5","5","3","4","4","3","4","4","2","4","3","1","0","1","0","0","1","0","1","0","1","1","0","1","0","1","4","3","4","2","4","3","4","4","4","2","767700606512271362","刘","496","","","","","","","","","","","","","","","","","","","true","14","4","moral","626","positive","君子","","","","","","","","","","","","","","",""
"null","","null","html-keyboard-response","148","331330","0.0-6.0-1.0-8.0-0.20","4","4","4","3","4","4","3","4","4","4","4","4","4","4","4","5","4","4","5","5","3","4","4","3","4","4","2","4","3","1","0","1","0","0","1","0","1","0","1","1","0","1","0","1","4","3","4","2","4","3","4","4","4","2","767700606512271362","刘","496","","","","","","","","","","","","","","","","","","","","","","","","","","","","","","","","","","","","","","","",""
"487","<p style=""color:rgb(150, 250, 100); font-size: 35px;"">他</p>","i","categorize-html","149","331818","0.0-6.0-1.0-8.0-1.20","4","4","4","3","4","4","3","4","4","4","4","4","4","4","4","5","4","4","5","5","3","4","4","3","4","4","2","4","3","1","0","1","0","0","1","0","1","0","1","1","0","1","0","1","4","3","4","2","4","3","4","4","4","2","767700606512271362","刘","496","","","","","","","","","","","","","","","","","","","true","14","4","moral","487","other","他","","","","","","","","","","","","","","",""
"null","","null","html-keyboard-response","150","332071","0.0-6.0-1.0-8.0-0.21","4","4","4","3","4","4","3","4","4","4","4","4","4","4","4","5","4","4","5","5","3","4","4","3","4","4","2","4","3","1","0","1","0","0","1","0","1","0","1","1","0","1","0","1","4","3","4","2","4","3","4","4","4","2","767700606512271362","刘","496","","","","","","","","","","","","","","","","","","","","","","","","","","","","","","","","","","","","","","","",""
"635","<p style=""color:white; font-size: 35px;"">不孝</p>","i","categorize-html","151","332708","0.0-6.0-1.0-8.0-1.21","4","4","4","3","4","4","3","4","4","4","4","4","4","4","4","5","4","4","5","5","3","4","4","3","4","4","2","4","3","1","0","1","0","0","1","0","1","0","1","1","0","1","0","1","4","3","4","2","4","3","4","4","4","2","767700606512271362","刘","496","","","","","","","","","","","","","","","","","","","true","14","4","moral","635","negative","不孝","","","","","","","","","","","","","","",""
"null","","null","html-keyboard-response","152","332960","0.0-6.0-1.0-8.0-0.22","4","4","4","3","4","4","3","4","4","4","4","4","4","4","4","5","4","4","5","5","3","4","4","3","4","4","2","4","3","1","0","1","0","0","1","0","1","0","1","1","0","1","0","1","4","3","4","2","4","3","4","4","4","2","767700606512271362","刘","496","","","","","","","","","","","","","","","","","","","","","","","","","","","","","","","","","","","","","","","",""
"690","<p style=""color:rgb(150, 250, 100); font-size: 35px;"">本人的</p>","e","categorize-html","153","333652","0.0-6.0-1.0-8.0-1.22","4","4","4","3","4","4","3","4","4","4","4","4","4","4","4","5","4","4","5","5","3","4","4","3","4","4","2","4","3","1","0","1","0","0","1","0","1","0","1","1","0","1","0","1","4","3","4","2","4","3","4","4","4","2","767700606512271362","刘","496","","","","","","","","","","","","","","","","","","","true","14","4","moral","690","self","本人的","","","","","","","","","","","","","","",""
"null","","null","html-keyboard-response","154","333903","0.0-6.0-1.0-8.0-0.23","4","4","4","3","4","4","3","4","4","4","4","4","4","4","4","5","4","4","5","5","3","4","4","3","4","4","2","4","3","1","0","1","0","0","1","0","1","0","1","1","0","1","0","1","4","3","4","2","4","3","4","4","4","2","767700606512271362","刘","496","","","","","","","","","","","","","","","","","","","","","","","","","","","","","","","","","","","","","","","",""
"637","<p style=""color:white; font-size: 35px;"">正直</p>","e","categorize-html","155","334542","0.0-6.0-1.0-8.0-1.23","4","4","4","3","4","4","3","4","4","4","4","4","4","4","4","5","4","4","5","5","3","4","4","3","4","4","2","4","3","1","0","1","0","0","1","0","1","0","1","1","0","1","0","1","4","3","4","2","4","3","4","4","4","2","767700606512271362","刘","496","","","","","","","","","","","","","","","","","","","true","14","4","moral","637","positive","正直","","","","","","","","","","","","","","",""
"null","","null","html-keyboard-response","156","334794","0.0-6.0-1.0-8.0-0.24","4","4","4","3","4","4","3","4","4","4","4","4","4","4","4","5","4","4","5","5","3","4","4","3","4","4","2","4","3","1","0","1","0","0","1","0","1","0","1","1","0","1","0","1","4","3","4","2","4","3","4","4","4","2","767700606512271362","刘","496","","","","","","","","","","","","","","","","","","","","","","","","","","","","","","","","","","","","","","","",""
"805","<p style=""color:rgb(150, 250, 100); font-size: 35px;"">他</p>","i","categorize-html","157","335605","0.0-6.0-1.0-8.0-1.24","4","4","4","3","4","4","3","4","4","4","4","4","4","4","4","5","4","4","5","5","3","4","4","3","4","4","2","4","3","1","0","1","0","0","1","0","1","0","1","1","0","1","0","1","4","3","4","2","4","3","4","4","4","2","767700606512271362","刘","496","","","","","","","","","","","","","","","","","","","true","14","4","moral","805","other","他","","","","","","","","","","","","","","",""
"null","","null","html-keyboard-response","158","335858","0.0-6.0-1.0-8.0-0.25","4","4","4","3","4","4","3","4","4","4","4","4","4","4","4","5","4","4","5","5","3","4","4","3","4","4","2","4","3","1","0","1","0","0","1","0","1","0","1","1","0","1","0","1","4","3","4","2","4","3","4","4","4","2","767700606512271362","刘","496","","","","","","","","","","","","","","","","","","","","","","","","","","","","","","","","","","","","","","","",""
"2049","<p style=""color:white; font-size: 35px;"">缺德</p>","i","categorize-html","159","337908","0.0-6.0-1.0-8.0-1.25","4","4","4","3","4","4","3","4","4","4","4","4","4","4","4","5","4","4","5","5","3","4","4","3","4","4","2","4","3","1","0","1","0","0","1","0","1","0","1","1","0","1","0","1","4","3","4","2","4","3","4","4","4","2","767700606512271362","刘","496","","","","","","","","","","","","","","","","","","","true","14","4","moral","2049","negative","缺德","","","","","","","","","","","","","","",""
"null","","null","html-keyboard-response","160","338160","0.0-6.0-1.0-8.0-0.26","4","4","4","3","4","4","3","4","4","4","4","4","4","4","4","5","4","4","5","5","3","4","4","3","4","4","2","4","3","1","0","1","0","0","1","0","1","0","1","1","0","1","0","1","4","3","4","2","4","3","4","4","4","2","767700606512271362","刘","496","","","","","","","","","","","","","","","","","","","","","","","","","","","","","","","","","","","","","","","",""
"634","<p style=""color:rgb(150, 250, 100); font-size: 35px;"">自己的</p>","e","categorize-html","161","338797","0.0-6.0-1.0-8.0-1.26","4","4","4","3","4","4","3","4","4","4","4","4","4","4","4","5","4","4","5","5","3","4","4","3","4","4","2","4","3","1","0","1","0","0","1","0","1","0","1","1","0","1","0","1","4","3","4","2","4","3","4","4","4","2","767700606512271362","刘","496","","","","","","","","","","","","","","","","","","","true","14","4","moral","634","self","自己的","","","","","","","","","","","","","","",""
"null","","null","html-keyboard-response","162","339050","0.0-6.0-1.0-8.0-0.27","4","4","4","3","4","4","3","4","4","4","4","4","4","4","4","5","4","4","5","5","3","4","4","3","4","4","2","4","3","1","0","1","0","0","1","0","1","0","1","1","0","1","0","1","4","3","4","2","4","3","4","4","4","2","767700606512271362","刘","496","","","","","","","","","","","","","","","","","","","","","","","","","","","","","","","","","","","","","","","",""
"1761","<p style=""color:white; font-size: 35px;"">廉正</p>","e","categorize-html","163","340813","0.0-6.0-1.0-8.0-1.27","4","4","4","3","4","4","3","4","4","4","4","4","4","4","4","5","4","4","5","5","3","4","4","3","4","4","2","4","3","1","0","1","0","0","1","0","1","0","1","1","0","1","0","1","4","3","4","2","4","3","4","4","4","2","767700606512271362","刘","496","","","","","","","","","","","","","","","","","","","true","14","4","moral","1761","positive","廉正","","","","","","","","","","","","","","",""
"null","","null","html-keyboard-response","164","341065","0.0-6.0-1.0-8.0-0.28","4","4","4","3","4","4","3","4","4","4","4","4","4","4","4","5","4","4","5","5","3","4","4","3","4","4","2","4","3","1","0","1","0","0","1","0","1","0","1","1","0","1","0","1","4","3","4","2","4","3","4","4","4","2","767700606512271362","刘","496","","","","","","","","","","","","","","","","","","","","","","","","","","","","","","","","","","","","","","","",""
"799","<p style=""color:rgb(150, 250, 100); font-size: 35px;"">本人</p>","e","categorize-html","165","341865","0.0-6.0-1.0-8.0-1.28","4","4","4","3","4","4","3","4","4","4","4","4","4","4","4","5","4","4","5","5","3","4","4","3","4","4","2","4","3","1","0","1","0","0","1","0","1","0","1","1","0","1","0","1","4","3","4","2","4","3","4","4","4","2","767700606512271362","刘","496","","","","","","","","","","","","","","","","","","","true","14","4","moral","799","self","本人","","","","","","","","","","","","","","",""
"null","","null","html-keyboard-response","166","342117","0.0-6.0-1.0-8.0-0.29","4","4","4","3","4","4","3","4","4","4","4","4","4","4","4","5","4","4","5","5","3","4","4","3","4","4","2","4","3","1","0","1","0","0","1","0","1","0","1","1","0","1","0","1","4","3","4","2","4","3","4","4","4","2","767700606512271362","刘","496","","","","","","","","","","","","","","","","","","","","","","","","","","","","","","","","","","","","","","","",""
"702","<p style=""color:white; font-size: 35px;"">正直</p>","e","categorize-html","167","342821","0.0-6.0-1.0-8.0-1.29","4","4","4","3","4","4","3","4","4","4","4","4","4","4","4","5","4","4","5","5","3","4","4","3","4","4","2","4","3","1","0","1","0","0","1","0","1","0","1","1","0","1","0","1","4","3","4","2","4","3","4","4","4","2","767700606512271362","刘","496","","","","","","","","","","","","","","","","","","","true","14","4","moral","702","positive","正直","","","","","","","","","","","","","","",""
"null","","null","html-keyboard-response","168","343072","0.0-6.0-1.0-8.0-0.30","4","4","4","3","4","4","3","4","4","4","4","4","4","4","4","5","4","4","5","5","3","4","4","3","4","4","2","4","3","1","0","1","0","0","1","0","1","0","1","1","0","1","0","1","4","3","4","2","4","3","4","4","4","2","767700606512271362","刘","496","","","","","","","","","","","","","","","","","","","","","","","","","","","","","","","","","","","","","","","",""
"509","<p style=""color:rgb(150, 250, 100); font-size: 35px;"">他人的</p>","i","categorize-html","169","343584","0.0-6.0-1.0-8.0-1.30","4","4","4","3","4","4","3","4","4","4","4","4","4","4","4","5","4","4","5","5","3","4","4","3","4","4","2","4","3","1","0","1","0","0","1","0","1","0","1","1","0","1","0","1","4","3","4","2","4","3","4","4","4","2","767700606512271362","刘","496","","","","","","","","","","","","","","","","","","","true","14","4","moral","509","other","他人的","","","","","","","","","","","","","","",""
"null","","null","html-keyboard-response","170","343836","0.0-6.0-1.0-8.0-0.31","4","4","4","3","4","4","3","4","4","4","4","4","4","4","4","5","4","4","5","5","3","4","4","3","4","4","2","4","3","1","0","1","0","0","1","0","1","0","1","1","0","1","0","1","4","3","4","2","4","3","4","4","4","2","767700606512271362","刘","496","","","","","","","","","","","","","","","","","","","","","","","","","","","","","","","","","","","","","","","",""
"662","<p style=""color:white; font-size: 35px;"">卑鄙</p>","i","categorize-html","171","344498","0.0-6.0-1.0-8.0-1.31","4","4","4","3","4","4","3","4","4","4","4","4","4","4","4","5","4","4","5","5","3","4","4","3","4","4","2","4","3","1","0","1","0","0","1","0","1","0","1","1","0","1","0","1","4","3","4","2","4","3","4","4","4","2","767700606512271362","刘","496","","","","","","","","","","","","","","","","","","","true","14","4","moral","662","negative","卑鄙","","","","","","","","","","","","","","",""
"null","","null","html-keyboard-response","172","344750","0.0-6.0-1.0-8.0-0.32","4","4","4","3","4","4","3","4","4","4","4","4","4","4","4","5","4","4","5","5","3","4","4","3","4","4","2","4","3","1","0","1","0","0","1","0","1","0","1","1","0","1","0","1","4","3","4","2","4","3","4","4","4","2","767700606512271362","刘","496","","","","","","","","","","","","","","","","","","","","","","","","","","","","","","","","","","","","","","","",""
"650","<p style=""color:rgb(150, 250, 100); font-size: 35px;"">别人的</p>","i","categorize-html","173","345401","0.0-6.0-1.0-8.0-1.32","4","4","4","3","4","4","3","4","4","4","4","4","4","4","4","5","4","4","5","5","3","4","4","3","4","4","2","4","3","1","0","1","0","0","1","0","1","0","1","1","0","1","0","1","4","3","4","2","4","3","4","4","4","2","767700606512271362","刘","496","","","","","","","","","","","","","","","","","","","true","14","4","moral","650","other","别人的","","","","","","","","","","","","","","",""
"null","","null","html-keyboard-response","174","345653","0.0-6.0-1.0-8.0-0.33","4","4","4","3","4","4","3","4","4","4","4","4","4","4","4","5","4","4","5","5","3","4","4","3","4","4","2","4","3","1","0","1","0","0","1","0","1","0","1","1","0","1","0","1","4","3","4","2","4","3","4","4","4","2","767700606512271362","刘","496","","","","","","","","","","","","","","","","","","","","","","","","","","","","","","","","","","","","","","","",""
"685","<p style=""color:white; font-size: 35px;"">黑心</p>","i","categorize-html","175","346344","0.0-6.0-1.0-8.0-1.33","4","4","4","3","4","4","3","4","4","4","4","4","4","4","4","5","4","4","5","5","3","4","4","3","4","4","2","4","3","1","0","1","0","0","1","0","1","0","1","1","0","1","0","1","4","3","4","2","4","3","4","4","4","2","767700606512271362","刘","496","","","","","","","","","","","","","","","","","","","true","14","4","moral","685","negative","黑心","","","","","","","","","","","","","","",""
"null","","null","html-keyboard-response","176","346596","0.0-6.0-1.0-8.0-0.34","4","4","4","3","4","4","3","4","4","4","4","4","4","4","4","5","4","4","5","5","3","4","4","3","4","4","2","4","3","1","0","1","0","0","1","0","1","0","1","1","0","1","0","1","4","3","4","2","4","3","4","4","4","2","767700606512271362","刘","496","","","","","","","","","","","","","","","","","","","","","","","","","","","","","","","","","","","","","","","",""
"846","<p style=""color:rgb(150, 250, 100); font-size: 35px;"">我的</p>","e","categorize-html","177","347445","0.0-6.0-1.0-8.0-1.34","4","4","4","3","4","4","3","4","4","4","4","4","4","4","4","5","4","4","5","5","3","4","4","3","4","4","2","4","3","1","0","1","0","0","1","0","1","0","1","1","0","1","0","1","4","3","4","2","4","3","4","4","4","2","767700606512271362","刘","496","","","","","","","","","","","","","","","","","","","true","14","4","moral","846","self","我的","","","","","","","","","","","","","","",""
"null","","null","html-keyboard-response","178","347697","0.0-6.0-1.0-8.0-0.35","4","4","4","3","4","4","3","4","4","4","4","4","4","4","4","5","4","4","5","5","3","4","4","3","4","4","2","4","3","1","0","1","0","0","1","0","1","0","1","1","0","1","0","1","4","3","4","2","4","3","4","4","4","2","767700606512271362","刘","496","","","","","","","","","","","","","","","","","","","","","","","","","","","","","","","","","","","","","","","",""
"566","<p style=""color:white; font-size: 35px;"">高尚</p>","e","categorize-html","179","348265","0.0-6.0-1.0-8.0-1.35","4","4","4","3","4","4","3","4","4","4","4","4","4","4","4","5","4","4","5","5","3","4","4","3","4","4","2","4","3","1","0","1","0","0","1","0","1","0","1","1","0","1","0","1","4","3","4","2","4","3","4","4","4","2","767700606512271362","刘","496","","","","","","","","","","","","","","","","","","","true","14","4","moral","566","positive","高尚","","","","","","","","","","","","","","",""
"null","","null","html-keyboard-response","180","348516","0.0-6.0-1.0-8.0-0.36","4","4","4","3","4","4","3","4","4","4","4","4","4","4","4","5","4","4","5","5","3","4","4","3","4","4","2","4","3","1","0","1","0","0","1","0","1","0","1","1","0","1","0","1","4","3","4","2","4","3","4","4","4","2","767700606512271362","刘","496","","","","","","","","","","","","","","","","","","","","","","","","","","","","","","","","","","","","","","","",""
"630","<p style=""color:rgb(150, 250, 100); font-size: 35px;"">别人</p>","i","categorize-html","181","349148","0.0-6.0-1.0-8.0-1.36","4","4","4","3","4","4","3","4","4","4","4","4","4","4","4","5","4","4","5","5","3","4","4","3","4","4","2","4","3","1","0","1","0","0","1","0","1","0","1","1","0","1","0","1","4","3","4","2","4","3","4","4","4","2","767700606512271362","刘","496","","","","","","","","","","","","","","","","","","","true","14","4","moral","630","other","别人","","","","","","","","","","","","","","",""
"null","","null","html-keyboard-response","182","349400","0.0-6.0-1.0-8.0-0.37","4","4","4","3","4","4","3","4","4","4","4","4","4","4","4","5","4","4","5","5","3","4","4","3","4","4","2","4","3","1","0","1","0","0","1","0","1","0","1","1","0","1","0","1","4","3","4","2","4","3","4","4","4","2","767700606512271362","刘","496","","","","","","","","","","","","","","","","","","","","","","","","","","","","","","","","","","","","","","","",""
"1133","<p style=""color:white; font-size: 35px;"">缺德</p>","i","categorize-html","183","350535","0.0-6.0-1.0-8.0-1.37","4","4","4","3","4","4","3","4","4","4","4","4","4","4","4","5","4","4","5","5","3","4","4","3","4","4","2","4","3","1","0","1","0","0","1","0","1","0","1","1","0","1","0","1","4","3","4","2","4","3","4","4","4","2","767700606512271362","刘","496","","","","","","","","","","","","","","","","","","","true","14","4","moral","1133","negative","缺德","","","","","","","","","","","","","","",""
"null","","null","html-keyboard-response","184","350787","0.0-6.0-1.0-8.0-0.38","4","4","4","3","4","4","3","4","4","4","4","4","4","4","4","5","4","4","5","5","3","4","4","3","4","4","2","4","3","1","0","1","0","0","1","0","1","0","1","1","0","1","0","1","4","3","4","2","4","3","4","4","4","2","767700606512271362","刘","496","","","","","","","","","","","","","","","","","","","","","","","","","","","","","","","","","","","","","","","",""
"550","<p style=""color:rgb(150, 250, 100); font-size: 35px;"">我</p>","e","categorize-html","185","351339","0.0-6.0-1.0-8.0-1.38","4","4","4","3","4","4","3","4","4","4","4","4","4","4","4","5","4","4","5","5","3","4","4","3","4","4","2","4","3","1","0","1","0","0","1","0","1","0","1","1","0","1","0","1","4","3","4","2","4","3","4","4","4","2","767700606512271362","刘","496","","","","","","","","","","","","","","","","","","","true","14","4","moral","550","self","我","","","","","","","","","","","","","","",""
"null","","null","html-keyboard-response","186","351590","0.0-6.0-1.0-8.0-0.39","4","4","4","3","4","4","3","4","4","4","4","4","4","4","4","5","4","4","5","5","3","4","4","3","4","4","2","4","3","1","0","1","0","0","1","0","1","0","1","1","0","1","0","1","4","3","4","2","4","3","4","4","4","2","767700606512271362","刘","496","","","","","","","","","","","","","","","","","","","","","","","","","","","","","","","","","","","","","","","",""
"906","<p style=""color:white; font-size: 35px;"">诚信</p>","e","categorize-html","187","352497","0.0-6.0-1.0-8.0-1.39","4","4","4","3","4","4","3","4","4","4","4","4","4","4","4","5","4","4","5","5","3","4","4","3","4","4","2","4","3","1","0","1","0","0","1","0","1","0","1","1","0","1","0","1","4","3","4","2","4","3","4","4","4","2","767700606512271362","刘","496","","","","","","","","","","","","","","","","","","","true","14","4","moral","906","positive","诚信","","","","","","","","","","","","","","",""
"null","","null","html-keyboard-response","188","352750","0.0-6.0-1.0-8.0-0.40","4","4","4","3","4","4","3","4","4","4","4","4","4","4","4","5","4","4","5","5","3","4","4","3","4","4","2","4","3","1","0","1","0","0","1","0","1","0","1","1","0","1","0","1","4","3","4","2","4","3","4","4","4","2","767700606512271362","刘","496","","","","","","","","","","","","","","","","","","","","","","","","","","","","","","","","","","","","","","","",""
"569","<p style=""color:rgb(150, 250, 100); font-size: 35px;"">他的</p>","i","categorize-html","189","353321","0.0-6.0-1.0-8.0-1.40","4","4","4","3","4","4","3","4","4","4","4","4","4","4","4","5","4","4","5","5","3","4","4","3","4","4","2","4","3","1","0","1","0","0","1","0","1","0","1","1","0","1","0","1","4","3","4","2","4","3","4","4","4","2","767700606512271362","刘","496","","","","","","","","","","","","","","","","","","","true","14","4","moral","569","other","他的","","","","","","","","","","","","","","",""
"null","","null","html-keyboard-response","190","353573","0.0-6.0-1.0-8.0-0.41","4","4","4","3","4","4","3","4","4","4","4","4","4","4","4","5","4","4","5","5","3","4","4","3","4","4","2","4","3","1","0","1","0","0","1","0","1","0","1","1","0","1","0","1","4","3","4","2","4","3","4","4","4","2","767700606512271362","刘","496","","","","","","","","","","","","","","","","","","","","","","","","","","","","","","","","","","","","","","","",""
"1336","<p style=""color:white; font-size: 35px;"">卑鄙</p>","i","categorize-html","191","354910","0.0-6.0-1.0-8.0-1.41","4","4","4","3","4","4","3","4","4","4","4","4","4","4","4","5","4","4","5","5","3","4","4","3","4","4","2","4","3","1","0","1","0","0","1","0","1","0","1","1","0","1","0","1","4","3","4","2","4","3","4","4","4","2","767700606512271362","刘","496","","","","","","","","","","","","","","","","","","","true","14","4","moral","1336","negative","卑鄙","","","","","","","","","","","","","","",""
"null","","null","html-keyboard-response","192","355163","0.0-6.0-1.0-8.0-0.42","4","4","4","3","4","4","3","4","4","4","4","4","4","4","4","5","4","4","5","5","3","4","4","3","4","4","2","4","3","1","0","1","0","0","1","0","1","0","1","1","0","1","0","1","4","3","4","2","4","3","4","4","4","2","767700606512271362","刘","496","","","","","","","","","","","","","","","","","","","","","","","","","","","","","","","","","","","","","","","",""
"624","<p style=""color:rgb(150, 250, 100); font-size: 35px;"">我的</p>","e","categorize-html","193","355788","0.0-6.0-1.0-8.0-1.42","4","4","4","3","4","4","3","4","4","4","4","4","4","4","4","5","4","4","5","5","3","4","4","3","4","4","2","4","3","1","0","1","0","0","1","0","1","0","1","1","0","1","0","1","4","3","4","2","4","3","4","4","4","2","767700606512271362","刘","496","","","","","","","","","","","","","","","","","","","true","14","4","moral","624","self","我的","","","","","","","","","","","","","","",""
"null","","null","html-keyboard-response","194","356041","0.0-6.0-1.0-8.0-0.43","4","4","4","3","4","4","3","4","4","4","4","4","4","4","4","5","4","4","5","5","3","4","4","3","4","4","2","4","3","1","0","1","0","0","1","0","1","0","1","1","0","1","0","1","4","3","4","2","4","3","4","4","4","2","767700606512271362","刘","496","","","","","","","","","","","","","","","","","","","","","","","","","","","","","","","","","","","","","","","",""
"835","<p style=""color:white; font-size: 35px;"">高尚</p>","e","categorize-html","195","356878","0.0-6.0-1.0-8.0-1.43","4","4","4","3","4","4","3","4","4","4","4","4","4","4","4","5","4","4","5","5","3","4","4","3","4","4","2","4","3","1","0","1","0","0","1","0","1","0","1","1","0","1","0","1","4","3","4","2","4","3","4","4","4","2","767700606512271362","刘","496","","","","","","","","","","","","","","","","","","","true","14","4","moral","835","positive","高尚","","","","","","","","","","","","","","",""
"null","","null","html-keyboard-response","196","357129","0.0-6.0-1.0-8.0-0.44","4","4","4","3","4","4","3","4","4","4","4","4","4","4","4","5","4","4","5","5","3","4","4","3","4","4","2","4","3","1","0","1","0","0","1","0","1","0","1","1","0","1","0","1","4","3","4","2","4","3","4","4","4","2","767700606512271362","刘","496","","","","","","","","","","","","","","","","","","","","","","","","","","","","","","","","","","","","","","","",""
"595","<p style=""color:rgb(150, 250, 100); font-size: 35px;"">本人的</p>","e","categorize-html","197","357725","0.0-6.0-1.0-8.0-1.44","4","4","4","3","4","4","3","4","4","4","4","4","4","4","4","5","4","4","5","5","3","4","4","3","4","4","2","4","3","1","0","1","0","0","1","0","1","0","1","1","0","1","0","1","4","3","4","2","4","3","4","4","4","2","767700606512271362","刘","496","","","","","","","","","","","","","","","","","","","true","14","4","moral","595","self","本人的","","","","","","","","","","","","","","",""
