"rt","stimulus","response","trial_type","trial_index","time_elapsed","internal_node_id","ses_1","ses_2","ses_3","ses_4","ses_5","ses_6","ses_7","ses_8","ses_9","ses_10","coreself_1","coreself_2","coreself_3","coreself_4","coreself_5","coreself_6","coreself_7","coreself_8","coreself_9","coreself_10","SGPS_1","SGPS_2","SGPS_3","SGPS_4","SGPS_5","SGPS_6","SGPS_7","SGPS_8","SGPS_9","NPI1","NPI2","NPI3","NPI4","NPI5","NPI6","NPI7","NPI8","NPI9","NPI10","NPI11","NPI12","NPI13","NPI14","NPI15","hsns_1","hsns_2","hsns_3","hsns_4","hsns_5","hsns_6","hsns_7","hsns_8","hsns_9","hsns_10","subj_idx","friend_name","ParticipantID","value","success","user_agent","responses","item_order","radio_event_ids","radio_event_times","key_event_times","mouse_event_times","straightlining","zigzagging","honeypot","timeout","failed_images","failed_audio","failed_video","view_history","response_type","key_press","avg_frame_time","center_x","center_y","correct_response","correct","identity","Image","word","condition","task_id","screen_id","time_stamp","version_attrib","version_target","IAT","RT","varname","summary","version_attrib2","version_target2","question_order"
"1664","
   <p><div style = ""color: white;font-size:25px;"">您好，欢迎参加本次实验。</div> </p>
   <p><div style = ""color: white;font-size:25px;"">为充分保障您的权利，请确保您已经知晓并同意《参与实验同意书》以及《数据公开知情同意书》。</div></p>
   <p><div style = ""color: white;font-size:25px;"">如果您未见过上述内容，请咨询实验员。</div></p>
   <p><div style = ""color: white;font-size:25px;"">如果您选择继续实验，则表示您已经清楚两份知情同意书的内容并同意。</div></p>
   <p><div style = ""color: red;font-size:30px;"">请确保您记得day0的实验编号，您将在本次实验输入该编号，若您忘记，请咨询实验员后作答。</div></p>
   <p> <div style = ""color: green;font-size:25px;""><按空格键至下页></div> </p>
   "," ","html-keyboard-response","0","1667","0.0-0.0","4","4","4","3","4","4","3","4","4","4","5","5","4","4","5","5","4","5","5","4","1","1","2","2","1","2","1","1","2","0","0","1","1","0","0","0","1","0","1","1","0","1","0","0","5","1","2","2","1","3","4","5","2","2","759096644204761089","张","364","","","","","","","","","","","","","","","","","","","","","","","","","","","","","","","","","","","","","","","",""
"","","","call-function","1","1668","0.0-1.0-0.0","4","4","4","3","4","4","3","4","4","4","5","5","4","4","5","5","4","5","5","4","1","1","2","2","1","2","1","1","2","0","0","1","1","0","0","0","1","0","1","1","0","1","0","0","5","1","2","2","1","3","4","5","2","2","759096644204761089","张","364","","","","","","","","","","","","","","","","","","","","","","","","","","","","","","","","","","","","","","","",""
"105701","","{""friend_name"":""张"",""ParticipantID"":""364""}","survey-html-form","2","107371","0.0-1.0-1.0","4","4","4","3","4","4","3","4","4","4","5","5","4","4","5","5","4","5","5","4","1","1","2","2","1","2","1","1","2","0","0","1","1","0","0","0","1","0","1","1","0","1","0","0","5","1","2","2","1","3","4","5","2","2","759096644204761089","张","364","","","","","","","","","","","","","","","","","","","","","","","","","","","","","","","","","","","","","","","",""
"","","","fullscreen","3","115744","0.0-2.0","4","4","4","3","4","4","3","4","4","4","5","5","4","4","5","5","4","5","5","4","1","1","2","2","1","2","1","1","2","0","0","1","1","0","0","0","1","0","1","1","0","1","0","0","5","1","2","2","1","3","4","5","2","2","759096644204761089","张","364","","true","","","","","","","","","","","","","","","","","","","","","","","","","","","","","","","","","","","","","",""
"22113.98000000918","","{""Q01"":""4"",""Q02"":""4"",""Q03"":""4"",""Q04"":""3"",""Q05"":""4"",""Q06"":""4"",""Q07"":""3"",""Q08"":""4"",""Q09"":""4"",""Q10"":""4""}","survey-template","4","137862","0.0-3.0","4","4","4","3","4","4","3","4","4","4","5","5","4","4","5","5","4","5","5","4","1","1","2","2","1","2","1","1","2","0","0","1","1","0","0","0","1","0","1","1","0","1","0","0","5","1","2","2","1","3","4","5","2","2","759096644204761089","张","364","","","","{""Q01"":""4"",""Q02"":""4"",""Q03"":""4"",""Q04"":""3"",""Q05"":""4"",""Q06"":""4"",""Q07"":""3"",""Q08"":""4"",""Q09"":""4"",""Q10"":""4""}","[0,1,2,3,4,5,6,7,8,9]","[""Q01"",""Q02"",""Q03"",""Q04"",""Q05"",""Q06"",""Q07"",""Q08"",""Q10"",""Q09""]","[3927.995000005467,4951.935000004596,7104.040000005625,9247.960000007879,11591.76500000467,13079.960000002757,15079.945000004955,18655.910000001313,20783.86500000488,21375.88500000129]","[]","[983.829999997397,3407.695000001695,3927.995000005467,4951.935000004596,7104.040000005625,9247.960000007879,11591.76500000467,13079.960000002757,14623.70500000543,15079.945000004955,18655.910000001313,19088.03500000795,20783.86500000488,21375.88500000129,22112.025000009453]","0.5","0.3333333333333333","0","","","","","","","","","","","","","","","","","","","","","","","","","","","",""
"42804.1799999919","","{""Q01"":""5"",""Q02"":""5"",""Q03"":""4"",""Q04"":""4"",""Q05"":""5"",""Q06"":""5"",""Q07"":""4"",""Q08"":""5"",""Q09"":""5"",""Q10"":""4""}","survey-template","5","180678","0.0-4.0","4","4","4","3","4","4","3","4","4","4","5","5","4","4","5","5","4","5","5","4","1","1","2","2","1","2","1","1","2","0","0","1","1","0","0","0","1","0","1","1","0","1","0","0","5","1","2","2","1","3","4","5","2","2","759096644204761089","张","364","","","","{""Q01"":""5"",""Q02"":""5"",""Q03"":""4"",""Q04"":""4"",""Q05"":""5"",""Q06"":""5"",""Q07"":""4"",""Q08"":""5"",""Q09"":""5"",""Q10"":""4""}","[0,1,2,3,4,5,6,7,8,9]","[""Q01"",""Q02"",""Q03"",""Q04"",""Q05"",""Q06"",""Q07"",""Q08"",""Q09"",""Q10""]","[1785.8649999980116,3385.840000002645,4929.8649999982445,6729.869999995572,9554.329999999027,11649.810000002617,13353.819999989355,16185.86499999219,18233.80499999621,20057.804999989457]","[]","[809.5899999898393,1785.8649999980116,3385.840000002645,4929.8649999982445,6729.869999995572,9554.329999999027,11649.810000002617,13353.819999989355,16185.86499999219,18233.80499999621,20057.804999989457,22809.99999999767,25841.679999997723,28969.83000000182,38161.7200000037,40193.774999992456,42802.00499999046]","0.3","0.5555555555555556","0","","","","","","","","","","","","","","","","","","","","","","","","","","","",""
"","","","preload","6","181015","0.0-5.0","4","4","4","3","4","4","3","4","4","4","5","5","4","4","5","5","4","5","5","4","1","1","2","2","1","2","1","1","2","0","0","1","1","0","0","0","1","0","1","1","0","1","0","0","5","1","2","2","1","3","4","5","2","2","759096644204761089","张","364","","true","","","","","","","","","","","false","[]","[]","[]","","","","","","","","","","","","","","","","","","","","","","","",""
"10187","","","instructions","7","191203","0.0-6.0","4","4","4","3","4","4","3","4","4","4","5","5","4","4","5","5","4","5","5","4","1","1","2","2","1","2","1","1","2","0","0","1","1","0","0","0","1","0","1","1","0","1","0","0","5","1","2","2","1","3","4","5","2","2","759096644204761089","张","364","","","","","","","","","","","","","","","","","[{""page_index"":0,""viewing_time"":10186}]","","","","","","","","","","","","","","","","","","","","","","",""
"16430","","","instructions","8","207634","0.0-7.0-1.0-0.0","4","4","4","3","4","4","3","4","4","4","5","5","4","4","5","5","4","5","5","4","1","1","2","2","1","2","1","1","2","0","0","1","1","0","0","0","1","0","1","1","0","1","0","0","5","1","2","2","1","3","4","5","2","2","759096644204761089","张","364","","","","","","","","","","","","","","","","","[{""page_index"":0,""viewing_time"":13117},{""page_index"":1,""viewing_time"":1176},{""page_index"":2,""viewing_time"":2136}]","","","","","","","","","","","","","","","","","","","","","","",""
"871","","f","psychophysics","9","209513","0.0-7.0-1.0-1.0-0.0-0.0","4","4","4","3","4","4","3","4","4","4","5","5","4","4","5","5","4","5","5","4","1","1","2","2","1","2","1","1","2","0","0","1","1","0","0","0","1","0","1","1","0","1","0","0","5","1","2","2","1","3","4","5","2","2","759096644204761089","张","364","","","","match","","","","","","","","","","","","","","key","f","16.68226126126126","872.2727083667255","486.8181712666821","f","true","match","img/trapezoid.png","梯形","梯形","ALT1_2","prac_ALT1_2","","","","","","","","","",""
"null","<span style='color:GreenYellow; font-size: 70px;'>正确! </span>","null","html-keyboard-response","10","210015","0.0-7.0-1.0-1.0-0.0-1.0","4","4","4","3","4","4","3","4","4","4","5","5","4","4","5","5","4","5","5","4","1","1","2","2","1","2","1","1","2","0","0","1","1","0","0","0","1","0","1","1","0","1","0","0","5","1","2","2","1","3","4","5","2","2","759096644204761089","张","364","","","","","","","","","","","","","","","","","","","","","","","","","","","","","","feedback_test","","","","","","","","","",""
"682","","j","psychophysics","11","211699","0.0-7.0-1.0-1.0-0.0-0.1","4","4","4","3","4","4","3","4","4","4","5","5","4","4","5","5","4","5","5","4","1","1","2","2","1","2","1","1","2","0","0","1","1","0","0","0","1","0","1","1","0","1","0","0","5","1","2","2","1","3","4","5","2","2","759096644204761089","张","364","","","","nonmatch","","","","","","","","","","","","","","key","j","16.683579999999782","872.2727083667255","486.8181712666821","j","true","nonmatch","img/hexagon.png","椭圆","六边","ALT1_2","prac_ALT1_2","","","","","","","","","",""
"null","<span style='color:GreenYellow; font-size: 70px;'>正确! </span>","null","html-keyboard-response","12","212200","0.0-7.0-1.0-1.0-0.0-1.1","4","4","4","3","4","4","3","4","4","4","5","5","4","4","5","5","4","5","5","4","1","1","2","2","1","2","1","1","2","0","0","1","1","0","0","0","1","0","1","1","0","1","0","0","5","1","2","2","1","3","4","5","2","2","759096644204761089","张","364","","","","","","","","","","","","","","","","","","","","","","","","","","","","","","feedback_test","","","","","","","","","",""
"716","","f","psychophysics","13","213919","0.0-7.0-1.0-1.0-0.0-0.2","4","4","4","3","4","4","3","4","4","4","5","5","4","4","5","5","4","5","5","4","1","1","2","2","1","2","1","1","2","0","0","1","1","0","0","0","1","0","1","1","0","1","0","0","5","1","2","2","1","3","4","5","2","2","759096644204761089","张","364","","","","match","","","","","","","","","","","","","","key","f","16.683480392156827","872.2727083667255","486.8181712666821","f","true","match","img/square.png","方形","方形","ALT1_2","prac_ALT1_2","","","","","","","","","",""
"null","<span style='color:GreenYellow; font-size: 70px;'>正确! </span>","null","html-keyboard-response","14","214420","0.0-7.0-1.0-1.0-0.0-1.2","4","4","4","3","4","4","3","4","4","4","5","5","4","4","5","5","4","5","5","4","1","1","2","2","1","2","1","1","2","0","0","1","1","0","0","0","1","0","1","1","0","1","0","0","5","1","2","2","1","3","4","5","2","2","759096644204761089","张","364","","","","","","","","","","","","","","","","","","","","","","","","","","","","","","feedback_test","","","","","","","","","",""
"685","","j","psychophysics","15","216108","0.0-7.0-1.0-1.0-0.0-0.3","4","4","4","3","4","4","3","4","4","4","5","5","4","4","5","5","4","5","5","4","1","1","2","2","1","2","1","1","2","0","0","1","1","0","0","0","1","0","1","1","0","1","0","0","5","1","2","2","1","3","4","5","2","2","759096644204761089","张","364","","","","nonmatch","","","","","","","","","","","","","","key","j","16.68346464646465","872.2727083667255","486.8181712666821","j","true","nonmatch","img/square.png","六边","方形","ALT1_2","prac_ALT1_2","","","","","","","","","",""
"null","<span style='color:GreenYellow; font-size: 70px;'>正确! </span>","null","html-keyboard-response","16","216609","0.0-7.0-1.0-1.0-0.0-1.3","4","4","4","3","4","4","3","4","4","4","5","5","4","4","5","5","4","5","5","4","1","1","2","2","1","2","1","1","2","0","0","1","1","0","0","0","1","0","1","1","0","1","0","0","5","1","2","2","1","3","4","5","2","2","759096644204761089","张","364","","","","","","","","","","","","","","","","","","","","","","","","","","","","","","feedback_test","","","","","","","","","",""
"597","","f","psychophysics","17","218209","0.0-7.0-1.0-1.0-0.0-0.4","4","4","4","3","4","4","3","4","4","4","5","5","4","4","5","5","4","5","5","4","1","1","2","2","1","2","1","1","2","0","0","1","1","0","0","0","1","0","1","1","0","1","0","0","5","1","2","2","1","3","4","5","2","2","759096644204761089","张","364","","","","match","","","","","","","","","","","","","","key","f","16.683563829787282","872.2727083667255","486.8181712666821","f","true","match","img/ellipse.png","椭圆","椭圆","ALT1_2","prac_ALT1_2","","","","","","","","","",""
"null","<span style='color:GreenYellow; font-size: 70px;'>正确! </span>","null","html-keyboard-response","18","218710","0.0-7.0-1.0-1.0-0.0-1.4","4","4","4","3","4","4","3","4","4","4","5","5","4","4","5","5","4","5","5","4","1","1","2","2","1","2","1","1","2","0","0","1","1","0","0","0","1","0","1","1","0","1","0","0","5","1","2","2","1","3","4","5","2","2","759096644204761089","张","364","","","","","","","","","","","","","","","","","","","","","","","","","","","","","","feedback_test","","","","","","","","","",""
"740","","j","psychophysics","19","220452","0.0-7.0-1.0-1.0-0.0-0.5","4","4","4","3","4","4","3","4","4","4","5","5","4","4","5","5","4","5","5","4","1","1","2","2","1","2","1","1","2","0","0","1","1","0","0","0","1","0","1","1","0","1","0","0","5","1","2","2","1","3","4","5","2","2","759096644204761089","张","364","","","","nonmatch","","","","","","","","","","","","","","key","j","16.683514563106815","872.2727083667255","486.8181712666821","j","true","nonmatch","img/hexagon.png","梯形","六边","ALT1_2","prac_ALT1_2","","","","","","","","","",""
"null","<span style='color:GreenYellow; font-size: 70px;'>正确! </span>","null","html-keyboard-response","20","220954","0.0-7.0-1.0-1.0-0.0-1.5","4","4","4","3","4","4","3","4","4","4","5","5","4","4","5","5","4","5","5","4","1","1","2","2","1","2","1","1","2","0","0","1","1","0","0","0","1","0","1","1","0","1","0","0","5","1","2","2","1","3","4","5","2","2","759096644204761089","张","364","","","","","","","","","","","","","","","","","","","","","","","","","","","","","","feedback_test","","","","","","","","","",""
"663","","f","psychophysics","21","222619","0.0-7.0-1.0-1.0-0.0-0.6","4","4","4","3","4","4","3","4","4","4","5","5","4","4","5","5","4","5","5","4","1","1","2","2","1","2","1","1","2","0","0","1","1","0","0","0","1","0","1","1","0","1","0","0","5","1","2","2","1","3","4","5","2","2","759096644204761089","张","364","","","","match","","","","","","","","","","","","","","key","f","16.683545454545477","872.2727083667255","486.8181712666821","f","true","match","img/trapezoid.png","梯形","梯形","ALT1_2","prac_ALT1_2","","","","","","","","","",""
"null","<span style='color:GreenYellow; font-size: 70px;'>正确! </span>","null","html-keyboard-response","22","223121","0.0-7.0-1.0-1.0-0.0-1.6","4","4","4","3","4","4","3","4","4","4","5","5","4","4","5","5","4","5","5","4","1","1","2","2","1","2","1","1","2","0","0","1","1","0","0","0","1","0","1","1","0","1","0","0","5","1","2","2","1","3","4","5","2","2","759096644204761089","张","364","","","","","","","","","","","","","","","","","","","","","","","","","","","","","","feedback_test","","","","","","","","","",""
"628","","j","psychophysics","23","224752","0.0-7.0-1.0-1.0-0.0-0.7","4","4","4","3","4","4","3","4","4","4","5","5","4","4","5","5","4","5","5","4","1","1","2","2","1","2","1","1","2","0","0","1","1","0","0","0","1","0","1","1","0","1","0","0","5","1","2","2","1","3","4","5","2","2","759096644204761089","张","364","","","","nonmatch","","","","","","","","","","","","","","key","j","16.683583333333445","872.2727083667255","486.8181712666821","j","true","nonmatch","img/ellipse.png","梯形","椭圆","ALT1_2","prac_ALT1_2","","","","","","","","","",""
"null","<span style='color:GreenYellow; font-size: 70px;'>正确! </span>","null","html-keyboard-response","24","225254","0.0-7.0-1.0-1.0-0.0-1.7","4","4","4","3","4","4","3","4","4","4","5","5","4","4","5","5","4","5","5","4","1","1","2","2","1","2","1","1","2","0","0","1","1","0","0","0","1","0","1","1","0","1","0","0","5","1","2","2","1","3","4","5","2","2","759096644204761089","张","364","","","","","","","","","","","","","","","","","","","","","","","","","","","","","","feedback_test","","","","","","","","","",""
"653","","j","psychophysics","25","226908","0.0-7.0-1.0-1.0-0.0-0.8","4","4","4","3","4","4","3","4","4","4","5","5","4","4","5","5","4","5","5","4","1","1","2","2","1","2","1","1","2","0","0","1","1","0","0","0","1","0","1","1","0","1","0","0","5","1","2","2","1","3","4","5","2","2","759096644204761089","张","364","","","","nonmatch","","","","","","","","","","","","","","key","j","16.683581632652857","872.2727083667255","486.8181712666821","j","true","nonmatch","img/square.png","椭圆","方形","ALT1_2","prac_ALT1_2","","","","","","","","","",""
"null","<span style='color:GreenYellow; font-size: 70px;'>正确! </span>","null","html-keyboard-response","26","227409","0.0-7.0-1.0-1.0-0.0-1.8","4","4","4","3","4","4","3","4","4","4","5","5","4","4","5","5","4","5","5","4","1","1","2","2","1","2","1","1","2","0","0","1","1","0","0","0","1","0","1","1","0","1","0","0","5","1","2","2","1","3","4","5","2","2","759096644204761089","张","364","","","","","","","","","","","","","","","","","","","","","","","","","","","","","","feedback_test","","","","","","","","","",""
"719","","j","psychophysics","27","229130","0.0-7.0-1.0-1.0-0.0-0.9","4","4","4","3","4","4","3","4","4","4","5","5","4","4","5","5","4","5","5","4","1","1","2","2","1","2","1","1","2","0","0","1","1","0","0","0","1","0","1","1","0","1","0","0","5","1","2","2","1","3","4","5","2","2","759096644204761089","张","364","","","","nonmatch","","","","","","","","","","","","","","key","j","16.683519607843255","872.2727083667255","486.8181712666821","j","true","nonmatch","img/trapezoid.png","六边","梯形","ALT1_2","prac_ALT1_2","","","","","","","","","",""
"null","<span style='color:GreenYellow; font-size: 70px;'>正确! </span>","null","html-keyboard-response","28","229631","0.0-7.0-1.0-1.0-0.0-1.9","4","4","4","3","4","4","3","4","4","4","5","5","4","4","5","5","4","5","5","4","1","1","2","2","1","2","1","1","2","0","0","1","1","0","0","0","1","0","1","1","0","1","0","0","5","1","2","2","1","3","4","5","2","2","759096644204761089","张","364","","","","","","","","","","","","","","","","","","","","","","","","","","","","","","feedback_test","","","","","","","","","",""
"675","","j","psychophysics","29","231307","0.0-7.0-1.0-1.0-0.0-0.10","4","4","4","3","4","4","3","4","4","4","5","5","4","4","5","5","4","5","5","4","1","1","2","2","1","2","1","1","2","0","0","1","1","0","0","0","1","0","1","1","0","1","0","0","5","1","2","2","1","3","4","5","2","2","759096644204761089","张","364","","","","nonmatch","","","","","","","","","","","","","","key","j","16.683525252525197","872.2727083667255","486.8181712666821","j","true","nonmatch","img/ellipse.png","六边","椭圆","ALT1_2","prac_ALT1_2","","","","","","","","","",""
"null","<span style='color:GreenYellow; font-size: 70px;'>正确! </span>","null","html-keyboard-response","30","231809","0.0-7.0-1.0-1.0-0.0-1.10","4","4","4","3","4","4","3","4","4","4","5","5","4","4","5","5","4","5","5","4","1","1","2","2","1","2","1","1","2","0","0","1","1","0","0","0","1","0","1","1","0","1","0","0","5","1","2","2","1","3","4","5","2","2","759096644204761089","张","364","","","","","","","","","","","","","","","","","","","","","","","","","","","","","","feedback_test","","","","","","","","","",""
"650","","f","psychophysics","31","233460","0.0-7.0-1.0-1.0-0.0-0.11","4","4","4","3","4","4","3","4","4","4","5","5","4","4","5","5","4","5","5","4","1","1","2","2","1","2","1","1","2","0","0","1","1","0","0","0","1","0","1","1","0","1","0","0","5","1","2","2","1","3","4","5","2","2","759096644204761089","张","364","","","","match","","","","","","","","","","","","","","key","f","16.683597938144118","872.2727083667255","486.8181712666821","f","true","match","img/trapezoid.png","梯形","梯形","ALT1_2","prac_ALT1_2","","","","","","","","","",""
"null","<span style='color:GreenYellow; font-size: 70px;'>正确! </span>","null","html-keyboard-response","32","233962","0.0-7.0-1.0-1.0-0.0-1.11","4","4","4","3","4","4","3","4","4","4","5","5","4","4","5","5","4","5","5","4","1","1","2","2","1","2","1","1","2","0","0","1","1","0","0","0","1","0","1","1","0","1","0","0","5","1","2","2","1","3","4","5","2","2","759096644204761089","张","364","","","","","","","","","","","","","","","","","","","","","","","","","","","","","","feedback_test","","","","","","","","","",""
"599","","j","psychophysics","33","235562","0.0-7.0-1.0-1.0-0.0-0.12","4","4","4","3","4","4","3","4","4","4","5","5","4","4","5","5","4","5","5","4","1","1","2","2","1","2","1","1","2","0","0","1","1","0","0","0","1","0","1","1","0","1","0","0","5","1","2","2","1","3","4","5","2","2","759096644204761089","张","364","","","","nonmatch","","","","","","","","","","","","","","key","j","16.68351063829787","872.2727083667255","486.8181712666821","j","true","nonmatch","img/square.png","梯形","方形","ALT1_2","prac_ALT1_2","","","","","","","","","",""
"null","<span style='color:GreenYellow; font-size: 70px;'>正确! </span>","null","html-keyboard-response","34","236063","0.0-7.0-1.0-1.0-0.0-1.12","4","4","4","3","4","4","3","4","4","4","5","5","4","4","5","5","4","5","5","4","1","1","2","2","1","2","1","1","2","0","0","1","1","0","0","0","1","0","1","1","0","1","0","0","5","1","2","2","1","3","4","5","2","2","759096644204761089","张","364","","","","","","","","","","","","","","","","","","","","","","","","","","","","","","feedback_test","","","","","","","","","",""
"708","","f","psychophysics","35","237773","0.0-7.0-1.0-1.0-0.0-0.13","4","4","4","3","4","4","3","4","4","4","5","5","4","4","5","5","4","5","5","4","1","1","2","2","1","2","1","1","2","0","0","1","1","0","0","0","1","0","1","1","0","1","0","0","5","1","2","2","1","3","4","5","2","2","759096644204761089","张","364","","","","match","","","","","","","","","","","","","","key","f","16.683405940594106","872.2727083667255","486.8181712666821","f","true","match","img/hexagon.png","六边","六边","ALT1_2","prac_ALT1_2","","","","","","","","","",""
"null","<span style='color:GreenYellow; font-size: 70px;'>正确! </span>","null","html-keyboard-response","36","238275","0.0-7.0-1.0-1.0-0.0-1.13","4","4","4","3","4","4","3","4","4","4","5","5","4","4","5","5","4","5","5","4","1","1","2","2","1","2","1","1","2","0","0","1","1","0","0","0","1","0","1","1","0","1","0","0","5","1","2","2","1","3","4","5","2","2","759096644204761089","张","364","","","","","","","","","","","","","","","","","","","","","","","","","","","","","","feedback_test","","","","","","","","","",""
"751","","j","psychophysics","37","240028","0.0-7.0-1.0-1.0-0.0-0.14","4","4","4","3","4","4","3","4","4","4","5","5","4","4","5","5","4","5","5","4","1","1","2","2","1","2","1","1","2","0","0","1","1","0","0","0","1","0","1","1","0","1","0","0","5","1","2","2","1","3","4","5","2","2","759096644204761089","张","364","","","","nonmatch","","","","","","","","","","","","","","key","j","16.68351923076905","872.2727083667255","486.8181712666821","j","true","nonmatch","img/trapezoid.png","方形","梯形","ALT1_2","prac_ALT1_2","","","","","","","","","",""
"null","<span style='color:GreenYellow; font-size: 70px;'>正确! </span>","null","html-keyboard-response","38","240529","0.0-7.0-1.0-1.0-0.0-1.14","4","4","4","3","4","4","3","4","4","4","5","5","4","4","5","5","4","5","5","4","1","1","2","2","1","2","1","1","2","0","0","1","1","0","0","0","1","0","1","1","0","1","0","0","5","1","2","2","1","3","4","5","2","2","759096644204761089","张","364","","","","","","","","","","","","","","","","","","","","","","","","","","","","","","feedback_test","","","","","","","","","",""
"585","","f","psychophysics","39","242116","0.0-7.0-1.0-1.0-0.0-0.15","4","4","4","3","4","4","3","4","4","4","5","5","4","4","5","5","4","5","5","4","1","1","2","2","1","2","1","1","2","0","0","1","1","0","0","0","1","0","1","1","0","1","0","0","5","1","2","2","1","3","4","5","2","2","759096644204761089","张","364","","","","match","","","","","","","","","","","","","","key","f","16.683553191489526","872.2727083667255","486.8181712666821","f","true","match","img/hexagon.png","六边","六边","ALT1_2","prac_ALT1_2","","","","","","","","","",""
"null","<span style='color:GreenYellow; font-size: 70px;'>正确! </span>","null","html-keyboard-response","40","242617","0.0-7.0-1.0-1.0-0.0-1.15","4","4","4","3","4","4","3","4","4","4","5","5","4","4","5","5","4","5","5","4","1","1","2","2","1","2","1","1","2","0","0","1","1","0","0","0","1","0","1","1","0","1","0","0","5","1","2","2","1","3","4","5","2","2","759096644204761089","张","364","","","","","","","","","","","","","","","","","","","","","","","","","","","","","","feedback_test","","","","","","","","","",""
"532","","j","psychophysics","41","244151","0.0-7.0-1.0-1.0-0.0-0.16","4","4","4","3","4","4","3","4","4","4","5","5","4","4","5","5","4","5","5","4","1","1","2","2","1","2","1","1","2","0","0","1","1","0","0","0","1","0","1","1","0","1","0","0","5","1","2","2","1","3","4","5","2","2","759096644204761089","张","364","","","","nonmatch","","","","","","","","","","","","","","key","j","16.68364444444467","872.2727083667255","486.8181712666821","j","true","nonmatch","img/trapezoid.png","椭圆","梯形","ALT1_2","prac_ALT1_2","","","","","","","","","",""
"null","<span style='color:GreenYellow; font-size: 70px;'>正确! </span>","null","html-keyboard-response","42","244652","0.0-7.0-1.0-1.0-0.0-1.16","4","4","4","3","4","4","3","4","4","4","5","5","4","4","5","5","4","5","5","4","1","1","2","2","1","2","1","1","2","0","0","1","1","0","0","0","1","0","1","1","0","1","0","0","5","1","2","2","1","3","4","5","2","2","759096644204761089","张","364","","","","","","","","","","","","","","","","","","","","","","","","","","","","","","feedback_test","","","","","","","","","",""
"632","","f","psychophysics","43","246286","0.0-7.0-1.0-1.0-0.0-0.17","4","4","4","3","4","4","3","4","4","4","5","5","4","4","5","5","4","5","5","4","1","1","2","2","1","2","1","1","2","0","0","1","1","0","0","0","1","0","1","1","0","1","0","0","5","1","2","2","1","3","4","5","2","2","759096644204761089","张","364","","","","match","","","","","","","","","","","","","","key","f","16.683541666666617","872.2727083667255","486.8181712666821","f","true","match","img/square.png","方形","方形","ALT1_2","prac_ALT1_2","","","","","","","","","",""
"null","<span style='color:GreenYellow; font-size: 70px;'>正确! </span>","null","html-keyboard-response","44","246787","0.0-7.0-1.0-1.0-0.0-1.17","4","4","4","3","4","4","3","4","4","4","5","5","4","4","5","5","4","5","5","4","1","1","2","2","1","2","1","1","2","0","0","1","1","0","0","0","1","0","1","1","0","1","0","0","5","1","2","2","1","3","4","5","2","2","759096644204761089","张","364","","","","","","","","","","","","","","","","","","","","","","","","","","","","","","feedback_test","","","","","","","","","",""
"642","","j","psychophysics","45","248431","0.0-7.0-1.0-1.0-0.0-0.18","4","4","4","3","4","4","3","4","4","4","5","5","4","4","5","5","4","5","5","4","1","1","2","2","1","2","1","1","2","0","0","1","1","0","0","0","1","0","1","1","0","1","0","0","5","1","2","2","1","3","4","5","2","2","759096644204761089","张","364","","","","nonmatch","","","","","","","","","","","","","","key","j","16.683540816326467","872.2727083667255","486.8181712666821","j","true","nonmatch","img/hexagon.png","方形","六边","ALT1_2","prac_ALT1_2","","","","","","","","","",""
"null","<span style='color:GreenYellow; font-size: 70px;'>正确! </span>","null","html-keyboard-response","46","248933","0.0-7.0-1.0-1.0-0.0-1.18","4","4","4","3","4","4","3","4","4","4","5","5","4","4","5","5","4","5","5","4","1","1","2","2","1","2","1","1","2","0","0","1","1","0","0","0","1","0","1","1","0","1","0","0","5","1","2","2","1","3","4","5","2","2","759096644204761089","张","364","","","","","","","","","","","","","","","","","","","","","","","","","","","","","","feedback_test","","","","","","","","","",""
"564","","f","psychophysics","47","250499","0.0-7.0-1.0-1.0-0.0-0.19","4","4","4","3","4","4","3","4","4","4","5","5","4","4","5","5","4","5","5","4","1","1","2","2","1","2","1","1","2","0","0","1","1","0","0","0","1","0","1","1","0","1","0","0","5","1","2","2","1","3","4","5","2","2","759096644204761089","张","364","","","","match","","","","","","","","","","","","","","key","f","16.683623655913873","872.2727083667255","486.8181712666821","f","true","match","img/ellipse.png","椭圆","椭圆","ALT1_2","prac_ALT1_2","","","","","","","","","",""
"null","<span style='color:GreenYellow; font-size: 70px;'>正确! </span>","null","html-keyboard-response","48","251000","0.0-7.0-1.0-1.0-0.0-1.19","4","4","4","3","4","4","3","4","4","4","5","5","4","4","5","5","4","5","5","4","1","1","2","2","1","2","1","1","2","0","0","1","1","0","0","0","1","0","1","1","0","1","0","0","5","1","2","2","1","3","4","5","2","2","759096644204761089","张","364","","","","","","","","","","","","","","","","","","","","","","","","","","","","","","feedback_test","","","","","","","","","",""
"587","","f","psychophysics","49","252589","0.0-7.0-1.0-1.0-0.0-0.20","4","4","4","3","4","4","3","4","4","4","5","5","4","4","5","5","4","5","5","4","1","1","2","2","1","2","1","1","2","0","0","1","1","0","0","0","1","0","1","1","0","1","0","0","5","1","2","2","1","3","4","5","2","2","759096644204761089","张","364","","","","match","","","","","","","","","","","","","","key","f","16.68362765957445","872.2727083667255","486.8181712666821","f","true","match","img/ellipse.png","椭圆","椭圆","ALT1_2","prac_ALT1_2","","","","","","","","","",""
"null","<span style='color:GreenYellow; font-size: 70px;'>正确! </span>","null","html-keyboard-response","50","253090","0.0-7.0-1.0-1.0-0.0-1.20","4","4","4","3","4","4","3","4","4","4","5","5","4","4","5","5","4","5","5","4","1","1","2","2","1","2","1","1","2","0","0","1","1","0","0","0","1","0","1","1","0","1","0","0","5","1","2","2","1","3","4","5","2","2","759096644204761089","张","364","","","","","","","","","","","","","","","","","","","","","","","","","","","","","","feedback_test","","","","","","","","","",""
"708","","f","psychophysics","51","254800","0.0-7.0-1.0-1.0-0.0-0.21","4","4","4","3","4","4","3","4","4","4","5","5","4","4","5","5","4","5","5","4","1","1","2","2","1","2","1","1","2","0","0","1","1","0","0","0","1","0","1","1","0","1","0","0","5","1","2","2","1","3","4","5","2","2","759096644204761089","张","364","","","","match","","","","","","","","","","","","","","key","f","16.683524752475464","872.2727083667255","486.8181712666821","f","true","match","img/square.png","方形","方形","ALT1_2","prac_ALT1_2","","","","","","","","","",""
"null","<span style='color:GreenYellow; font-size: 70px;'>正确! </span>","null","html-keyboard-response","52","255302","0.0-7.0-1.0-1.0-0.0-1.21","4","4","4","3","4","4","3","4","4","4","5","5","4","4","5","5","4","5","5","4","1","1","2","2","1","2","1","1","2","0","0","1","1","0","0","0","1","0","1","1","0","1","0","0","5","1","2","2","1","3","4","5","2","2","759096644204761089","张","364","","","","","","","","","","","","","","","","","","","","","","","","","","","","","","feedback_test","","","","","","","","","",""
"684","","f","psychophysics","53","256989","0.0-7.0-1.0-1.0-0.0-0.22","4","4","4","3","4","4","3","4","4","4","5","5","4","4","5","5","4","5","5","4","1","1","2","2","1","2","1","1","2","0","0","1","1","0","0","0","1","0","1","1","0","1","0","0","5","1","2","2","1","3","4","5","2","2","759096644204761089","张","364","","","","match","","","","","","","","","","","","","","key","f","16.68356999999989","872.2727083667255","486.8181712666821","f","true","match","img/hexagon.png","六边","六边","ALT1_2","prac_ALT1_2","","","","","","","","","",""
"null","<span style='color:GreenYellow; font-size: 70px;'>正确! </span>","null","html-keyboard-response","54","257490","0.0-7.0-1.0-1.0-0.0-1.22","4","4","4","3","4","4","3","4","4","4","5","5","4","4","5","5","4","5","5","4","1","1","2","2","1","2","1","1","2","0","0","1","1","0","0","0","1","0","1","1","0","1","0","0","5","1","2","2","1","3","4","5","2","2","759096644204761089","张","364","","","","","","","","","","","","","","","","","","","","","","","","","","","","","","feedback_test","","","","","","","","","",""
"704","","j","psychophysics","55","259196","0.0-7.0-1.0-1.0-0.0-0.23","4","4","4","3","4","4","3","4","4","4","5","5","4","4","5","5","4","5","5","4","1","1","2","2","1","2","1","1","2","0","0","1","1","0","0","0","1","0","1","1","0","1","0","0","5","1","2","2","1","3","4","5","2","2","759096644204761089","张","364","","","","nonmatch","","","","","","","","","","","","","","key","j","16.68354455445545","872.2727083667255","486.8181712666821","j","true","nonmatch","img/ellipse.png","方形","椭圆","ALT1_2","prac_ALT1_2","","","","","","","","","",""
"null","<span style='color:GreenYellow; font-size: 70px;'>正确! </span>","null","html-keyboard-response","56","259698","0.0-7.0-1.0-1.0-0.0-1.23","4","4","4","3","4","4","3","4","4","4","5","5","4","4","5","5","4","5","5","4","1","1","2","2","1","2","1","1","2","0","0","1","1","0","0","0","1","0","1","1","0","1","0","0","5","1","2","2","1","3","4","5","2","2","759096644204761089","张","364","","","","","","","","","","","","","","","","","","","","","","","","","","","","","","feedback_test","","","","","","","","","",""
"685","","j","psychophysics","57","261385","0.0-7.0-1.0-1.0-0.0-0.24","4","4","4","3","4","4","3","4","4","4","5","5","4","4","5","5","4","5","5","4","1","1","2","2","1","2","1","1","2","0","0","1","1","0","0","0","1","0","1","1","0","1","0","0","5","1","2","2","1","3","4","5","2","2","759096644204761089","张","364","","","","nonmatch","","","","","","","","","","","","","","key","j","16.683610000000044","872.2727083667255","486.8181712666821","j","true","nonmatch","img/trapezoid.png","方形","梯形","ALT1_2","prac_ALT1_2","","","","","","","","","",""
"null","<span style='color:GreenYellow; font-size: 70px;'>正确! </span>","null","html-keyboard-response","58","261886","0.0-7.0-1.0-1.0-0.0-1.24","4","4","4","3","4","4","3","4","4","4","5","5","4","4","5","5","4","5","5","4","1","1","2","2","1","2","1","1","2","0","0","1","1","0","0","0","1","0","1","1","0","1","0","0","5","1","2","2","1","3","4","5","2","2","759096644204761089","张","364","","","","","","","","","","","","","","","","","","","","","","","","","","","","","","feedback_test","","","","","","","","","",""
"749","","j","psychophysics","59","263637","0.0-7.0-1.0-1.0-0.0-0.25","4","4","4","3","4","4","3","4","4","4","5","5","4","4","5","5","4","5","5","4","1","1","2","2","1","2","1","1","2","0","0","1","1","0","0","0","1","0","1","1","0","1","0","0","5","1","2","2","1","3","4","5","2","2","759096644204761089","张","364","","","","nonmatch","","","","","","","","","","","","","","key","j","16.68359223300946","872.2727083667255","486.8181712666821","j","true","nonmatch","img/ellipse.png","六边","椭圆","ALT1_2","prac_ALT1_2","","","","","","","","","",""
"null","<span style='color:GreenYellow; font-size: 70px;'>正确! </span>","null","html-keyboard-response","60","264138","0.0-7.0-1.0-1.0-0.0-1.25","4","4","4","3","4","4","3","4","4","4","5","5","4","4","5","5","4","5","5","4","1","1","2","2","1","2","1","1","2","0","0","1","1","0","0","0","1","0","1","1","0","1","0","0","5","1","2","2","1","3","4","5","2","2","759096644204761089","张","364","","","","","","","","","","","","","","","","","","","","","","","","","","","","","","feedback_test","","","","","","","","","",""
"553","","j","psychophysics","61","265694","0.0-7.0-1.0-1.0-0.0-0.26","4","4","4","3","4","4","3","4","4","4","5","5","4","4","5","5","4","5","5","4","1","1","2","2","1","2","1","1","2","0","0","1","1","0","0","0","1","0","1","1","0","1","0","0","5","1","2","2","1","3","4","5","2","2","759096644204761089","张","364","","","","nonmatch","","","","","","","","","","","","","","key","j","16.68360439560486","872.2727083667255","486.8181712666821","j","true","nonmatch","img/square.png","梯形","方形","ALT1_2","prac_ALT1_2","","","","","","","","","",""
"null","<span style='color:GreenYellow; font-size: 70px;'>正确! </span>","null","html-keyboard-response","62","266195","0.0-7.0-1.0-1.0-0.0-1.26","4","4","4","3","4","4","3","4","4","4","5","5","4","4","5","5","4","5","5","4","1","1","2","2","1","2","1","1","2","0","0","1","1","0","0","0","1","0","1","1","0","1","0","0","5","1","2","2","1","3","4","5","2","2","759096644204761089","张","364","","","","","","","","","","","","","","","","","","","","","","","","","","","","","","feedback_test","","","","","","","","","",""
"643","","f","psychophysics","63","267839","0.0-7.0-1.0-1.0-0.0-0.27","4","4","4","3","4","4","3","4","4","4","5","5","4","4","5","5","4","5","5","4","1","1","2","2","1","2","1","1","2","0","0","1","1","0","0","0","1","0","1","1","0","1","0","0","5","1","2","2","1","3","4","5","2","2","759096644204761089","张","364","","","","match","","","","","","","","","","","","","","key","f","16.683546391752614","872.2727083667255","486.8181712666821","f","true","match","img/hexagon.png","六边","六边","ALT1_2","prac_ALT1_2","","","","","","","","","",""
"null","<span style='color:GreenYellow; font-size: 70px;'>正确! </span>","null","html-keyboard-response","64","268340","0.0-7.0-1.0-1.0-0.0-1.27","4","4","4","3","4","4","3","4","4","4","5","5","4","4","5","5","4","5","5","4","1","1","2","2","1","2","1","1","2","0","0","1","1","0","0","0","1","0","1","1","0","1","0","0","5","1","2","2","1","3","4","5","2","2","759096644204761089","张","364","","","","","","","","","","","","","","","","","","","","","","","","","","","","","","feedback_test","","","","","","","","","",""
"608","","j","psychophysics","65","269949","0.0-7.0-1.0-1.0-0.0-0.28","4","4","4","3","4","4","3","4","4","4","5","5","4","4","5","5","4","5","5","4","1","1","2","2","1","2","1","1","2","0","0","1","1","0","0","0","1","0","1","1","0","1","0","0","5","1","2","2","1","3","4","5","2","2","759096644204761089","张","364","","","","nonmatch","","","","","","","","","","","","","","key","j","16.68357291666689","872.2727083667255","486.8181712666821","j","true","nonmatch","img/trapezoid.png","六边","梯形","ALT1_2","prac_ALT1_2","","","","","","","","","",""
"null","<span style='color:GreenYellow; font-size: 70px;'>正确! </span>","null","html-keyboard-response","66","270450","0.0-7.0-1.0-1.0-0.0-1.28","4","4","4","3","4","4","3","4","4","4","5","5","4","4","5","5","4","5","5","4","1","1","2","2","1","2","1","1","2","0","0","1","1","0","0","0","1","0","1","1","0","1","0","0","5","1","2","2","1","3","4","5","2","2","759096644204761089","张","364","","","","","","","","","","","","","","","","","","","","","","","","","","","","","","feedback_test","","","","","","","","","",""
"584","","j","psychophysics","67","272037","0.0-7.0-1.0-1.0-0.0-0.29","4","4","4","3","4","4","3","4","4","4","5","5","4","4","5","5","4","5","5","4","1","1","2","2","1","2","1","1","2","0","0","1","1","0","0","0","1","0","1","1","0","1","0","0","5","1","2","2","1","3","4","5","2","2","759096644204761089","张","364","","","","nonmatch","","","","","","","","","","","","","","key","j","16.68353191489339","872.2727083667255","486.8181712666821","j","true","nonmatch","img/ellipse.png","方形","椭圆","ALT1_2","prac_ALT1_2","","","","","","","","","",""
"null","<span style='color:GreenYellow; font-size: 70px;'>正确! </span>","null","html-keyboard-response","68","272539","0.0-7.0-1.0-1.0-0.0-1.29","4","4","4","3","4","4","3","4","4","4","5","5","4","4","5","5","4","5","5","4","1","1","2","2","1","2","1","1","2","0","0","1","1","0","0","0","1","0","1","1","0","1","0","0","5","1","2","2","1","3","4","5","2","2","759096644204761089","张","364","","","","","","","","","","","","","","","","","","","","","","","","","","","","","","feedback_test","","","","","","","","","",""
"564","","j","psychophysics","69","274105","0.0-7.0-1.0-1.0-0.0-0.30","4","4","4","3","4","4","3","4","4","4","5","5","4","4","5","5","4","5","5","4","1","1","2","2","1","2","1","1","2","0","0","1","1","0","0","0","1","0","1","1","0","1","0","0","5","1","2","2","1","3","4","5","2","2","759096644204761089","张","364","","","","nonmatch","","","","","","","","","","","","","","key","j","16.68354838709685","872.2727083667255","486.8181712666821","f","false","match","img/hexagon.png","六边","六边","ALT1_2","prac_ALT1_2","","","","","","","","","",""
"null","<span style='color:red; font-size: 70px;'>错误! </span>","null","html-keyboard-response","70","274607","0.0-7.0-1.0-1.0-0.0-1.30","4","4","4","3","4","4","3","4","4","4","5","5","4","4","5","5","4","5","5","4","1","1","2","2","1","2","1","1","2","0","0","1","1","0","0","0","1","0","1","1","0","1","0","0","5","1","2","2","1","3","4","5","2","2","759096644204761089","张","364","","","","","","","","","","","","","","","","","","","","","","","","","","","","","","feedback_test","","","","","","","","","",""
"651","","j","psychophysics","71","276260","0.0-7.0-1.0-1.0-0.0-0.31","4","4","4","3","4","4","3","4","4","4","5","5","4","4","5","5","4","5","5","4","1","1","2","2","1","2","1","1","2","0","0","1","1","0","0","0","1","0","1","1","0","1","0","0","5","1","2","2","1","3","4","5","2","2","759096644204761089","张","364","","","","nonmatch","","","","","","","","","","","","","","key","j","16.683591836734973","872.2727083667255","486.8181712666821","j","true","nonmatch","img/hexagon.png","椭圆","六边","ALT1_2","prac_ALT1_2","","","","","","","","","",""
"null","<span style='color:GreenYellow; font-size: 70px;'>正确! </span>","null","html-keyboard-response","72","276762","0.0-7.0-1.0-1.0-0.0-1.31","4","4","4","3","4","4","3","4","4","4","5","5","4","4","5","5","4","5","5","4","1","1","2","2","1","2","1","1","2","0","0","1","1","0","0","0","1","0","1","1","0","1","0","0","5","1","2","2","1","3","4","5","2","2","759096644204761089","张","364","","","","","","","","","","","","","","","","","","","","","","","","","","","","","","feedback_test","","","","","","","","","",""
"729","","f","psychophysics","73","278493","0.0-7.0-1.0-1.0-0.0-0.32","4","4","4","3","4","4","3","4","4","4","5","5","4","4","5","5","4","5","5","4","1","1","2","2","1","2","1","1","2","0","0","1","1","0","0","0","1","0","1","1","0","1","0","0","5","1","2","2","1","3","4","5","2","2","759096644204761089","张","364","","","","match","","","","","","","","","","","","","","key","f","16.683543689320093","872.2727083667255","486.8181712666821","f","true","match","img/ellipse.png","椭圆","椭圆","ALT1_2","prac_ALT1_2","","","","","","","","","",""
"null","<span style='color:GreenYellow; font-size: 70px;'>正确! </span>","null","html-keyboard-response","74","278994","0.0-7.0-1.0-1.0-0.0-1.32","4","4","4","3","4","4","3","4","4","4","5","5","4","4","5","5","4","5","5","4","1","1","2","2","1","2","1","1","2","0","0","1","1","0","0","0","1","0","1","1","0","1","0","0","5","1","2","2","1","3","4","5","2","2","759096644204761089","张","364","","","","","","","","","","","","","","","","","","","","","","","","","","","","","","feedback_test","","","","","","","","","",""
"609","","j","psychophysics","75","280605","0.0-7.0-1.0-1.0-0.0-0.33","4","4","4","3","4","4","3","4","4","4","5","5","4","4","5","5","4","5","5","4","1","1","2","2","1","2","1","1","2","0","0","1","1","0","0","0","1","0","1","1","0","1","0","0","5","1","2","2","1","3","4","5","2","2","759096644204761089","张","364","","","","nonmatch","","","","","","","","","","","","","","key","j","16.683589473684123","872.2727083667255","486.8181712666821","f","false","match","img/trapezoid.png","梯形","梯形","ALT1_2","prac_ALT1_2","","","","","","","","","",""
"null","<span style='color:red; font-size: 70px;'>错误! </span>","null","html-keyboard-response","76","281107","0.0-7.0-1.0-1.0-0.0-1.33","4","4","4","3","4","4","3","4","4","4","5","5","4","4","5","5","4","5","5","4","1","1","2","2","1","2","1","1","2","0","0","1","1","0","0","0","1","0","1","1","0","1","0","0","5","1","2","2","1","3","4","5","2","2","759096644204761089","张","364","","","","","","","","","","","","","","","","","","","","","","","","","","","","","","feedback_test","","","","","","","","","",""
"785","","j","psychophysics","77","282893","0.0-7.0-1.0-1.0-0.0-0.34","4","4","4","3","4","4","3","4","4","4","5","5","4","4","5","5","4","5","5","4","1","1","2","2","1","2","1","1","2","0","0","1","1","0","0","0","1","0","1","1","0","1","0","0","5","1","2","2","1","3","4","5","2","2","759096644204761089","张","364","","","","nonmatch","","","","","","","","","","","","","","key","j","16.683561904761675","872.2727083667255","486.8181712666821","j","true","nonmatch","img/hexagon.png","方形","六边","ALT1_2","prac_ALT1_2","","","","","","","","","",""
"null","<span style='color:GreenYellow; font-size: 70px;'>正确! </span>","null","html-keyboard-response","78","283394","0.0-7.0-1.0-1.0-0.0-1.34","4","4","4","3","4","4","3","4","4","4","5","5","4","4","5","5","4","5","5","4","1","1","2","2","1","2","1","1","2","0","0","1","1","0","0","0","1","0","1","1","0","1","0","0","5","1","2","2","1","3","4","5","2","2","759096644204761089","张","364","","","","","","","","","","","","","","","","","","","","","","","","","","","","","","feedback_test","","","","","","","","","",""
"650","","f","psychophysics","79","285046","0.0-7.0-1.0-1.0-0.0-0.35","4","4","4","3","4","4","3","4","4","4","5","5","4","4","5","5","4","5","5","4","1","1","2","2","1","2","1","1","2","0","0","1","1","0","0","0","1","0","1","1","0","1","0","0","5","1","2","2","1","3","4","5","2","2","759096644204761089","张","364","","","","match","","","","","","","","","","","","","","key","f","16.683546391752614","872.2727083667255","486.8181712666821","f","true","match","img/square.png","方形","方形","ALT1_2","prac_ALT1_2","","","","","","","","","",""
"null","<span style='color:GreenYellow; font-size: 70px;'>正确! </span>","null","html-keyboard-response","80","285548","0.0-7.0-1.0-1.0-0.0-1.35","4","4","4","3","4","4","3","4","4","4","5","5","4","4","5","5","4","5","5","4","1","1","2","2","1","2","1","1","2","0","0","1","1","0","0","0","1","0","1","1","0","1","0","0","5","1","2","2","1","3","4","5","2","2","759096644204761089","张","364","","","","","","","","","","","","","","","","","","","","","","","","","","","","","","feedback_test","","","","","","","","","",""
"631","","j","psychophysics","81","287180","0.0-7.0-1.0-1.0-0.0-0.36","4","4","4","3","4","4","3","4","4","4","5","5","4","4","5","5","4","5","5","4","1","1","2","2","1","2","1","1","2","0","0","1","1","0","0","0","1","0","1","1","0","1","0","0","5","1","2","2","1","3","4","5","2","2","759096644204761089","张","364","","","","nonmatch","","","","","","","","","","","","","","key","j","16.683395833333634","872.2727083667255","486.8181712666821","j","true","nonmatch","img/trapezoid.png","椭圆","梯形","ALT1_2","prac_ALT1_2","","","","","","","","","",""
"null","<span style='color:GreenYellow; font-size: 70px;'>正确! </span>","null","html-keyboard-response","82","287681","0.0-7.0-1.0-1.0-0.0-1.36","4","4","4","3","4","4","3","4","4","4","5","5","4","4","5","5","4","5","5","4","1","1","2","2","1","2","1","1","2","0","0","1","1","0","0","0","1","0","1","1","0","1","0","0","5","1","2","2","1","3","4","5","2","2","759096644204761089","张","364","","","","","","","","","","","","","","","","","","","","","","","","","","","","","","feedback_test","","","","","","","","","",""
"609","","f","psychophysics","83","289292","0.0-7.0-1.0-1.0-0.0-0.37","4","4","4","3","4","4","3","4","4","4","5","5","4","4","5","5","4","5","5","4","1","1","2","2","1","2","1","1","2","0","0","1","1","0","0","0","1","0","1","1","0","1","0","0","5","1","2","2","1","3","4","5","2","2","759096644204761089","张","364","","","","match","","","","","","","","","","","","","","key","f","16.68360000000041","872.2727083667255","486.8181712666821","f","true","match","img/square.png","方形","方形","ALT1_2","prac_ALT1_2","","","","","","","","","",""
"null","<span style='color:GreenYellow; font-size: 70px;'>正确! </span>","null","html-keyboard-response","84","289794","0.0-7.0-1.0-1.0-0.0-1.37","4","4","4","3","4","4","3","4","4","4","5","5","4","4","5","5","4","5","5","4","1","1","2","2","1","2","1","1","2","0","0","1","1","0","0","0","1","0","1","1","0","1","0","0","5","1","2","2","1","3","4","5","2","2","759096644204761089","张","364","","","","","","","","","","","","","","","","","","","","","","","","","","","","","","feedback_test","","","","","","","","","",""
"651","","f","psychophysics","85","291447","0.0-7.0-1.0-1.0-0.0-0.38","4","4","4","3","4","4","3","4","4","4","5","5","4","4","5","5","4","5","5","4","1","1","2","2","1","2","1","1","2","0","0","1","1","0","0","0","1","0","1","1","0","1","0","0","5","1","2","2","1","3","4","5","2","2","759096644204761089","张","364","","","","match","","","","","","","","","","","","","","key","f","16.683540816326765","872.2727083667255","486.8181712666821","f","true","match","img/square.png","方形","方形","ALT1_2","prac_ALT1_2","","","","","","","","","",""
"null","<span style='color:GreenYellow; font-size: 70px;'>正确! </span>","null","html-keyboard-response","86","291949","0.0-7.0-1.0-1.0-0.0-1.38","4","4","4","3","4","4","3","4","4","4","5","5","4","4","5","5","4","5","5","4","1","1","2","2","1","2","1","1","2","0","0","1","1","0","0","0","1","0","1","1","0","1","0","0","5","1","2","2","1","3","4","5","2","2","759096644204761089","张","364","","","","","","","","","","","","","","","","","","","","","","","","","","","","","","feedback_test","","","","","","","","","",""
"695","","j","psychophysics","87","293646","0.0-7.0-1.0-1.0-0.0-0.39","4","4","4","3","4","4","3","4","4","4","5","5","4","4","5","5","4","5","5","4","1","1","2","2","1","2","1","1","2","0","0","1","1","0","0","0","1","0","1","1","0","1","0","0","5","1","2","2","1","3","4","5","2","2","759096644204761089","张","364","","","","nonmatch","","","","","","","","","","","","","","key","j","16.68357425742543","872.2727083667255","486.8181712666821","j","true","nonmatch","img/square.png","椭圆","方形","ALT1_2","prac_ALT1_2","","","","","","","","","",""
"null","<span style='color:GreenYellow; font-size: 70px;'>正确! </span>","null","html-keyboard-response","88","294147","0.0-7.0-1.0-1.0-0.0-1.39","4","4","4","3","4","4","3","4","4","4","5","5","4","4","5","5","4","5","5","4","1","1","2","2","1","2","1","1","2","0","0","1","1","0","0","0","1","0","1","1","0","1","0","0","5","1","2","2","1","3","4","5","2","2","759096644204761089","张","364","","","","","","","","","","","","","","","","","","","","","","","","","","","","","","feedback_test","","","","","","","","","",""
"630","","j","psychophysics","89","295780","0.0-7.0-1.0-1.0-0.0-0.40","4","4","4","3","4","4","3","4","4","4","5","5","4","4","5","5","4","5","5","4","1","1","2","2","1","2","1","1","2","0","0","1","1","0","0","0","1","0","1","1","0","1","0","0","5","1","2","2","1","3","4","5","2","2","759096644204761089","张","364","","","","nonmatch","","","","","","","","","","","","","","key","j","16.683515463917896","872.2727083667255","486.8181712666821","j","true","nonmatch","img/square.png","六边","方形","ALT1_2","prac_ALT1_2","","","","","","","","","",""
"null","<span style='color:GreenYellow; font-size: 70px;'>正确! </span>","null","html-keyboard-response","90","296281","0.0-7.0-1.0-1.0-0.0-1.40","4","4","4","3","4","4","3","4","4","4","5","5","4","4","5","5","4","5","5","4","1","1","2","2","1","2","1","1","2","0","0","1","1","0","0","0","1","0","1","1","0","1","0","0","5","1","2","2","1","3","4","5","2","2","759096644204761089","张","364","","","","","","","","","","","","","","","","","","","","","","","","","","","","","","feedback_test","","","","","","","","","",""
"631","","j","psychophysics","91","297913","0.0-7.0-1.0-1.0-0.0-0.41","4","4","4","3","4","4","3","4","4","4","5","5","4","4","5","5","4","5","5","4","1","1","2","2","1","2","1","1","2","0","0","1","1","0","0","0","1","0","1","1","0","1","0","0","5","1","2","2","1","3","4","5","2","2","759096644204761089","张","364","","","","nonmatch","","","","","","","","","","","","","","key","j","16.683587628866178","872.2727083667255","486.8181712666821","j","true","nonmatch","img/hexagon.png","梯形","六边","ALT1_2","prac_ALT1_2","","","","","","","","","",""
"null","<span style='color:GreenYellow; font-size: 70px;'>正确! </span>","null","html-keyboard-response","92","298416","0.0-7.0-1.0-1.0-0.0-1.41","4","4","4","3","4","4","3","4","4","4","5","5","4","4","5","5","4","5","5","4","1","1","2","2","1","2","1","1","2","0","0","1","1","0","0","0","1","0","1","1","0","1","0","0","5","1","2","2","1","3","4","5","2","2","759096644204761089","张","364","","","","","","","","","","","","","","","","","","","","","","","","","","","","","","feedback_test","","","","","","","","","",""
"628","","f","psychophysics","93","300045","0.0-7.0-1.0-1.0-0.0-0.42","4","4","4","3","4","4","3","4","4","4","5","5","4","4","5","5","4","5","5","4","1","1","2","2","1","2","1","1","2","0","0","1","1","0","0","0","1","0","1","1","0","1","0","0","5","1","2","2","1","3","4","5","2","2","759096644204761089","张","364","","","","match","","","","","","","","","","","","","","key","f","16.68355208333378","872.2727083667255","486.8181712666821","f","true","match","img/ellipse.png","椭圆","椭圆","ALT1_2","prac_ALT1_2","","","","","","","","","",""
"null","<span style='color:GreenYellow; font-size: 70px;'>正确! </span>","null","html-keyboard-response","94","300548","0.0-7.0-1.0-1.0-0.0-1.42","4","4","4","3","4","4","3","4","4","4","5","5","4","4","5","5","4","5","5","4","1","1","2","2","1","2","1","1","2","0","0","1","1","0","0","0","1","0","1","1","0","1","0","0","5","1","2","2","1","3","4","5","2","2","759096644204761089","张","364","","","","","","","","","","","","","","","","","","","","","","","","","","","","","","feedback_test","","","","","","","","","",""
"628","","j","psychophysics","95","302177","0.0-7.0-1.0-1.0-0.0-0.43","4","4","4","3","4","4","3","4","4","4","5","5","4","4","5","5","4","5","5","4","1","1","2","2","1","2","1","1","2","0","0","1","1","0","0","0","1","0","1","1","0","1","0","0","5","1","2","2","1","3","4","5","2","2","759096644204761089","张","364","","","","nonmatch","","","","","","","","","","","","","","key","j","16.683531250000062","872.2727083667255","486.8181712666821","j","true","nonmatch","img/ellipse.png","梯形","椭圆","ALT1_2","prac_ALT1_2","","","","","","","","","",""
"null","<span style='color:GreenYellow; font-size: 70px;'>正确! </span>","null","html-keyboard-response","96","302678","0.0-7.0-1.0-1.0-0.0-1.43","4","4","4","3","4","4","3","4","4","4","5","5","4","4","5","5","4","5","5","4","1","1","2","2","1","2","1","1","2","0","0","1","1","0","0","0","1","0","1","1","0","1","0","0","5","1","2","2","1","3","4","5","2","2","759096644204761089","张","364","","","","","","","","","","","","","","","","","","","","","","","","","","","","","","feedback_test","","","","","","","","","",""
"675","","f","psychophysics","97","304355","0.0-7.0-1.0-1.0-0.0-0.44","4","4","4","3","4","4","3","4","4","4","5","5","4","4","5","5","4","5","5","4","1","1","2","2","1","2","1","1","2","0","0","1","1","0","0","0","1","0","1","1","0","1","0","0","5","1","2","2","1","3","4","5","2","2","759096644204761089","张","364","","","","match","","","","","","","","","","","","","","key","f","16.68357575757575","872.2727083667255","486.8181712666821","f","true","match","img/hexagon.png","六边","六边","ALT1_2","prac_ALT1_2","","","","","","","","","",""
"null","<span style='color:GreenYellow; font-size: 70px;'>正确! </span>","null","html-keyboard-response","98","304857","0.0-7.0-1.0-1.0-0.0-1.44","4","4","4","3","4","4","3","4","4","4","5","5","4","4","5","5","4","5","5","4","1","1","2","2","1","2","1","1","2","0","0","1","1","0","0","0","1","0","1","1","0","1","0","0","5","1","2","2","1","3","4","5","2","2","759096644204761089","张","364","","","","","","","","","","","","","","","","","","","","","","","","","","","","","","feedback_test","","","","","","","","","",""
"597","","j","psychophysics","99","306456","0.0-7.0-1.0-1.0-0.0-0.45","4","4","4","3","4","4","3","4","4","4","5","5","4","4","5","5","4","5","5","4","1","1","2","2","1","2","1","1","2","0","0","1","1","0","0","0","1","0","1","1","0","1","0","0","5","1","2","2","1","3","4","5","2","2","759096644204761089","张","364","","","","nonmatch","","","","","","","","","","","","","","key","j","16.6835999999998","872.2727083667255","486.8181712666821","f","false","match","img/trapezoid.png","梯形","梯形","ALT1_2","prac_ALT1_2","","","","","","","","","",""
"null","<span style='color:red; font-size: 70px;'>错误! </span>","null","html-keyboard-response","100","306957","0.0-7.0-1.0-1.0-0.0-1.45","4","4","4","3","4","4","3","4","4","4","5","5","4","4","5","5","4","5","5","4","1","1","2","2","1","2","1","1","2","0","0","1","1","0","0","0","1","0","1","1","0","1","0","0","5","1","2","2","1","3","4","5","2","2","759096644204761089","张","364","","","","","","","","","","","","","","","","","","","","","","","","","","","","","","feedback_test","","","","","","","","","",""
"509","","f","psychophysics","101","308469","0.0-7.0-1.0-1.0-0.0-0.46","4","4","4","3","4","4","3","4","4","4","5","5","4","4","5","5","4","5","5","4","1","1","2","2","1","2","1","1","2","0","0","1","1","0","0","0","1","0","1","1","0","1","0","0","5","1","2","2","1","3","4","5","2","2","759096644204761089","张","364","","","","match","","","","","","","","","","","","","","key","f","16.68351685393306","872.2727083667255","486.8181712666821","f","true","match","img/trapezoid.png","梯形","梯形","ALT1_2","prac_ALT1_2","","","","","","","","","",""
"null","<span style='color:GreenYellow; font-size: 70px;'>正确! </span>","null","html-keyboard-response","102","308970","0.0-7.0-1.0-1.0-0.0-1.46","4","4","4","3","4","4","3","4","4","4","5","5","4","4","5","5","4","5","5","4","1","1","2","2","1","2","1","1","2","0","0","1","1","0","0","0","1","0","1","1","0","1","0","0","5","1","2","2","1","3","4","5","2","2","759096644204761089","张","364","","","","","","","","","","","","","","","","","","","","","","","","","","","","","","feedback_test","","","","","","","","","",""
"607","","f","psychophysics","103","310579","0.0-7.0-1.0-1.0-0.0-0.47","4","4","4","3","4","4","3","4","4","4","5","5","4","4","5","5","4","5","5","4","1","1","2","2","1","2","1","1","2","0","0","1","1","0","0","0","1","0","1","1","0","1","0","0","5","1","2","2","1","3","4","5","2","2","759096644204761089","张","364","","","","match","","","","","","","","","","","","","","key","f","16.683547368420804","872.2727083667255","486.8181712666821","f","true","match","img/ellipse.png","椭圆","椭圆","ALT1_2","prac_ALT1_2","","","","","","","","","",""
"null","<span style='color:GreenYellow; font-size: 70px;'>正确! </span>","null","html-keyboard-response","104","311080","0.0-7.0-1.0-1.0-0.0-1.47","4","4","4","3","4","4","3","4","4","4","5","5","4","4","5","5","4","5","5","4","1","1","2","2","1","2","1","1","2","0","0","1","1","0","0","0","1","0","1","1","0","1","0","0","5","1","2","2","1","3","4","5","2","2","759096644204761089","张","364","","","","","","","","","","","","","","","","","","","","","","","","","","","","","","feedback_test","","","","","","","","","",""
"11337","<style>.context{color:white; font-size: 35px; line-height:40px}</style>                          <div><p class='context'>您正确回答了94% 的试次。</p><p class='context'>您的平均反应时为656毫秒。</p><p class='context'>恭喜您完成练习。按空格键进入正式实验。</p><p class='footer' style='font-size: 35px; line-height:40px;'>请在进入正式实验实验之前将您的<span style='color: lightgreen;'>食指</span>放在电脑键盘的相应键位上进行按键。</p>"," ","html-keyboard-response","105","322420","0.0-7.0-1.0-2.0","4","4","4","3","4","4","3","4","4","4","5","5","4","4","5","5","4","5","5","4","1","1","2","2","1","2","1","1","2","0","0","1","1","0","0","0","1","0","1","1","0","1","0","0","5","1","2","2","1","3","4","5","2","2","759096644204761089","张","364","","","","","","","","","","","","","","","","","","","","","","","","","","","","","","","","","","","","","","","",""
"1113","
  <p style='color: white; font-size: 22px'>请您将手指放在按键上，准备进入正式的匹配任务。</p>
  <p> <div style = ""color: green""><按空格键进入下一阶段的匹配任务></div></p>
  "," ","html-keyboard-response","106","323542","0.0-7.0-1.0-3.0","4","4","4","3","4","4","3","4","4","4","5","5","4","4","5","5","4","5","5","4","1","1","2","2","1","2","1","1","2","0","0","1","1","0","0","0","1","0","1","1","0","1","0","0","5","1","2","2","1","3","4","5","2","2","759096644204761089","张","364","","","","","","","","","","","","","","","","","","","","","","","","","","","","","","","","","","","","","","","",""
"1163","","j","psychophysics","107","325707","0.0-7.0-1.0-4.0-0.0-0.0","4","4","4","3","4","4","3","4","4","4","5","5","4","4","5","5","4","5","5","4","1","1","2","2","1","2","1","1","2","0","0","1","1","0","0","0","1","0","1","1","0","1","0","0","5","1","2","2","1","3","4","5","2","2","759096644204761089","张","364","","","","nonmatch","","","","","","","","","","","","","","key","j","16.685720930232435","872.2727083667255","486.8181712666821","j","true","nonmatch","img/ellipse.png","方形","椭圆","ALT1","formal_ALT1_2","","","","","","","","","",""
"null","<span style='color:GreenYellow; font-size: 70px;'>正确! </span>","null","html-keyboard-response","108","326209","0.0-7.0-1.0-4.0-0.0-1.0","4","4","4","3","4","4","3","4","4","4","5","5","4","4","5","5","4","5","5","4","1","1","2","2","1","2","1","1","2","0","0","1","1","0","0","0","1","0","1","1","0","1","0","0","5","1","2","2","1","3","4","5","2","2","759096644204761089","张","364","","","","","","","","","","","","","","","","","","","","","","","","","","","","","","feedback_test","","","","","","","","","",""
"664","","f","psychophysics","109","327874","0.0-7.0-1.0-4.0-0.0-0.1","4","4","4","3","4","4","3","4","4","4","5","5","4","4","5","5","4","5","5","4","1","1","2","2","1","2","1","1","2","0","0","1","1","0","0","0","1","0","1","1","0","1","0","0","5","1","2","2","1","3","4","5","2","2","759096644204761089","张","364","","","","match","","","","","","","","","","","","","","key","f","16.68349494949463","872.2727083667255","486.8181712666821","f","true","match","img/trapezoid.png","梯形","梯形","ALT1","formal_ALT1_2","","","","","","","","","",""
"null","<span style='color:GreenYellow; font-size: 70px;'>正确! </span>","null","html-keyboard-response","110","328375","0.0-7.0-1.0-4.0-0.0-1.1","4","4","4","3","4","4","3","4","4","4","5","5","4","4","5","5","4","5","5","4","1","1","2","2","1","2","1","1","2","0","0","1","1","0","0","0","1","0","1","1","0","1","0","0","5","1","2","2","1","3","4","5","2","2","759096644204761089","张","364","","","","","","","","","","","","","","","","","","","","","","","","","","","","","","feedback_test","","","","","","","","","",""
"675","","j","psychophysics","111","330052","0.0-7.0-1.0-4.0-0.0-0.2","4","4","4","3","4","4","3","4","4","4","5","5","4","4","5","5","4","5","5","4","1","1","2","2","1","2","1","1","2","0","0","1","1","0","0","0","1","0","1","1","0","1","0","0","5","1","2","2","1","3","4","5","2","2","759096644204761089","张","364","","","","nonmatch","","","","","","","","","","","","","","key","j","16.683515151515202","872.2727083667255","486.8181712666821","j","true","nonmatch","img/trapezoid.png","六边","梯形","ALT1","formal_ALT1_2","","","","","","","","","",""
"null","<span style='color:GreenYellow; font-size: 70px;'>正确! </span>","null","html-keyboard-response","112","330553","0.0-7.0-1.0-4.0-0.0-1.2","4","4","4","3","4","4","3","4","4","4","5","5","4","4","5","5","4","5","5","4","1","1","2","2","1","2","1","1","2","0","0","1","1","0","0","0","1","0","1","1","0","1","0","0","5","1","2","2","1","3","4","5","2","2","759096644204761089","张","364","","","","","","","","","","","","","","","","","","","","","","","","","","","","","","feedback_test","","","","","","","","","",""
"587","","j","psychophysics","113","332142","0.0-7.0-1.0-4.0-0.0-0.3","4","4","4","3","4","4","3","4","4","4","5","5","4","4","5","5","4","5","5","4","1","1","2","2","1","2","1","1","2","0","0","1","1","0","0","0","1","0","1","1","0","1","0","0","5","1","2","2","1","3","4","5","2","2","759096644204761089","张","364","","","","nonmatch","","","","","","","","","","","","","","key","j","16.68352127659563","872.2727083667255","486.8181712666821","j","true","nonmatch","img/square.png","椭圆","方形","ALT1","formal_ALT1_2","","","","","","","","","",""
"null","<span style='color:GreenYellow; font-size: 70px;'>正确! </span>","null","html-keyboard-response","114","332643","0.0-7.0-1.0-4.0-0.0-1.3","4","4","4","3","4","4","3","4","4","4","5","5","4","4","5","5","4","5","5","4","1","1","2","2","1","2","1","1","2","0","0","1","1","0","0","0","1","0","1","1","0","1","0","0","5","1","2","2","1","3","4","5","2","2","759096644204761089","张","364","","","","","","","","","","","","","","","","","","","","","","","","","","","","","","feedback_test","","","","","","","","","",""
"586","","j","psychophysics","115","334232","0.0-7.0-1.0-4.0-0.0-0.4","4","4","4","3","4","4","3","4","4","4","5","5","4","4","5","5","4","5","5","4","1","1","2","2","1","2","1","1","2","0","0","1","1","0","0","0","1","0","1","1","0","1","0","0","5","1","2","2","1","3","4","5","2","2","759096644204761089","张","364","","","","nonmatch","","","","","","","","","","","","","","key","j","16.683617021276696","872.2727083667255","486.8181712666821","j","true","nonmatch","img/hexagon.png","椭圆","六边","ALT1","formal_ALT1_2","","","","","","","","","",""
"null","<span style='color:GreenYellow; font-size: 70px;'>正确! </span>","null","html-keyboard-response","116","334733","0.0-7.0-1.0-4.0-0.0-1.4","4","4","4","3","4","4","3","4","4","4","5","5","4","4","5","5","4","5","5","4","1","1","2","2","1","2","1","1","2","0","0","1","1","0","0","0","1","0","1","1","0","1","0","0","5","1","2","2","1","3","4","5","2","2","759096644204761089","张","364","","","","","","","","","","","","","","","","","","","","","","","","","","","","","","feedback_test","","","","","","","","","",""
"631","","j","psychophysics","117","336366","0.0-7.0-1.0-4.0-0.0-0.5","4","4","4","3","4","4","3","4","4","4","5","5","4","4","5","5","4","5","5","4","1","1","2","2","1","2","1","1","2","0","0","1","1","0","0","0","1","0","1","1","0","1","0","0","5","1","2","2","1","3","4","5","2","2","759096644204761089","张","364","","","","nonmatch","","","","","","","","","","","","","","key","j","16.683505154639054","872.2727083667255","486.8181712666821","f","false","match","img/hexagon.png","六边","六边","ALT1","formal_ALT1_2","","","","","","","","","",""
"null","<span style='color:red; font-size: 70px;'>错误! </span>","null","html-keyboard-response","118","336868","0.0-7.0-1.0-4.0-0.0-1.5","4","4","4","3","4","4","3","4","4","4","5","5","4","4","5","5","4","5","5","4","1","1","2","2","1","2","1","1","2","0","0","1","1","0","0","0","1","0","1","1","0","1","0","0","5","1","2","2","1","3","4","5","2","2","759096644204761089","张","364","","","","","","","","","","","","","","","","","","","","","","","","","","","","","","feedback_test","","","","","","","","","",""
"859","","f","psychophysics","119","338729","0.0-7.0-1.0-4.0-0.0-0.6","4","4","4","3","4","4","3","4","4","4","5","5","4","4","5","5","4","5","5","4","1","1","2","2","1","2","1","1","2","0","0","1","1","0","0","0","1","0","1","1","0","1","0","0","5","1","2","2","1","3","4","5","2","2","759096644204761089","张","364","","","","match","","","","","","","","","","","","","","key","f","16.68352727272749","872.2727083667255","486.8181712666821","j","false","nonmatch","img/trapezoid.png","方形","梯形","ALT1","formal_ALT1_2","","","","","","","","","",""
"null","<span style='color:red; font-size: 70px;'>错误! </span>","null","html-keyboard-response","120","339230","0.0-7.0-1.0-4.0-0.0-1.6","4","4","4","3","4","4","3","4","4","4","5","5","4","4","5","5","4","5","5","4","1","1","2","2","1","2","1","1","2","0","0","1","1","0","0","0","1","0","1","1","0","1","0","0","5","1","2","2","1","3","4","5","2","2","759096644204761089","张","364","","","","","","","","","","","","","","","","","","","","","","","","","","","","","","feedback_test","","","","","","","","","",""
"584","","f","psychophysics","121","340817","0.0-7.0-1.0-4.0-0.0-0.7","4","4","4","3","4","4","3","4","4","4","5","5","4","4","5","5","4","5","5","4","1","1","2","2","1","2","1","1","2","0","0","1","1","0","0","0","1","0","1","1","0","1","0","0","5","1","2","2","1","3","4","5","2","2","759096644204761089","张","364","","","","match","","","","","","","","","","","","","","key","f","16.683612903225818","872.2727083667255","486.8181712666821","f","true","match","img/square.png","方形","方形","ALT1","formal_ALT1_2","","","","","","","","","",""
"null","<span style='color:GreenYellow; font-size: 70px;'>正确! </span>","null","html-keyboard-response","122","341318","0.0-7.0-1.0-4.0-0.0-1.7","4","4","4","3","4","4","3","4","4","4","5","5","4","4","5","5","4","5","5","4","1","1","2","2","1","2","1","1","2","0","0","1","1","0","0","0","1","0","1","1","0","1","0","0","5","1","2","2","1","3","4","5","2","2","759096644204761089","张","364","","","","","","","","","","","","","","","","","","","","","","","","","","","","","","feedback_test","","","","","","","","","",""
"661","","f","psychophysics","123","342981","0.0-7.0-1.0-4.0-0.0-0.8","4","4","4","3","4","4","3","4","4","4","5","5","4","4","5","5","4","5","5","4","1","1","2","2","1","2","1","1","2","0","0","1","1","0","0","0","1","0","1","1","0","1","0","0","5","1","2","2","1","3","4","5","2","2","759096644204761089","张","364","","","","match","","","","","","","","","","","","","","key","f","16.683602040815902","872.2727083667255","486.8181712666821","f","true","match","img/square.png","方形","方形","ALT1","formal_ALT1_2","","","","","","","","","",""
"null","<span style='color:GreenYellow; font-size: 70px;'>正确! </span>","null","html-keyboard-response","124","343483","0.0-7.0-1.0-4.0-0.0-1.8","4","4","4","3","4","4","3","4","4","4","5","5","4","4","5","5","4","5","5","4","1","1","2","2","1","2","1","1","2","0","0","1","1","0","0","0","1","0","1","1","0","1","0","0","5","1","2","2","1","3","4","5","2","2","759096644204761089","张","364","","","","","","","","","","","","","","","","","","","","","","","","","","","","","","feedback_test","","","","","","","","","",""
"543","","f","psychophysics","125","345027","0.0-7.0-1.0-4.0-0.0-0.9","4","4","4","3","4","4","3","4","4","4","5","5","4","4","5","5","4","5","5","4","1","1","2","2","1","2","1","1","2","0","0","1","1","0","0","0","1","0","1","1","0","1","0","0","5","1","2","2","1","3","4","5","2","2","759096644204761089","张","364","","","","match","","","","","","","","","","","","","","key","f","16.68358695652189","872.2727083667255","486.8181712666821","f","true","match","img/square.png","方形","方形","ALT1","formal_ALT1_2","","","","","","","","","",""
"null","<span style='color:GreenYellow; font-size: 70px;'>正确! </span>","null","html-keyboard-response","126","345529","0.0-7.0-1.0-4.0-0.0-1.9","4","4","4","3","4","4","3","4","4","4","5","5","4","4","5","5","4","5","5","4","1","1","2","2","1","2","1","1","2","0","0","1","1","0","0","0","1","0","1","1","0","1","0","0","5","1","2","2","1","3","4","5","2","2","759096644204761089","张","364","","","","","","","","","","","","","","","","","","","","","","","","","","","","","","feedback_test","","","","","","","","","",""
"587","","j","psychophysics","127","347117","0.0-7.0-1.0-4.0-0.0-0.10","4","4","4","3","4","4","3","4","4","4","5","5","4","4","5","5","4","5","5","4","1","1","2","2","1","2","1","1","2","0","0","1","1","0","0","0","1","0","1","1","0","1","0","0","5","1","2","2","1","3","4","5","2","2","759096644204761089","张","364","","","","nonmatch","","","","","","","","","","","","","","key","j","16.683553191488905","872.2727083667255","486.8181712666821","j","true","nonmatch","img/square.png","六边","方形","ALT1","formal_ALT1_2","","","","","","","","","",""
"null","<span style='color:GreenYellow; font-size: 70px;'>正确! </span>","null","html-keyboard-response","128","347619","0.0-7.0-1.0-4.0-0.0-1.10","4","4","4","3","4","4","3","4","4","4","5","5","4","4","5","5","4","5","5","4","1","1","2","2","1","2","1","1","2","0","0","1","1","0","0","0","1","0","1","1","0","1","0","0","5","1","2","2","1","3","4","5","2","2","759096644204761089","张","364","","","","","","","","","","","","","","","","","","","","","","","","","","","","","","feedback_test","","","","","","","","","",""
"606","","f","psychophysics","129","349227","0.0-7.0-1.0-4.0-0.0-0.11","4","4","4","3","4","4","3","4","4","4","5","5","4","4","5","5","4","5","5","4","1","1","2","2","1","2","1","1","2","0","0","1","1","0","0","0","1","0","1","1","0","1","0","0","5","1","2","2","1","3","4","5","2","2","759096644204761089","张","364","","","","match","","","","","","","","","","","","","","key","f","16.683494736841805","872.2727083667255","486.8181712666821","f","true","match","img/trapezoid.png","梯形","梯形","ALT1","formal_ALT1_2","","","","","","","","","",""
"null","<span style='color:GreenYellow; font-size: 70px;'>正确! </span>","null","html-keyboard-response","130","349728","0.0-7.0-1.0-4.0-0.0-1.11","4","4","4","3","4","4","3","4","4","4","5","5","4","4","5","5","4","5","5","4","1","1","2","2","1","2","1","1","2","0","0","1","1","0","0","0","1","0","1","1","0","1","0","0","5","1","2","2","1","3","4","5","2","2","759096644204761089","张","364","","","","","","","","","","","","","","","","","","","","","","","","","","","","","","feedback_test","","","","","","","","","",""
"595","","j","psychophysics","131","351325","0.0-7.0-1.0-4.0-0.0-0.12","4","4","4","3","4","4","3","4","4","4","5","5","4","4","5","5","4","5","5","4","1","1","2","2","1","2","1","1","2","0","0","1","1","0","0","0","1","0","1","1","0","1","0","0","5","1","2","2","1","3","4","5","2","2","759096644204761089","张","364","","","","nonmatch","","","","","","","","","","","","","","key","j","16.683542553191767","872.2727083667255","486.8181712666821","j","true","nonmatch","img/trapezoid.png","椭圆","梯形","ALT1","formal_ALT1_2","","","","","","","","","",""
"null","<span style='color:GreenYellow; font-size: 70px;'>正确! </span>","null","html-keyboard-response","132","351826","0.0-7.0-1.0-4.0-0.0-1.12","4","4","4","3","4","4","3","4","4","4","5","5","4","4","5","5","4","5","5","4","1","1","2","2","1","2","1","1","2","0","0","1","1","0","0","0","1","0","1","1","0","1","0","0","5","1","2","2","1","3","4","5","2","2","759096644204761089","张","364","","","","","","","","","","","","","","","","","","","","","","","","","","","","","","feedback_test","","","","","","","","","",""
"673","","j","psychophysics","133","353501","0.0-7.0-1.0-4.0-0.0-0.13","4","4","4","3","4","4","3","4","4","4","5","5","4","4","5","5","4","5","5","4","1","1","2","2","1","2","1","1","2","0","0","1","1","0","0","0","1","0","1","1","0","1","0","0","5","1","2","2","1","3","4","5","2","2","759096644204761089","张","364","","","","nonmatch","","","","","","","","","","","","","","key","j","16.683555555555763","872.2727083667255","486.8181712666821","j","true","nonmatch","img/ellipse.png","梯形","椭圆","ALT1","formal_ALT1_2","","","","","","","","","",""
"null","<span style='color:GreenYellow; font-size: 70px;'>正确! </span>","null","html-keyboard-response","134","354002","0.0-7.0-1.0-4.0-0.0-1.13","4","4","4","3","4","4","3","4","4","4","5","5","4","4","5","5","4","5","5","4","1","1","2","2","1","2","1","1","2","0","0","1","1","0","0","0","1","0","1","1","0","1","0","0","5","1","2","2","1","3","4","5","2","2","759096644204761089","张","364","","","","","","","","","","","","","","","","","","","","","","","","","","","","","","feedback_test","","","","","","","","","",""
"641","","f","psychophysics","135","355644","0.0-7.0-1.0-4.0-0.0-0.14","4","4","4","3","4","4","3","4","4","4","5","5","4","4","5","5","4","5","5","4","1","1","2","2","1","2","1","1","2","0","0","1","1","0","0","0","1","0","1","1","0","1","0","0","5","1","2","2","1","3","4","5","2","2","759096644204761089","张","364","","","","match","","","","","","","","","","","","","","key","f","16.683567010309098","872.2727083667255","486.8181712666821","f","true","match","img/hexagon.png","六边","六边","ALT1","formal_ALT1_2","","","","","","","","","",""
"null","<span style='color:GreenYellow; font-size: 70px;'>正确! </span>","null","html-keyboard-response","136","356146","0.0-7.0-1.0-4.0-0.0-1.14","4","4","4","3","4","4","3","4","4","4","5","5","4","4","5","5","4","5","5","4","1","1","2","2","1","2","1","1","2","0","0","1","1","0","0","0","1","0","1","1","0","1","0","0","5","1","2","2","1","3","4","5","2","2","759096644204761089","张","364","","","","","","","","","","","","","","","","","","","","","","","","","","","","","","feedback_test","","","","","","","","","",""
"607","","j","psychophysics","137","357755","0.0-7.0-1.0-4.0-0.0-0.15","4","4","4","3","4","4","3","4","4","4","5","5","4","4","5","5","4","5","5","4","1","1","2","2","1","2","1","1","2","0","0","1","1","0","0","0","1","0","1","1","0","1","0","0","5","1","2","2","1","3","4","5","2","2","759096644204761089","张","364","","","","nonmatch","","","","","","","","","","","","","","key","j","16.683520833332903","872.2727083667255","486.8181712666821","j","true","nonmatch","img/square.png","梯形","方形","ALT1","formal_ALT1_2","","","","","","","","","",""
"null","<span style='color:GreenYellow; font-size: 70px;'>正确! </span>","null","html-keyboard-response","138","358256","0.0-7.0-1.0-4.0-0.0-1.15","4","4","4","3","4","4","3","4","4","4","5","5","4","4","5","5","4","5","5","4","1","1","2","2","1","2","1","1","2","0","0","1","1","0","0","0","1","0","1","1","0","1","0","0","5","1","2","2","1","3","4","5","2","2","759096644204761089","张","364","","","","","","","","","","","","","","","","","","","","","","","","","","","","","","feedback_test","","","","","","","","","",""
"642","","f","psychophysics","139","359900","0.0-7.0-1.0-4.0-0.0-0.16","4","4","4","3","4","4","3","4","4","4","5","5","4","4","5","5","4","5","5","4","1","1","2","2","1","2","1","1","2","0","0","1","1","0","0","0","1","0","1","1","0","1","0","0","5","1","2","2","1","3","4","5","2","2","759096644204761089","张","364","","","","match","","","","","","","","","","","","","","key","f","16.683474226803735","872.2727083667255","486.8181712666821","f","true","match","img/ellipse.png","椭圆","椭圆","ALT1","formal_ALT1_2","","","","","","","","","",""
"null","<span style='color:GreenYellow; font-size: 70px;'>正确! </span>","null","html-keyboard-response","140","360403","0.0-7.0-1.0-4.0-0.0-1.16","4","4","4","3","4","4","3","4","4","4","5","5","4","4","5","5","4","5","5","4","1","1","2","2","1","2","1","1","2","0","0","1","1","0","0","0","1","0","1","1","0","1","0","0","5","1","2","2","1","3","4","5","2","2","759096644204761089","张","364","","","","","","","","","","","","","","","","","","","","","","","","","","","","","","feedback_test","","","","","","","","","",""
"574","","f","psychophysics","141","361978","0.0-7.0-1.0-4.0-0.0-0.17","4","4","4","3","4","4","3","4","4","4","5","5","4","4","5","5","4","5","5","4","1","1","2","2","1","2","1","1","2","0","0","1","1","0","0","0","1","0","1","1","0","1","0","0","5","1","2","2","1","3","4","5","2","2","759096644204761089","张","364","","","","match","","","","","","","","","","","","","","key","f","16.68365591397867","872.2727083667255","486.8181712666821","f","true","match","img/ellipse.png","椭圆","椭圆","ALT1","formal_ALT1_2","","","","","","","","","",""
"null","<span style='color:GreenYellow; font-size: 70px;'>正确! </span>","null","html-keyboard-response","142","362480","0.0-7.0-1.0-4.0-0.0-1.17","4","4","4","3","4","4","3","4","4","4","5","5","4","4","5","5","4","5","5","4","1","1","2","2","1","2","1","1","2","0","0","1","1","0","0","0","1","0","1","1","0","1","0","0","5","1","2","2","1","3","4","5","2","2","759096644204761089","张","364","","","","","","","","","","","","","","","","","","","","","","","","","","","","","","feedback_test","","","","","","","","","",""
"617","","j","psychophysics","143","364099","0.0-7.0-1.0-4.0-0.0-0.18","4","4","4","3","4","4","3","4","4","4","5","5","4","4","5","5","4","5","5","4","1","1","2","2","1","2","1","1","2","0","0","1","1","0","0","0","1","0","1","1","0","1","0","0","5","1","2","2","1","3","4","5","2","2","759096644204761089","张","364","","","","nonmatch","","","","","","","","","","","","","","key","j","16.683562499999727","872.2727083667255","486.8181712666821","j","true","nonmatch","img/hexagon.png","方形","六边","ALT1","formal_ALT1_2","","","","","","","","","",""
"null","<span style='color:GreenYellow; font-size: 70px;'>正确! </span>","null","html-keyboard-response","144","364599","0.0-7.0-1.0-4.0-0.0-1.18","4","4","4","3","4","4","3","4","4","4","5","5","4","4","5","5","4","5","5","4","1","1","2","2","1","2","1","1","2","0","0","1","1","0","0","0","1","0","1","1","0","1","0","0","5","1","2","2","1","3","4","5","2","2","759096644204761089","张","364","","","","","","","","","","","","","","","","","","","","","","","","","","","","","","feedback_test","","","","","","","","","",""
"716","","f","psychophysics","145","366317","0.0-7.0-1.0-4.0-0.0-0.19","4","4","4","3","4","4","3","4","4","4","5","5","4","4","5","5","4","5","5","4","1","1","2","2","1","2","1","1","2","0","0","1","1","0","0","0","1","0","1","1","0","1","0","0","5","1","2","2","1","3","4","5","2","2","759096644204761089","张","364","","","","match","","","","","","","","","","","","","","key","f","16.683480392157115","872.2727083667255","486.8181712666821","f","true","match","img/trapezoid.png","梯形","梯形","ALT1","formal_ALT1_2","","","","","","","","","",""
"null","<span style='color:GreenYellow; font-size: 70px;'>正确! </span>","null","html-keyboard-response","146","366818","0.0-7.0-1.0-4.0-0.0-1.19","4","4","4","3","4","4","3","4","4","4","5","5","4","4","5","5","4","5","5","4","1","1","2","2","1","2","1","1","2","0","0","1","1","0","0","0","1","0","1","1","0","1","0","0","5","1","2","2","1","3","4","5","2","2","759096644204761089","张","364","","","","","","","","","","","","","","","","","","","","","","","","","","","","","","feedback_test","","","","","","","","","",""
"663","","j","psychophysics","147","368484","0.0-7.0-1.0-4.0-0.0-0.20","4","4","4","3","4","4","3","4","4","4","5","5","4","4","5","5","4","5","5","4","1","1","2","2","1","2","1","1","2","0","0","1","1","0","0","0","1","0","1","1","0","1","0","0","5","1","2","2","1","3","4","5","2","2","759096644204761089","张","364","","","","nonmatch","","","","","","","","","","","","","","key","j","16.683646464646873","872.2727083667255","486.8181712666821","j","true","nonmatch","img/hexagon.png","梯形","六边","ALT1","formal_ALT1_2","","","","","","","","","",""
"null","<span style='color:GreenYellow; font-size: 70px;'>正确! </span>","null","html-keyboard-response","148","368985","0.0-7.0-1.0-4.0-0.0-1.20","4","4","4","3","4","4","3","4","4","4","5","5","4","4","5","5","4","5","5","4","1","1","2","2","1","2","1","1","2","0","0","1","1","0","0","0","1","0","1","1","0","1","0","0","5","1","2","2","1","3","4","5","2","2","759096644204761089","张","364","","","","","","","","","","","","","","","","","","","","","","","","","","","","","","feedback_test","","","","","","","","","",""
"958","","f","psychophysics","149","370946","0.0-7.0-1.0-4.0-0.0-0.21","4","4","4","3","4","4","3","4","4","4","5","5","4","4","5","5","4","5","5","4","1","1","2","2","1","2","1","1","2","0","0","1","1","0","0","0","1","0","1","1","0","1","0","0","5","1","2","2","1","3","4","5","2","2","759096644204761089","张","364","","","","match","","","","","","","","","","","","","","key","f","16.68350862068975","872.2727083667255","486.8181712666821","f","true","match","img/hexagon.png","六边","六边","ALT1","formal_ALT1_2","","","","","","","","","",""
"null","<span style='color:GreenYellow; font-size: 70px;'>正确! </span>","null","html-keyboard-response","150","371447","0.0-7.0-1.0-4.0-0.0-1.21","4","4","4","3","4","4","3","4","4","4","5","5","4","4","5","5","4","5","5","4","1","1","2","2","1","2","1","1","2","0","0","1","1","0","0","0","1","0","1","1","0","1","0","0","5","1","2","2","1","3","4","5","2","2","759096644204761089","张","364","","","","","","","","","","","","","","","","","","","","","","","","","","","","","","feedback_test","","","","","","","","","",""
"671","","j","psychophysics","151","373121","0.0-7.0-1.0-4.0-0.0-0.22","4","4","4","3","4","4","3","4","4","4","5","5","4","4","5","5","4","5","5","4","1","1","2","2","1","2","1","1","2","0","0","1","1","0","0","0","1","0","1","1","0","1","0","0","5","1","2","2","1","3","4","5","2","2","759096644204761089","张","364","","","","nonmatch","","","","","","","","","","","","","","key","j","16.683555555555174","872.2727083667255","486.8181712666821","j","true","nonmatch","img/ellipse.png","六边","椭圆","ALT1","formal_ALT1_2","","","","","","","","","",""
"null","<span style='color:GreenYellow; font-size: 70px;'>正确! </span>","null","html-keyboard-response","152","373623","0.0-7.0-1.0-4.0-0.0-1.22","4","4","4","3","4","4","3","4","4","4","5","5","4","4","5","5","4","5","5","4","1","1","2","2","1","2","1","1","2","0","0","1","1","0","0","0","1","0","1","1","0","1","0","0","5","1","2","2","1","3","4","5","2","2","759096644204761089","张","364","","","","","","","","","","","","","","","","","","","","","","","","","","","","","","feedback_test","","","","","","","","","",""
"729","","f","psychophysics","153","375354","0.0-7.0-1.0-4.0-0.0-0.23","4","4","4","3","4","4","3","4","4","4","5","5","4","4","5","5","4","5","5","4","1","1","2","2","1","2","1","1","2","0","0","1","1","0","0","0","1","0","1","1","0","1","0","0","5","1","2","2","1","3","4","5","2","2","759096644204761089","张","364","","","","match","","","","","","","","","","","","","","key","f","16.683529411765004","872.2727083667255","486.8181712666821","f","true","match","img/ellipse.png","椭圆","椭圆","ALT1","formal_ALT1_2","","","","","","","","","",""
"null","<span style='color:GreenYellow; font-size: 70px;'>正确! </span>","null","html-keyboard-response","154","375855","0.0-7.0-1.0-4.0-0.0-1.23","4","4","4","3","4","4","3","4","4","4","5","5","4","4","5","5","4","5","5","4","1","1","2","2","1","2","1","1","2","0","0","1","1","0","0","0","1","0","1","1","0","1","0","0","5","1","2","2","1","3","4","5","2","2","759096644204761089","张","364","","","","","","","","","","","","","","","","","","","","","","","","","","","","","","feedback_test","","","","","","","","","",""
"696","","f","psychophysics","155","377554","0.0-7.0-1.0-4.0-0.0-0.24","4","4","4","3","4","4","3","4","4","4","5","5","4","4","5","5","4","5","5","4","1","1","2","2","1","2","1","1","2","0","0","1","1","0","0","0","1","0","1","1","0","1","0","0","5","1","2","2","1","3","4","5","2","2","759096644204761089","张","364","","","","match","","","","","","","","","","","","","","key","f","16.683499999999768","872.2727083667255","486.8181712666821","f","true","match","img/square.png","方形","方形","ALT1","formal_ALT1_2","","","","","","","","","",""
"null","<span style='color:GreenYellow; font-size: 70px;'>正确! </span>","null","html-keyboard-response","156","378055","0.0-7.0-1.0-4.0-0.0-1.24","4","4","4","3","4","4","3","4","4","4","5","5","4","4","5","5","4","5","5","4","1","1","2","2","1","2","1","1","2","0","0","1","1","0","0","0","1","0","1","1","0","1","0","0","5","1","2","2","1","3","4","5","2","2","759096644204761089","张","364","","","","","","","","","","","","","","","","","","","","","","","","","","","","","","feedback_test","","","","","","","","","",""
"597","","f","psychophysics","157","379654","0.0-7.0-1.0-4.0-0.0-0.25","4","4","4","3","4","4","3","4","4","4","5","5","4","4","5","5","4","5","5","4","1","1","2","2","1","2","1","1","2","0","0","1","1","0","0","0","1","0","1","1","0","1","0","0","5","1","2","2","1","3","4","5","2","2","759096644204761089","张","364","","","","match","","","","","","","","","","","","","","key","f","16.683617021276696","872.2727083667255","486.8181712666821","f","true","match","img/trapezoid.png","梯形","梯形","ALT1","formal_ALT1_2","","","","","","","","","",""
"null","<span style='color:GreenYellow; font-size: 70px;'>正确! </span>","null","html-keyboard-response","158","380156","0.0-7.0-1.0-4.0-0.0-1.25","4","4","4","3","4","4","3","4","4","4","5","5","4","4","5","5","4","5","5","4","1","1","2","2","1","2","1","1","2","0","0","1","1","0","0","0","1","0","1","1","0","1","0","0","5","1","2","2","1","3","4","5","2","2","759096644204761089","张","364","","","","","","","","","","","","","","","","","","","","","","","","","","","","","","feedback_test","","","","","","","","","",""
"574","","j","psychophysics","159","381732","0.0-7.0-1.0-4.0-0.0-0.26","4","4","4","3","4","4","3","4","4","4","5","5","4","4","5","5","4","5","5","4","1","1","2","2","1","2","1","1","2","0","0","1","1","0","0","0","1","0","1","1","0","1","0","0","5","1","2","2","1","3","4","5","2","2","759096644204761089","张","364","","","","nonmatch","","","","","","","","","","","","","","key","j","16.683591397849703","872.2727083667255","486.8181712666821","j","true","nonmatch","img/hexagon.png","方形","六边","ALT1","formal_ALT1_2","","","","","","","","","",""
"null","<span style='color:GreenYellow; font-size: 70px;'>正确! </span>","null","html-keyboard-response","160","382233","0.0-7.0-1.0-4.0-0.0-1.26","4","4","4","3","4","4","3","4","4","4","5","5","4","4","5","5","4","5","5","4","1","1","2","2","1","2","1","1","2","0","0","1","1","0","0","0","1","0","1","1","0","1","0","0","5","1","2","2","1","3","4","5","2","2","759096644204761089","张","364","","","","","","","","","","","","","","","","","","","","","","","","","","","","","","feedback_test","","","","","","","","","",""
"608","","j","psychophysics","161","383843","0.0-7.0-1.0-4.0-0.0-0.27","4","4","4","3","4","4","3","4","4","4","5","5","4","4","5","5","4","5","5","4","1","1","2","2","1","2","1","1","2","0","0","1","1","0","0","0","1","0","1","1","0","1","0","0","5","1","2","2","1","3","4","5","2","2","759096644204761089","张","364","","","","nonmatch","","","","","","","","","","","","","","key","j","16.683536842105127","872.2727083667255","486.8181712666821","j","true","nonmatch","img/square.png","六边","方形","ALT1","formal_ALT1_2","","","","","","","","","",""
"null","<span style='color:GreenYellow; font-size: 70px;'>正确! </span>","null","html-keyboard-response","162","384344","0.0-7.0-1.0-4.0-0.0-1.27","4","4","4","3","4","4","3","4","4","4","5","5","4","4","5","5","4","5","5","4","1","1","2","2","1","2","1","1","2","0","0","1","1","0","0","0","1","0","1","1","0","1","0","0","5","1","2","2","1","3","4","5","2","2","759096644204761089","张","364","","","","","","","","","","","","","","","","","","","","","","","","","","","","","","feedback_test","","","","","","","","","",""
"520","","f","psychophysics","163","385867","0.0-7.0-1.0-4.0-0.0-0.28","4","4","4","3","4","4","3","4","4","4","5","5","4","4","5","5","4","5","5","4","1","1","2","2","1","2","1","1","2","0","0","1","1","0","0","0","1","0","1","1","0","1","0","0","5","1","2","2","1","3","4","5","2","2","759096644204761089","张","364","","","","match","","","","","","","","","","","","","","key","f","16.683511111111148","872.2727083667255","486.8181712666821","f","true","match","img/square.png","方形","方形","ALT1","formal_ALT1_2","","","","","","","","","",""
"null","<span style='color:GreenYellow; font-size: 70px;'>正确! </span>","null","html-keyboard-response","164","386369","0.0-7.0-1.0-4.0-0.0-1.28","4","4","4","3","4","4","3","4","4","4","5","5","4","4","5","5","4","5","5","4","1","1","2","2","1","2","1","1","2","0","0","1","1","0","0","0","1","0","1","1","0","1","0","0","5","1","2","2","1","3","4","5","2","2","759096644204761089","张","364","","","","","","","","","","","","","","","","","","","","","","","","","","","","","","feedback_test","","","","","","","","","",""
"594","","j","psychophysics","165","387965","0.0-7.0-1.0-4.0-0.0-0.29","4","4","4","3","4","4","3","4","4","4","5","5","4","4","5","5","4","5","5","4","1","1","2","2","1","2","1","1","2","0","0","1","1","0","0","0","1","0","1","1","0","1","0","0","5","1","2","2","1","3","4","5","2","2","759096644204761089","张","364","","","","nonmatch","","","","","","","","","","","","","","key","j","16.68362765957445","872.2727083667255","486.8181712666821","j","true","nonmatch","img/trapezoid.png","方形","梯形","ALT1","formal_ALT1_2","","","","","","","","","",""
"null","<span style='color:GreenYellow; font-size: 70px;'>正确! </span>","null","html-keyboard-response","166","388467","0.0-7.0-1.0-4.0-0.0-1.29","4","4","4","3","4","4","3","4","4","4","5","5","4","4","5","5","4","5","5","4","1","1","2","2","1","2","1","1","2","0","0","1","1","0","0","0","1","0","1","1","0","1","0","0","5","1","2","2","1","3","4","5","2","2","759096644204761089","张","364","","","","","","","","","","","","","","","","","","","","","","","","","","","","","","feedback_test","","","","","","","","","",""
"607","","j","psychophysics","167","390075","0.0-7.0-1.0-4.0-0.0-0.30","4","4","4","3","4","4","3","4","4","4","5","5","4","4","5","5","4","5","5","4","1","1","2","2","1","2","1","1","2","0","0","1","1","0","0","0","1","0","1","1","0","1","0","0","5","1","2","2","1","3","4","5","2","2","759096644204761089","张","364","","","","nonmatch","","","","","","","","","","","","","","key","j","16.683589473684123","872.2727083667255","486.8181712666821","j","true","nonmatch","img/trapezoid.png","椭圆","梯形","ALT1","formal_ALT1_2","","","","","","","","","",""
"null","<span style='color:GreenYellow; font-size: 70px;'>正确! </span>","null","html-keyboard-response","168","390576","0.0-7.0-1.0-4.0-0.0-1.30","4","4","4","3","4","4","3","4","4","4","5","5","4","4","5","5","4","5","5","4","1","1","2","2","1","2","1","1","2","0","0","1","1","0","0","0","1","0","1","1","0","1","0","0","5","1","2","2","1","3","4","5","2","2","759096644204761089","张","364","","","","","","","","","","","","","","","","","","","","","","","","","","","","","","feedback_test","","","","","","","","","",""
"642","","j","psychophysics","169","392220","0.0-7.0-1.0-4.0-0.0-0.31","4","4","4","3","4","4","3","4","4","4","5","5","4","4","5","5","4","5","5","4","1","1","2","2","1","2","1","1","2","0","0","1","1","0","0","0","1","0","1","1","0","1","0","0","5","1","2","2","1","3","4","5","2","2","759096644204761089","张","364","","","","nonmatch","","","","","","","","","","","","","","key","j","16.683577319587936","872.2727083667255","486.8181712666821","j","true","nonmatch","img/hexagon.png","梯形","六边","ALT1","formal_ALT1_2","","","","","","","","","",""
"null","<span style='color:GreenYellow; font-size: 70px;'>正确! </span>","null","html-keyboard-response","170","392721","0.0-7.0-1.0-4.0-0.0-1.31","4","4","4","3","4","4","3","4","4","4","5","5","4","4","5","5","4","5","5","4","1","1","2","2","1","2","1","1","2","0","0","1","1","0","0","0","1","0","1","1","0","1","0","0","5","1","2","2","1","3","4","5","2","2","759096644204761089","张","364","","","","","","","","","","","","","","","","","","","","","","","","","","","","","","feedback_test","","","","","","","","","",""
"664","","j","psychophysics","171","394387","0.0-7.0-1.0-4.0-0.0-0.32","4","4","4","3","4","4","3","4","4","4","5","5","4","4","5","5","4","5","5","4","1","1","2","2","1","2","1","1","2","0","0","1","1","0","0","0","1","0","1","1","0","1","0","0","5","1","2","2","1","3","4","5","2","2","759096644204761089","张","364","","","","nonmatch","","","","","","","","","","","","","","key","j","16.683581632652857","872.2727083667255","486.8181712666821","j","true","nonmatch","img/square.png","梯形","方形","ALT1","formal_ALT1_2","","","","","","","","","",""
"null","<span style='color:GreenYellow; font-size: 70px;'>正确! </span>","null","html-keyboard-response","172","394888","0.0-7.0-1.0-4.0-0.0-1.32","4","4","4","3","4","4","3","4","4","4","5","5","4","4","5","5","4","5","5","4","1","1","2","2","1","2","1","1","2","0","0","1","1","0","0","0","1","0","1","1","0","1","0","0","5","1","2","2","1","3","4","5","2","2","759096644204761089","张","364","","","","","","","","","","","","","","","","","","","","","","","","","","","","","","feedback_test","","","","","","","","","",""
"620","","j","psychophysics","173","396510","0.0-7.0-1.0-4.0-0.0-0.33","4","4","4","3","4","4","3","4","4","4","5","5","4","4","5","5","4","5","5","4","1","1","2","2","1","2","1","1","2","0","0","1","1","0","0","0","1","0","1","1","0","1","0","0","5","1","2","2","1","3","4","5","2","2","759096644204761089","张","364","","","","nonmatch","","","","","","","","","","","","","","key","j","16.683583333333445","872.2727083667255","486.8181712666821","j","true","nonmatch","img/hexagon.png","椭圆","六边","ALT1","formal_ALT1_2","","","","","","","","","",""
"null","<span style='color:GreenYellow; font-size: 70px;'>正确! </span>","null","html-keyboard-response","174","397012","0.0-7.0-1.0-4.0-0.0-1.33","4","4","4","3","4","4","3","4","4","4","5","5","4","4","5","5","4","5","5","4","1","1","2","2","1","2","1","1","2","0","0","1","1","0","0","0","1","0","1","1","0","1","0","0","5","1","2","2","1","3","4","5","2","2","759096644204761089","张","364","","","","","","","","","","","","","","","","","","","","","","","","","","","","","","feedback_test","","","","","","","","","",""
"674","","j","psychophysics","175","398688","0.0-7.0-1.0-4.0-0.0-0.34","4","4","4","3","4","4","3","4","4","4","5","5","4","4","5","5","4","5","5","4","1","1","2","2","1","2","1","1","2","0","0","1","1","0","0","0","1","0","1","1","0","1","0","0","5","1","2","2","1","3","4","5","2","2","759096644204761089","张","364","","","","nonmatch","","","","","","","","","","","","","","key","j","16.68350505050521","872.2727083667255","486.8181712666821","j","true","nonmatch","img/ellipse.png","六边","椭圆","ALT1","formal_ALT1_2","","","","","","","","","",""
"null","<span style='color:GreenYellow; font-size: 70px;'>正确! </span>","null","html-keyboard-response","176","399189","0.0-7.0-1.0-4.0-0.0-1.34","4","4","4","3","4","4","3","4","4","4","5","5","4","4","5","5","4","5","5","4","1","1","2","2","1","2","1","1","2","0","0","1","1","0","0","0","1","0","1","1","0","1","0","0","5","1","2","2","1","3","4","5","2","2","759096644204761089","张","364","","","","","","","","","","","","","","","","","","","","","","","","","","","","","","feedback_test","","","","","","","","","",""
"697","","f","psychophysics","177","400887","0.0-7.0-1.0-4.0-0.0-0.35","4","4","4","3","4","4","3","4","4","4","5","5","4","4","5","5","4","5","5","4","1","1","2","2","1","2","1","1","2","0","0","1","1","0","0","0","1","0","1","1","0","1","0","0","5","1","2","2","1","3","4","5","2","2","759096644204761089","张","364","","","","match","","","","","","","","","","","","","","key","f","16.68359405940599","872.2727083667255","486.8181712666821","f","true","match","img/ellipse.png","椭圆","椭圆","ALT1","formal_ALT1_2","","","","","","","","","",""
"null","<span style='color:GreenYellow; font-size: 70px;'>正确! </span>","null","html-keyboard-response","178","401389","0.0-7.0-1.0-4.0-0.0-1.35","4","4","4","3","4","4","3","4","4","4","5","5","4","4","5","5","4","5","5","4","1","1","2","2","1","2","1","1","2","0","0","1","1","0","0","0","1","0","1","1","0","1","0","0","5","1","2","2","1","3","4","5","2","2","759096644204761089","张","364","","","","","","","","","","","","","","","","","","","","","","","","","","","","","","feedback_test","","","","","","","","","",""
"676","","f","psychophysics","179","403066","0.0-7.0-1.0-4.0-0.0-0.36","4","4","4","3","4","4","3","4","4","4","5","5","4","4","5","5","4","5","5","4","1","1","2","2","1","2","1","1","2","0","0","1","1","0","0","0","1","0","1","1","0","1","0","0","5","1","2","2","1","3","4","5","2","2","759096644204761089","张","364","","","","match","","","","","","","","","","","","","","key","f","16.683550000000395","872.2727083667255","486.8181712666821","f","true","match","img/hexagon.png","六边","六边","ALT1","formal_ALT1_2","","","","","","","","","",""
"null","<span style='color:GreenYellow; font-size: 70px;'>正确! </span>","null","html-keyboard-response","180","403567","0.0-7.0-1.0-4.0-0.0-1.36","4","4","4","3","4","4","3","4","4","4","5","5","4","4","5","5","4","5","5","4","1","1","2","2","1","2","1","1","2","0","0","1","1","0","0","0","1","0","1","1","0","1","0","0","5","1","2","2","1","3","4","5","2","2","759096644204761089","张","364","","","","","","","","","","","","","","","","","","","","","","","","","","","","","","feedback_test","","","","","","","","","",""
