"rt","stimulus","response","trial_type","trial_index","time_elapsed","internal_node_id","ses_1","ses_2","ses_3","ses_4","ses_5","ses_6","ses_7","ses_8","ses_9","ses_10","coreself_1","coreself_2","coreself_3","coreself_4","coreself_5","coreself_6","coreself_7","coreself_8","coreself_9","coreself_10","SGPS_1","SGPS_2","SGPS_3","SGPS_4","SGPS_5","SGPS_6","SGPS_7","SGPS_8","SGPS_9","NPI1","NPI2","NPI3","NPI4","NPI5","NPI6","NPI7","NPI8","NPI9","NPI10","NPI11","NPI12","NPI13","NPI14","NPI15","hsns_1","hsns_2","hsns_3","hsns_4","hsns_5","hsns_6","hsns_7","hsns_8","hsns_9","hsns_10","subj_idx","friend_name","ParticipantID","value","success","user_agent","responses","item_order","radio_event_ids","radio_event_times","key_event_times","mouse_event_times","straightlining","zigzagging","honeypot","timeout","failed_images","failed_audio","failed_video","view_history","response_type","key_press","avg_frame_time","center_x","center_y","correct_response","correct","identity","Image","word","condition","task_id","screen_id","time_stamp","version_attrib2","version_target2","IAT","RT","varname","summary","version_attrib","version_target","question_order"
"82557","
   <p><div style = ""color: white;font-size:25px;"">您好，欢迎参加本次实验。</div> </p>
   <p><div style = ""color: white;font-size:25px;"">为充分保障您的权利，请确保您已经知晓并同意《参与实验同意书》以及《数据公开知情同意书》。</div></p>
   <p><div style = ""color: white;font-size:25px;"">如果您未见过上述内容，请咨询实验员。</div></p>
   <p><div style = ""color: white;font-size:25px;"">如果您选择继续实验，则表示您已经清楚两份知情同意书的内容并同意。</div></p>
   <p><div style = ""color: red;font-size:30px;"">请确保您记得day0的实验编号，您将在本次实验输入该编号，若您忘记，请咨询实验员后作答。</div></p>
   <p> <div style = ""color: green;font-size:25px;""><按空格键至下页></div> </p>
   "," ","html-keyboard-response","0","82559","0.0-0.0","3","3","3","3","2","3","2","3","3","3","3","3","2","3","2","2","3","2","3","3","2","2","3","3","3","3","2","3","1","1","0","1","1","0","0","1","1","0","1","1","0","1","0","1","3","2","3","2","3","3","2","3","3","2","772063807198728193","封","320","","","","","","","","","","","","","","","","","","","","","","","","","","","","","","","","","","","","","","","",""
"","","","call-function","1","82561","0.0-1.0-0.0","3","3","3","3","2","3","2","3","3","3","3","3","2","3","2","2","3","2","3","3","2","2","3","3","3","3","2","3","1","1","0","1","1","0","0","1","1","0","1","1","0","1","0","1","3","2","3","2","3","3","2","3","3","2","772063807198728193","封","320","","","","","","","","","","","","","","","","","","","","","","","","","","","","","","","","","","","","","","","",""
"42058","","{""friend_name"":""封"",""ParticipantID"":""320""}","survey-html-form","2","124620","0.0-1.0-1.0","3","3","3","3","2","3","2","3","3","3","3","3","2","3","2","2","3","2","3","3","2","2","3","3","3","3","2","3","1","1","0","1","1","0","0","1","1","0","1","1","0","1","0","1","3","2","3","2","3","3","2","3","3","2","772063807198728193","封","320","","","","","","","","","","","","","","","","","","","","","","","","","","","","","","","","","","","","","","","",""
"","","","fullscreen","3","187485","0.0-2.0","3","3","3","3","2","3","2","3","3","3","3","3","2","3","2","2","3","2","3","3","2","2","3","3","3","3","2","3","1","1","0","1","1","0","0","1","1","0","1","1","0","1","0","1","3","2","3","2","3","3","2","3","3","2","772063807198728193","封","320","","true","{}","","","","","","","","","","","","","","","","","","","","","","","","","","","","","","","","","","","","",""
"80838.79999999702","","{""Q01"":""3"",""Q02"":""3"",""Q03"":""3"",""Q04"":""3"",""Q05"":""2"",""Q06"":""3"",""Q07"":""2"",""Q08"":""3"",""Q09"":""3"",""Q10"":""3""}","survey-template","4","268327","0.0-3.0","3","3","3","3","2","3","2","3","3","3","3","3","2","3","2","2","3","2","3","3","2","2","3","3","3","3","2","3","1","1","0","1","1","0","0","1","1","0","1","1","0","1","0","1","3","2","3","2","3","3","2","3","3","2","772063807198728193","封","320","","","","{""Q01"":""3"",""Q02"":""3"",""Q03"":""3"",""Q04"":""3"",""Q05"":""2"",""Q06"":""3"",""Q07"":""2"",""Q08"":""3"",""Q09"":""3"",""Q10"":""3""}","[0,1,2,3,4,5,6,7,8,9]","[""Q01"",""Q02"",""Q03"",""Q04"",""Q05"",""Q06"",""Q07"",""Q08"",""Q05"",""Q09"",""Q10""]","[23534.29999999702,29136,30231.70000000298,32952.79999999702,40623.29999999702,45107.79999999702,47848.90000000596,58615.40000000596,65345.29999999702,75529.20000000298,78866.40000000596]","[]","[23534.29999999702,26555.20000000298,29136,30231.70000000298,32952.79999999702,39359.70000000298,40623.29999999702,45107.79999999702,47848.90000000596,58615.40000000596,61401.5,65345.29999999702,75529.20000000298,78866.40000000596,80837.70000000298]","0.5","0.3333333333333333","0","","","","","","","","","","","","","","","","","","","","","","","","","","","",""
"46747.70000000298","","{""Q01"":""3"",""Q02"":""3"",""Q03"":""2"",""Q04"":""3"",""Q05"":""2"",""Q06"":""2"",""Q07"":""3"",""Q08"":""2"",""Q09"":""3"",""Q10"":""3""}","survey-template","5","315082","0.0-4.0","3","3","3","3","2","3","2","3","3","3","3","3","2","3","2","2","3","2","3","3","2","2","3","3","3","3","2","3","1","1","0","1","1","0","0","1","1","0","1","1","0","1","0","1","3","2","3","2","3","3","2","3","3","2","772063807198728193","封","320","","","","{""Q01"":""3"",""Q02"":""3"",""Q03"":""2"",""Q04"":""3"",""Q05"":""2"",""Q06"":""2"",""Q07"":""3"",""Q08"":""2"",""Q09"":""3"",""Q10"":""3""}","[0,1,2,3,4,5,6,7,8,9]","[""Q01"",""Q02"",""Q03"",""Q04"",""Q05"",""Q06"",""Q07"",""Q08"",""Q09"",""Q10""]","[16546.29999999702,18801.70000000298,22306.09999999404,24548.5,30003.79999999702,31562.20000000298,34130.29999999702,40807.70000000298,42207.89999999106,44784.39999999106]","[]","[15236.20000000298,16546.29999999702,18801.70000000298,21454.5,22306.09999999404,24548.5,28492.5,30003.79999999702,31562.20000000298,34130.29999999702,38904.5,40807.70000000298,42207.89999999106,44784.39999999106,46746.59999999404]","0.6","0.6666666666666666","0","","","","","","","","","","","","","","","","","","","","","","","","","","","",""
"","","","preload","6","315317","0.0-5.0","3","3","3","3","2","3","2","3","3","3","3","3","2","3","2","2","3","2","3","3","2","2","3","3","3","3","2","3","1","1","0","1","1","0","0","1","1","0","1","1","0","1","0","1","3","2","3","2","3","3","2","3","3","2","772063807198728193","封","320","","true","","","","","","","","","","","false","[]","[]","[]","","","","","","","","","","","","","","","","","","","","","","","",""
"52896","","","instructions","7","368213","0.0-6.0","3","3","3","3","2","3","2","3","3","3","3","3","2","3","2","2","3","2","3","3","2","2","3","3","3","3","2","3","1","1","0","1","1","0","0","1","1","0","1","1","0","1","0","1","3","2","3","2","3","3","2","3","3","2","772063807198728193","封","320","","","","","","","","","","","","","","","","","[{""page_index"":0,""viewing_time"":52896}]","","","","","","","","","","","","","","","","","","","","","","",""
"62840","","","instructions","8","431054","0.0-7.0-1.0-0.0","3","3","3","3","2","3","2","3","3","3","3","3","2","3","2","2","3","2","3","3","2","2","3","3","3","3","2","3","1","1","0","1","1","0","0","1","1","0","1","1","0","1","0","1","3","2","3","2","3","3","2","3","3","2","772063807198728193","封","320","","","","","","","","","","","","","","","","","[{""page_index"":0,""viewing_time"":41542},{""page_index"":1,""viewing_time"":17511},{""page_index"":2,""viewing_time"":3786}]","","","","","","","","","","","","","","","","","","","","","","",""
"null","","null","psychophysics","9","433262","0.0-7.0-1.0-1.0-0.0-0.0","3","3","3","3","2","3","2","3","3","3","3","3","2","3","2","2","3","2","3","3","2","2","3","3","3","3","2","3","1","1","0","1","1","0","0","1","1","0","1","1","0","1","0","1","3","2","3","2","3","3","2","3","3","2","772063807198728193","封","320","","","","null","","","","","","","","","","","","","","key","null","16.704946564885482","640","356","j","false","nonmatch","img/ellipse.png","三角","椭圆","ALT1_2","prac_ALT1_2","","","","","","","","","",""
"null","<span class='add_' style='color:yellow; font-size: 70px;'> 太慢! </span>","null","html-keyboard-response","10","433763","0.0-7.0-1.0-1.0-0.0-1.0","3","3","3","3","2","3","2","3","3","3","3","3","2","3","2","2","3","2","3","3","2","2","3","3","3","3","2","3","1","1","0","1","1","0","0","1","1","0","1","1","0","1","0","1","3","2","3","2","3","3","2","3","3","2","772063807198728193","封","320","","","","","","","","","","","","","","","","","","","","","","","","","","","","","","feedback_test","","","","","","","","","",""
"400","","f","psychophysics","11","435165","0.0-7.0-1.0-1.0-0.0-0.1","3","3","3","3","2","3","2","3","3","3","3","3","2","3","2","2","3","2","3","3","2","2","3","3","3","3","2","3","1","1","0","1","1","0","0","1","1","0","1","1","0","1","0","1","3","2","3","2","3","3","2","3","3","2","772063807198728193","封","320","","","","match","","","","","","","","","","","","","","key","f","16.669915662650634","640","356","j","false","nonmatch","img/pentagon.png","椭圆","五边","ALT1_2","prac_ALT1_2","","","","","","","","","",""
"null","<span style='color:red; font-size: 70px;'>错误! </span>","null","html-keyboard-response","12","435667","0.0-7.0-1.0-1.0-0.0-1.1","3","3","3","3","2","3","2","3","3","3","3","3","2","3","2","2","3","2","3","3","2","2","3","3","3","3","2","3","1","1","0","1","1","0","0","1","1","0","1","1","0","1","0","1","3","2","3","2","3","3","2","3","3","2","772063807198728193","封","320","","","","","","","","","","","","","","","","","","","","","","","","","","","","","","feedback_test","","","","","","","","","",""
"333","","j","psychophysics","13","437004","0.0-7.0-1.0-1.0-0.0-0.2","3","3","3","3","2","3","2","3","3","3","3","3","2","3","2","2","3","2","3","3","2","2","3","3","3","3","2","3","1","1","0","1","1","0","0","1","1","0","1","1","0","1","0","1","3","2","3","2","3","3","2","3","3","2","772063807198728193","封","320","","","","nonmatch","","","","","","","","","","","","","","key","j","16.640316455696468","640","356","f","false","match","img/pentagon.png","五边","五边","ALT1_2","prac_ALT1_2","","","","","","","","","",""
"null","<span style='color:red; font-size: 70px;'>错误! </span>","null","html-keyboard-response","14","437507","0.0-7.0-1.0-1.0-0.0-1.2","3","3","3","3","2","3","2","3","3","3","3","3","2","3","2","2","3","2","3","3","2","2","3","3","3","3","2","3","1","1","0","1","1","0","0","1","1","0","1","1","0","1","0","1","3","2","3","2","3","3","2","3","3","2","772063807198728193","封","320","","","","","","","","","","","","","","","","","","","","","","","","","","","","","","feedback_test","","","","","","","","","",""
"285","","f","psychophysics","15","438795","0.0-7.0-1.0-1.0-0.0-0.3","3","3","3","3","2","3","2","3","3","3","3","3","2","3","2","2","3","2","3","3","2","2","3","3","3","3","2","3","1","1","0","1","1","0","0","1","1","0","1","1","0","1","0","1","3","2","3","2","3","3","2","3","3","2","772063807198728193","封","320","","","","match","","","","","","","","","","","","","","key","f","16.6529342105266","640","356","f","true","match","img/trapezoid.png","梯形","梯形","ALT1_2","prac_ALT1_2","","","","","","","","","",""
"null","<span style='color:GreenYellow; font-size: 70px;'>正确! </span>","null","html-keyboard-response","16","439296","0.0-7.0-1.0-1.0-0.0-1.3","3","3","3","3","2","3","2","3","3","3","3","3","2","3","2","2","3","2","3","3","2","2","3","3","3","3","2","3","1","1","0","1","1","0","0","1","1","0","1","1","0","1","0","1","3","2","3","2","3","3","2","3","3","2","772063807198728193","封","320","","","","","","","","","","","","","","","","","","","","","","","","","","","","","","feedback_test","","","","","","","","","",""
"375","","f","psychophysics","17","440673","0.0-7.0-1.0-1.0-0.0-0.4","3","3","3","3","2","3","2","3","3","3","3","3","2","3","2","2","3","2","3","3","2","2","3","3","3","3","2","3","1","1","0","1","1","0","0","1","1","0","1","1","0","1","0","1","3","2","3","2","3","3","2","3","3","2","772063807198728193","封","320","","","","match","","","","","","","","","","","","","","key","f","16.66562195121958","640","356","j","false","nonmatch","img/triangle.png","椭圆","三角","ALT1_2","prac_ALT1_2","","","","","","","","","",""
"null","<span style='color:red; font-size: 70px;'>错误! </span>","null","html-keyboard-response","18","441174","0.0-7.0-1.0-1.0-0.0-1.4","3","3","3","3","2","3","2","3","3","3","3","3","2","3","2","2","3","2","3","3","2","2","3","3","3","3","2","3","1","1","0","1","1","0","0","1","1","0","1","1","0","1","0","1","3","2","3","2","3","3","2","3","3","2","772063807198728193","封","320","","","","","","","","","","","","","","","","","","","","","","","","","","","","","","feedback_test","","","","","","","","","",""
"324","","j","psychophysics","19","442501","0.0-7.0-1.0-1.0-0.0-0.5","3","3","3","3","2","3","2","3","3","3","3","3","2","3","2","2","3","2","3","3","2","2","3","3","3","3","2","3","1","1","0","1","1","0","0","1","1","0","1","1","0","1","0","1","3","2","3","2","3","3","2","3","3","2","772063807198728193","封","320","","","","nonmatch","","","","","","","","","","","","","","key","j","16.66489873417724","640","356","f","false","match","img/pentagon.png","五边","五边","ALT1_2","prac_ALT1_2","","","","","","","","","",""
"null","<span style='color:red; font-size: 70px;'>错误! </span>","null","html-keyboard-response","20","443002","0.0-7.0-1.0-1.0-0.0-1.5","3","3","3","3","2","3","2","3","3","3","3","3","2","3","2","2","3","2","3","3","2","2","3","3","3","3","2","3","1","1","0","1","1","0","0","1","1","0","1","1","0","1","0","1","3","2","3","2","3","3","2","3","3","2","772063807198728193","封","320","","","","","","","","","","","","","","","","","","","","","","","","","","","","","","feedback_test","","","","","","","","","",""
"300","","f","psychophysics","21","444304","0.0-7.0-1.0-1.0-0.0-0.6","3","3","3","3","2","3","2","3","3","3","3","3","2","3","2","2","3","2","3","3","2","2","3","3","3","3","2","3","1","1","0","1","1","0","0","1","1","0","1","1","0","1","0","1","3","2","3","2","3","3","2","3","3","2","772063807198728193","封","320","","","","match","","","","","","","","","","","","","","key","f","16.66807792207843","640","356","f","true","match","img/triangle.png","三角","三角","ALT1_2","prac_ALT1_2","","","","","","","","","",""
"null","<span style='color:GreenYellow; font-size: 70px;'>正确! </span>","null","html-keyboard-response","22","444805","0.0-7.0-1.0-1.0-0.0-1.6","3","3","3","3","2","3","2","3","3","3","3","3","2","3","2","2","3","2","3","3","2","2","3","3","3","3","2","3","1","1","0","1","1","0","0","1","1","0","1","1","0","1","0","1","3","2","3","2","3","3","2","3","3","2","772063807198728193","封","320","","","","","","","","","","","","","","","","","","","","","","","","","","","","","","feedback_test","","","","","","","","","",""
"341","","f","psychophysics","23","446149","0.0-7.0-1.0-1.0-0.0-0.7","3","3","3","3","2","3","2","3","3","3","3","3","2","3","2","2","3","2","3","3","2","2","3","3","3","3","2","3","1","1","0","1","1","0","0","1","1","0","1","1","0","1","0","1","3","2","3","2","3","3","2","3","3","2","772063807198728193","封","320","","","","match","","","","","","","","","","","","","","key","f","16.66700000000036","640","356","f","true","match","img/pentagon.png","五边","五边","ALT1_2","prac_ALT1_2","","","","","","","","","",""
"null","<span style='color:GreenYellow; font-size: 70px;'>正确! </span>","null","html-keyboard-response","24","446650","0.0-7.0-1.0-1.0-0.0-1.7","3","3","3","3","2","3","2","3","3","3","3","3","2","3","2","2","3","2","3","3","2","2","3","3","3","3","2","3","1","1","0","1","1","0","0","1","1","0","1","1","0","1","0","1","3","2","3","2","3","3","2","3","3","2","772063807198728193","封","320","","","","","","","","","","","","","","","","","","","","","","","","","","","","","","feedback_test","","","","","","","","","",""
"485","","f","psychophysics","25","448137","0.0-7.0-1.0-1.0-0.0-0.8","3","3","3","3","2","3","2","3","3","3","3","3","2","3","2","2","3","2","3","3","2","2","3","3","3","3","2","3","1","1","0","1","1","0","0","1","1","0","1","1","0","1","0","1","3","2","3","2","3","3","2","3","3","2","772063807198728193","封","320","","","","match","","","","","","","","","","","","","","key","f","16.66811363636357","640","356","j","false","nonmatch","img/pentagon.png","梯形","五边","ALT1_2","prac_ALT1_2","","","","","","","","","",""
"null","<span style='color:red; font-size: 70px;'>错误! </span>","null","html-keyboard-response","26","448639","0.0-7.0-1.0-1.0-0.0-1.8","3","3","3","3","2","3","2","3","3","3","3","3","2","3","2","2","3","2","3","3","2","2","3","3","3","3","2","3","1","1","0","1","1","0","0","1","1","0","1","1","0","1","0","1","3","2","3","2","3","3","2","3","3","2","772063807198728193","封","320","","","","","","","","","","","","","","","","","","","","","","","","","","","","","","feedback_test","","","","","","","","","",""
"529","","f","psychophysics","27","450170","0.0-7.0-1.0-1.0-0.0-0.9","3","3","3","3","2","3","2","3","3","3","3","3","2","3","2","2","3","2","3","3","2","2","3","3","3","3","2","3","1","1","0","1","1","0","0","1","1","0","1","1","0","1","0","1","3","2","3","2","3","3","2","3","3","2","772063807198728193","封","320","","","","match","","","","","","","","","","","","","","key","f","16.666241758242045","640","356","f","true","match","img/triangle.png","三角","三角","ALT1_2","prac_ALT1_2","","","","","","","","","",""
"null","<span style='color:GreenYellow; font-size: 70px;'>正确! </span>","null","html-keyboard-response","28","450671","0.0-7.0-1.0-1.0-0.0-1.9","3","3","3","3","2","3","2","3","3","3","3","3","2","3","2","2","3","2","3","3","2","2","3","3","3","3","2","3","1","1","0","1","1","0","0","1","1","0","1","1","0","1","0","1","3","2","3","2","3","3","2","3","3","2","772063807198728193","封","320","","","","","","","","","","","","","","","","","","","","","","","","","","","","","","feedback_test","","","","","","","","","",""
"321","","f","psychophysics","29","451995","0.0-7.0-1.0-1.0-0.0-0.10","3","3","3","3","2","3","2","3","3","3","3","3","2","3","2","2","3","2","3","3","2","2","3","3","3","3","2","3","1","1","0","1","1","0","0","1","1","0","1","1","0","1","0","1","3","2","3","2","3","3","2","3","3","2","772063807198728193","封","320","","","","match","","","","","","","","","","","","","","key","f","16.666346153845854","640","356","f","true","match","img/trapezoid.png","梯形","梯形","ALT1_2","prac_ALT1_2","","","","","","","","","",""
"null","<span style='color:GreenYellow; font-size: 70px;'>正确! </span>","null","html-keyboard-response","30","452497","0.0-7.0-1.0-1.0-0.0-1.10","3","3","3","3","2","3","2","3","3","3","3","3","2","3","2","2","3","2","3","3","2","2","3","3","3","3","2","3","1","1","0","1","1","0","0","1","1","0","1","1","0","1","0","1","3","2","3","2","3","3","2","3","3","2","772063807198728193","封","320","","","","","","","","","","","","","","","","","","","","","","","","","","","","","","feedback_test","","","","","","","","","",""
"399","","f","psychophysics","31","453897","0.0-7.0-1.0-1.0-0.0-0.11","3","3","3","3","2","3","2","3","3","3","3","3","2","3","2","2","3","2","3","3","2","2","3","3","3","3","2","3","1","1","0","1","1","0","0","1","1","0","1","1","0","1","0","1","3","2","3","2","3","3","2","3","3","2","772063807198728193","封","320","","","","match","","","","","","","","","","","","","","key","f","16.665144578313193","640","356","j","false","nonmatch","img/ellipse.png","五边","椭圆","ALT1_2","prac_ALT1_2","","","","","","","","","",""
"null","<span style='color:red; font-size: 70px;'>错误! </span>","null","html-keyboard-response","32","454398","0.0-7.0-1.0-1.0-0.0-1.11","3","3","3","3","2","3","2","3","3","3","3","3","2","3","2","2","3","2","3","3","2","2","3","3","3","3","2","3","1","1","0","1","1","0","0","1","1","0","1","1","0","1","0","1","3","2","3","2","3","3","2","3","3","2","772063807198728193","封","320","","","","","","","","","","","","","","","","","","","","","","","","","","","","","","feedback_test","","","","","","","","","",""
"350","","j","psychophysics","33","455750","0.0-7.0-1.0-1.0-0.0-0.12","3","3","3","3","2","3","2","3","3","3","3","3","2","3","2","2","3","2","3","3","2","2","3","3","3","3","2","3","1","1","0","1","1","0","0","1","1","0","1","1","0","1","0","1","3","2","3","2","3","3","2","3","3","2","772063807198728193","封","320","","","","nonmatch","","","","","","","","","","","","","","key","j","16.66902531645573","640","356","j","true","nonmatch","img/pentagon.png","三角","五边","ALT1_2","prac_ALT1_2","","","","","","","","","",""
"null","<span style='color:GreenYellow; font-size: 70px;'>正确! </span>","null","html-keyboard-response","34","456251","0.0-7.0-1.0-1.0-0.0-1.12","3","3","3","3","2","3","2","3","3","3","3","3","2","3","2","2","3","2","3","3","2","2","3","3","3","3","2","3","1","1","0","1","1","0","0","1","1","0","1","1","0","1","0","1","3","2","3","2","3","3","2","3","3","2","772063807198728193","封","320","","","","","","","","","","","","","","","","","","","","","","","","","","","","","","feedback_test","","","","","","","","","",""
"null","","null","psychophysics","35","458455","0.0-7.0-1.0-1.0-0.0-0.13","3","3","3","3","2","3","2","3","3","3","3","3","2","3","2","2","3","2","3","3","2","2","3","3","3","3","2","3","1","1","0","1","1","0","0","1","1","0","1","1","0","1","0","1","3","2","3","2","3","3","2","3","3","2","772063807198728193","封","320","","","","null","","","","","","","","","","","","","","key","null","16.66678625954189","640","356","j","false","nonmatch","img/trapezoid.png","三角","梯形","ALT1_2","prac_ALT1_2","","","","","","","","","",""
"null","<span class='add_' style='color:yellow; font-size: 70px;'> 太慢! </span>","null","html-keyboard-response","36","458958","0.0-7.0-1.0-1.0-0.0-1.13","3","3","3","3","2","3","2","3","3","3","3","3","2","3","2","2","3","2","3","3","2","2","3","3","3","3","2","3","1","1","0","1","1","0","0","1","1","0","1","1","0","1","0","1","3","2","3","2","3","3","2","3","3","2","772063807198728193","封","320","","","","","","","","","","","","","","","","","","","","","","","","","","","","","","feedback_test","","","","","","","","","",""
"298","","f","psychophysics","37","460256","0.0-7.0-1.0-1.0-0.0-0.14","3","3","3","3","2","3","2","3","3","3","3","3","2","3","2","2","3","2","3","3","2","2","3","3","3","3","2","3","1","1","0","1","1","0","0","1","1","0","1","1","0","1","0","1","3","2","3","2","3","3","2","3","3","2","772063807198728193","封","320","","","","match","","","","","","","","","","","","","","key","f","16.66648051948075","640","356","f","true","match","img/triangle.png","三角","三角","ALT1_2","prac_ALT1_2","","","","","","","","","",""
"null","<span style='color:GreenYellow; font-size: 70px;'>正确! </span>","null","html-keyboard-response","38","460763","0.0-7.0-1.0-1.0-0.0-1.14","3","3","3","3","2","3","2","3","3","3","3","3","2","3","2","2","3","2","3","3","2","2","3","3","3","3","2","3","1","1","0","1","1","0","0","1","1","0","1","1","0","1","0","1","3","2","3","2","3","3","2","3","3","2","772063807198728193","封","320","","","","","","","","","","","","","","","","","","","","","","","","","","","","","","feedback_test","","","","","","","","","",""
"309","","j","psychophysics","39","462075","0.0-7.0-1.0-1.0-0.0-0.15","3","3","3","3","2","3","2","3","3","3","3","3","2","3","2","2","3","2","3","3","2","2","3","3","3","3","2","3","1","1","0","1","1","0","0","1","1","0","1","1","0","1","0","1","3","2","3","2","3","3","2","3","3","2","772063807198728193","封","320","","","","nonmatch","","","","","","","","","","","","","","key","j","16.666307692307807","640","356","j","true","nonmatch","img/triangle.png","五边","三角","ALT1_2","prac_ALT1_2","","","","","","","","","",""
"null","<span style='color:GreenYellow; font-size: 70px;'>正确! </span>","null","html-keyboard-response","40","462576","0.0-7.0-1.0-1.0-0.0-1.15","3","3","3","3","2","3","2","3","3","3","3","3","2","3","2","2","3","2","3","3","2","2","3","3","3","3","2","3","1","1","0","1","1","0","0","1","1","0","1","1","0","1","0","1","3","2","3","2","3","3","2","3","3","2","772063807198728193","封","320","","","","","","","","","","","","","","","","","","","","","","","","","","","","","","feedback_test","","","","","","","","","",""
"334","","f","psychophysics","41","463913","0.0-7.0-1.0-1.0-0.0-0.16","3","3","3","3","2","3","2","3","3","3","3","3","2","3","2","2","3","2","3","3","2","2","3","3","3","3","2","3","1","1","0","1","1","0","0","1","1","0","1","1","0","1","0","1","3","2","3","2","3","3","2","3","3","2","772063807198728193","封","320","","","","match","","","","","","","","","","","","","","key","f","16.666481012658252","640","356","f","true","match","img/ellipse.png","椭圆","椭圆","ALT1_2","prac_ALT1_2","","","","","","","","","",""
"null","<span style='color:GreenYellow; font-size: 70px;'>正确! </span>","null","html-keyboard-response","42","464414","0.0-7.0-1.0-1.0-0.0-1.16","3","3","3","3","2","3","2","3","3","3","3","3","2","3","2","2","3","2","3","3","2","2","3","3","3","3","2","3","1","1","0","1","1","0","0","1","1","0","1","1","0","1","0","1","3","2","3","2","3","3","2","3","3","2","772063807198728193","封","320","","","","","","","","","","","","","","","","","","","","","","","","","","","","","","feedback_test","","","","","","","","","",""
"332","","j","psychophysics","43","465747","0.0-7.0-1.0-1.0-0.0-0.17","3","3","3","3","2","3","2","3","3","3","3","3","2","3","2","2","3","2","3","3","2","2","3","3","3","3","2","3","1","1","0","1","1","0","0","1","1","0","1","1","0","1","0","1","3","2","3","2","3","3","2","3","3","2","772063807198728193","封","320","","","","nonmatch","","","","","","","","","","","","","","key","j","16.66601265822773","640","356","j","true","nonmatch","img/trapezoid.png","五边","梯形","ALT1_2","prac_ALT1_2","","","","","","","","","",""
"null","<span style='color:GreenYellow; font-size: 70px;'>正确! </span>","null","html-keyboard-response","44","466248","0.0-7.0-1.0-1.0-0.0-1.17","3","3","3","3","2","3","2","3","3","3","3","3","2","3","2","2","3","2","3","3","2","2","3","3","3","3","2","3","1","1","0","1","1","0","0","1","1","0","1","1","0","1","0","1","3","2","3","2","3","3","2","3","3","2","772063807198728193","封","320","","","","","","","","","","","","","","","","","","","","","","","","","","","","","","feedback_test","","","","","","","","","",""
"343","","f","psychophysics","45","467593","0.0-7.0-1.0-1.0-0.0-0.18","3","3","3","3","2","3","2","3","3","3","3","3","2","3","2","2","3","2","3","3","2","2","3","3","3","3","2","3","1","1","0","1","1","0","0","1","1","0","1","1","0","1","0","1","3","2","3","2","3","3","2","3","3","2","772063807198728193","封","320","","","","match","","","","","","","","","","","","","","key","f","16.66527500000011","640","356","f","true","match","img/ellipse.png","椭圆","椭圆","ALT1_2","prac_ALT1_2","","","","","","","","","",""
"null","<span style='color:GreenYellow; font-size: 70px;'>正确! </span>","null","html-keyboard-response","46","468095","0.0-7.0-1.0-1.0-0.0-1.18","3","3","3","3","2","3","2","3","3","3","3","3","2","3","2","2","3","2","3","3","2","2","3","3","3","3","2","3","1","1","0","1","1","0","0","1","1","0","1","1","0","1","0","1","3","2","3","2","3","3","2","3","3","2","772063807198728193","封","320","","","","","","","","","","","","","","","","","","","","","","","","","","","","","","feedback_test","","","","","","","","","",""
"307","","j","psychophysics","47","469403","0.0-7.0-1.0-1.0-0.0-0.19","3","3","3","3","2","3","2","3","3","3","3","3","2","3","2","2","3","2","3","3","2","2","3","3","3","3","2","3","1","1","0","1","1","0","0","1","1","0","1","1","0","1","0","1","3","2","3","2","3","3","2","3","3","2","772063807198728193","封","320","","","","nonmatch","","","","","","","","","","","","","","key","j","16.66665384615324","640","356","f","false","match","img/trapezoid.png","梯形","梯形","ALT1_2","prac_ALT1_2","","","","","","","","","",""
"null","<span style='color:red; font-size: 70px;'>错误! </span>","null","html-keyboard-response","48","469905","0.0-7.0-1.0-1.0-0.0-1.19","3","3","3","3","2","3","2","3","3","3","3","3","2","3","2","2","3","2","3","3","2","2","3","3","3","3","2","3","1","1","0","1","1","0","0","1","1","0","1","1","0","1","0","1","3","2","3","2","3","3","2","3","3","2","772063807198728193","封","320","","","","","","","","","","","","","","","","","","","","","","","","","","","","","","feedback_test","","","","","","","","","",""
"281","","f","psychophysics","49","471187","0.0-7.0-1.0-1.0-0.0-0.20","3","3","3","3","2","3","2","3","3","3","3","3","2","3","2","2","3","2","3","3","2","2","3","3","3","3","2","3","1","1","0","1","1","0","0","1","1","0","1","1","0","1","0","1","3","2","3","2","3","3","2","3","3","2","772063807198728193","封","320","","","","match","","","","","","","","","","","","","","key","f","16.66810526315806","640","356","f","true","match","img/ellipse.png","椭圆","椭圆","ALT1_2","prac_ALT1_2","","","","","","","","","",""
"null","<span style='color:GreenYellow; font-size: 70px;'>正确! </span>","null","html-keyboard-response","50","471689","0.0-7.0-1.0-1.0-0.0-1.20","3","3","3","3","2","3","2","3","3","3","3","3","2","3","2","2","3","2","3","3","2","2","3","3","3","3","2","3","1","1","0","1","1","0","0","1","1","0","1","1","0","1","0","1","3","2","3","2","3","3","2","3","3","2","772063807198728193","封","320","","","","","","","","","","","","","","","","","","","","","","","","","","","","","","feedback_test","","","","","","","","","",""
"416","","j","psychophysics","51","473106","0.0-7.0-1.0-1.0-0.0-0.21","3","3","3","3","2","3","2","3","3","3","3","3","2","3","2","2","3","2","3","3","2","2","3","3","3","3","2","3","1","1","0","1","1","0","0","1","1","0","1","1","0","1","0","1","3","2","3","2","3","3","2","3","3","2","772063807198728193","封","320","","","","nonmatch","","","","","","","","","","","","","","key","j","16.66677380952405","640","356","j","true","nonmatch","img/trapezoid.png","椭圆","梯形","ALT1_2","prac_ALT1_2","","","","","","","","","",""
"null","<span style='color:GreenYellow; font-size: 70px;'>正确! </span>","null","html-keyboard-response","52","473607","0.0-7.0-1.0-1.0-0.0-1.21","3","3","3","3","2","3","2","3","3","3","3","3","2","3","2","2","3","2","3","3","2","2","3","3","3","3","2","3","1","1","0","1","1","0","0","1","1","0","1","1","0","1","0","1","3","2","3","2","3","3","2","3","3","2","772063807198728193","封","320","","","","","","","","","","","","","","","","","","","","","","","","","","","","","","feedback_test","","","","","","","","","",""
"301","","f","psychophysics","53","474910","0.0-7.0-1.0-1.0-0.0-0.22","3","3","3","3","2","3","2","3","3","3","3","3","2","3","2","2","3","2","3","3","2","2","3","3","3","3","2","3","1","1","0","1","1","0","0","1","1","0","1","1","0","1","0","1","3","2","3","2","3","3","2","3","3","2","772063807198728193","封","320","","","","match","","","","","","","","","","","","","","key","f","16.667129870129948","640","356","j","false","nonmatch","img/triangle.png","梯形","三角","ALT1_2","prac_ALT1_2","","","","","","","","","",""
"null","<span style='color:red; font-size: 70px;'>错误! </span>","null","html-keyboard-response","54","475411","0.0-7.0-1.0-1.0-0.0-1.22","3","3","3","3","2","3","2","3","3","3","3","3","2","3","2","2","3","2","3","3","2","2","3","3","3","3","2","3","1","1","0","1","1","0","0","1","1","0","1","1","0","1","0","1","3","2","3","2","3","3","2","3","3","2","772063807198728193","封","320","","","","","","","","","","","","","","","","","","","","","","","","","","","","","","feedback_test","","","","","","","","","",""
"321","","j","psychophysics","55","476734","0.0-7.0-1.0-1.0-0.0-0.23","3","3","3","3","2","3","2","3","3","3","3","3","2","3","2","2","3","2","3","3","2","2","3","3","3","3","2","3","1","1","0","1","1","0","0","1","1","0","1","1","0","1","0","1","3","2","3","2","3","3","2","3","3","2","772063807198728193","封","320","","","","nonmatch","","","","","","","","","","","","","","key","j","16.66746835443088","640","356","j","true","nonmatch","img/ellipse.png","梯形","椭圆","ALT1_2","prac_ALT1_2","","","","","","","","","",""
"null","<span style='color:GreenYellow; font-size: 70px;'>正确! </span>","null","html-keyboard-response","56","477235","0.0-7.0-1.0-1.0-0.0-1.23","3","3","3","3","2","3","2","3","3","3","3","3","2","3","2","2","3","2","3","3","2","2","3","3","3","3","2","3","1","1","0","1","1","0","0","1","1","0","1","1","0","1","0","1","3","2","3","2","3","3","2","3","3","2","772063807198728193","封","320","","","","","","","","","","","","","","","","","","","","","","","","","","","","","","feedback_test","","","","","","","","","",""
"348","","f","psychophysics","57","478586","0.0-7.0-1.0-1.0-0.0-0.24","3","3","3","3","2","3","2","3","3","3","3","3","2","3","2","2","3","2","3","3","2","2","3","3","3","3","2","3","1","1","0","1","1","0","0","1","1","0","1","1","0","1","0","1","3","2","3","2","3","3","2","3","3","2","772063807198728193","封","320","","","","match","","","","","","","","","","","","","","key","f","16.666849999999975","640","356","j","false","nonmatch","img/trapezoid.png","三角","梯形","ALT1_2","prac_ALT1_2","","","","","","","","","",""
"null","<span style='color:red; font-size: 70px;'>错误! </span>","null","html-keyboard-response","58","479088","0.0-7.0-1.0-1.0-0.0-1.24","3","3","3","3","2","3","2","3","3","3","3","3","2","3","2","2","3","2","3","3","2","2","3","3","3","3","2","3","1","1","0","1","1","0","0","1","1","0","1","1","0","1","0","1","3","2","3","2","3","3","2","3","3","2","772063807198728193","封","320","","","","","","","","","","","","","","","","","","","","","","","","","","","","","","feedback_test","","","","","","","","","",""
"419","","j","psychophysics","59","480508","0.0-7.0-1.0-1.0-0.0-0.25","3","3","3","3","2","3","2","3","3","3","3","3","2","3","2","2","3","2","3","3","2","2","3","3","3","3","2","3","1","1","0","1","1","0","0","1","1","0","1","1","0","1","0","1","3","2","3","2","3","3","2","3","3","2","772063807198728193","封","320","","","","nonmatch","","","","","","","","","","","","","","key","j","16.66661904761956","640","356","j","true","nonmatch","img/triangle.png","五边","三角","ALT1_2","prac_ALT1_2","","","","","","","","","",""
"null","<span style='color:GreenYellow; font-size: 70px;'>正确! </span>","null","html-keyboard-response","60","481009","0.0-7.0-1.0-1.0-0.0-1.25","3","3","3","3","2","3","2","3","3","3","3","3","2","3","2","2","3","2","3","3","2","2","3","3","3","3","2","3","1","1","0","1","1","0","0","1","1","0","1","1","0","1","0","1","3","2","3","2","3","3","2","3","3","2","772063807198728193","封","320","","","","","","","","","","","","","","","","","","","","","","","","","","","","","","feedback_test","","","","","","","","","",""
"352","","f","psychophysics","61","482363","0.0-7.0-1.0-1.0-0.0-0.26","3","3","3","3","2","3","2","3","3","3","3","3","2","3","2","2","3","2","3","3","2","2","3","3","3","3","2","3","1","1","0","1","1","0","0","1","1","0","1","1","0","1","0","1","3","2","3","2","3","3","2","3","3","2","772063807198728193","封","320","","","","match","","","","","","","","","","","","","","key","f","16.66736250000031","640","356","f","true","match","img/ellipse.png","椭圆","椭圆","ALT1_2","prac_ALT1_2","","","","","","","","","",""
"null","<span style='color:GreenYellow; font-size: 70px;'>正确! </span>","null","html-keyboard-response","62","482863","0.0-7.0-1.0-1.0-0.0-1.26","3","3","3","3","2","3","2","3","3","3","3","3","2","3","2","2","3","2","3","3","2","2","3","3","3","3","2","3","1","1","0","1","1","0","0","1","1","0","1","1","0","1","0","1","3","2","3","2","3","3","2","3","3","2","772063807198728193","封","320","","","","","","","","","","","","","","","","","","","","","","","","","","","","","","feedback_test","","","","","","","","","",""
"330","","j","psychophysics","63","484195","0.0-7.0-1.0-1.0-0.0-0.27","3","3","3","3","2","3","2","3","3","3","3","3","2","3","2","2","3","2","3","3","2","2","3","3","3","3","2","3","1","1","0","1","1","0","0","1","1","0","1","1","0","1","0","1","3","2","3","2","3","3","2","3","3","2","772063807198728193","封","320","","","","nonmatch","","","","","","","","","","","","","","key","j","16.66669620253231","640","356","j","true","nonmatch","img/triangle.png","椭圆","三角","ALT1_2","prac_ALT1_2","","","","","","","","","",""
"null","<span style='color:GreenYellow; font-size: 70px;'>正确! </span>","null","html-keyboard-response","64","484710","0.0-7.0-1.0-1.0-0.0-1.27","3","3","3","3","2","3","2","3","3","3","3","3","2","3","2","2","3","2","3","3","2","2","3","3","3","3","2","3","1","1","0","1","1","0","0","1","1","0","1","1","0","1","0","1","3","2","3","2","3","3","2","3","3","2","772063807198728193","封","320","","","","","","","","","","","","","","","","","","","","","","","","","","","","","","feedback_test","","","","","","","","","",""
"329","","f","psychophysics","65","486042","0.0-7.0-1.0-1.0-0.0-0.28","3","3","3","3","2","3","2","3","3","3","3","3","2","3","2","2","3","2","3","3","2","2","3","3","3","3","2","3","1","1","0","1","1","0","0","1","1","0","1","1","0","1","0","1","3","2","3","2","3","3","2","3","3","2","772063807198728193","封","320","","","","match","","","","","","","","","","","","","","key","f","16.666772151899323","640","356","f","true","match","img/triangle.png","三角","三角","ALT1_2","prac_ALT1_2","","","","","","","","","",""
"null","<span style='color:GreenYellow; font-size: 70px;'>正确! </span>","null","html-keyboard-response","66","486543","0.0-7.0-1.0-1.0-0.0-1.28","3","3","3","3","2","3","2","3","3","3","3","3","2","3","2","2","3","2","3","3","2","2","3","3","3","3","2","3","1","1","0","1","1","0","0","1","1","0","1","1","0","1","0","1","3","2","3","2","3","3","2","3","3","2","772063807198728193","封","320","","","","","","","","","","","","","","","","","","","","","","","","","","","","","","feedback_test","","","","","","","","","",""
"null","","null","psychophysics","67","488746","0.0-7.0-1.0-1.0-0.0-0.29","3","3","3","3","2","3","2","3","3","3","3","3","2","3","2","2","3","2","3","3","2","2","3","3","3","3","2","3","1","1","0","1","1","0","0","1","1","0","1","1","0","1","0","1","3","2","3","2","3","3","2","3","3","2","772063807198728193","封","320","","","","null","","","","","","","","","","","","","","key","null","16.66554198473317","640","356","j","false","nonmatch","img/pentagon.png","三角","五边","ALT1_2","prac_ALT1_2","","","","","","","","","",""
"null","<span class='add_' style='color:yellow; font-size: 70px;'> 太慢! </span>","null","html-keyboard-response","68","489248","0.0-7.0-1.0-1.0-0.0-1.29","3","3","3","3","2","3","2","3","3","3","3","3","2","3","2","2","3","2","3","3","2","2","3","3","3","3","2","3","1","1","0","1","1","0","0","1","1","0","1","1","0","1","0","1","3","2","3","2","3","3","2","3","3","2","772063807198728193","封","320","","","","","","","","","","","","","","","","","","","","","","","","","","","","","","feedback_test","","","","","","","","","",""
"479","","f","psychophysics","69","490729","0.0-7.0-1.0-1.0-0.0-0.30","3","3","3","3","2","3","2","3","3","3","3","3","2","3","2","2","3","2","3","3","2","2","3","3","3","3","2","3","1","1","0","1","1","0","0","1","1","0","1","1","0","1","0","1","3","2","3","2","3","3","2","3","3","2","772063807198728193","封","320","","","","match","","","","","","","","","","","","","","key","f","16.667356321839055","640","356","j","false","nonmatch","img/trapezoid.png","五边","梯形","ALT1_2","prac_ALT1_2","","","","","","","","","",""
"null","<span style='color:red; font-size: 70px;'>错误! </span>","null","html-keyboard-response","70","491230","0.0-7.0-1.0-1.0-0.0-1.30","3","3","3","3","2","3","2","3","3","3","3","3","2","3","2","2","3","2","3","3","2","2","3","3","3","3","2","3","1","1","0","1","1","0","0","1","1","0","1","1","0","1","0","1","3","2","3","2","3","3","2","3","3","2","772063807198728193","封","320","","","","","","","","","","","","","","","","","","","","","","","","","","","","","","feedback_test","","","","","","","","","",""
"405","","j","psychophysics","71","492637","0.0-7.0-1.0-1.0-0.0-0.31","3","3","3","3","2","3","2","3","3","3","3","3","2","3","2","2","3","2","3","3","2","2","3","3","3","3","2","3","1","1","0","1","1","0","0","1","1","0","1","1","0","1","0","1","3","2","3","2","3","3","2","3","3","2","772063807198728193","封","320","","","","nonmatch","","","","","","","","","","","","","","key","j","16.66676190476158","640","356","f","false","match","img/pentagon.png","五边","五边","ALT1_2","prac_ALT1_2","","","","","","","","","",""
"null","<span style='color:red; font-size: 70px;'>错误! </span>","null","html-keyboard-response","72","493139","0.0-7.0-1.0-1.0-0.0-1.31","3","3","3","3","2","3","2","3","3","3","3","3","2","3","2","2","3","2","3","3","2","2","3","3","3","3","2","3","1","1","0","1","1","0","0","1","1","0","1","1","0","1","0","1","3","2","3","2","3","3","2","3","3","2","772063807198728193","封","320","","","","","","","","","","","","","","","","","","","","","","","","","","","","","","feedback_test","","","","","","","","","",""
"399","","j","psychophysics","73","494540","0.0-7.0-1.0-1.0-0.0-0.32","3","3","3","3","2","3","2","3","3","3","3","3","2","3","2","2","3","2","3","3","2","2","3","3","3","3","2","3","1","1","0","1","1","0","0","1","1","0","1","1","0","1","0","1","3","2","3","2","3","3","2","3","3","2","772063807198728193","封","320","","","","nonmatch","","","","","","","","","","","","","","key","j","16.666469879518544","640","356","j","true","nonmatch","img/ellipse.png","梯形","椭圆","ALT1_2","prac_ALT1_2","","","","","","","","","",""
"null","<span style='color:GreenYellow; font-size: 70px;'>正确! </span>","null","html-keyboard-response","74","495041","0.0-7.0-1.0-1.0-0.0-1.32","3","3","3","3","2","3","2","3","3","3","3","3","2","3","2","2","3","2","3","3","2","2","3","3","3","3","2","3","1","1","0","1","1","0","0","1","1","0","1","1","0","1","0","1","3","2","3","2","3","3","2","3","3","2","772063807198728193","封","320","","","","","","","","","","","","","","","","","","","","","","","","","","","","","","feedback_test","","","","","","","","","",""
"448","","j","psychophysics","75","496491","0.0-7.0-1.0-1.0-0.0-0.33","3","3","3","3","2","3","2","3","3","3","3","3","2","3","2","2","3","2","3","3","2","2","3","3","3","3","2","3","1","1","0","1","1","0","0","1","1","0","1","1","0","1","0","1","3","2","3","2","3","3","2","3","3","2","772063807198728193","封","320","","","","nonmatch","","","","","","","","","","","","","","key","j","16.667197674418784","640","356","j","true","nonmatch","img/pentagon.png","椭圆","五边","ALT1_2","prac_ALT1_2","","","","","","","","","",""
"null","<span style='color:GreenYellow; font-size: 70px;'>正确! </span>","null","html-keyboard-response","76","496994","0.0-7.0-1.0-1.0-0.0-1.33","3","3","3","3","2","3","2","3","3","3","3","3","2","3","2","2","3","2","3","3","2","2","3","3","3","3","2","3","1","1","0","1","1","0","0","1","1","0","1","1","0","1","0","1","3","2","3","2","3","3","2","3","3","2","772063807198728193","封","320","","","","","","","","","","","","","","","","","","","","","","","","","","","","","","feedback_test","","","","","","","","","",""
"null","","null","psychophysics","77","499205","0.0-7.0-1.0-1.0-0.0-0.34","3","3","3","3","2","3","2","3","3","3","3","3","2","3","2","2","3","2","3","3","2","2","3","3","3","3","2","3","1","1","0","1","1","0","0","1","1","0","1","1","0","1","0","1","3","2","3","2","3","3","2","3","3","2","772063807198728193","封","320","","","","null","","","","","","","","","","","","","","key","null","16.66714393939412","640","356","f","false","match","img/trapezoid.png","梯形","梯形","ALT1_2","prac_ALT1_2","","","","","","","","","",""
"null","<span class='add_' style='color:yellow; font-size: 70px;'> 太慢! </span>","null","html-keyboard-response","78","499706","0.0-7.0-1.0-1.0-0.0-1.34","3","3","3","3","2","3","2","3","3","3","3","3","2","3","2","2","3","2","3","3","2","2","3","3","3","3","2","3","1","1","0","1","1","0","0","1","1","0","1","1","0","1","0","1","3","2","3","2","3","3","2","3","3","2","772063807198728193","封","320","","","","","","","","","","","","","","","","","","","","","","","","","","","","","","feedback_test","","","","","","","","","",""
"405","","f","psychophysics","79","501112","0.0-7.0-1.0-1.0-0.0-0.35","3","3","3","3","2","3","2","3","3","3","3","3","2","3","2","2","3","2","3","3","2","2","3","3","3","3","2","3","1","1","0","1","1","0","0","1","1","0","1","1","0","1","0","1","3","2","3","2","3","3","2","3","3","2","772063807198728193","封","320","","","","match","","","","","","","","","","","","","","key","f","16.666746987951413","640","356","f","true","match","img/trapezoid.png","梯形","梯形","ALT1_2","prac_ALT1_2","","","","","","","","","",""
"null","<span style='color:GreenYellow; font-size: 70px;'>正确! </span>","null","html-keyboard-response","80","501614","0.0-7.0-1.0-1.0-0.0-1.35","3","3","3","3","2","3","2","3","3","3","3","3","2","3","2","2","3","2","3","3","2","2","3","3","3","3","2","3","1","1","0","1","1","0","0","1","1","0","1","1","0","1","0","1","3","2","3","2","3","3","2","3","3","2","772063807198728193","封","320","","","","","","","","","","","","","","","","","","","","","","","","","","","","","","feedback_test","","","","","","","","","",""
"356","","j","psychophysics","81","502972","0.0-7.0-1.0-1.0-0.0-0.36","3","3","3","3","2","3","2","3","3","3","3","3","2","3","2","2","3","2","3","3","2","2","3","3","3","3","2","3","1","1","0","1","1","0","0","1","1","0","1","1","0","1","0","1","3","2","3","2","3","3","2","3","3","2","772063807198728193","封","320","","","","nonmatch","","","","","","","","","","","","","","key","j","16.66698749999996","640","356","f","false","match","img/ellipse.png","椭圆","椭圆","ALT1_2","prac_ALT1_2","","","","","","","","","",""
"null","<span style='color:red; font-size: 70px;'>错误! </span>","null","html-keyboard-response","82","503473","0.0-7.0-1.0-1.0-0.0-1.36","3","3","3","3","2","3","2","3","3","3","3","3","2","3","2","2","3","2","3","3","2","2","3","3","3","3","2","3","1","1","0","1","1","0","0","1","1","0","1","1","0","1","0","1","3","2","3","2","3","3","2","3","3","2","772063807198728193","封","320","","","","","","","","","","","","","","","","","","","","","","","","","","","","","","feedback_test","","","","","","","","","",""
"738","","f","psychophysics","83","505214","0.0-7.0-1.0-1.0-0.0-0.37","3","3","3","3","2","3","2","3","3","3","3","3","2","3","2","2","3","2","3","3","2","2","3","3","3","3","2","3","1","1","0","1","1","0","0","1","1","0","1","1","0","1","0","1","3","2","3","2","3","3","2","3","3","2","772063807198728193","封","320","","","","match","","","","","","","","","","","","","","key","f","16.666970873786727","640","356","j","false","nonmatch","img/trapezoid.png","椭圆","梯形","ALT1_2","prac_ALT1_2","","","","","","","","","",""
"null","<span style='color:red; font-size: 70px;'>错误! </span>","null","html-keyboard-response","84","505715","0.0-7.0-1.0-1.0-0.0-1.37","3","3","3","3","2","3","2","3","3","3","3","3","2","3","2","2","3","2","3","3","2","2","3","3","3","3","2","3","1","1","0","1","1","0","0","1","1","0","1","1","0","1","0","1","3","2","3","2","3","3","2","3","3","2","772063807198728193","封","320","","","","","","","","","","","","","","","","","","","","","","","","","","","","","","feedback_test","","","","","","","","","",""
"null","","null","psychophysics","85","507918","0.0-7.0-1.0-1.0-0.0-0.38","3","3","3","3","2","3","2","3","3","3","3","3","2","3","2","2","3","2","3","3","2","2","3","3","3","3","2","3","1","1","0","1","1","0","0","1","1","0","1","1","0","1","0","1","3","2","3","2","3","3","2","3","3","2","772063807198728193","封","320","","","","null","","","","","","","","","","","","","","key","null","16.666671755724987","640","356","j","false","nonmatch","img/triangle.png","梯形","三角","ALT1_2","prac_ALT1_2","","","","","","","","","",""
"null","<span class='add_' style='color:yellow; font-size: 70px;'> 太慢! </span>","null","html-keyboard-response","86","508419","0.0-7.0-1.0-1.0-0.0-1.38","3","3","3","3","2","3","2","3","3","3","3","3","2","3","2","2","3","2","3","3","2","2","3","3","3","3","2","3","1","1","0","1","1","0","0","1","1","0","1","1","0","1","0","1","3","2","3","2","3","3","2","3","3","2","772063807198728193","封","320","","","","","","","","","","","","","","","","","","","","","","","","","","","","","","feedback_test","","","","","","","","","",""
"345","","f","psychophysics","87","509766","0.0-7.0-1.0-1.0-0.0-0.39","3","3","3","3","2","3","2","3","3","3","3","3","2","3","2","2","3","2","3","3","2","2","3","3","3","3","2","3","1","1","0","1","1","0","0","1","1","0","1","1","0","1","0","1","3","2","3","2","3","3","2","3","3","2","772063807198728193","封","320","","","","match","","","","","","","","","","","","","","key","f","16.66727500000052","640","356","f","true","match","img/pentagon.png","五边","五边","ALT1_2","prac_ALT1_2","","","","","","","","","",""
"null","<span style='color:GreenYellow; font-size: 70px;'>正确! </span>","null","html-keyboard-response","88","510266","0.0-7.0-1.0-1.0-0.0-1.39","3","3","3","3","2","3","2","3","3","3","3","3","2","3","2","2","3","2","3","3","2","2","3","3","3","3","2","3","1","1","0","1","1","0","0","1","1","0","1","1","0","1","0","1","3","2","3","2","3","3","2","3","3","2","772063807198728193","封","320","","","","","","","","","","","","","","","","","","","","","","","","","","","","","","feedback_test","","","","","","","","","",""
"504","","f","psychophysics","89","511772","0.0-7.0-1.0-1.0-0.0-0.40","3","3","3","3","2","3","2","3","3","3","3","3","2","3","2","2","3","2","3","3","2","2","3","3","3","3","2","3","1","1","0","1","1","0","0","1","1","0","1","1","0","1","0","1","3","2","3","2","3","3","2","3","3","2","772063807198728193","封","320","","","","match","","","","","","","","","","","","","","key","f","16.666685393258664","640","356","f","true","match","img/ellipse.png","椭圆","椭圆","ALT1_2","prac_ALT1_2","","","","","","","","","",""
"null","<span style='color:GreenYellow; font-size: 70px;'>正确! </span>","null","html-keyboard-response","90","512275","0.0-7.0-1.0-1.0-0.0-1.40","3","3","3","3","2","3","2","3","3","3","3","3","2","3","2","2","3","2","3","3","2","2","3","3","3","3","2","3","1","1","0","1","1","0","0","1","1","0","1","1","0","1","0","1","3","2","3","2","3","3","2","3","3","2","772063807198728193","封","320","","","","","","","","","","","","","","","","","","","","","","","","","","","","","","feedback_test","","","","","","","","","",""
"363","","f","psychophysics","91","513639","0.0-7.0-1.0-1.0-0.0-0.41","3","3","3","3","2","3","2","3","3","3","3","3","2","3","2","2","3","2","3","3","2","2","3","3","3","3","2","3","1","1","0","1","1","0","0","1","1","0","1","1","0","1","0","1","3","2","3","2","3","3","2","3","3","2","772063807198728193","封","320","","","","match","","","","","","","","","","","","","","key","f","16.666049382716192","640","356","f","true","match","img/trapezoid.png","梯形","梯形","ALT1_2","prac_ALT1_2","","","","","","","","","",""
"null","<span style='color:GreenYellow; font-size: 70px;'>正确! </span>","null","html-keyboard-response","92","514141","0.0-7.0-1.0-1.0-0.0-1.41","3","3","3","3","2","3","2","3","3","3","3","3","2","3","2","2","3","2","3","3","2","2","3","3","3","3","2","3","1","1","0","1","1","0","0","1","1","0","1","1","0","1","0","1","3","2","3","2","3","3","2","3","3","2","772063807198728193","封","320","","","","","","","","","","","","","","","","","","","","","","","","","","","","","","feedback_test","","","","","","","","","",""
"430","","f","psychophysics","93","515573","0.0-7.0-1.0-1.0-0.0-0.42","3","3","3","3","2","3","2","3","3","3","3","3","2","3","2","2","3","2","3","3","2","2","3","3","3","3","2","3","1","1","0","1","1","0","0","1","1","0","1","1","0","1","0","1","3","2","3","2","3","3","2","3","3","2","772063807198728193","封","320","","","","match","","","","","","","","","","","","","","key","f","16.667176470588483","640","356","f","true","match","img/triangle.png","三角","三角","ALT1_2","prac_ALT1_2","","","","","","","","","",""
"null","<span style='color:GreenYellow; font-size: 70px;'>正确! </span>","null","html-keyboard-response","94","516075","0.0-7.0-1.0-1.0-0.0-1.42","3","3","3","3","2","3","2","3","3","3","3","3","2","3","2","2","3","2","3","3","2","2","3","3","3","3","2","3","1","1","0","1","1","0","0","1","1","0","1","1","0","1","0","1","3","2","3","2","3","3","2","3","3","2","772063807198728193","封","320","","","","","","","","","","","","","","","","","","","","","","","","","","","","","","feedback_test","","","","","","","","","",""
"359","","f","psychophysics","95","517436","0.0-7.0-1.0-1.0-0.0-0.43","3","3","3","3","2","3","2","3","3","3","3","3","2","3","2","2","3","2","3","3","2","2","3","3","3","3","2","3","1","1","0","1","1","0","0","1","1","0","1","1","0","1","0","1","3","2","3","2","3","3","2","3","3","2","772063807198728193","封","320","","","","match","","","","","","","","","","","","","","key","f","16.667617283950495","640","356","f","true","match","img/triangle.png","三角","三角","ALT1_2","prac_ALT1_2","","","","","","","","","",""
"null","<span style='color:GreenYellow; font-size: 70px;'>正确! </span>","null","html-keyboard-response","96","517938","0.0-7.0-1.0-1.0-0.0-1.43","3","3","3","3","2","3","2","3","3","3","3","3","2","3","2","2","3","2","3","3","2","2","3","3","3","3","2","3","1","1","0","1","1","0","0","1","1","0","1","1","0","1","0","1","3","2","3","2","3","3","2","3","3","2","772063807198728193","封","320","","","","","","","","","","","","","","","","","","","","","","","","","","","","","","feedback_test","","","","","","","","","",""
"439","","f","psychophysics","97","519378","0.0-7.0-1.0-1.0-0.0-0.44","3","3","3","3","2","3","2","3","3","3","3","3","2","3","2","2","3","2","3","3","2","2","3","3","3","3","2","3","1","1","0","1","1","0","0","1","1","0","1","1","0","1","0","1","3","2","3","2","3","3","2","3","3","2","772063807198728193","封","320","","","","match","","","","","","","","","","","","","","key","f","16.6664117647061","640","356","j","false","nonmatch","img/ellipse.png","三角","椭圆","ALT1_2","prac_ALT1_2","","","","","","","","","",""
"null","<span style='color:red; font-size: 70px;'>错误! </span>","null","html-keyboard-response","98","519880","0.0-7.0-1.0-1.0-0.0-1.44","3","3","3","3","2","3","2","3","3","3","3","3","2","3","2","2","3","2","3","3","2","2","3","3","3","3","2","3","1","1","0","1","1","0","0","1","1","0","1","1","0","1","0","1","3","2","3","2","3","3","2","3","3","2","772063807198728193","封","320","","","","","","","","","","","","","","","","","","","","","","","","","","","","","","feedback_test","","","","","","","","","",""
"437","","j","psychophysics","99","521318","0.0-7.0-1.0-1.0-0.0-0.45","3","3","3","3","2","3","2","3","3","3","3","3","2","3","2","2","3","2","3","3","2","2","3","3","3","3","2","3","1","1","0","1","1","0","0","1","1","0","1","1","0","1","0","1","3","2","3","2","3","3","2","3","3","2","772063807198728193","封","320","","","","nonmatch","","","","","","","","","","","","","","key","j","16.666627906976256","640","356","f","false","match","img/pentagon.png","五边","五边","ALT1_2","prac_ALT1_2","","","","","","","","","",""
"null","<span style='color:red; font-size: 70px;'>错误! </span>","null","html-keyboard-response","100","521820","0.0-7.0-1.0-1.0-0.0-1.45","3","3","3","3","2","3","2","3","3","3","3","3","2","3","2","2","3","2","3","3","2","2","3","3","3","3","2","3","1","1","0","1","1","0","0","1","1","0","1","1","0","1","0","1","3","2","3","2","3","3","2","3","3","2","772063807198728193","封","320","","","","","","","","","","","","","","","","","","","","","","","","","","","","","","feedback_test","","","","","","","","","",""
"355","","f","psychophysics","101","523176","0.0-7.0-1.0-1.0-0.0-0.46","3","3","3","3","2","3","2","3","3","3","3","3","2","3","2","2","3","2","3","3","2","2","3","3","3","3","2","3","1","1","0","1","1","0","0","1","1","0","1","1","0","1","0","1","3","2","3","2","3","3","2","3","3","2","772063807198728193","封","320","","","","match","","","","","","","","","","","","","","key","f","16.666562500000147","640","356","j","false","nonmatch","img/ellipse.png","五边","椭圆","ALT1_2","prac_ALT1_2","","","","","","","","","",""
"null","<span style='color:red; font-size: 70px;'>错误! </span>","null","html-keyboard-response","102","523677","0.0-7.0-1.0-1.0-0.0-1.46","3","3","3","3","2","3","2","3","3","3","3","3","2","3","2","2","3","2","3","3","2","2","3","3","3","3","2","3","1","1","0","1","1","0","0","1","1","0","1","1","0","1","0","1","3","2","3","2","3","3","2","3","3","2","772063807198728193","封","320","","","","","","","","","","","","","","","","","","","","","","","","","","","","","","feedback_test","","","","","","","","","",""
"494","","f","psychophysics","103","525172","0.0-7.0-1.0-1.0-0.0-0.47","3","3","3","3","2","3","2","3","3","3","3","3","2","3","2","2","3","2","3","3","2","2","3","3","3","3","2","3","1","1","0","1","1","0","0","1","1","0","1","1","0","1","0","1","3","2","3","2","3","3","2","3","3","2","772063807198728193","封","320","","","","match","","","","","","","","","","","","","","key","f","16.66658426966293","640","356","j","false","nonmatch","img/pentagon.png","梯形","五边","ALT1_2","prac_ALT1_2","","","","","","","","","",""
"null","<span style='color:red; font-size: 70px;'>错误! </span>","null","html-keyboard-response","104","525672","0.0-7.0-1.0-1.0-0.0-1.47","3","3","3","3","2","3","2","3","3","3","3","3","2","3","2","2","3","2","3","3","2","2","3","3","3","3","2","3","1","1","0","1","1","0","0","1","1","0","1","1","0","1","0","1","3","2","3","2","3","3","2","3","3","2","772063807198728193","封","320","","","","","","","","","","","","","","","","","","","","","","","","","","","","","","feedback_test","","","","","","","","","",""
"8911","<style>.context{color:white; font-size: 35px; line-height:40px}</style>                          <div><p class='context'>您正确回答了54% 的试次。</p><p class='context'>您的平均反应时为363毫秒。</p><p class='context'>恭喜您完成练习。按空格键继续。</p></div>"," ","html-keyboard-response","105","534585","0.0-7.0-1.0-1.0-1.0-0.0","3","3","3","3","2","3","2","3","3","3","3","3","2","3","2","2","3","2","3","3","2","2","3","3","3","3","2","3","1","1","0","1","1","0","0","1","1","0","1","1","0","1","0","1","3","2","3","2","3","3","2","3","3","2","772063807198728193","封","320","","","","","","","","","","","","","","","","","","","","","","","","","","","","","","","","","","","","","","","",""
"18083","","","instructions","106","552671","0.0-7.0-1.0-1.0-1.0-1.0","3","3","3","3","2","3","2","3","3","3","3","3","2","3","2","2","3","2","3","3","2","2","3","3","3","3","2","3","1","1","0","1","1","0","0","1","1","0","1","1","0","1","0","1","3","2","3","2","3","3","2","3","3","2","772063807198728193","封","320","","","","","","","","","","","","","","","","","[{""page_index"":0,""viewing_time"":6746},{""page_index"":1,""viewing_time"":9437},{""page_index"":2,""viewing_time"":1900}]","","","","","","","","","","","","","","","","","","","","","","",""
"530","","f","psychophysics","107","554204","0.0-7.0-1.0-1.1-0.1-0.48","3","3","3","3","2","3","2","3","3","3","3","3","2","3","2","2","3","2","3","3","2","2","3","3","3","3","2","3","1","1","0","1","1","0","0","1","1","0","1","1","0","1","0","1","3","2","3","2","3","3","2","3","3","2","772063807198728193","封","320","","","","match","","","","","","","","","","","","","","key","f","16.56631521739157","640","356","j","false","nonmatch","img/trapezoid.png","五边","梯形","ALT1_2","prac_ALT1_2","","","","","","","","","",""
"null","<span style='color:red; font-size: 70px;'>错误! </span>","null","html-keyboard-response","108","554705","0.0-7.0-1.0-1.1-0.1-1.48","3","3","3","3","2","3","2","3","3","3","3","3","2","3","2","2","3","2","3","3","2","2","3","3","3","3","2","3","1","1","0","1","1","0","0","1","1","0","1","1","0","1","0","1","3","2","3","2","3","3","2","3","3","2","772063807198728193","封","320","","","","","","","","","","","","","","","","","","","","","","","","","","","","","","feedback_test","","","","","","","","","",""
"306","","j","psychophysics","109","556014","0.0-7.0-1.0-1.1-0.1-0.49","3","3","3","3","2","3","2","3","3","3","3","3","2","3","2","2","3","2","3","3","2","2","3","3","3","3","2","3","1","1","0","1","1","0","0","1","1","0","1","1","0","1","0","1","3","2","3","2","3","3","2","3","3","2","772063807198728193","封","320","","","","nonmatch","","","","","","","","","","","","","","key","j","16.666493506494355","640","356","j","true","nonmatch","img/pentagon.png","梯形","五边","ALT1_2","prac_ALT1_2","","","","","","","","","",""
"null","<span style='color:GreenYellow; font-size: 70px;'>正确! </span>","null","html-keyboard-response","110","556515","0.0-7.0-1.0-1.1-0.1-1.49","3","3","3","3","2","3","2","3","3","3","3","3","2","3","2","2","3","2","3","3","2","2","3","3","3","3","2","3","1","1","0","1","1","0","0","1","1","0","1","1","0","1","0","1","3","2","3","2","3","3","2","3","3","2","772063807198728193","封","320","","","","","","","","","","","","","","","","","","","","","","","","","","","","","","feedback_test","","","","","","","","","",""
"374","","j","psychophysics","111","557890","0.0-7.0-1.0-1.1-0.1-0.50","3","3","3","3","2","3","2","3","3","3","3","3","2","3","2","2","3","2","3","3","2","2","3","3","3","3","2","3","1","1","0","1","1","0","0","1","1","0","1","1","0","1","0","1","3","2","3","2","3","3","2","3","3","2","772063807198728193","封","320","","","","nonmatch","","","","","","","","","","","","","","key","j","16.666864197530185","640","356","j","true","nonmatch","img/ellipse.png","三角","椭圆","ALT1_2","prac_ALT1_2","","","","","","","","","",""
"null","<span style='color:GreenYellow; font-size: 70px;'>正确! </span>","null","html-keyboard-response","112","558391","0.0-7.0-1.0-1.1-0.1-1.50","3","3","3","3","2","3","2","3","3","3","3","3","2","3","2","2","3","2","3","3","2","2","3","3","3","3","2","3","1","1","0","1","1","0","0","1","1","0","1","1","0","1","0","1","3","2","3","2","3","3","2","3","3","2","772063807198728193","封","320","","","","","","","","","","","","","","","","","","","","","","","","","","","","","","feedback_test","","","","","","","","","",""
"467","","j","psychophysics","113","559860","0.0-7.0-1.0-1.1-0.1-0.51","3","3","3","3","2","3","2","3","3","3","3","3","2","3","2","2","3","2","3","3","2","2","3","3","3","3","2","3","1","1","0","1","1","0","0","1","1","0","1","1","0","1","0","1","3","2","3","2","3","3","2","3","3","2","772063807198728193","封","320","","","","nonmatch","","","","","","","","","","","","","","key","j","16.66648275862132","640","356","f","false","match","img/ellipse.png","椭圆","椭圆","ALT1_2","prac_ALT1_2","","","","","","","","","",""
"null","<span style='color:red; font-size: 70px;'>错误! </span>","null","html-keyboard-response","114","560361","0.0-7.0-1.0-1.1-0.1-1.51","3","3","3","3","2","3","2","3","3","3","3","3","2","3","2","2","3","2","3","3","2","2","3","3","3","3","2","3","1","1","0","1","1","0","0","1","1","0","1","1","0","1","0","1","3","2","3","2","3","3","2","3","3","2","772063807198728193","封","320","","","","","","","","","","","","","","","","","","","","","","","","","","","","","","feedback_test","","","","","","","","","",""
"315","","f","psychophysics","115","561678","0.0-7.0-1.0-1.1-0.1-0.52","3","3","3","3","2","3","2","3","3","3","3","3","2","3","2","2","3","2","3","3","2","2","3","3","3","3","2","3","1","1","0","1","1","0","0","1","1","0","1","1","0","1","0","1","3","2","3","2","3","3","2","3","3","2","772063807198728193","封","320","","","","match","","","","","","","","","","","","","","key","f","16.66535897435955","640","356","f","true","match","img/trapezoid.png","梯形","梯形","ALT1_2","prac_ALT1_2","","","","","","","","","",""
"null","<span style='color:GreenYellow; font-size: 70px;'>正确! </span>","null","html-keyboard-response","116","562179","0.0-7.0-1.0-1.1-0.1-1.52","3","3","3","3","2","3","2","3","3","3","3","3","2","3","2","2","3","2","3","3","2","2","3","3","3","3","2","3","1","1","0","1","1","0","0","1","1","0","1","1","0","1","0","1","3","2","3","2","3","3","2","3","3","2","772063807198728193","封","320","","","","","","","","","","","","","","","","","","","","","","","","","","","","","","feedback_test","","","","","","","","","",""
"516","","j","psychophysics","117","563696","0.0-7.0-1.0-1.1-0.1-0.53","3","3","3","3","2","3","2","3","3","3","3","3","2","3","2","2","3","2","3","3","2","2","3","3","3","3","2","3","1","1","0","1","1","0","0","1","1","0","1","1","0","1","0","1","3","2","3","2","3","3","2","3","3","2","772063807198728193","封","320","","","","nonmatch","","","","","","","","","","","","","","key","j","16.666505617977727","640","356","j","true","nonmatch","img/pentagon.png","椭圆","五边","ALT1_2","prac_ALT1_2","","","","","","","","","",""
"null","<span style='color:GreenYellow; font-size: 70px;'>正确! </span>","null","html-keyboard-response","118","564197","0.0-7.0-1.0-1.1-0.1-1.53","3","3","3","3","2","3","2","3","3","3","3","3","2","3","2","2","3","2","3","3","2","2","3","3","3","3","2","3","1","1","0","1","1","0","0","1","1","0","1","1","0","1","0","1","3","2","3","2","3","3","2","3","3","2","772063807198728193","封","320","","","","","","","","","","","","","","","","","","","","","","","","","","","","","","feedback_test","","","","","","","","","",""
"330","","f","psychophysics","119","565529","0.0-7.0-1.0-1.1-0.1-0.54","3","3","3","3","2","3","2","3","3","3","3","3","2","3","2","2","3","2","3","3","2","2","3","3","3","3","2","3","1","1","0","1","1","0","0","1","1","0","1","1","0","1","0","1","3","2","3","2","3","3","2","3","3","2","772063807198728193","封","320","","","","match","","","","","","","","","","","","","","key","f","16.667499999999283","640","356","j","false","nonmatch","img/triangle.png","五边","三角","ALT1_2","prac_ALT1_2","","","","","","","","","",""
"null","<span style='color:red; font-size: 70px;'>错误! </span>","null","html-keyboard-response","120","566030","0.0-7.0-1.0-1.1-0.1-1.54","3","3","3","3","2","3","2","3","3","3","3","3","2","3","2","2","3","2","3","3","2","2","3","3","3","3","2","3","1","1","0","1","1","0","0","1","1","0","1","1","0","1","0","1","3","2","3","2","3","3","2","3","3","2","772063807198728193","封","320","","","","","","","","","","","","","","","","","","","","","","","","","","","","","","feedback_test","","","","","","","","","",""
"null","","null","psychophysics","121","568233","0.0-7.0-1.0-1.1-0.1-0.55","3","3","3","3","2","3","2","3","3","3","3","3","2","3","2","2","3","2","3","3","2","2","3","3","3","3","2","3","1","1","0","1","1","0","0","1","1","0","1","1","0","1","0","1","3","2","3","2","3","3","2","3","3","2","772063807198728193","封","320","","","","null","","","","","","","","","","","","","","key","null","16.667030534351543","640","356","f","false","match","img/trapezoid.png","梯形","梯形","ALT1_2","prac_ALT1_2","","","","","","","","","",""
"null","<span class='add_' style='color:yellow; font-size: 70px;'> 太慢! </span>","null","html-keyboard-response","122","568735","0.0-7.0-1.0-1.1-0.1-1.55","3","3","3","3","2","3","2","3","3","3","3","3","2","3","2","2","3","2","3","3","2","2","3","3","3","3","2","3","1","1","0","1","1","0","0","1","1","0","1","1","0","1","0","1","3","2","3","2","3","3","2","3","3","2","772063807198728193","封","320","","","","","","","","","","","","","","","","","","","","","","","","","","","","","","feedback_test","","","","","","","","","",""
"417","","f","psychophysics","123","570153","0.0-7.0-1.0-1.1-0.1-0.56","3","3","3","3","2","3","2","3","3","3","3","3","2","3","2","2","3","2","3","3","2","2","3","3","3","3","2","3","1","1","0","1","1","0","0","1","1","0","1","1","0","1","0","1","3","2","3","2","3","3","2","3","3","2","772063807198728193","封","320","","","","match","","","","","","","","","","","","","","key","f","16.66680952380938","640","356","f","true","match","img/ellipse.png","椭圆","椭圆","ALT1_2","prac_ALT1_2","","","","","","","","","",""
"null","<span style='color:GreenYellow; font-size: 70px;'>正确! </span>","null","html-keyboard-response","124","570655","0.0-7.0-1.0-1.1-0.1-1.56","3","3","3","3","2","3","2","3","3","3","3","3","2","3","2","2","3","2","3","3","2","2","3","3","3","3","2","3","1","1","0","1","1","0","0","1","1","0","1","1","0","1","0","1","3","2","3","2","3","3","2","3","3","2","772063807198728193","封","320","","","","","","","","","","","","","","","","","","","","","","","","","","","","","","feedback_test","","","","","","","","","",""
"571","","f","psychophysics","125","572228","0.0-7.0-1.0-1.1-0.1-0.57","3","3","3","3","2","3","2","3","3","3","3","3","2","3","2","2","3","2","3","3","2","2","3","3","3","3","2","3","1","1","0","1","1","0","0","1","1","0","1","1","0","1","0","1","3","2","3","2","3","3","2","3","3","2","772063807198728193","封","320","","","","match","","","","","","","","","","","","","","key","f","16.66651612903262","640","356","j","false","nonmatch","img/trapezoid.png","三角","梯形","ALT1_2","prac_ALT1_2","","","","","","","","","",""
"null","<span style='color:red; font-size: 70px;'>错误! </span>","null","html-keyboard-response","126","572729","0.0-7.0-1.0-1.1-0.1-1.57","3","3","3","3","2","3","2","3","3","3","3","3","2","3","2","2","3","2","3","3","2","2","3","3","3","3","2","3","1","1","0","1","1","0","0","1","1","0","1","1","0","1","0","1","3","2","3","2","3","3","2","3","3","2","772063807198728193","封","320","","","","","","","","","","","","","","","","","","","","","","","","","","","","","","feedback_test","","","","","","","","","",""
"null","","null","psychophysics","127","574931","0.0-7.0-1.0-1.1-0.1-0.58","3","3","3","3","2","3","2","3","3","3","3","3","2","3","2","2","3","2","3","3","2","2","3","3","3","3","2","3","1","1","0","1","1","0","0","1","1","0","1","1","0","1","0","1","3","2","3","2","3","3","2","3","3","2","772063807198728193","封","320","","","","null","","","","","","","","","","","","","","key","null","16.66693129771005","640","356","j","false","nonmatch","img/triangle.png","椭圆","三角","ALT1_2","prac_ALT1_2","","","","","","","","","",""
"null","<span class='add_' style='color:yellow; font-size: 70px;'> 太慢! </span>","null","html-keyboard-response","128","575434","0.0-7.0-1.0-1.1-0.1-1.58","3","3","3","3","2","3","2","3","3","3","3","3","2","3","2","2","3","2","3","3","2","2","3","3","3","3","2","3","1","1","0","1","1","0","0","1","1","0","1","1","0","1","0","1","3","2","3","2","3","3","2","3","3","2","772063807198728193","封","320","","","","","","","","","","","","","","","","","","","","","","","","","","","","","","feedback_test","","","","","","","","","",""
"488","","f","psychophysics","129","576924","0.0-7.0-1.0-1.1-0.1-0.59","3","3","3","3","2","3","2","3","3","3","3","3","2","3","2","2","3","2","3","3","2","2","3","3","3","3","2","3","1","1","0","1","1","0","0","1","1","0","1","1","0","1","0","1","3","2","3","2","3","3","2","3","3","2","772063807198728193","封","320","","","","match","","","","","","","","","","","","","","key","f","16.66779545454483","640","356","f","true","match","img/pentagon.png","五边","五边","ALT1_2","prac_ALT1_2","","","","","","","","","",""
"null","<span style='color:GreenYellow; font-size: 70px;'>正确! </span>","null","html-keyboard-response","130","577425","0.0-7.0-1.0-1.1-0.1-1.59","3","3","3","3","2","3","2","3","3","3","3","3","2","3","2","2","3","2","3","3","2","2","3","3","3","3","2","3","1","1","0","1","1","0","0","1","1","0","1","1","0","1","0","1","3","2","3","2","3","3","2","3","3","2","772063807198728193","封","320","","","","","","","","","","","","","","","","","","","","","","","","","","","","","","feedback_test","","","","","","","","","",""
"461","","f","psychophysics","131","578888","0.0-7.0-1.0-1.1-0.1-0.60","3","3","3","3","2","3","2","3","3","3","3","3","2","3","2","2","3","2","3","3","2","2","3","3","3","3","2","3","1","1","0","1","1","0","0","1","1","0","1","1","0","1","0","1","3","2","3","2","3","3","2","3","3","2","772063807198728193","封","320","","","","match","","","","","","","","","","","","","","key","f","16.66680459770101","640","356","j","false","nonmatch","img/trapezoid.png","椭圆","梯形","ALT1_2","prac_ALT1_2","","","","","","","","","",""
"null","<span style='color:red; font-size: 70px;'>错误! </span>","null","html-keyboard-response","132","579389","0.0-7.0-1.0-1.1-0.1-1.60","3","3","3","3","2","3","2","3","3","3","3","3","2","3","2","2","3","2","3","3","2","2","3","3","3","3","2","3","1","1","0","1","1","0","0","1","1","0","1","1","0","1","0","1","3","2","3","2","3","3","2","3","3","2","772063807198728193","封","320","","","","","","","","","","","","","","","","","","","","","","","","","","","","","","feedback_test","","","","","","","","","",""
"442","","j","psychophysics","133","580833","0.0-7.0-1.0-1.1-0.1-0.61","3","3","3","3","2","3","2","3","3","3","3","3","2","3","2","2","3","2","3","3","2","2","3","3","3","3","2","3","1","1","0","1","1","0","0","1","1","0","1","1","0","1","0","1","3","2","3","2","3","3","2","3","3","2","772063807198728193","封","320","","","","nonmatch","","","","","","","","","","","","","","key","j","16.666825581394775","640","356","f","false","match","img/pentagon.png","五边","五边","ALT1_2","prac_ALT1_2","","","","","","","","","",""
"null","<span style='color:red; font-size: 70px;'>错误! </span>","null","html-keyboard-response","134","581334","0.0-7.0-1.0-1.1-0.1-1.61","3","3","3","3","2","3","2","3","3","3","3","3","2","3","2","2","3","2","3","3","2","2","3","3","3","3","2","3","1","1","0","1","1","0","0","1","1","0","1","1","0","1","0","1","3","2","3","2","3","3","2","3","3","2","772063807198728193","封","320","","","","","","","","","","","","","","","","","","","","","","","","","","","","","","feedback_test","","","","","","","","","",""
"418","","f","psychophysics","135","582753","0.0-7.0-1.0-1.1-0.1-0.62","3","3","3","3","2","3","2","3","3","3","3","3","2","3","2","2","3","2","3","3","2","2","3","3","3","3","2","3","1","1","0","1","1","0","0","1","1","0","1","1","0","1","0","1","3","2","3","2","3","3","2","3","3","2","772063807198728193","封","320","","","","match","","","","","","","","","","","","","","key","f","16.666392857142323","640","356","f","true","match","img/triangle.png","三角","三角","ALT1_2","prac_ALT1_2","","","","","","","","","",""
"null","<span style='color:GreenYellow; font-size: 70px;'>正确! </span>","null","html-keyboard-response","136","583254","0.0-7.0-1.0-1.1-0.1-1.62","3","3","3","3","2","3","2","3","3","3","3","3","2","3","2","2","3","2","3","3","2","2","3","3","3","3","2","3","1","1","0","1","1","0","0","1","1","0","1","1","0","1","0","1","3","2","3","2","3","3","2","3","3","2","772063807198728193","封","320","","","","","","","","","","","","","","","","","","","","","","","","","","","","","","feedback_test","","","","","","","","","",""
"523","","f","psychophysics","137","584779","0.0-7.0-1.0-1.1-0.1-0.63","3","3","3","3","2","3","2","3","3","3","3","3","2","3","2","2","3","2","3","3","2","2","3","3","3","3","2","3","1","1","0","1","1","0","0","1","1","0","1","1","0","1","0","1","3","2","3","2","3","3","2","3","3","2","772063807198728193","封","320","","","","match","","","","","","","","","","","","","","key","f","16.66656666666709","640","356","j","false","nonmatch","img/ellipse.png","五边","椭圆","ALT1_2","prac_ALT1_2","","","","","","","","","",""
"null","<span style='color:red; font-size: 70px;'>错误! </span>","null","html-keyboard-response","138","585280","0.0-7.0-1.0-1.1-0.1-1.63","3","3","3","3","2","3","2","3","3","3","3","3","2","3","2","2","3","2","3","3","2","2","3","3","3","3","2","3","1","1","0","1","1","0","0","1","1","0","1","1","0","1","0","1","3","2","3","2","3","3","2","3","3","2","772063807198728193","封","320","","","","","","","","","","","","","","","","","","","","","","","","","","","","","","feedback_test","","","","","","","","","",""
"403","","j","psychophysics","139","586685","0.0-7.0-1.0-1.1-0.1-0.64","3","3","3","3","2","3","2","3","3","3","3","3","2","3","2","2","3","2","3","3","2","2","3","3","3","3","2","3","1","1","0","1","1","0","0","1","1","0","1","1","0","1","0","1","3","2","3","2","3","3","2","3","3","2","772063807198728193","封","320","","","","nonmatch","","","","","","","","","","","","","","key","j","16.667530120482265","640","356","j","true","nonmatch","img/triangle.png","梯形","三角","ALT1_2","prac_ALT1_2","","","","","","","","","",""
"null","<span style='color:GreenYellow; font-size: 70px;'>正确! </span>","null","html-keyboard-response","140","587186","0.0-7.0-1.0-1.1-0.1-1.64","3","3","3","3","2","3","2","3","3","3","3","3","2","3","2","2","3","2","3","3","2","2","3","3","3","3","2","3","1","1","0","1","1","0","0","1","1","0","1","1","0","1","0","1","3","2","3","2","3","3","2","3","3","2","772063807198728193","封","320","","","","","","","","","","","","","","","","","","","","","","","","","","","","","","feedback_test","","","","","","","","","",""
"498","","j","psychophysics","141","588685","0.0-7.0-1.0-1.1-0.1-0.65","3","3","3","3","2","3","2","3","3","3","3","3","2","3","2","2","3","2","3","3","2","2","3","3","3","3","2","3","1","1","0","1","1","0","0","1","1","0","1","1","0","1","0","1","3","2","3","2","3","3","2","3","3","2","772063807198728193","封","320","","","","nonmatch","","","","","","","","","","","","","","key","j","16.66606741573065","640","356","j","true","nonmatch","img/ellipse.png","梯形","椭圆","ALT1_2","prac_ALT1_2","","","","","","","","","",""
"null","<span style='color:GreenYellow; font-size: 70px;'>正确! </span>","null","html-keyboard-response","142","589186","0.0-7.0-1.0-1.1-0.1-1.65","3","3","3","3","2","3","2","3","3","3","3","3","2","3","2","2","3","2","3","3","2","2","3","3","3","3","2","3","1","1","0","1","1","0","0","1","1","0","1","1","0","1","0","1","3","2","3","2","3","3","2","3","3","2","772063807198728193","封","320","","","","","","","","","","","","","","","","","","","","","","","","","","","","","","feedback_test","","","","","","","","","",""
"425","","f","psychophysics","143","590612","0.0-7.0-1.0-1.1-0.1-0.66","3","3","3","3","2","3","2","3","3","3","3","3","2","3","2","2","3","2","3","3","2","2","3","3","3","3","2","3","1","1","0","1","1","0","0","1","1","0","1","1","0","1","0","1","3","2","3","2","3","3","2","3","3","2","772063807198728193","封","320","","","","match","","","","","","","","","","","","","","key","f","16.667297619047098","640","356","f","true","match","img/triangle.png","三角","三角","ALT1_2","prac_ALT1_2","","","","","","","","","",""
"null","<span style='color:GreenYellow; font-size: 70px;'>正确! </span>","null","html-keyboard-response","144","591115","0.0-7.0-1.0-1.1-0.1-1.66","3","3","3","3","2","3","2","3","3","3","3","3","2","3","2","2","3","2","3","3","2","2","3","3","3","3","2","3","1","1","0","1","1","0","0","1","1","0","1","1","0","1","0","1","3","2","3","2","3","3","2","3","3","2","772063807198728193","封","320","","","","","","","","","","","","","","","","","","","","","","","","","","","","","","feedback_test","","","","","","","","","",""
"342","","f","psychophysics","145","592458","0.0-7.0-1.0-1.1-0.1-0.67","3","3","3","3","2","3","2","3","3","3","3","3","2","3","2","2","3","2","3","3","2","2","3","3","3","3","2","3","1","1","0","1","1","0","0","1","1","0","1","1","0","1","0","1","3","2","3","2","3","3","2","3","3","2","772063807198728193","封","320","","","","match","","","","","","","","","","","","","","key","f","16.6666835443046","640","356","f","true","match","img/ellipse.png","椭圆","椭圆","ALT1_2","prac_ALT1_2","","","","","","","","","",""
"null","<span style='color:GreenYellow; font-size: 70px;'>正确! </span>","null","html-keyboard-response","146","592961","0.0-7.0-1.0-1.1-0.1-1.67","3","3","3","3","2","3","2","3","3","3","3","3","2","3","2","2","3","2","3","3","2","2","3","3","3","3","2","3","1","1","0","1","1","0","0","1","1","0","1","1","0","1","0","1","3","2","3","2","3","3","2","3","3","2","772063807198728193","封","320","","","","","","","","","","","","","","","","","","","","","","","","","","","","","","feedback_test","","","","","","","","","",""
"398","","f","psychophysics","147","594361","0.0-7.0-1.0-1.1-0.1-0.68","3","3","3","3","2","3","2","3","3","3","3","3","2","3","2","2","3","2","3","3","2","2","3","3","3","3","2","3","1","1","0","1","1","0","0","1","1","0","1","1","0","1","0","1","3","2","3","2","3","3","2","3","3","2","772063807198728193","封","320","","","","match","","","","","","","","","","","","","","key","f","16.66687951807258","640","356","j","false","nonmatch","img/pentagon.png","三角","五边","ALT1_2","prac_ALT1_2","","","","","","","","","",""
"null","<span style='color:red; font-size: 70px;'>错误! </span>","null","html-keyboard-response","148","594864","0.0-7.0-1.0-1.1-0.1-1.68","3","3","3","3","2","3","2","3","3","3","3","3","2","3","2","2","3","2","3","3","2","2","3","3","3","3","2","3","1","1","0","1","1","0","0","1","1","0","1","1","0","1","0","1","3","2","3","2","3","3","2","3","3","2","772063807198728193","封","320","","","","","","","","","","","","","","","","","","","","","","","","","","","","","","feedback_test","","","","","","","","","",""
"321","","j","psychophysics","149","596186","0.0-7.0-1.0-1.1-0.1-0.69","3","3","3","3","2","3","2","3","3","3","3","3","2","3","2","2","3","2","3","3","2","2","3","3","3","3","2","3","1","1","0","1","1","0","0","1","1","0","1","1","0","1","0","1","3","2","3","2","3","3","2","3","3","2","772063807198728193","封","320","","","","nonmatch","","","","","","","","","","","","","","key","j","16.668230769230433","640","356","f","false","match","img/pentagon.png","五边","五边","ALT1_2","prac_ALT1_2","","","","","","","","","",""
"null","<span style='color:red; font-size: 70px;'>错误! </span>","null","html-keyboard-response","150","596687","0.0-7.0-1.0-1.1-0.1-1.69","3","3","3","3","2","3","2","3","3","3","3","3","2","3","2","2","3","2","3","3","2","2","3","3","3","3","2","3","1","1","0","1","1","0","0","1","1","0","1","1","0","1","0","1","3","2","3","2","3","3","2","3","3","2","772063807198728193","封","320","","","","","","","","","","","","","","","","","","","","","","","","","","","","","","feedback_test","","","","","","","","","",""
"414","","f","psychophysics","151","598103","0.0-7.0-1.0-1.1-0.1-0.70","3","3","3","3","2","3","2","3","3","3","3","3","2","3","2","2","3","2","3","3","2","2","3","3","3","3","2","3","1","1","0","1","1","0","0","1","1","0","1","1","0","1","0","1","3","2","3","2","3","3","2","3","3","2","772063807198728193","封","320","","","","match","","","","","","","","","","","","","","key","f","16.666416666665878","640","356","f","true","match","img/triangle.png","三角","三角","ALT1_2","prac_ALT1_2","","","","","","","","","",""
"null","<span style='color:GreenYellow; font-size: 70px;'>正确! </span>","null","html-keyboard-response","152","598604","0.0-7.0-1.0-1.1-0.1-1.70","3","3","3","3","2","3","2","3","3","3","3","3","2","3","2","2","3","2","3","3","2","2","3","3","3","3","2","3","1","1","0","1","1","0","0","1","1","0","1","1","0","1","0","1","3","2","3","2","3","3","2","3","3","2","772063807198728193","封","320","","","","","","","","","","","","","","","","","","","","","","","","","","","","","","feedback_test","","","","","","","","","",""
"498","","f","psychophysics","153","600104","0.0-7.0-1.0-1.1-0.1-0.71","3","3","3","3","2","3","2","3","3","3","3","3","2","3","2","2","3","2","3","3","2","2","3","3","3","3","2","3","1","1","0","1","1","0","0","1","1","0","1","1","0","1","0","1","3","2","3","2","3","3","2","3","3","2","772063807198728193","封","320","","","","match","","","","","","","","","","","","","","key","f","16.66624719101093","640","356","f","true","match","img/trapezoid.png","梯形","梯形","ALT1_2","prac_ALT1_2","","","","","","","","","",""
"null","<span style='color:GreenYellow; font-size: 70px;'>正确! </span>","null","html-keyboard-response","154","600605","0.0-7.0-1.0-1.1-0.1-1.71","3","3","3","3","2","3","2","3","3","3","3","3","2","3","2","2","3","2","3","3","2","2","3","3","3","3","2","3","1","1","0","1","1","0","0","1","1","0","1","1","0","1","0","1","3","2","3","2","3","3","2","3","3","2","772063807198728193","封","320","","","","","","","","","","","","","","","","","","","","","","","","","","","","","","feedback_test","","","","","","","","","",""
"374","","f","psychophysics","155","601982","0.0-7.0-1.0-1.1-0.1-0.72","3","3","3","3","2","3","2","3","3","3","3","3","2","3","2","2","3","2","3","3","2","2","3","3","3","3","2","3","1","1","0","1","1","0","0","1","1","0","1","1","0","1","0","1","3","2","3","2","3","3","2","3","3","2","772063807198728193","封","320","","","","match","","","","","","","","","","","","","","key","f","16.66648780487807","640","356","j","false","nonmatch","img/pentagon.png","椭圆","五边","ALT1_2","prac_ALT1_2","","","","","","","","","",""
"null","<span style='color:red; font-size: 70px;'>错误! </span>","null","html-keyboard-response","156","602484","0.0-7.0-1.0-1.1-0.1-1.72","3","3","3","3","2","3","2","3","3","3","3","3","2","3","2","2","3","2","3","3","2","2","3","3","3","3","2","3","1","1","0","1","1","0","0","1","1","0","1","1","0","1","0","1","3","2","3","2","3","3","2","3","3","2","772063807198728193","封","320","","","","","","","","","","","","","","","","","","","","","","","","","","","","","","feedback_test","","","","","","","","","",""
"349","","j","psychophysics","157","603835","0.0-7.0-1.0-1.1-0.1-0.73","3","3","3","3","2","3","2","3","3","3","3","3","2","3","2","2","3","2","3","3","2","2","3","3","3","3","2","3","1","1","0","1","1","0","0","1","1","0","1","1","0","1","0","1","3","2","3","2","3","3","2","3","3","2","772063807198728193","封","320","","","","nonmatch","","","","","","","","","","","","","","key","j","16.666825000000244","640","356","j","true","nonmatch","img/trapezoid.png","三角","梯形","ALT1_2","prac_ALT1_2","","","","","","","","","",""
"null","<span style='color:GreenYellow; font-size: 70px;'>正确! </span>","null","html-keyboard-response","158","604335","0.0-7.0-1.0-1.1-0.1-1.73","3","3","3","3","2","3","2","3","3","3","3","3","2","3","2","2","3","2","3","3","2","2","3","3","3","3","2","3","1","1","0","1","1","0","0","1","1","0","1","1","0","1","0","1","3","2","3","2","3","3","2","3","3","2","772063807198728193","封","320","","","","","","","","","","","","","","","","","","","","","","","","","","","","","","feedback_test","","","","","","","","","",""
"560","","j","psychophysics","159","605898","0.0-7.0-1.0-1.1-0.1-0.74","3","3","3","3","2","3","2","3","3","3","3","3","2","3","2","2","3","2","3","3","2","2","3","3","3","3","2","3","1","1","0","1","1","0","0","1","1","0","1","1","0","1","0","1","3","2","3","2","3","3","2","3","3","2","772063807198728193","封","320","","","","nonmatch","","","","","","","","","","","","","","key","j","16.66741935483941","640","356","f","false","match","img/pentagon.png","五边","五边","ALT1_2","prac_ALT1_2","","","","","","","","","",""
"null","<span style='color:red; font-size: 70px;'>错误! </span>","null","html-keyboard-response","160","606400","0.0-7.0-1.0-1.1-0.1-1.74","3","3","3","3","2","3","2","3","3","3","3","3","2","3","2","2","3","2","3","3","2","2","3","3","3","3","2","3","1","1","0","1","1","0","0","1","1","0","1","1","0","1","0","1","3","2","3","2","3","3","2","3","3","2","772063807198728193","封","320","","","","","","","","","","","","","","","","","","","","","","","","","","","","","","feedback_test","","","","","","","","","",""
"331","","f","psychophysics","161","607732","0.0-7.0-1.0-1.1-0.1-0.75","3","3","3","3","2","3","2","3","3","3","3","3","2","3","2","2","3","2","3","3","2","2","3","3","3","3","2","3","1","1","0","1","1","0","0","1","1","0","1","1","0","1","0","1","3","2","3","2","3","3","2","3","3","2","772063807198728193","封","320","","","","match","","","","","","","","","","","","","","key","f","16.66683544303862","640","356","j","false","nonmatch","img/triangle.png","椭圆","三角","ALT1_2","prac_ALT1_2","","","","","","","","","",""
"null","<span style='color:red; font-size: 70px;'>错误! </span>","null","html-keyboard-response","162","608235","0.0-7.0-1.0-1.1-0.1-1.75","3","3","3","3","2","3","2","3","3","3","3","3","2","3","2","2","3","2","3","3","2","2","3","3","3","3","2","3","1","1","0","1","1","0","0","1","1","0","1","1","0","1","0","1","3","2","3","2","3","3","2","3","3","2","772063807198728193","封","320","","","","","","","","","","","","","","","","","","","","","","","","","","","","","","feedback_test","","","","","","","","","",""
"498","","j","psychophysics","163","609735","0.0-7.0-1.0-1.1-0.1-0.76","3","3","3","3","2","3","2","3","3","3","3","3","2","3","2","2","3","2","3","3","2","2","3","3","3","3","2","3","1","1","0","1","1","0","0","1","1","0","1","1","0","1","0","1","3","2","3","2","3","3","2","3","3","2","772063807198728193","封","320","","","","nonmatch","","","","","","","","","","","","","","key","j","16.667505617976826","640","356","j","true","nonmatch","img/trapezoid.png","椭圆","梯形","ALT1_2","prac_ALT1_2","","","","","","","","","",""
"null","<span style='color:GreenYellow; font-size: 70px;'>正确! </span>","null","html-keyboard-response","164","610236","0.0-7.0-1.0-1.1-0.1-1.76","3","3","3","3","2","3","2","3","3","3","3","3","2","3","2","2","3","2","3","3","2","2","3","3","3","3","2","3","1","1","0","1","1","0","0","1","1","0","1","1","0","1","0","1","3","2","3","2","3","3","2","3","3","2","772063807198728193","封","320","","","","","","","","","","","","","","","","","","","","","","","","","","","","","","feedback_test","","","","","","","","","",""
"479","","f","psychophysics","165","611717","0.0-7.0-1.0-1.1-0.1-0.77","3","3","3","3","2","3","2","3","3","3","3","3","2","3","2","2","3","2","3","3","2","2","3","3","3","3","2","3","1","1","0","1","1","0","0","1","1","0","1","1","0","1","0","1","3","2","3","2","3","3","2","3","3","2","772063807198728193","封","320","","","","match","","","","","","","","","","","","","","key","f","16.666318181818827","640","356","j","false","nonmatch","img/triangle.png","五边","三角","ALT1_2","prac_ALT1_2","","","","","","","","","",""
"null","<span style='color:red; font-size: 70px;'>错误! </span>","null","html-keyboard-response","166","612218","0.0-7.0-1.0-1.1-0.1-1.77","3","3","3","3","2","3","2","3","3","3","3","3","2","3","2","2","3","2","3","3","2","2","3","3","3","3","2","3","1","1","0","1","1","0","0","1","1","0","1","1","0","1","0","1","3","2","3","2","3","3","2","3","3","2","772063807198728193","封","320","","","","","","","","","","","","","","","","","","","","","","","","","","","","","","feedback_test","","","","","","","","","",""
"431","","j","psychophysics","167","613650","0.0-7.0-1.0-1.1-0.1-0.78","3","3","3","3","2","3","2","3","3","3","3","3","2","3","2","2","3","2","3","3","2","2","3","3","3","3","2","3","1","1","0","1","1","0","0","1","1","0","1","1","0","1","0","1","3","2","3","2","3","3","2","3","3","2","772063807198728193","封","320","","","","nonmatch","","","","","","","","","","","","","","key","j","16.66675294117646","640","356","j","true","nonmatch","img/pentagon.png","三角","五边","ALT1_2","prac_ALT1_2","","","","","","","","","",""
"null","<span style='color:GreenYellow; font-size: 70px;'>正确! </span>","null","html-keyboard-response","168","614151","0.0-7.0-1.0-1.1-0.1-1.78","3","3","3","3","2","3","2","3","3","3","3","3","2","3","2","2","3","2","3","3","2","2","3","3","3","3","2","3","1","1","0","1","1","0","0","1","1","0","1","1","0","1","0","1","3","2","3","2","3","3","2","3","3","2","772063807198728193","封","320","","","","","","","","","","","","","","","","","","","","","","","","","","","","","","feedback_test","","","","","","","","","",""
"391","","j","psychophysics","169","615545","0.0-7.0-1.0-1.1-0.1-0.79","3","3","3","3","2","3","2","3","3","3","3","3","2","3","2","2","3","2","3","3","2","2","3","3","3","3","2","3","1","1","0","1","1","0","0","1","1","0","1","1","0","1","0","1","3","2","3","2","3","3","2","3","3","2","772063807198728193","封","320","","","","nonmatch","","","","","","","","","","","","","","key","j","16.667207317071878","640","356","f","false","match","img/trapezoid.png","梯形","梯形","ALT1_2","prac_ALT1_2","","","","","","","","","",""
"null","<span style='color:red; font-size: 70px;'>错误! </span>","null","html-keyboard-response","170","616047","0.0-7.0-1.0-1.1-0.1-1.79","3","3","3","3","2","3","2","3","3","3","3","3","2","3","2","2","3","2","3","3","2","2","3","3","3","3","2","3","1","1","0","1","1","0","0","1","1","0","1","1","0","1","0","1","3","2","3","2","3","3","2","3","3","2","772063807198728193","封","320","","","","","","","","","","","","","","","","","","","","","","","","","","","","","","feedback_test","","","","","","","","","",""
"343","","j","psychophysics","171","617392","0.0-7.0-1.0-1.1-0.1-0.80","3","3","3","3","2","3","2","3","3","3","3","3","2","3","2","2","3","2","3","3","2","2","3","3","3","3","2","3","1","1","0","1","1","0","0","1","1","0","1","1","0","1","0","1","3","2","3","2","3","3","2","3","3","2","772063807198728193","封","320","","","","nonmatch","","","","","","","","","","","","","","key","j","16.66594936708843","640","356","j","true","nonmatch","img/ellipse.png","三角","椭圆","ALT1_2","prac_ALT1_2","","","","","","","","","",""
"null","<span style='color:GreenYellow; font-size: 70px;'>正确! </span>","null","html-keyboard-response","172","617895","0.0-7.0-1.0-1.1-0.1-1.80","3","3","3","3","2","3","2","3","3","3","3","3","2","3","2","2","3","2","3","3","2","2","3","3","3","3","2","3","1","1","0","1","1","0","0","1","1","0","1","1","0","1","0","1","3","2","3","2","3","3","2","3","3","2","772063807198728193","封","320","","","","","","","","","","","","","","","","","","","","","","","","","","","","","","feedback_test","","","","","","","","","",""
"366","","j","psychophysics","173","619263","0.0-7.0-1.0-1.1-0.1-0.81","3","3","3","3","2","3","2","3","3","3","3","3","2","3","2","2","3","2","3","3","2","2","3","3","3","3","2","3","1","1","0","1","1","0","0","1","1","0","1","1","0","1","0","1","3","2","3","2","3","3","2","3","3","2","772063807198728193","封","320","","","","nonmatch","","","","","","","","","","","","","","key","j","16.666700000000127","640","356","f","false","match","img/trapezoid.png","梯形","梯形","ALT1_2","prac_ALT1_2","","","","","","","","","",""
"null","<span style='color:red; font-size: 70px;'>错误! </span>","null","html-keyboard-response","174","619765","0.0-7.0-1.0-1.1-0.1-1.81","3","3","3","3","2","3","2","3","3","3","3","3","2","3","2","2","3","2","3","3","2","2","3","3","3","3","2","3","1","1","0","1","1","0","0","1","1","0","1","1","0","1","0","1","3","2","3","2","3","3","2","3","3","2","772063807198728193","封","320","","","","","","","","","","","","","","","","","","","","","","","","","","","","","","feedback_test","","","","","","","","","",""
"440","","j","psychophysics","175","621206","0.0-7.0-1.0-1.1-0.1-0.82","3","3","3","3","2","3","2","3","3","3","3","3","2","3","2","2","3","2","3","3","2","2","3","3","3","3","2","3","1","1","0","1","1","0","0","1","1","0","1","1","0","1","0","1","3","2","3","2","3","3","2","3","3","2","772063807198728193","封","320","","","","nonmatch","","","","","","","","","","","","","","key","j","16.666364705881705","640","356","j","true","nonmatch","img/ellipse.png","五边","椭圆","ALT1_2","prac_ALT1_2","","","","","","","","","",""
"null","<span style='color:GreenYellow; font-size: 70px;'>正确! </span>","null","html-keyboard-response","176","621707","0.0-7.0-1.0-1.1-0.1-1.82","3","3","3","3","2","3","2","3","3","3","3","3","2","3","2","2","3","2","3","3","2","2","3","3","3","3","2","3","1","1","0","1","1","0","0","1","1","0","1","1","0","1","0","1","3","2","3","2","3","3","2","3","3","2","772063807198728193","封","320","","","","","","","","","","","","","","","","","","","","","","","","","","","","","","feedback_test","","","","","","","","","",""
"331","","j","psychophysics","177","623040","0.0-7.0-1.0-1.1-0.1-0.83","3","3","3","3","2","3","2","3","3","3","3","3","2","3","2","2","3","2","3","3","2","2","3","3","3","3","2","3","1","1","0","1","1","0","0","1","1","0","1","1","0","1","0","1","3","2","3","2","3","3","2","3","3","2","772063807198728193","封","320","","","","nonmatch","","","","","","","","","","","","","","key","j","16.667113924049772","640","356","f","false","match","img/ellipse.png","椭圆","椭圆","ALT1_2","prac_ALT1_2","","","","","","","","","",""
"null","<span style='color:red; font-size: 70px;'>错误! </span>","null","html-keyboard-response","178","623546","0.0-7.0-1.0-1.1-0.1-1.83","3","3","3","3","2","3","2","3","3","3","3","3","2","3","2","2","3","2","3","3","2","2","3","3","3","3","2","3","1","1","0","1","1","0","0","1","1","0","1","1","0","1","0","1","3","2","3","2","3","3","2","3","3","2","772063807198728193","封","320","","","","","","","","","","","","","","","","","","","","","","","","","","","","","","feedback_test","","","","","","","","","",""
"328","","f","psychophysics","179","624875","0.0-7.0-1.0-1.1-0.1-0.84","3","3","3","3","2","3","2","3","3","3","3","3","2","3","2","2","3","2","3","3","2","2","3","3","3","3","2","3","1","1","0","1","1","0","0","1","1","0","1","1","0","1","0","1","3","2","3","2","3","3","2","3","3","2","772063807198728193","封","320","","","","match","","","","","","","","","","","","","","key","f","16.665743589743027","640","356","f","true","match","img/triangle.png","三角","三角","ALT1_2","prac_ALT1_2","","","","","","","","","",""
"null","<span style='color:GreenYellow; font-size: 70px;'>正确! </span>","null","html-keyboard-response","180","625376","0.0-7.0-1.0-1.1-0.1-1.84","3","3","3","3","2","3","2","3","3","3","3","3","2","3","2","2","3","2","3","3","2","2","3","3","3","3","2","3","1","1","0","1","1","0","0","1","1","0","1","1","0","1","0","1","3","2","3","2","3","3","2","3","3","2","772063807198728193","封","320","","","","","","","","","","","","","","","","","","","","","","","","","","","","","","feedback_test","","","","","","","","","",""
"405","","j","psychophysics","181","626783","0.0-7.0-1.0-1.1-0.1-0.85","3","3","3","3","2","3","2","3","3","3","3","3","2","3","2","2","3","2","3","3","2","2","3","3","3","3","2","3","1","1","0","1","1","0","0","1","1","0","1","1","0","1","0","1","3","2","3","2","3","3","2","3","3","2","772063807198728193","封","320","","","","nonmatch","","","","","","","","","","","","","","key","j","16.666142857142923","640","356","f","false","match","img/trapezoid.png","梯形","梯形","ALT1_2","prac_ALT1_2","","","","","","","","","",""
"null","<span style='color:red; font-size: 70px;'>错误! </span>","null","html-keyboard-response","182","627284","0.0-7.0-1.0-1.1-0.1-1.85","3","3","3","3","2","3","2","3","3","3","3","3","2","3","2","2","3","2","3","3","2","2","3","3","3","3","2","3","1","1","0","1","1","0","0","1","1","0","1","1","0","1","0","1","3","2","3","2","3","3","2","3","3","2","772063807198728193","封","320","","","","","","","","","","","","","","","","","","","","","","","","","","","","","","feedback_test","","","","","","","","","",""
"354","","f","psychophysics","183","628639","0.0-7.0-1.0-1.1-0.1-0.86","3","3","3","3","2","3","2","3","3","3","3","3","2","3","2","2","3","2","3","3","2","2","3","3","3","3","2","3","1","1","0","1","1","0","0","1","1","0","1","1","0","1","0","1","3","2","3","2","3","3","2","3","3","2","772063807198728193","封","320","","","","match","","","","","","","","","","","","","","key","f","16.66751249999943","640","356","f","true","match","img/triangle.png","三角","三角","ALT1_2","prac_ALT1_2","","","","","","","","","",""
"null","<span style='color:GreenYellow; font-size: 70px;'>正确! </span>","null","html-keyboard-response","184","629141","0.0-7.0-1.0-1.1-0.1-1.86","3","3","3","3","2","3","2","3","3","3","3","3","2","3","2","2","3","2","3","3","2","2","3","3","3","3","2","3","1","1","0","1","1","0","0","1","1","0","1","1","0","1","0","1","3","2","3","2","3","3","2","3","3","2","772063807198728193","封","320","","","","","","","","","","","","","","","","","","","","","","","","","","","","","","feedback_test","","","","","","","","","",""
"517","","f","psychophysics","185","630659","0.0-7.0-1.0-1.1-0.1-0.87","3","3","3","3","2","3","2","3","3","3","3","3","2","3","2","2","3","2","3","3","2","2","3","3","3","3","2","3","1","1","0","1","1","0","0","1","1","0","1","1","0","1","0","1","3","2","3","2","3","3","2","3","3","2","772063807198728193","封","320","","","","match","","","","","","","","","","","","","","key","f","16.66665555555632","640","356","f","true","match","img/ellipse.png","椭圆","椭圆","ALT1_2","prac_ALT1_2","","","","","","","","","",""
