"rt","stimulus","response","trial_type","trial_index","time_elapsed","internal_node_id","ses_1","ses_2","ses_3","ses_4","ses_5","ses_6","ses_7","ses_8","ses_9","ses_10","coreself_1","coreself_2","coreself_3","coreself_4","coreself_5","coreself_6","coreself_7","coreself_8","coreself_9","coreself_10","SGPS_1","SGPS_2","SGPS_3","SGPS_4","SGPS_5","SGPS_6","SGPS_7","SGPS_8","SGPS_9","NPI1","NPI2","NPI3","NPI4","NPI5","NPI6","NPI7","NPI8","NPI9","NPI10","NPI11","NPI12","NPI13","NPI14","NPI15","hsns_1","hsns_2","hsns_3","hsns_4","hsns_5","hsns_6","hsns_7","hsns_8","hsns_9","hsns_10","subj_idx","friend_name","ParticipantID","value","success","user_agent","responses","item_order","radio_event_ids","radio_event_times","key_event_times","mouse_event_times","straightlining","zigzagging","honeypot","timeout","failed_images","failed_audio","failed_video","version_attrib","version_target","correct","IAT","screen_id","task_id","RT","condition","word","varname","summary","version_attrib2","version_target2","time_stamp","view_history","response_type","key_press","avg_frame_time","center_x","center_y","correct_response","identity","Image","question_order"
"137369","
   <p><div style = ""color: white;font-size:25px;"">您好，欢迎参加本次实验。</div> </p>
   <p><div style = ""color: white;font-size:25px;"">为充分保障您的权利，请确保您已经知晓并同意《参与实验同意书》以及《数据公开知情同意书》。</div></p>
   <p><div style = ""color: white;font-size:25px;"">如果您未见过上述内容，请咨询实验员。</div></p>
   <p><div style = ""color: white;font-size:25px;"">如果您选择继续实验，则表示您已经清楚两份知情同意书的内容并同意。</div></p>
   <p><div style = ""color: red;font-size:30px;"">请确保您记得day0的实验编号，您将在本次实验输入该编号，若您忘记，请咨询实验员后作答。</div></p>
   <p> <div style = ""color: green;font-size:25px;""><按空格键至下页></div> </p>
   "," ","html-keyboard-response","0","137372","0.0-0.0","3","3","4","3","3","3","3","4","4","4","4","4","5","4","4","4","5","4","4","4","2","2","3","3","4","4","2","1","1","1","0","1","0","0","1","0","1","0","1","0","0","0","0","0","4","1","2","1","1","1","4","2","5","1","776002406046765058","罗","595","","","","","","","","","","","","","","","","","","","","","","","","","","","","","","","","","","","","","","","",""
"","","","call-function","1","137374","0.0-1.0-0.0","3","3","4","3","3","3","3","4","4","4","4","4","5","4","4","4","5","4","4","4","2","2","3","3","4","4","2","1","1","1","0","1","0","0","1","0","1","0","1","0","0","0","0","0","4","1","2","1","1","1","4","2","5","1","776002406046765058","罗","595","","","","","","","","","","","","","","","","","","","","","","","","","","","","","","","","","","","","","","","",""
"40476","","{""friend_name"":""罗"",""ParticipantID"":""595""}","survey-html-form","2","177851","0.0-1.0-1.0","3","3","4","3","3","3","3","4","4","4","4","4","5","4","4","4","5","4","4","4","2","2","3","3","4","4","2","1","1","1","0","1","0","0","1","0","1","0","1","0","0","0","0","0","4","1","2","1","1","1","4","2","5","1","776002406046765058","罗","595","","","","","","","","","","","","","","","","","","","","","","","","","","","","","","","","","","","","","","","",""
"","","","fullscreen","3","231168","0.0-2.0","3","3","4","3","3","3","3","4","4","4","4","4","5","4","4","4","5","4","4","4","2","2","3","3","4","4","2","1","1","1","0","1","0","0","1","0","1","0","1","0","0","0","0","0","4","1","2","1","1","1","4","2","5","1","776002406046765058","罗","595","","true","{}","","","","","","","","","","","","","","","","","","","","","","","","","","","","","","","","","","","","",""
"26508.79999999702","","{""Q01"":""3"",""Q02"":""3"",""Q03"":""4"",""Q04"":""3"",""Q05"":""3"",""Q06"":""3"",""Q07"":""3"",""Q08"":""4"",""Q09"":""4"",""Q10"":""4""}","survey-template","4","257694","0.0-3.0","3","3","4","3","3","3","3","4","4","4","4","4","5","4","4","4","5","4","4","4","2","2","3","3","4","4","2","1","1","1","0","1","0","0","1","0","1","0","1","0","0","0","0","0","4","1","2","1","1","1","4","2","5","1","776002406046765058","罗","595","","","","{""Q01"":""3"",""Q02"":""3"",""Q03"":""4"",""Q04"":""3"",""Q05"":""3"",""Q06"":""3"",""Q07"":""3"",""Q08"":""4"",""Q09"":""4"",""Q10"":""4""}","[0,1,2,3,4,5,6,7,8,9]","[""Q01"",""Q02"",""Q03"",""Q04"",""Q05"",""Q06"",""Q07"",""Q08"",""Q09"",""Q10""]","[4147.79999999702,5291.5999999940395,8531.59999999404,9995.79999999702,16691.70000000298,18405.20000000298,19515.70000000298,22747.59999999404,24211.59999999404,25155.59999999404]","[]","[4147.79999999702,5291.5999999940395,7819.79999999702,8531.59999999404,9995.79999999702,16691.70000000298,18405.20000000298,19515.70000000298,22747.59999999404,24211.59999999404,25155.59999999404,26507.70000000298]","0.5","0.2222222222222222","0","","","","","","","","","","","","","","","","","","","","","","","","","","","",""
"33431.79999999702","","{""Q01"":""4"",""Q02"":""4"",""Q03"":""5"",""Q04"":""4"",""Q05"":""4"",""Q06"":""4"",""Q07"":""5"",""Q08"":""4"",""Q09"":""4"",""Q10"":""4""}","survey-template","5","291131","0.0-4.0","3","3","4","3","3","3","3","4","4","4","4","4","5","4","4","4","5","4","4","4","2","2","3","3","4","4","2","1","1","1","0","1","0","0","1","0","1","0","1","0","0","0","0","0","4","1","2","1","1","1","4","2","5","1","776002406046765058","罗","595","","","","{""Q01"":""4"",""Q02"":""4"",""Q03"":""5"",""Q04"":""4"",""Q05"":""4"",""Q06"":""4"",""Q07"":""5"",""Q08"":""4"",""Q09"":""4"",""Q10"":""4""}","[0,1,2,3,4,5,6,7,8,9]","[""Q01"",""Q02"",""Q03"",""Q04"",""Q05"",""Q06"",""Q07"",""Q08"",""Q09"",""Q10""]","[3263,6142.70000000298,9414.70000000298,10838.70000000298,14470.59999999404,16270.59999999404,19734.59999999404,27102.59999999404,29766.39999999106,32206.70000000298]","[]","[3263,6142.70000000298,9414.70000000298,10838.70000000298,14470.59999999404,16270.59999999404,19734.59999999404,27102.59999999404,29766.39999999106,32206.70000000298,33430.70000000298]","0.4","0.2222222222222222","0","","","","","","","","","","","","","","","","","","","","","","","","","","","",""
"","","","preload","6","291684","0.0-5.0","3","3","4","3","3","3","3","4","4","4","4","4","5","4","4","4","5","4","4","4","2","2","3","3","4","4","2","1","1","1","0","1","0","0","1","0","1","0","1","0","0","0","0","0","4","1","2","1","1","1","4","2","5","1","776002406046765058","罗","595","","true","","","","","","","","","","","false","[]","[]","[]","","","","","","","","","","","","","","","","","","","","","","","",""
"38852","
    <h3>词语分类任务</h3>
    <p>在接下来的任务中，你需要对一系列词语进行分类。</p>
    <p>请先熟悉这些词语，这有利于你完成接下来的任务。</p>
    <table align=""center"" border=1 cellpadding=3 cellspacing=0>
    <tr> <th>类别</th> <th>词语</th> </tr>
    <tr> <td>&emsp;积极&emsp;</td> <td>&emsp;能干、全能、全才、高效、精干、天才&emsp;</td> </tr>
    <tr> <td>&emsp;消极&emsp;</td> <td>&emsp;无能、低能、废物、拙笨、愚钝、蠢笨&emsp;</td> </tr>
    <tr> <td>&emsp;自我&emsp;</td> <td>&emsp;我、我的、自己、自己的、本人、本人的&emsp;</td> </tr>
    <tr> <td>&emsp;他人&emsp;</td> <td>&emsp;他、他的、别人、别人的、他人、他人的&emsp;</td> </tr>
    </table><br/>","0","html-button-response","7","330538","0.0-6.0-0.0-0.0","3","3","4","3","3","3","3","4","4","4","4","4","5","4","4","4","5","4","4","4","2","2","3","3","4","4","2","1","1","1","0","1","0","0","1","0","1","0","1","0","0","0","0","0","4","1","2","1","1","1","4","2","5","1","776002406046765058","罗","595","","","","","","","","","","","","","","","","","1","2","","","","","","","","","","","","","","","","","","","","","",""
"44557","
    <div class=""tag-bottom"">
    <p> —— 任务1：对“他人”词和“自我”词分类 ——<p/>
    不同词语会出现在屏幕中央，类别标签将始终显示在屏幕上方<p/>   
    <span style=""color:#FFD866""><b>请根据上方标签的提示，尽可能正确并且快速地做出按键反应</b></span><p/>
    当按键错误时屏幕中会出现<span style=""color:red""> X </span>，需要按另一个键纠正才能继续<br/><p/>
    请把双手食指分别放在键盘的“E”键和“I”键上<p/>
    按<空格键>开始
    </p></div>"," ","html-keyboard-response","8","375098","0.0-6.0-0.0-1.0","3","3","4","3","3","3","3","4","4","4","4","4","5","4","4","4","5","4","4","4","2","2","3","3","4","4","2","1","1","1","0","1","0","0","1","0","1","0","1","0","0","0","0","0","4","1","2","1","1","1","4","2","5","1","776002406046765058","罗","595","","","","","","","","","","","","","","","","","","","","","","","","","","","","","","","","","","","","","","","",""
"null","","null","html-keyboard-response","9","375349","0.0-6.0-0.0-2.0-0.0","3","3","4","3","3","3","3","4","4","4","4","4","5","4","4","4","5","4","4","4","2","2","3","3","4","4","2","1","1","1","0","1","0","0","1","0","1","0","1","0","0","0","0","0","4","1","2","1","1","1","4","2","5","1","776002406046765058","罗","595","","","","","","","","","","","","","","","","","","","","","","","","","","","","","","","","","","","","","","","",""
"1491","<p style=""color:rgb(150, 250, 100); font-size: 35px;"">自己</p>","i","categorize-html","10","376843","0.0-6.0-0.0-2.0-1.0","3","3","4","3","3","3","3","4","4","4","4","4","5","4","4","4","5","4","4","4","2","2","3","3","4","4","2","1","1","1","0","1","0","0","1","0","1","0","1","0","0","0","0","0","4","1","2","1","1","1","4","2","5","1","776002406046765058","罗","595","","","","","","","","","","","","","","","","","","","true","1","1","ability","1491","self","自己","","","","","","","","","","","","","","",""
"null","","null","html-keyboard-response","11","377094","0.0-6.0-0.0-2.0-0.1","3","3","4","3","3","3","3","4","4","4","4","4","5","4","4","4","5","4","4","4","2","2","3","3","4","4","2","1","1","1","0","1","0","0","1","0","1","0","1","0","0","0","0","0","4","1","2","1","1","1","4","2","5","1","776002406046765058","罗","595","","","","","","","","","","","","","","","","","","","","","","","","","","","","","","","","","","","","","","","",""
"915","<p style=""color:rgb(150, 250, 100); font-size: 35px;"">他人的</p>","e","categorize-html","12","378011","0.0-6.0-0.0-2.0-1.1","3","3","4","3","3","3","3","4","4","4","4","4","5","4","4","4","5","4","4","4","2","2","3","3","4","4","2","1","1","1","0","1","0","0","1","0","1","0","1","0","0","0","0","0","4","1","2","1","1","1","4","2","5","1","776002406046765058","罗","595","","","","","","","","","","","","","","","","","","","true","1","1","ability","915","other","他人的","","","","","","","","","","","","","","",""
"null","","null","html-keyboard-response","13","378262","0.0-6.0-0.0-2.0-0.2","3","3","4","3","3","3","3","4","4","4","4","4","5","4","4","4","5","4","4","4","2","2","3","3","4","4","2","1","1","1","0","1","0","0","1","0","1","0","1","0","0","0","0","0","4","1","2","1","1","1","4","2","5","1","776002406046765058","罗","595","","","","","","","","","","","","","","","","","","","","","","","","","","","","","","","","","","","","","","","",""
"707","<p style=""color:rgb(150, 250, 100); font-size: 35px;"">他人</p>","e","categorize-html","14","378971","0.0-6.0-0.0-2.0-1.2","3","3","4","3","3","3","3","4","4","4","4","4","5","4","4","4","5","4","4","4","2","2","3","3","4","4","2","1","1","1","0","1","0","0","1","0","1","0","1","0","0","0","0","0","4","1","2","1","1","1","4","2","5","1","776002406046765058","罗","595","","","","","","","","","","","","","","","","","","","true","1","1","ability","707","other","他人","","","","","","","","","","","","","","",""
"null","","null","html-keyboard-response","15","379222","0.0-6.0-0.0-2.0-0.3","3","3","4","3","3","3","3","4","4","4","4","4","5","4","4","4","5","4","4","4","2","2","3","3","4","4","2","1","1","1","0","1","0","0","1","0","1","0","1","0","0","0","0","0","4","1","2","1","1","1","4","2","5","1","776002406046765058","罗","595","","","","","","","","","","","","","","","","","","","","","","","","","","","","","","","","","","","","","","","",""
"891","<p style=""color:rgb(150, 250, 100); font-size: 35px;"">别人</p>","e","categorize-html","16","380115","0.0-6.0-0.0-2.0-1.3","3","3","4","3","3","3","3","4","4","4","4","4","5","4","4","4","5","4","4","4","2","2","3","3","4","4","2","1","1","1","0","1","0","0","1","0","1","0","1","0","0","0","0","0","4","1","2","1","1","1","4","2","5","1","776002406046765058","罗","595","","","","","","","","","","","","","","","","","","","true","1","1","ability","891","other","别人","","","","","","","","","","","","","","",""
"null","","null","html-keyboard-response","17","380365","0.0-6.0-0.0-2.0-0.4","3","3","4","3","3","3","3","4","4","4","4","4","5","4","4","4","5","4","4","4","2","2","3","3","4","4","2","1","1","1","0","1","0","0","1","0","1","0","1","0","0","0","0","0","4","1","2","1","1","1","4","2","5","1","776002406046765058","罗","595","","","","","","","","","","","","","","","","","","","","","","","","","","","","","","","","","","","","","","","",""
"612","<p style=""color:rgb(150, 250, 100); font-size: 35px;"">我的</p>","i","categorize-html","18","380979","0.0-6.0-0.0-2.0-1.4","3","3","4","3","3","3","3","4","4","4","4","4","5","4","4","4","5","4","4","4","2","2","3","3","4","4","2","1","1","1","0","1","0","0","1","0","1","0","1","0","0","0","0","0","4","1","2","1","1","1","4","2","5","1","776002406046765058","罗","595","","","","","","","","","","","","","","","","","","","true","1","1","ability","612","self","我的","","","","","","","","","","","","","","",""
"null","","null","html-keyboard-response","19","381230","0.0-6.0-0.0-2.0-0.5","3","3","4","3","3","3","3","4","4","4","4","4","5","4","4","4","5","4","4","4","2","2","3","3","4","4","2","1","1","1","0","1","0","0","1","0","1","0","1","0","0","0","0","0","4","1","2","1","1","1","4","2","5","1","776002406046765058","罗","595","","","","","","","","","","","","","","","","","","","","","","","","","","","","","","","","","","","","","","","",""
"835","<p style=""color:rgb(150, 250, 100); font-size: 35px;"">本人的</p>","i","categorize-html","20","382067","0.0-6.0-0.0-2.0-1.5","3","3","4","3","3","3","3","4","4","4","4","4","5","4","4","4","5","4","4","4","2","2","3","3","4","4","2","1","1","1","0","1","0","0","1","0","1","0","1","0","0","0","0","0","4","1","2","1","1","1","4","2","5","1","776002406046765058","罗","595","","","","","","","","","","","","","","","","","","","true","1","1","ability","835","self","本人的","","","","","","","","","","","","","","",""
"null","","null","html-keyboard-response","21","382318","0.0-6.0-0.0-2.0-0.6","3","3","4","3","3","3","3","4","4","4","4","4","5","4","4","4","5","4","4","4","2","2","3","3","4","4","2","1","1","1","0","1","0","0","1","0","1","0","1","0","0","0","0","0","4","1","2","1","1","1","4","2","5","1","776002406046765058","罗","595","","","","","","","","","","","","","","","","","","","","","","","","","","","","","","","","","","","","","","","",""
"691","<p style=""color:rgb(150, 250, 100); font-size: 35px;"">本人</p>","i","categorize-html","22","383011","0.0-6.0-0.0-2.0-1.6","3","3","4","3","3","3","3","4","4","4","4","4","5","4","4","4","5","4","4","4","2","2","3","3","4","4","2","1","1","1","0","1","0","0","1","0","1","0","1","0","0","0","0","0","4","1","2","1","1","1","4","2","5","1","776002406046765058","罗","595","","","","","","","","","","","","","","","","","","","true","1","1","ability","691","self","本人","","","","","","","","","","","","","","",""
"null","","null","html-keyboard-response","23","383262","0.0-6.0-0.0-2.0-0.7","3","3","4","3","3","3","3","4","4","4","4","4","5","4","4","4","5","4","4","4","2","2","3","3","4","4","2","1","1","1","0","1","0","0","1","0","1","0","1","0","0","0","0","0","4","1","2","1","1","1","4","2","5","1","776002406046765058","罗","595","","","","","","","","","","","","","","","","","","","","","","","","","","","","","","","","","","","","","","","",""
"699","<p style=""color:rgb(150, 250, 100); font-size: 35px;"">我</p>","i","categorize-html","24","383964","0.0-6.0-0.0-2.0-1.7","3","3","4","3","3","3","3","4","4","4","4","4","5","4","4","4","5","4","4","4","2","2","3","3","4","4","2","1","1","1","0","1","0","0","1","0","1","0","1","0","0","0","0","0","4","1","2","1","1","1","4","2","5","1","776002406046765058","罗","595","","","","","","","","","","","","","","","","","","","true","1","1","ability","699","self","我","","","","","","","","","","","","","","",""
"null","","null","html-keyboard-response","25","384215","0.0-6.0-0.0-2.0-0.8","3","3","4","3","3","3","3","4","4","4","4","4","5","4","4","4","5","4","4","4","2","2","3","3","4","4","2","1","1","1","0","1","0","0","1","0","1","0","1","0","0","0","0","0","4","1","2","1","1","1","4","2","5","1","776002406046765058","罗","595","","","","","","","","","","","","","","","","","","","","","","","","","","","","","","","","","","","","","","","",""
"578","<p style=""color:rgb(150, 250, 100); font-size: 35px;"">自己的</p>","i","categorize-html","26","384795","0.0-6.0-0.0-2.0-1.8","3","3","4","3","3","3","3","4","4","4","4","4","5","4","4","4","5","4","4","4","2","2","3","3","4","4","2","1","1","1","0","1","0","0","1","0","1","0","1","0","0","0","0","0","4","1","2","1","1","1","4","2","5","1","776002406046765058","罗","595","","","","","","","","","","","","","","","","","","","true","1","1","ability","578","self","自己的","","","","","","","","","","","","","","",""
"null","","null","html-keyboard-response","27","385047","0.0-6.0-0.0-2.0-0.9","3","3","4","3","3","3","3","4","4","4","4","4","5","4","4","4","5","4","4","4","2","2","3","3","4","4","2","1","1","1","0","1","0","0","1","0","1","0","1","0","0","0","0","0","4","1","2","1","1","1","4","2","5","1","776002406046765058","罗","595","","","","","","","","","","","","","","","","","","","","","","","","","","","","","","","","","","","","","","","",""
"698","<p style=""color:rgb(150, 250, 100); font-size: 35px;"">他</p>","e","categorize-html","28","385747","0.0-6.0-0.0-2.0-1.9","3","3","4","3","3","3","3","4","4","4","4","4","5","4","4","4","5","4","4","4","2","2","3","3","4","4","2","1","1","1","0","1","0","0","1","0","1","0","1","0","0","0","0","0","4","1","2","1","1","1","4","2","5","1","776002406046765058","罗","595","","","","","","","","","","","","","","","","","","","true","1","1","ability","698","other","他","","","","","","","","","","","","","","",""
"null","","null","html-keyboard-response","29","385998","0.0-6.0-0.0-2.0-0.10","3","3","4","3","3","3","3","4","4","4","4","4","5","4","4","4","5","4","4","4","2","2","3","3","4","4","2","1","1","1","0","1","0","0","1","0","1","0","1","0","0","0","0","0","4","1","2","1","1","1","4","2","5","1","776002406046765058","罗","595","","","","","","","","","","","","","","","","","","","","","","","","","","","","","","","","","","","","","","","",""
"619","<p style=""color:rgb(150, 250, 100); font-size: 35px;"">他的</p>","e","categorize-html","30","386619","0.0-6.0-0.0-2.0-1.10","3","3","4","3","3","3","3","4","4","4","4","4","5","4","4","4","5","4","4","4","2","2","3","3","4","4","2","1","1","1","0","1","0","0","1","0","1","0","1","0","0","0","0","0","4","1","2","1","1","1","4","2","5","1","776002406046765058","罗","595","","","","","","","","","","","","","","","","","","","true","1","1","ability","619","other","他的","","","","","","","","","","","","","","",""
"null","","null","html-keyboard-response","31","386870","0.0-6.0-0.0-2.0-0.11","3","3","4","3","3","3","3","4","4","4","4","4","5","4","4","4","5","4","4","4","2","2","3","3","4","4","2","1","1","1","0","1","0","0","1","0","1","0","1","0","0","0","0","0","4","1","2","1","1","1","4","2","5","1","776002406046765058","罗","595","","","","","","","","","","","","","","","","","","","","","","","","","","","","","","","","","","","","","","","",""
"659","<p style=""color:rgb(150, 250, 100); font-size: 35px;"">别人的</p>","e","categorize-html","32","387531","0.0-6.0-0.0-2.0-1.11","3","3","4","3","3","3","3","4","4","4","4","4","5","4","4","4","5","4","4","4","2","2","3","3","4","4","2","1","1","1","0","1","0","0","1","0","1","0","1","0","0","0","0","0","4","1","2","1","1","1","4","2","5","1","776002406046765058","罗","595","","","","","","","","","","","","","","","","","","","true","1","1","ability","659","other","别人的","","","","","","","","","","","","","","",""
"18439","
    <div class=""tag-bottom""><p>
    —— 任务2：对“积极”词和“消极”词分类 ——<p/>   
    <span style=""color:#78DCE8""><b>注意上方，类别标签和需要分类的词语都已经改变</b></span><p/>
    <span style=""color:#FFD866""><b>请根据上方标签的提示，尽可能正确并且快速地做出按键反应</b></span><p/>
    当按键错误时屏幕中会出现<span style=""color:red""> X </span>，需要按另一个键纠正才能继续<br/><p/>
    请把双手食指分别放在键盘的“E”键和“I”键上<p/>
    按<空格键>开始
    </p></div>"," ","html-keyboard-response","33","405970","0.0-6.0-0.0-3.0","3","3","4","3","3","3","3","4","4","4","4","4","5","4","4","4","5","4","4","4","2","2","3","3","4","4","2","1","1","1","0","1","0","0","1","0","1","0","1","0","0","0","0","0","4","1","2","1","1","1","4","2","5","1","776002406046765058","罗","595","","","","","","","","","","","","","","","","","","","","","","","","","","","","","","","","","","","","","","","",""
"null","","null","html-keyboard-response","34","406220","0.0-6.0-0.0-4.0-0.0","3","3","4","3","3","3","3","4","4","4","4","4","5","4","4","4","5","4","4","4","2","2","3","3","4","4","2","1","1","1","0","1","0","0","1","0","1","0","1","0","0","0","0","0","4","1","2","1","1","1","4","2","5","1","776002406046765058","罗","595","","","","","","","","","","","","","","","","","","","","","","","","","","","","","","","","","","","","","","","",""
"980","<p style=""color:white; font-size: 35px;"">低能</p>","i","categorize-html","35","407203","0.0-6.0-0.0-4.0-1.0","3","3","4","3","3","3","3","4","4","4","4","4","5","4","4","4","5","4","4","4","2","2","3","3","4","4","2","1","1","1","0","1","0","0","1","0","1","0","1","0","0","0","0","0","4","1","2","1","1","1","4","2","5","1","776002406046765058","罗","595","","","","","","","","","","","","","","","","","","","true","2","2","ability","980","negative","低能","","","","","","","","","","","","","","",""
"null","","null","html-keyboard-response","36","407454","0.0-6.0-0.0-4.0-0.1","3","3","4","3","3","3","3","4","4","4","4","4","5","4","4","4","5","4","4","4","2","2","3","3","4","4","2","1","1","1","0","1","0","0","1","0","1","0","1","0","0","0","0","0","4","1","2","1","1","1","4","2","5","1","776002406046765058","罗","595","","","","","","","","","","","","","","","","","","","","","","","","","","","","","","","","","","","","","","","",""
"795","<p style=""color:white; font-size: 35px;"">天才</p>","e","categorize-html","37","408251","0.0-6.0-0.0-4.0-1.1","3","3","4","3","3","3","3","4","4","4","4","4","5","4","4","4","5","4","4","4","2","2","3","3","4","4","2","1","1","1","0","1","0","0","1","0","1","0","1","0","0","0","0","0","4","1","2","1","1","1","4","2","5","1","776002406046765058","罗","595","","","","","","","","","","","","","","","","","","","true","2","2","ability","795","positive","天才","","","","","","","","","","","","","","",""
"null","","null","html-keyboard-response","38","408501","0.0-6.0-0.0-4.0-0.2","3","3","4","3","3","3","3","4","4","4","4","4","5","4","4","4","5","4","4","4","2","2","3","3","4","4","2","1","1","1","0","1","0","0","1","0","1","0","1","0","0","0","0","0","4","1","2","1","1","1","4","2","5","1","776002406046765058","罗","595","","","","","","","","","","","","","","","","","","","","","","","","","","","","","","","","","","","","","","","",""
"700","<p style=""color:white; font-size: 35px;"">全能</p>","e","categorize-html","39","409202","0.0-6.0-0.0-4.0-1.2","3","3","4","3","3","3","3","4","4","4","4","4","5","4","4","4","5","4","4","4","2","2","3","3","4","4","2","1","1","1","0","1","0","0","1","0","1","0","1","0","0","0","0","0","4","1","2","1","1","1","4","2","5","1","776002406046765058","罗","595","","","","","","","","","","","","","","","","","","","true","2","2","ability","700","positive","全能","","","","","","","","","","","","","","",""
"null","","null","html-keyboard-response","40","409454","0.0-6.0-0.0-4.0-0.3","3","3","4","3","3","3","3","4","4","4","4","4","5","4","4","4","5","4","4","4","2","2","3","3","4","4","2","1","1","1","0","1","0","0","1","0","1","0","1","0","0","0","0","0","4","1","2","1","1","1","4","2","5","1","776002406046765058","罗","595","","","","","","","","","","","","","","","","","","","","","","","","","","","","","","","","","","","","","","","",""
"748","<p style=""color:white; font-size: 35px;"">废物</p>","i","categorize-html","41","410203","0.0-6.0-0.0-4.0-1.3","3","3","4","3","3","3","3","4","4","4","4","4","5","4","4","4","5","4","4","4","2","2","3","3","4","4","2","1","1","1","0","1","0","0","1","0","1","0","1","0","0","0","0","0","4","1","2","1","1","1","4","2","5","1","776002406046765058","罗","595","","","","","","","","","","","","","","","","","","","true","2","2","ability","748","negative","废物","","","","","","","","","","","","","","",""
"null","","null","html-keyboard-response","42","410454","0.0-6.0-0.0-4.0-0.4","3","3","4","3","3","3","3","4","4","4","4","4","5","4","4","4","5","4","4","4","2","2","3","3","4","4","2","1","1","1","0","1","0","0","1","0","1","0","1","0","0","0","0","0","4","1","2","1","1","1","4","2","5","1","776002406046765058","罗","595","","","","","","","","","","","","","","","","","","","","","","","","","","","","","","","","","","","","","","","",""
"691","<p style=""color:white; font-size: 35px;"">精干</p>","e","categorize-html","43","411147","0.0-6.0-0.0-4.0-1.4","3","3","4","3","3","3","3","4","4","4","4","4","5","4","4","4","5","4","4","4","2","2","3","3","4","4","2","1","1","1","0","1","0","0","1","0","1","0","1","0","0","0","0","0","4","1","2","1","1","1","4","2","5","1","776002406046765058","罗","595","","","","","","","","","","","","","","","","","","","true","2","2","ability","691","positive","精干","","","","","","","","","","","","","","",""
"null","","null","html-keyboard-response","44","411397","0.0-6.0-0.0-4.0-0.5","3","3","4","3","3","3","3","4","4","4","4","4","5","4","4","4","5","4","4","4","2","2","3","3","4","4","2","1","1","1","0","1","0","0","1","0","1","0","1","0","0","0","0","0","4","1","2","1","1","1","4","2","5","1","776002406046765058","罗","595","","","","","","","","","","","","","","","","","","","","","","","","","","","","","","","","","","","","","","","",""
"692","<p style=""color:white; font-size: 35px;"">蠢笨</p>","i","categorize-html","45","412091","0.0-6.0-0.0-4.0-1.5","3","3","4","3","3","3","3","4","4","4","4","4","5","4","4","4","5","4","4","4","2","2","3","3","4","4","2","1","1","1","0","1","0","0","1","0","1","0","1","0","0","0","0","0","4","1","2","1","1","1","4","2","5","1","776002406046765058","罗","595","","","","","","","","","","","","","","","","","","","true","2","2","ability","692","negative","蠢笨","","","","","","","","","","","","","","",""
"null","","null","html-keyboard-response","46","412342","0.0-6.0-0.0-4.0-0.6","3","3","4","3","3","3","3","4","4","4","4","4","5","4","4","4","5","4","4","4","2","2","3","3","4","4","2","1","1","1","0","1","0","0","1","0","1","0","1","0","0","0","0","0","4","1","2","1","1","1","4","2","5","1","776002406046765058","罗","595","","","","","","","","","","","","","","","","","","","","","","","","","","","","","","","","","","","","","","","",""
"603","<p style=""color:white; font-size: 35px;"">拙笨</p>","i","categorize-html","47","412946","0.0-6.0-0.0-4.0-1.6","3","3","4","3","3","3","3","4","4","4","4","4","5","4","4","4","5","4","4","4","2","2","3","3","4","4","2","1","1","1","0","1","0","0","1","0","1","0","1","0","0","0","0","0","4","1","2","1","1","1","4","2","5","1","776002406046765058","罗","595","","","","","","","","","","","","","","","","","","","true","2","2","ability","603","negative","拙笨","","","","","","","","","","","","","","",""
"null","","null","html-keyboard-response","48","413198","0.0-6.0-0.0-4.0-0.7","3","3","4","3","3","3","3","4","4","4","4","4","5","4","4","4","5","4","4","4","2","2","3","3","4","4","2","1","1","1","0","1","0","0","1","0","1","0","1","0","0","0","0","0","4","1","2","1","1","1","4","2","5","1","776002406046765058","罗","595","","","","","","","","","","","","","","","","","","","","","","","","","","","","","","","","","","","","","","","",""
"644","<p style=""color:white; font-size: 35px;"">高效</p>","e","categorize-html","49","413843","0.0-6.0-0.0-4.0-1.7","3","3","4","3","3","3","3","4","4","4","4","4","5","4","4","4","5","4","4","4","2","2","3","3","4","4","2","1","1","1","0","1","0","0","1","0","1","0","1","0","0","0","0","0","4","1","2","1","1","1","4","2","5","1","776002406046765058","罗","595","","","","","","","","","","","","","","","","","","","true","2","2","ability","644","positive","高效","","","","","","","","","","","","","","",""
"null","","null","html-keyboard-response","50","414094","0.0-6.0-0.0-4.0-0.8","3","3","4","3","3","3","3","4","4","4","4","4","5","4","4","4","5","4","4","4","2","2","3","3","4","4","2","1","1","1","0","1","0","0","1","0","1","0","1","0","0","0","0","0","4","1","2","1","1","1","4","2","5","1","776002406046765058","罗","595","","","","","","","","","","","","","","","","","","","","","","","","","","","","","","","","","","","","","","","",""
"787","<p style=""color:white; font-size: 35px;"">愚钝</p>","i","categorize-html","51","414882","0.0-6.0-0.0-4.0-1.8","3","3","4","3","3","3","3","4","4","4","4","4","5","4","4","4","5","4","4","4","2","2","3","3","4","4","2","1","1","1","0","1","0","0","1","0","1","0","1","0","0","0","0","0","4","1","2","1","1","1","4","2","5","1","776002406046765058","罗","595","","","","","","","","","","","","","","","","","","","true","2","2","ability","787","negative","愚钝","","","","","","","","","","","","","","",""
"null","","null","html-keyboard-response","52","415133","0.0-6.0-0.0-4.0-0.9","3","3","4","3","3","3","3","4","4","4","4","4","5","4","4","4","5","4","4","4","2","2","3","3","4","4","2","1","1","1","0","1","0","0","1","0","1","0","1","0","0","0","0","0","4","1","2","1","1","1","4","2","5","1","776002406046765058","罗","595","","","","","","","","","","","","","","","","","","","","","","","","","","","","","","","","","","","","","","","",""
"788","<p style=""color:white; font-size: 35px;"">能干</p>","e","categorize-html","53","415923","0.0-6.0-0.0-4.0-1.9","3","3","4","3","3","3","3","4","4","4","4","4","5","4","4","4","5","4","4","4","2","2","3","3","4","4","2","1","1","1","0","1","0","0","1","0","1","0","1","0","0","0","0","0","4","1","2","1","1","1","4","2","5","1","776002406046765058","罗","595","","","","","","","","","","","","","","","","","","","true","2","2","ability","788","positive","能干","","","","","","","","","","","","","","",""
"null","","null","html-keyboard-response","54","416174","0.0-6.0-0.0-4.0-0.10","3","3","4","3","3","3","3","4","4","4","4","4","5","4","4","4","5","4","4","4","2","2","3","3","4","4","2","1","1","1","0","1","0","0","1","0","1","0","1","0","0","0","0","0","4","1","2","1","1","1","4","2","5","1","776002406046765058","罗","595","","","","","","","","","","","","","","","","","","","","","","","","","","","","","","","","","","","","","","","",""
"692","<p style=""color:white; font-size: 35px;"">全才</p>","e","categorize-html","55","416867","0.0-6.0-0.0-4.0-1.10","3","3","4","3","3","3","3","4","4","4","4","4","5","4","4","4","5","4","4","4","2","2","3","3","4","4","2","1","1","1","0","1","0","0","1","0","1","0","1","0","0","0","0","0","4","1","2","1","1","1","4","2","5","1","776002406046765058","罗","595","","","","","","","","","","","","","","","","","","","true","2","2","ability","692","positive","全才","","","","","","","","","","","","","","",""
"null","","null","html-keyboard-response","56","417118","0.0-6.0-0.0-4.0-0.11","3","3","4","3","3","3","3","4","4","4","4","4","5","4","4","4","5","4","4","4","2","2","3","3","4","4","2","1","1","1","0","1","0","0","1","0","1","0","1","0","0","0","0","0","4","1","2","1","1","1","4","2","5","1","776002406046765058","罗","595","","","","","","","","","","","","","","","","","","","","","","","","","","","","","","","","","","","","","","","",""
"731","<p style=""color:white; font-size: 35px;"">无能</p>","i","categorize-html","57","417850","0.0-6.0-0.0-4.0-1.11","3","3","4","3","3","3","3","4","4","4","4","4","5","4","4","4","5","4","4","4","2","2","3","3","4","4","2","1","1","1","0","1","0","0","1","0","1","0","1","0","0","0","0","0","4","1","2","1","1","1","4","2","5","1","776002406046765058","罗","595","","","","","","","","","","","","","","","","","","","true","2","2","ability","731","negative","无能","","","","","","","","","","","","","","",""
"21583","
    <div class=""tag-bottom""><p>
    —— 任务3：对“他人/积极”词和“自我/消极”词分类 ——<p/>
    <span style=""color:#78DCE8""><b>注意上方，之前的四类词语将混合在一起交替呈现</b></span><p/>
    <span style=""color:#FFD866""><b>请根据上方标签的提示，尽可能正确并且快速地做出按键反应</b></span><p/>
    当按键错误时屏幕中会出现<span style=""color:red""> X </span>，需要按另一个键纠正才能继续<br/><p/>
    请把双手食指分别放在键盘的“E”键和“I”键上<p/>
    按<空格键>开始
    </p></div>"," ","html-keyboard-response","58","439434","0.0-6.0-0.0-5.0","3","3","4","3","3","3","3","4","4","4","4","4","5","4","4","4","5","4","4","4","2","2","3","3","4","4","2","1","1","1","0","1","0","0","1","0","1","0","1","0","0","0","0","0","4","1","2","1","1","1","4","2","5","1","776002406046765058","罗","595","","","","","","","","","","","","","","","","","","","","","","","","","","","","","","","","","","","","","","","",""
"null","","null","html-keyboard-response","59","439685","0.0-6.0-0.0-6.0-0.0","3","3","4","3","3","3","3","4","4","4","4","4","5","4","4","4","5","4","4","4","2","2","3","3","4","4","2","1","1","1","0","1","0","0","1","0","1","0","1","0","0","0","0","0","4","1","2","1","1","1","4","2","5","1","776002406046765058","罗","595","","","","","","","","","","","","","","","","","","","","","","","","","","","","","","","","","","","","","","","",""
"1428","<p style=""color:rgb(150, 250, 100); font-size: 35px;"">我的</p>","i","categorize-html","60","441115","0.0-6.0-0.0-6.0-1.0","3","3","4","3","3","3","3","4","4","4","4","4","5","4","4","4","5","4","4","4","2","2","3","3","4","4","2","1","1","1","0","1","0","0","1","0","1","0","1","0","0","0","0","0","4","1","2","1","1","1","4","2","5","1","776002406046765058","罗","595","","","","","","","","","","","","","","","","","","","true","3","3","ability","1428","self","我的","","","","","","","","","","","","","","",""
"null","","null","html-keyboard-response","61","441365","0.0-6.0-0.0-6.0-0.1","3","3","4","3","3","3","3","4","4","4","4","4","5","4","4","4","5","4","4","4","2","2","3","3","4","4","2","1","1","1","0","1","0","0","1","0","1","0","1","0","0","0","0","0","4","1","2","1","1","1","4","2","5","1","776002406046765058","罗","595","","","","","","","","","","","","","","","","","","","","","","","","","","","","","","","","","","","","","","","",""
"2220","<p style=""color:white; font-size: 35px;"">蠢笨</p>","i","categorize-html","62","443587","0.0-6.0-0.0-6.0-1.1","3","3","4","3","3","3","3","4","4","4","4","4","5","4","4","4","5","4","4","4","2","2","3","3","4","4","2","1","1","1","0","1","0","0","1","0","1","0","1","0","0","0","0","0","4","1","2","1","1","1","4","2","5","1","776002406046765058","罗","595","","","","","","","","","","","","","","","","","","","true","3","3","ability","2220","negative","蠢笨","","","","","","","","","","","","","","",""
"null","","null","html-keyboard-response","63","443838","0.0-6.0-0.0-6.0-0.2","3","3","4","3","3","3","3","4","4","4","4","4","5","4","4","4","5","4","4","4","2","2","3","3","4","4","2","1","1","1","0","1","0","0","1","0","1","0","1","0","0","0","0","0","4","1","2","1","1","1","4","2","5","1","776002406046765058","罗","595","","","","","","","","","","","","","","","","","","","","","","","","","","","","","","","","","","","","","","","",""
"755","<p style=""color:rgb(150, 250, 100); font-size: 35px;"">别人</p>","e","categorize-html","64","444595","0.0-6.0-0.0-6.0-1.2","3","3","4","3","3","3","3","4","4","4","4","4","5","4","4","4","5","4","4","4","2","2","3","3","4","4","2","1","1","1","0","1","0","0","1","0","1","0","1","0","0","0","0","0","4","1","2","1","1","1","4","2","5","1","776002406046765058","罗","595","","","","","","","","","","","","","","","","","","","true","3","3","ability","755","other","别人","","","","","","","","","","","","","","",""
"null","","null","html-keyboard-response","65","444846","0.0-6.0-0.0-6.0-0.3","3","3","4","3","3","3","3","4","4","4","4","4","5","4","4","4","5","4","4","4","2","2","3","3","4","4","2","1","1","1","0","1","0","0","1","0","1","0","1","0","0","0","0","0","4","1","2","1","1","1","4","2","5","1","776002406046765058","罗","595","","","","","","","","","","","","","","","","","","","","","","","","","","","","","","","","","","","","","","","",""
"603","<p style=""color:white; font-size: 35px;"">能干</p>","e","categorize-html","66","445451","0.0-6.0-0.0-6.0-1.3","3","3","4","3","3","3","3","4","4","4","4","4","5","4","4","4","5","4","4","4","2","2","3","3","4","4","2","1","1","1","0","1","0","0","1","0","1","0","1","0","0","0","0","0","4","1","2","1","1","1","4","2","5","1","776002406046765058","罗","595","","","","","","","","","","","","","","","","","","","true","3","3","ability","603","positive","能干","","","","","","","","","","","","","","",""
"null","","null","html-keyboard-response","67","445703","0.0-6.0-0.0-6.0-0.4","3","3","4","3","3","3","3","4","4","4","4","4","5","4","4","4","5","4","4","4","2","2","3","3","4","4","2","1","1","1","0","1","0","0","1","0","1","0","1","0","0","0","0","0","4","1","2","1","1","1","4","2","5","1","776002406046765058","罗","595","","","","","","","","","","","","","","","","","","","","","","","","","","","","","","","","","","","","","","","",""
"682","<p style=""color:rgb(150, 250, 100); font-size: 35px;"">他人的</p>","e","categorize-html","68","446386","0.0-6.0-0.0-6.0-1.4","3","3","4","3","3","3","3","4","4","4","4","4","5","4","4","4","5","4","4","4","2","2","3","3","4","4","2","1","1","1","0","1","0","0","1","0","1","0","1","0","0","0","0","0","4","1","2","1","1","1","4","2","5","1","776002406046765058","罗","595","","","","","","","","","","","","","","","","","","","true","3","3","ability","682","other","他人的","","","","","","","","","","","","","","",""
"null","","null","html-keyboard-response","69","446638","0.0-6.0-0.0-6.0-0.5","3","3","4","3","3","3","3","4","4","4","4","4","5","4","4","4","5","4","4","4","2","2","3","3","4","4","2","1","1","1","0","1","0","0","1","0","1","0","1","0","0","0","0","0","4","1","2","1","1","1","4","2","5","1","776002406046765058","罗","595","","","","","","","","","","","","","","","","","","","","","","","","","","","","","","","","","","","","","","","",""
"619","<p style=""color:white; font-size: 35px;"">精干</p>","e","categorize-html","70","447259","0.0-6.0-0.0-6.0-1.5","3","3","4","3","3","3","3","4","4","4","4","4","5","4","4","4","5","4","4","4","2","2","3","3","4","4","2","1","1","1","0","1","0","0","1","0","1","0","1","0","0","0","0","0","4","1","2","1","1","1","4","2","5","1","776002406046765058","罗","595","","","","","","","","","","","","","","","","","","","true","3","3","ability","619","positive","精干","","","","","","","","","","","","","","",""
"null","","null","html-keyboard-response","71","447510","0.0-6.0-0.0-6.0-0.6","3","3","4","3","3","3","3","4","4","4","4","4","5","4","4","4","5","4","4","4","2","2","3","3","4","4","2","1","1","1","0","1","0","0","1","0","1","0","1","0","0","0","0","0","4","1","2","1","1","1","4","2","5","1","776002406046765058","罗","595","","","","","","","","","","","","","","","","","","","","","","","","","","","","","","","","","","","","","","","",""
"1819","<p style=""color:rgb(150, 250, 100); font-size: 35px;"">我</p>","i","categorize-html","72","449331","0.0-6.0-0.0-6.0-1.6","3","3","4","3","3","3","3","4","4","4","4","4","5","4","4","4","5","4","4","4","2","2","3","3","4","4","2","1","1","1","0","1","0","0","1","0","1","0","1","0","0","0","0","0","4","1","2","1","1","1","4","2","5","1","776002406046765058","罗","595","","","","","","","","","","","","","","","","","","","true","3","3","ability","1819","self","我","","","","","","","","","","","","","","",""
"null","","null","html-keyboard-response","73","449582","0.0-6.0-0.0-6.0-0.7","3","3","4","3","3","3","3","4","4","4","4","4","5","4","4","4","5","4","4","4","2","2","3","3","4","4","2","1","1","1","0","1","0","0","1","0","1","0","1","0","0","0","0","0","4","1","2","1","1","1","4","2","5","1","776002406046765058","罗","595","","","","","","","","","","","","","","","","","","","","","","","","","","","","","","","","","","","","","","","",""
"2683","<p style=""color:white; font-size: 35px;"">废物</p>","i","categorize-html","74","452267","0.0-6.0-0.0-6.0-1.7","3","3","4","3","3","3","3","4","4","4","4","4","5","4","4","4","5","4","4","4","2","2","3","3","4","4","2","1","1","1","0","1","0","0","1","0","1","0","1","0","0","0","0","0","4","1","2","1","1","1","4","2","5","1","776002406046765058","罗","595","","","","","","","","","","","","","","","","","","","true","3","3","ability","2683","negative","废物","","","","","","","","","","","","","","",""
"null","","null","html-keyboard-response","75","452519","0.0-6.0-0.0-6.0-0.8","3","3","4","3","3","3","3","4","4","4","4","4","5","4","4","4","5","4","4","4","2","2","3","3","4","4","2","1","1","1","0","1","0","0","1","0","1","0","1","0","0","0","0","0","4","1","2","1","1","1","4","2","5","1","776002406046765058","罗","595","","","","","","","","","","","","","","","","","","","","","","","","","","","","","","","","","","","","","","","",""
"843","<p style=""color:rgb(150, 250, 100); font-size: 35px;"">他的</p>","e","categorize-html","76","453363","0.0-6.0-0.0-6.0-1.8","3","3","4","3","3","3","3","4","4","4","4","4","5","4","4","4","5","4","4","4","2","2","3","3","4","4","2","1","1","1","0","1","0","0","1","0","1","0","1","0","0","0","0","0","4","1","2","1","1","1","4","2","5","1","776002406046765058","罗","595","","","","","","","","","","","","","","","","","","","true","3","3","ability","843","other","他的","","","","","","","","","","","","","","",""
"null","","null","html-keyboard-response","77","453614","0.0-6.0-0.0-6.0-0.9","3","3","4","3","3","3","3","4","4","4","4","4","5","4","4","4","5","4","4","4","2","2","3","3","4","4","2","1","1","1","0","1","0","0","1","0","1","0","1","0","0","0","0","0","4","1","2","1","1","1","4","2","5","1","776002406046765058","罗","595","","","","","","","","","","","","","","","","","","","","","","","","","","","","","","","","","","","","","","","",""
"1460","<p style=""color:white; font-size: 35px;"">拙笨</p>","i","categorize-html","78","455074","0.0-6.0-0.0-6.0-1.9","3","3","4","3","3","3","3","4","4","4","4","4","5","4","4","4","5","4","4","4","2","2","3","3","4","4","2","1","1","1","0","1","0","0","1","0","1","0","1","0","0","0","0","0","4","1","2","1","1","1","4","2","5","1","776002406046765058","罗","595","","","","","","","","","","","","","","","","","","","true","3","3","ability","1460","negative","拙笨","","","","","","","","","","","","","","",""
"null","","null","html-keyboard-response","79","455326","0.0-6.0-0.0-6.0-0.10","3","3","4","3","3","3","3","4","4","4","4","4","5","4","4","4","5","4","4","4","2","2","3","3","4","4","2","1","1","1","0","1","0","0","1","0","1","0","1","0","0","0","0","0","4","1","2","1","1","1","4","2","5","1","776002406046765058","罗","595","","","","","","","","","","","","","","","","","","","","","","","","","","","","","","","","","","","","","","","",""
"844","<p style=""color:rgb(150, 250, 100); font-size: 35px;"">自己的</p>","i","categorize-html","80","456172","0.0-6.0-0.0-6.0-1.10","3","3","4","3","3","3","3","4","4","4","4","4","5","4","4","4","5","4","4","4","2","2","3","3","4","4","2","1","1","1","0","1","0","0","1","0","1","0","1","0","0","0","0","0","4","1","2","1","1","1","4","2","5","1","776002406046765058","罗","595","","","","","","","","","","","","","","","","","","","true","3","3","ability","844","self","自己的","","","","","","","","","","","","","","",""
"null","","null","html-keyboard-response","81","456423","0.0-6.0-0.0-6.0-0.11","3","3","4","3","3","3","3","4","4","4","4","4","5","4","4","4","5","4","4","4","2","2","3","3","4","4","2","1","1","1","0","1","0","0","1","0","1","0","1","0","0","0","0","0","4","1","2","1","1","1","4","2","5","1","776002406046765058","罗","595","","","","","","","","","","","","","","","","","","","","","","","","","","","","","","","","","","","","","","","",""
"714","<p style=""color:white; font-size: 35px;"">全才</p>","e","categorize-html","82","457139","0.0-6.0-0.0-6.0-1.11","3","3","4","3","3","3","3","4","4","4","4","4","5","4","4","4","5","4","4","4","2","2","3","3","4","4","2","1","1","1","0","1","0","0","1","0","1","0","1","0","0","0","0","0","4","1","2","1","1","1","4","2","5","1","776002406046765058","罗","595","","","","","","","","","","","","","","","","","","","true","3","3","ability","714","positive","全才","","","","","","","","","","","","","","",""
"null","","null","html-keyboard-response","83","457389","0.0-6.0-0.0-6.0-0.12","3","3","4","3","3","3","3","4","4","4","4","4","5","4","4","4","5","4","4","4","2","2","3","3","4","4","2","1","1","1","0","1","0","0","1","0","1","0","1","0","0","0","0","0","4","1","2","1","1","1","4","2","5","1","776002406046765058","罗","595","","","","","","","","","","","","","","","","","","","","","","","","","","","","","","","","","","","","","","","",""
"764","<p style=""color:rgb(150, 250, 100); font-size: 35px;"">自己</p>","i","categorize-html","84","458155","0.0-6.0-0.0-6.0-1.12","3","3","4","3","3","3","3","4","4","4","4","4","5","4","4","4","5","4","4","4","2","2","3","3","4","4","2","1","1","1","0","1","0","0","1","0","1","0","1","0","0","0","0","0","4","1","2","1","1","1","4","2","5","1","776002406046765058","罗","595","","","","","","","","","","","","","","","","","","","true","3","3","ability","764","self","自己","","","","","","","","","","","","","","",""
"null","","null","html-keyboard-response","85","458406","0.0-6.0-0.0-6.0-0.13","3","3","4","3","3","3","3","4","4","4","4","4","5","4","4","4","5","4","4","4","2","2","3","3","4","4","2","1","1","1","0","1","0","0","1","0","1","0","1","0","0","0","0","0","4","1","2","1","1","1","4","2","5","1","776002406046765058","罗","595","","","","","","","","","","","","","","","","","","","","","","","","","","","","","","","","","","","","","","","",""
"611","<p style=""color:white; font-size: 35px;"">高效</p>","e","categorize-html","86","459019","0.0-6.0-0.0-6.0-1.13","3","3","4","3","3","3","3","4","4","4","4","4","5","4","4","4","5","4","4","4","2","2","3","3","4","4","2","1","1","1","0","1","0","0","1","0","1","0","1","0","0","0","0","0","4","1","2","1","1","1","4","2","5","1","776002406046765058","罗","595","","","","","","","","","","","","","","","","","","","true","3","3","ability","611","positive","高效","","","","","","","","","","","","","","",""
"null","","null","html-keyboard-response","87","459269","0.0-6.0-0.0-6.0-0.14","3","3","4","3","3","3","3","4","4","4","4","4","5","4","4","4","5","4","4","4","2","2","3","3","4","4","2","1","1","1","0","1","0","0","1","0","1","0","1","0","0","0","0","0","4","1","2","1","1","1","4","2","5","1","776002406046765058","罗","595","","","","","","","","","","","","","","","","","","","","","","","","","","","","","","","","","","","","","","","",""
"804","<p style=""color:rgb(150, 250, 100); font-size: 35px;"">他人</p>","e","categorize-html","88","460075","0.0-6.0-0.0-6.0-1.14","3","3","4","3","3","3","3","4","4","4","4","4","5","4","4","4","5","4","4","4","2","2","3","3","4","4","2","1","1","1","0","1","0","0","1","0","1","0","1","0","0","0","0","0","4","1","2","1","1","1","4","2","5","1","776002406046765058","罗","595","","","","","","","","","","","","","","","","","","","true","3","3","ability","804","other","他人","","","","","","","","","","","","","","",""
"null","","null","html-keyboard-response","89","460327","0.0-6.0-0.0-6.0-0.15","3","3","4","3","3","3","3","4","4","4","4","4","5","4","4","4","5","4","4","4","2","2","3","3","4","4","2","1","1","1","0","1","0","0","1","0","1","0","1","0","0","0","0","0","4","1","2","1","1","1","4","2","5","1","776002406046765058","罗","595","","","","","","","","","","","","","","","","","","","","","","","","","","","","","","","","","","","","","","","",""
"659","<p style=""color:white; font-size: 35px;"">低能</p>","i","categorize-html","90","460987","0.0-6.0-0.0-6.0-1.15","3","3","4","3","3","3","3","4","4","4","4","4","5","4","4","4","5","4","4","4","2","2","3","3","4","4","2","1","1","1","0","1","0","0","1","0","1","0","1","0","0","0","0","0","4","1","2","1","1","1","4","2","5","1","776002406046765058","罗","595","","","","","","","","","","","","","","","","","","","true","3","3","ability","659","negative","低能","","","","","","","","","","","","","","",""
"null","","null","html-keyboard-response","91","461238","0.0-6.0-0.0-6.0-0.16","3","3","4","3","3","3","3","4","4","4","4","4","5","4","4","4","5","4","4","4","2","2","3","3","4","4","2","1","1","1","0","1","0","0","1","0","1","0","1","0","0","0","0","0","4","1","2","1","1","1","4","2","5","1","776002406046765058","罗","595","","","","","","","","","","","","","","","","","","","","","","","","","","","","","","","","","","","","","","","",""
"627","<p style=""color:rgb(150, 250, 100); font-size: 35px;"">别人的</p>","e","categorize-html","92","461867","0.0-6.0-0.0-6.0-1.16","3","3","4","3","3","3","3","4","4","4","4","4","5","4","4","4","5","4","4","4","2","2","3","3","4","4","2","1","1","1","0","1","0","0","1","0","1","0","1","0","0","0","0","0","4","1","2","1","1","1","4","2","5","1","776002406046765058","罗","595","","","","","","","","","","","","","","","","","","","true","3","3","ability","627","other","别人的","","","","","","","","","","","","","","",""
"null","","null","html-keyboard-response","93","462118","0.0-6.0-0.0-6.0-0.17","3","3","4","3","3","3","3","4","4","4","4","4","5","4","4","4","5","4","4","4","2","2","3","3","4","4","2","1","1","1","0","1","0","0","1","0","1","0","1","0","0","0","0","0","4","1","2","1","1","1","4","2","5","1","776002406046765058","罗","595","","","","","","","","","","","","","","","","","","","","","","","","","","","","","","","","","","","","","","","",""
"651","<p style=""color:white; font-size: 35px;"">全能</p>","e","categorize-html","94","462771","0.0-6.0-0.0-6.0-1.17","3","3","4","3","3","3","3","4","4","4","4","4","5","4","4","4","5","4","4","4","2","2","3","3","4","4","2","1","1","1","0","1","0","0","1","0","1","0","1","0","0","0","0","0","4","1","2","1","1","1","4","2","5","1","776002406046765058","罗","595","","","","","","","","","","","","","","","","","","","true","3","3","ability","651","positive","全能","","","","","","","","","","","","","","",""
"null","","null","html-keyboard-response","95","463021","0.0-6.0-0.0-6.0-0.18","3","3","4","3","3","3","3","4","4","4","4","4","5","4","4","4","5","4","4","4","2","2","3","3","4","4","2","1","1","1","0","1","0","0","1","0","1","0","1","0","0","0","0","0","4","1","2","1","1","1","4","2","5","1","776002406046765058","罗","595","","","","","","","","","","","","","","","","","","","","","","","","","","","","","","","","","","","","","","","",""
"668","<p style=""color:rgb(150, 250, 100); font-size: 35px;"">本人</p>","i","categorize-html","96","463691","0.0-6.0-0.0-6.0-1.18","3","3","4","3","3","3","3","4","4","4","4","4","5","4","4","4","5","4","4","4","2","2","3","3","4","4","2","1","1","1","0","1","0","0","1","0","1","0","1","0","0","0","0","0","4","1","2","1","1","1","4","2","5","1","776002406046765058","罗","595","","","","","","","","","","","","","","","","","","","true","3","3","ability","668","self","本人","","","","","","","","","","","","","","",""
"null","","null","html-keyboard-response","97","463942","0.0-6.0-0.0-6.0-0.19","3","3","4","3","3","3","3","4","4","4","4","4","5","4","4","4","5","4","4","4","2","2","3","3","4","4","2","1","1","1","0","1","0","0","1","0","1","0","1","0","0","0","0","0","4","1","2","1","1","1","4","2","5","1","776002406046765058","罗","595","","","","","","","","","","","","","","","","","","","","","","","","","","","","","","","","","","","","","","","",""
"709","<p style=""color:white; font-size: 35px;"">愚钝</p>","i","categorize-html","98","464652","0.0-6.0-0.0-6.0-1.19","3","3","4","3","3","3","3","4","4","4","4","4","5","4","4","4","5","4","4","4","2","2","3","3","4","4","2","1","1","1","0","1","0","0","1","0","1","0","1","0","0","0","0","0","4","1","2","1","1","1","4","2","5","1","776002406046765058","罗","595","","","","","","","","","","","","","","","","","","","true","3","3","ability","709","negative","愚钝","","","","","","","","","","","","","","",""
"null","","null","html-keyboard-response","99","464903","0.0-6.0-0.0-6.0-0.20","3","3","4","3","3","3","3","4","4","4","4","4","5","4","4","4","5","4","4","4","2","2","3","3","4","4","2","1","1","1","0","1","0","0","1","0","1","0","1","0","0","0","0","0","4","1","2","1","1","1","4","2","5","1","776002406046765058","罗","595","","","","","","","","","","","","","","","","","","","","","","","","","","","","","","","","","","","","","","","",""
"594","<p style=""color:rgb(150, 250, 100); font-size: 35px;"">他</p>","e","categorize-html","100","465499","0.0-6.0-0.0-6.0-1.20","3","3","4","3","3","3","3","4","4","4","4","4","5","4","4","4","5","4","4","4","2","2","3","3","4","4","2","1","1","1","0","1","0","0","1","0","1","0","1","0","0","0","0","0","4","1","2","1","1","1","4","2","5","1","776002406046765058","罗","595","","","","","","","","","","","","","","","","","","","true","3","3","ability","594","other","他","","","","","","","","","","","","","","",""
"null","","null","html-keyboard-response","101","465750","0.0-6.0-0.0-6.0-0.21","3","3","4","3","3","3","3","4","4","4","4","4","5","4","4","4","5","4","4","4","2","2","3","3","4","4","2","1","1","1","0","1","0","0","1","0","1","0","1","0","0","0","0","0","4","1","2","1","1","1","4","2","5","1","776002406046765058","罗","595","","","","","","","","","","","","","","","","","","","","","","","","","","","","","","","","","","","","","","","",""
"716","<p style=""color:white; font-size: 35px;"">天才</p>","e","categorize-html","102","466467","0.0-6.0-0.0-6.0-1.21","3","3","4","3","3","3","3","4","4","4","4","4","5","4","4","4","5","4","4","4","2","2","3","3","4","4","2","1","1","1","0","1","0","0","1","0","1","0","1","0","0","0","0","0","4","1","2","1","1","1","4","2","5","1","776002406046765058","罗","595","","","","","","","","","","","","","","","","","","","true","3","3","ability","716","positive","天才","","","","","","","","","","","","","","",""
"null","","null","html-keyboard-response","103","466719","0.0-6.0-0.0-6.0-0.22","3","3","4","3","3","3","3","4","4","4","4","4","5","4","4","4","5","4","4","4","2","2","3","3","4","4","2","1","1","1","0","1","0","0","1","0","1","0","1","0","0","0","0","0","4","1","2","1","1","1","4","2","5","1","776002406046765058","罗","595","","","","","","","","","","","","","","","","","","","","","","","","","","","","","","","","","","","","","","","",""
"715","<p style=""color:rgb(150, 250, 100); font-size: 35px;"">本人的</p>","i","categorize-html","104","467435","0.0-6.0-0.0-6.0-1.22","3","3","4","3","3","3","3","4","4","4","4","4","5","4","4","4","5","4","4","4","2","2","3","3","4","4","2","1","1","1","0","1","0","0","1","0","1","0","1","0","0","0","0","0","4","1","2","1","1","1","4","2","5","1","776002406046765058","罗","595","","","","","","","","","","","","","","","","","","","true","3","3","ability","715","self","本人的","","","","","","","","","","","","","","",""
"null","","null","html-keyboard-response","105","467687","0.0-6.0-0.0-6.0-0.23","3","3","4","3","3","3","3","4","4","4","4","4","5","4","4","4","5","4","4","4","2","2","3","3","4","4","2","1","1","1","0","1","0","0","1","0","1","0","1","0","0","0","0","0","4","1","2","1","1","1","4","2","5","1","776002406046765058","罗","595","","","","","","","","","","","","","","","","","","","","","","","","","","","","","","","","","","","","","","","",""
"746","<p style=""color:white; font-size: 35px;"">无能</p>","i","categorize-html","106","468435","0.0-6.0-0.0-6.0-1.23","3","3","4","3","3","3","3","4","4","4","4","4","5","4","4","4","5","4","4","4","2","2","3","3","4","4","2","1","1","1","0","1","0","0","1","0","1","0","1","0","0","0","0","0","4","1","2","1","1","1","4","2","5","1","776002406046765058","罗","595","","","","","","","","","","","","","","","","","","","true","3","3","ability","746","negative","无能","","","","","","","","","","","","","","",""
"28263","
    <div class=""tag-bottom""><p>
    —— 任务4：对“他人/积极”词和“自我/消极”词分类 ——<p/>
    <span style=""color:#78DCE8""><b>与刚才的任务完全相同，请再次对这四类词语分类</b></span><p/>
    <span style=""color:#FFD866""><b>请根据上方标签的提示，尽可能正确并且快速地做出按键反应</b></span><p/>
    当按键错误时屏幕中会出现<span style=""color:red""> X </span>，需要按另一个键纠正才能继续<br/><p/>
    请把双手食指分别放在键盘的“E”键和“I”键上<p/>
    按<空格键>开始
    </p></div>"," ","html-keyboard-response","107","496697","0.0-6.0-0.0-7.0","3","3","4","3","3","3","3","4","4","4","4","4","5","4","4","4","5","4","4","4","2","2","3","3","4","4","2","1","1","1","0","1","0","0","1","0","1","0","1","0","0","0","0","0","4","1","2","1","1","1","4","2","5","1","776002406046765058","罗","595","","","","","","","","","","","","","","","","","","","","","","","","","","","","","","","","","","","","","","","",""
"null","","null","html-keyboard-response","108","496949","0.0-6.0-0.0-8.0-0.0","3","3","4","3","3","3","3","4","4","4","4","4","5","4","4","4","5","4","4","4","2","2","3","3","4","4","2","1","1","1","0","1","0","0","1","0","1","0","1","0","0","0","0","0","4","1","2","1","1","1","4","2","5","1","776002406046765058","罗","595","","","","","","","","","","","","","","","","","","","","","","","","","","","","","","","","","","","","","","","",""
"723","<p style=""color:rgb(150, 250, 100); font-size: 35px;"">我</p>","i","categorize-html","109","497674","0.0-6.0-0.0-8.0-1.0","3","3","4","3","3","3","3","4","4","4","4","4","5","4","4","4","5","4","4","4","2","2","3","3","4","4","2","1","1","1","0","1","0","0","1","0","1","0","1","0","0","0","0","0","4","1","2","1","1","1","4","2","5","1","776002406046765058","罗","595","","","","","","","","","","","","","","","","","","","true","4","4","ability","723","self","我","","","","","","","","","","","","","","",""
"null","","null","html-keyboard-response","110","497925","0.0-6.0-0.0-8.0-0.1","3","3","4","3","3","3","3","4","4","4","4","4","5","4","4","4","5","4","4","4","2","2","3","3","4","4","2","1","1","1","0","1","0","0","1","0","1","0","1","0","0","0","0","0","4","1","2","1","1","1","4","2","5","1","776002406046765058","罗","595","","","","","","","","","","","","","","","","","","","","","","","","","","","","","","","","","","","","","","","",""
"595","<p style=""color:white; font-size: 35px;"">高效</p>","e","categorize-html","111","498522","0.0-6.0-0.0-8.0-1.1","3","3","4","3","3","3","3","4","4","4","4","4","5","4","4","4","5","4","4","4","2","2","3","3","4","4","2","1","1","1","0","1","0","0","1","0","1","0","1","0","0","0","0","0","4","1","2","1","1","1","4","2","5","1","776002406046765058","罗","595","","","","","","","","","","","","","","","","","","","true","4","4","ability","595","positive","高效","","","","","","","","","","","","","","",""
"null","","null","html-keyboard-response","112","498773","0.0-6.0-0.0-8.0-0.2","3","3","4","3","3","3","3","4","4","4","4","4","5","4","4","4","5","4","4","4","2","2","3","3","4","4","2","1","1","1","0","1","0","0","1","0","1","0","1","0","0","0","0","0","4","1","2","1","1","1","4","2","5","1","776002406046765058","罗","595","","","","","","","","","","","","","","","","","","","","","","","","","","","","","","","","","","","","","","","",""
"619","<p style=""color:rgb(150, 250, 100); font-size: 35px;"">别人的</p>","e","categorize-html","113","499394","0.0-6.0-0.0-8.0-1.2","3","3","4","3","3","3","3","4","4","4","4","4","5","4","4","4","5","4","4","4","2","2","3","3","4","4","2","1","1","1","0","1","0","0","1","0","1","0","1","0","0","0","0","0","4","1","2","1","1","1","4","2","5","1","776002406046765058","罗","595","","","","","","","","","","","","","","","","","","","true","4","4","ability","619","other","别人的","","","","","","","","","","","","","","",""
"null","","null","html-keyboard-response","114","499645","0.0-6.0-0.0-8.0-0.3","3","3","4","3","3","3","3","4","4","4","4","4","5","4","4","4","5","4","4","4","2","2","3","3","4","4","2","1","1","1","0","1","0","0","1","0","1","0","1","0","0","0","0","0","4","1","2","1","1","1","4","2","5","1","776002406046765058","罗","595","","","","","","","","","","","","","","","","","","","","","","","","","","","","","","","","","","","","","","","",""
"596","<p style=""color:white; font-size: 35px;"">无能</p>","i","categorize-html","115","500242","0.0-6.0-0.0-8.0-1.3","3","3","4","3","3","3","3","4","4","4","4","4","5","4","4","4","5","4","4","4","2","2","3","3","4","4","2","1","1","1","0","1","0","0","1","0","1","0","1","0","0","0","0","0","4","1","2","1","1","1","4","2","5","1","776002406046765058","罗","595","","","","","","","","","","","","","","","","","","","true","4","4","ability","596","negative","无能","","","","","","","","","","","","","","",""
"null","","null","html-keyboard-response","116","500494","0.0-6.0-0.0-8.0-0.4","3","3","4","3","3","3","3","4","4","4","4","4","5","4","4","4","5","4","4","4","2","2","3","3","4","4","2","1","1","1","0","1","0","0","1","0","1","0","1","0","0","0","0","0","4","1","2","1","1","1","4","2","5","1","776002406046765058","罗","595","","","","","","","","","","","","","","","","","","","","","","","","","","","","","","","","","","","","","","","",""
"787","<p style=""color:rgb(150, 250, 100); font-size: 35px;"">别人</p>","e","categorize-html","117","501282","0.0-6.0-0.0-8.0-1.4","3","3","4","3","3","3","3","4","4","4","4","4","5","4","4","4","5","4","4","4","2","2","3","3","4","4","2","1","1","1","0","1","0","0","1","0","1","0","1","0","0","0","0","0","4","1","2","1","1","1","4","2","5","1","776002406046765058","罗","595","","","","","","","","","","","","","","","","","","","true","4","4","ability","787","other","别人","","","","","","","","","","","","","","",""
"null","","null","html-keyboard-response","118","501533","0.0-6.0-0.0-8.0-0.5","3","3","4","3","3","3","3","4","4","4","4","4","5","4","4","4","5","4","4","4","2","2","3","3","4","4","2","1","1","1","0","1","0","0","1","0","1","0","1","0","0","0","0","0","4","1","2","1","1","1","4","2","5","1","776002406046765058","罗","595","","","","","","","","","","","","","","","","","","","","","","","","","","","","","","","","","","","","","","","",""
"731","<p style=""color:white; font-size: 35px;"">无能</p>","i","categorize-html","119","502266","0.0-6.0-0.0-8.0-1.5","3","3","4","3","3","3","3","4","4","4","4","4","5","4","4","4","5","4","4","4","2","2","3","3","4","4","2","1","1","1","0","1","0","0","1","0","1","0","1","0","0","0","0","0","4","1","2","1","1","1","4","2","5","1","776002406046765058","罗","595","","","","","","","","","","","","","","","","","","","true","4","4","ability","731","negative","无能","","","","","","","","","","","","","","",""
"null","","null","html-keyboard-response","120","502517","0.0-6.0-0.0-8.0-0.6","3","3","4","3","3","3","3","4","4","4","4","4","5","4","4","4","5","4","4","4","2","2","3","3","4","4","2","1","1","1","0","1","0","0","1","0","1","0","1","0","0","0","0","0","4","1","2","1","1","1","4","2","5","1","776002406046765058","罗","595","","","","","","","","","","","","","","","","","","","","","","","","","","","","","","","","","","","","","","","",""
"563","<p style=""color:rgb(150, 250, 100); font-size: 35px;"">我的</p>","i","categorize-html","121","503082","0.0-6.0-0.0-8.0-1.6","3","3","4","3","3","3","3","4","4","4","4","4","5","4","4","4","5","4","4","4","2","2","3","3","4","4","2","1","1","1","0","1","0","0","1","0","1","0","1","0","0","0","0","0","4","1","2","1","1","1","4","2","5","1","776002406046765058","罗","595","","","","","","","","","","","","","","","","","","","true","4","4","ability","563","self","我的","","","","","","","","","","","","","","",""
"null","","null","html-keyboard-response","122","503334","0.0-6.0-0.0-8.0-0.7","3","3","4","3","3","3","3","4","4","4","4","4","5","4","4","4","5","4","4","4","2","2","3","3","4","4","2","1","1","1","0","1","0","0","1","0","1","0","1","0","0","0","0","0","4","1","2","1","1","1","4","2","5","1","776002406046765058","罗","595","","","","","","","","","","","","","","","","","","","","","","","","","","","","","","","","","","","","","","","",""
"715","<p style=""color:white; font-size: 35px;"">全才</p>","e","categorize-html","123","504050","0.0-6.0-0.0-8.0-1.7","3","3","4","3","3","3","3","4","4","4","4","4","5","4","4","4","5","4","4","4","2","2","3","3","4","4","2","1","1","1","0","1","0","0","1","0","1","0","1","0","0","0","0","0","4","1","2","1","1","1","4","2","5","1","776002406046765058","罗","595","","","","","","","","","","","","","","","","","","","true","4","4","ability","715","positive","全才","","","","","","","","","","","","","","",""
"null","","null","html-keyboard-response","124","504301","0.0-6.0-0.0-8.0-0.8","3","3","4","3","3","3","3","4","4","4","4","4","5","4","4","4","5","4","4","4","2","2","3","3","4","4","2","1","1","1","0","1","0","0","1","0","1","0","1","0","0","0","0","0","4","1","2","1","1","1","4","2","5","1","776002406046765058","罗","595","","","","","","","","","","","","","","","","","","","","","","","","","","","","","","","","","","","","","","","",""
"563","<p style=""color:rgb(150, 250, 100); font-size: 35px;"">他人的</p>","e","categorize-html","125","504866","0.0-6.0-0.0-8.0-1.8","3","3","4","3","3","3","3","4","4","4","4","4","5","4","4","4","5","4","4","4","2","2","3","3","4","4","2","1","1","1","0","1","0","0","1","0","1","0","1","0","0","0","0","0","4","1","2","1","1","1","4","2","5","1","776002406046765058","罗","595","","","","","","","","","","","","","","","","","","","true","4","4","ability","563","other","他人的","","","","","","","","","","","","","","",""
"null","","null","html-keyboard-response","126","505117","0.0-6.0-0.0-8.0-0.9","3","3","4","3","3","3","3","4","4","4","4","4","5","4","4","4","5","4","4","4","2","2","3","3","4","4","2","1","1","1","0","1","0","0","1","0","1","0","1","0","0","0","0","0","4","1","2","1","1","1","4","2","5","1","776002406046765058","罗","595","","","","","","","","","","","","","","","","","","","","","","","","","","","","","","","","","","","","","","","",""
"619","<p style=""color:white; font-size: 35px;"">全才</p>","e","categorize-html","127","505738","0.0-6.0-0.0-8.0-1.9","3","3","4","3","3","3","3","4","4","4","4","4","5","4","4","4","5","4","4","4","2","2","3","3","4","4","2","1","1","1","0","1","0","0","1","0","1","0","1","0","0","0","0","0","4","1","2","1","1","1","4","2","5","1","776002406046765058","罗","595","","","","","","","","","","","","","","","","","","","true","4","4","ability","619","positive","全才","","","","","","","","","","","","","","",""
"null","","null","html-keyboard-response","128","505990","0.0-6.0-0.0-8.0-0.10","3","3","4","3","3","3","3","4","4","4","4","4","5","4","4","4","5","4","4","4","2","2","3","3","4","4","2","1","1","1","0","1","0","0","1","0","1","0","1","0","0","0","0","0","4","1","2","1","1","1","4","2","5","1","776002406046765058","罗","595","","","","","","","","","","","","","","","","","","","","","","","","","","","","","","","","","","","","","","","",""
"554","<p style=""color:rgb(150, 250, 100); font-size: 35px;"">我的</p>","i","categorize-html","129","506546","0.0-6.0-0.0-8.0-1.10","3","3","4","3","3","3","3","4","4","4","4","4","5","4","4","4","5","4","4","4","2","2","3","3","4","4","2","1","1","1","0","1","0","0","1","0","1","0","1","0","0","0","0","0","4","1","2","1","1","1","4","2","5","1","776002406046765058","罗","595","","","","","","","","","","","","","","","","","","","true","4","4","ability","554","self","我的","","","","","","","","","","","","","","",""
"null","","null","html-keyboard-response","130","506798","0.0-6.0-0.0-8.0-0.11","3","3","4","3","3","3","3","4","4","4","4","4","5","4","4","4","5","4","4","4","2","2","3","3","4","4","2","1","1","1","0","1","0","0","1","0","1","0","1","0","0","0","0","0","4","1","2","1","1","1","4","2","5","1","776002406046765058","罗","595","","","","","","","","","","","","","","","","","","","","","","","","","","","","","","","","","","","","","","","",""
"547","<p style=""color:white; font-size: 35px;"">低能</p>","i","categorize-html","131","507346","0.0-6.0-0.0-8.0-1.11","3","3","4","3","3","3","3","4","4","4","4","4","5","4","4","4","5","4","4","4","2","2","3","3","4","4","2","1","1","1","0","1","0","0","1","0","1","0","1","0","0","0","0","0","4","1","2","1","1","1","4","2","5","1","776002406046765058","罗","595","","","","","","","","","","","","","","","","","","","true","4","4","ability","547","negative","低能","","","","","","","","","","","","","","",""
"null","","null","html-keyboard-response","132","507598","0.0-6.0-0.0-8.0-0.12","3","3","4","3","3","3","3","4","4","4","4","4","5","4","4","4","5","4","4","4","2","2","3","3","4","4","2","1","1","1","0","1","0","0","1","0","1","0","1","0","0","0","0","0","4","1","2","1","1","1","4","2","5","1","776002406046765058","罗","595","","","","","","","","","","","","","","","","","","","","","","","","","","","","","","","","","","","","","","","",""
"611","<p style=""color:rgb(150, 250, 100); font-size: 35px;"">自己的</p>","i","categorize-html","133","508210","0.0-6.0-0.0-8.0-1.12","3","3","4","3","3","3","3","4","4","4","4","4","5","4","4","4","5","4","4","4","2","2","3","3","4","4","2","1","1","1","0","1","0","0","1","0","1","0","1","0","0","0","0","0","4","1","2","1","1","1","4","2","5","1","776002406046765058","罗","595","","","","","","","","","","","","","","","","","","","true","4","4","ability","611","self","自己的","","","","","","","","","","","","","","",""
"null","","null","html-keyboard-response","134","508461","0.0-6.0-0.0-8.0-0.13","3","3","4","3","3","3","3","4","4","4","4","4","5","4","4","4","5","4","4","4","2","2","3","3","4","4","2","1","1","1","0","1","0","0","1","0","1","0","1","0","0","0","0","0","4","1","2","1","1","1","4","2","5","1","776002406046765058","罗","595","","","","","","","","","","","","","","","","","","","","","","","","","","","","","","","","","","","","","","","",""
"563","<p style=""color:white; font-size: 35px;"">蠢笨</p>","i","categorize-html","135","509026","0.0-6.0-0.0-8.0-1.13","3","3","4","3","3","3","3","4","4","4","4","4","5","4","4","4","5","4","4","4","2","2","3","3","4","4","2","1","1","1","0","1","0","0","1","0","1","0","1","0","0","0","0","0","4","1","2","1","1","1","4","2","5","1","776002406046765058","罗","595","","","","","","","","","","","","","","","","","","","true","4","4","ability","563","negative","蠢笨","","","","","","","","","","","","","","",""
"null","","null","html-keyboard-response","136","509278","0.0-6.0-0.0-8.0-0.14","3","3","4","3","3","3","3","4","4","4","4","4","5","4","4","4","5","4","4","4","2","2","3","3","4","4","2","1","1","1","0","1","0","0","1","0","1","0","1","0","0","0","0","0","4","1","2","1","1","1","4","2","5","1","776002406046765058","罗","595","","","","","","","","","","","","","","","","","","","","","","","","","","","","","","","","","","","","","","","",""
"922","<p style=""color:rgb(150, 250, 100); font-size: 35px;"">他</p>","e","categorize-html","137","510202","0.0-6.0-0.0-8.0-1.14","3","3","4","3","3","3","3","4","4","4","4","4","5","4","4","4","5","4","4","4","2","2","3","3","4","4","2","1","1","1","0","1","0","0","1","0","1","0","1","0","0","0","0","0","4","1","2","1","1","1","4","2","5","1","776002406046765058","罗","595","","","","","","","","","","","","","","","","","","","true","4","4","ability","922","other","他","","","","","","","","","","","","","","",""
"null","","null","html-keyboard-response","138","510453","0.0-6.0-0.0-8.0-0.15","3","3","4","3","3","3","3","4","4","4","4","4","5","4","4","4","5","4","4","4","2","2","3","3","4","4","2","1","1","1","0","1","0","0","1","0","1","0","1","0","0","0","0","0","4","1","2","1","1","1","4","2","5","1","776002406046765058","罗","595","","","","","","","","","","","","","","","","","","","","","","","","","","","","","","","","","","","","","","","",""
"907","<p style=""color:white; font-size: 35px;"">全能</p>","e","categorize-html","139","511362","0.0-6.0-0.0-8.0-1.15","3","3","4","3","3","3","3","4","4","4","4","4","5","4","4","4","5","4","4","4","2","2","3","3","4","4","2","1","1","1","0","1","0","0","1","0","1","0","1","0","0","0","0","0","4","1","2","1","1","1","4","2","5","1","776002406046765058","罗","595","","","","","","","","","","","","","","","","","","","true","4","4","ability","907","positive","全能","","","","","","","","","","","","","","",""
"null","","null","html-keyboard-response","140","511613","0.0-6.0-0.0-8.0-0.16","3","3","4","3","3","3","3","4","4","4","4","4","5","4","4","4","5","4","4","4","2","2","3","3","4","4","2","1","1","1","0","1","0","0","1","0","1","0","1","0","0","0","0","0","4","1","2","1","1","1","4","2","5","1","776002406046765058","罗","595","","","","","","","","","","","","","","","","","","","","","","","","","","","","","","","","","","","","","","","",""
"620","<p style=""color:rgb(150, 250, 100); font-size: 35px;"">自己</p>","i","categorize-html","141","512234","0.0-6.0-0.0-8.0-1.16","3","3","4","3","3","3","3","4","4","4","4","4","5","4","4","4","5","4","4","4","2","2","3","3","4","4","2","1","1","1","0","1","0","0","1","0","1","0","1","0","0","0","0","0","4","1","2","1","1","1","4","2","5","1","776002406046765058","罗","595","","","","","","","","","","","","","","","","","","","true","4","4","ability","620","self","自己","","","","","","","","","","","","","","",""
"null","","null","html-keyboard-response","142","512486","0.0-6.0-0.0-8.0-0.17","3","3","4","3","3","3","3","4","4","4","4","4","5","4","4","4","5","4","4","4","2","2","3","3","4","4","2","1","1","1","0","1","0","0","1","0","1","0","1","0","0","0","0","0","4","1","2","1","1","1","4","2","5","1","776002406046765058","罗","595","","","","","","","","","","","","","","","","","","","","","","","","","","","","","","","","","","","","","","","",""
"579","<p style=""color:white; font-size: 35px;"">拙笨</p>","i","categorize-html","143","513066","0.0-6.0-0.0-8.0-1.17","3","3","4","3","3","3","3","4","4","4","4","4","5","4","4","4","5","4","4","4","2","2","3","3","4","4","2","1","1","1","0","1","0","0","1","0","1","0","1","0","0","0","0","0","4","1","2","1","1","1","4","2","5","1","776002406046765058","罗","595","","","","","","","","","","","","","","","","","","","true","4","4","ability","579","negative","拙笨","","","","","","","","","","","","","","",""
"null","","null","html-keyboard-response","144","513317","0.0-6.0-0.0-8.0-0.18","3","3","4","3","3","3","3","4","4","4","4","4","5","4","4","4","5","4","4","4","2","2","3","3","4","4","2","1","1","1","0","1","0","0","1","0","1","0","1","0","0","0","0","0","4","1","2","1","1","1","4","2","5","1","776002406046765058","罗","595","","","","","","","","","","","","","","","","","","","","","","","","","","","","","","","","","","","","","","","",""
"611","<p style=""color:rgb(150, 250, 100); font-size: 35px;"">别人</p>","e","categorize-html","145","513930","0.0-6.0-0.0-8.0-1.18","3","3","4","3","3","3","3","4","4","4","4","4","5","4","4","4","5","4","4","4","2","2","3","3","4","4","2","1","1","1","0","1","0","0","1","0","1","0","1","0","0","0","0","0","4","1","2","1","1","1","4","2","5","1","776002406046765058","罗","595","","","","","","","","","","","","","","","","","","","true","4","4","ability","611","other","别人","","","","","","","","","","","","","","",""
"null","","null","html-keyboard-response","146","514181","0.0-6.0-0.0-8.0-0.19","3","3","4","3","3","3","3","4","4","4","4","4","5","4","4","4","5","4","4","4","2","2","3","3","4","4","2","1","1","1","0","1","0","0","1","0","1","0","1","0","0","0","0","0","4","1","2","1","1","1","4","2","5","1","776002406046765058","罗","595","","","","","","","","","","","","","","","","","","","","","","","","","","","","","","","","","","","","","","","",""
"803","<p style=""color:white; font-size: 35px;"">高效</p>","e","categorize-html","147","514986","0.0-6.0-0.0-8.0-1.19","3","3","4","3","3","3","3","4","4","4","4","4","5","4","4","4","5","4","4","4","2","2","3","3","4","4","2","1","1","1","0","1","0","0","1","0","1","0","1","0","0","0","0","0","4","1","2","1","1","1","4","2","5","1","776002406046765058","罗","595","","","","","","","","","","","","","","","","","","","true","4","4","ability","803","positive","高效","","","","","","","","","","","","","","",""
"null","","null","html-keyboard-response","148","515237","0.0-6.0-0.0-8.0-0.20","3","3","4","3","3","3","3","4","4","4","4","4","5","4","4","4","5","4","4","4","2","2","3","3","4","4","2","1","1","1","0","1","0","0","1","0","1","0","1","0","0","0","0","0","4","1","2","1","1","1","4","2","5","1","776002406046765058","罗","595","","","","","","","","","","","","","","","","","","","","","","","","","","","","","","","","","","","","","","","",""
"619","<p style=""color:rgb(150, 250, 100); font-size: 35px;"">他人</p>","e","categorize-html","149","515858","0.0-6.0-0.0-8.0-1.20","3","3","4","3","3","3","3","4","4","4","4","4","5","4","4","4","5","4","4","4","2","2","3","3","4","4","2","1","1","1","0","1","0","0","1","0","1","0","1","0","0","0","0","0","4","1","2","1","1","1","4","2","5","1","776002406046765058","罗","595","","","","","","","","","","","","","","","","","","","true","4","4","ability","619","other","他人","","","","","","","","","","","","","","",""
"null","","null","html-keyboard-response","150","516109","0.0-6.0-0.0-8.0-0.21","3","3","4","3","3","3","3","4","4","4","4","4","5","4","4","4","5","4","4","4","2","2","3","3","4","4","2","1","1","1","0","1","0","0","1","0","1","0","1","0","0","0","0","0","4","1","2","1","1","1","4","2","5","1","776002406046765058","罗","595","","","","","","","","","","","","","","","","","","","","","","","","","","","","","","","","","","","","","","","",""
"684","<p style=""color:white; font-size: 35px;"">能干</p>","e","categorize-html","151","516794","0.0-6.0-0.0-8.0-1.21","3","3","4","3","3","3","3","4","4","4","4","4","5","4","4","4","5","4","4","4","2","2","3","3","4","4","2","1","1","1","0","1","0","0","1","0","1","0","1","0","0","0","0","0","4","1","2","1","1","1","4","2","5","1","776002406046765058","罗","595","","","","","","","","","","","","","","","","","","","true","4","4","ability","684","positive","能干","","","","","","","","","","","","","","",""
"null","","null","html-keyboard-response","152","517045","0.0-6.0-0.0-8.0-0.22","3","3","4","3","3","3","3","4","4","4","4","4","5","4","4","4","5","4","4","4","2","2","3","3","4","4","2","1","1","1","0","1","0","0","1","0","1","0","1","0","0","0","0","0","4","1","2","1","1","1","4","2","5","1","776002406046765058","罗","595","","","","","","","","","","","","","","","","","","","","","","","","","","","","","","","","","","","","","","","",""
"571","<p style=""color:rgb(150, 250, 100); font-size: 35px;"">本人的</p>","i","categorize-html","153","517618","0.0-6.0-0.0-8.0-1.22","3","3","4","3","3","3","3","4","4","4","4","4","5","4","4","4","5","4","4","4","2","2","3","3","4","4","2","1","1","1","0","1","0","0","1","0","1","0","1","0","0","0","0","0","4","1","2","1","1","1","4","2","5","1","776002406046765058","罗","595","","","","","","","","","","","","","","","","","","","true","4","4","ability","571","self","本人的","","","","","","","","","","","","","","",""
"null","","null","html-keyboard-response","154","517869","0.0-6.0-0.0-8.0-0.23","3","3","4","3","3","3","3","4","4","4","4","4","5","4","4","4","5","4","4","4","2","2","3","3","4","4","2","1","1","1","0","1","0","0","1","0","1","0","1","0","0","0","0","0","4","1","2","1","1","1","4","2","5","1","776002406046765058","罗","595","","","","","","","","","","","","","","","","","","","","","","","","","","","","","","","","","","","","","","","",""
"443","<p style=""color:white; font-size: 35px;"">愚钝</p>","i","categorize-html","155","518314","0.0-6.0-0.0-8.0-1.23","3","3","4","3","3","3","3","4","4","4","4","4","5","4","4","4","5","4","4","4","2","2","3","3","4","4","2","1","1","1","0","1","0","0","1","0","1","0","1","0","0","0","0","0","4","1","2","1","1","1","4","2","5","1","776002406046765058","罗","595","","","","","","","","","","","","","","","","","","","true","4","4","ability","443","negative","愚钝","","","","","","","","","","","","","","",""
"null","","null","html-keyboard-response","156","518565","0.0-6.0-0.0-8.0-0.24","3","3","4","3","3","3","3","4","4","4","4","4","5","4","4","4","5","4","4","4","2","2","3","3","4","4","2","1","1","1","0","1","0","0","1","0","1","0","1","0","0","0","0","0","4","1","2","1","1","1","4","2","5","1","776002406046765058","罗","595","","","","","","","","","","","","","","","","","","","","","","","","","","","","","","","","","","","","","","","",""
"604","<p style=""color:rgb(150, 250, 100); font-size: 35px;"">他人</p>","e","categorize-html","157","519171","0.0-6.0-0.0-8.0-1.24","3","3","4","3","3","3","3","4","4","4","4","4","5","4","4","4","5","4","4","4","2","2","3","3","4","4","2","1","1","1","0","1","0","0","1","0","1","0","1","0","0","0","0","0","4","1","2","1","1","1","4","2","5","1","776002406046765058","罗","595","","","","","","","","","","","","","","","","","","","true","4","4","ability","604","other","他人","","","","","","","","","","","","","","",""
"null","","null","html-keyboard-response","158","519422","0.0-6.0-0.0-8.0-0.25","3","3","4","3","3","3","3","4","4","4","4","4","5","4","4","4","5","4","4","4","2","2","3","3","4","4","2","1","1","1","0","1","0","0","1","0","1","0","1","0","0","0","0","0","4","1","2","1","1","1","4","2","5","1","776002406046765058","罗","595","","","","","","","","","","","","","","","","","","","","","","","","","","","","","","","","","","","","","","","",""
"603","<p style=""color:white; font-size: 35px;"">愚钝</p>","i","categorize-html","159","520026","0.0-6.0-0.0-8.0-1.25","3","3","4","3","3","3","3","4","4","4","4","4","5","4","4","4","5","4","4","4","2","2","3","3","4","4","2","1","1","1","0","1","0","0","1","0","1","0","1","0","0","0","0","0","4","1","2","1","1","1","4","2","5","1","776002406046765058","罗","595","","","","","","","","","","","","","","","","","","","true","4","4","ability","603","negative","愚钝","","","","","","","","","","","","","","",""
"null","","null","html-keyboard-response","160","520277","0.0-6.0-0.0-8.0-0.26","3","3","4","3","3","3","3","4","4","4","4","4","5","4","4","4","5","4","4","4","2","2","3","3","4","4","2","1","1","1","0","1","0","0","1","0","1","0","1","0","0","0","0","0","4","1","2","1","1","1","4","2","5","1","776002406046765058","罗","595","","","","","","","","","","","","","","","","","","","","","","","","","","","","","","","","","","","","","","","",""
"740","<p style=""color:rgb(150, 250, 100); font-size: 35px;"">自己</p>","i","categorize-html","161","521018","0.0-6.0-0.0-8.0-1.26","3","3","4","3","3","3","3","4","4","4","4","4","5","4","4","4","5","4","4","4","2","2","3","3","4","4","2","1","1","1","0","1","0","0","1","0","1","0","1","0","0","0","0","0","4","1","2","1","1","1","4","2","5","1","776002406046765058","罗","595","","","","","","","","","","","","","","","","","","","true","4","4","ability","740","self","自己","","","","","","","","","","","","","","",""
"null","","null","html-keyboard-response","162","521269","0.0-6.0-0.0-8.0-0.27","3","3","4","3","3","3","3","4","4","4","4","4","5","4","4","4","5","4","4","4","2","2","3","3","4","4","2","1","1","1","0","1","0","0","1","0","1","0","1","0","0","0","0","0","4","1","2","1","1","1","4","2","5","1","776002406046765058","罗","595","","","","","","","","","","","","","","","","","","","","","","","","","","","","","","","","","","","","","","","",""
"771","<p style=""color:white; font-size: 35px;"">天才</p>","e","categorize-html","163","522042","0.0-6.0-0.0-8.0-1.27","3","3","4","3","3","3","3","4","4","4","4","4","5","4","4","4","5","4","4","4","2","2","3","3","4","4","2","1","1","1","0","1","0","0","1","0","1","0","1","0","0","0","0","0","4","1","2","1","1","1","4","2","5","1","776002406046765058","罗","595","","","","","","","","","","","","","","","","","","","true","4","4","ability","771","positive","天才","","","","","","","","","","","","","","",""
"null","","null","html-keyboard-response","164","522293","0.0-6.0-0.0-8.0-0.28","3","3","4","3","3","3","3","4","4","4","4","4","5","4","4","4","5","4","4","4","2","2","3","3","4","4","2","1","1","1","0","1","0","0","1","0","1","0","1","0","0","0","0","0","4","1","2","1","1","1","4","2","5","1","776002406046765058","罗","595","","","","","","","","","","","","","","","","","","","","","","","","","","","","","","","","","","","","","","","",""
"627","<p style=""color:rgb(150, 250, 100); font-size: 35px;"">我</p>","i","categorize-html","165","522922","0.0-6.0-0.0-8.0-1.28","3","3","4","3","3","3","3","4","4","4","4","4","5","4","4","4","5","4","4","4","2","2","3","3","4","4","2","1","1","1","0","1","0","0","1","0","1","0","1","0","0","0","0","0","4","1","2","1","1","1","4","2","5","1","776002406046765058","罗","595","","","","","","","","","","","","","","","","","","","true","4","4","ability","627","self","我","","","","","","","","","","","","","","",""
"null","","null","html-keyboard-response","166","523173","0.0-6.0-0.0-8.0-0.29","3","3","4","3","3","3","3","4","4","4","4","4","5","4","4","4","5","4","4","4","2","2","3","3","4","4","2","1","1","1","0","1","0","0","1","0","1","0","1","0","0","0","0","0","4","1","2","1","1","1","4","2","5","1","776002406046765058","罗","595","","","","","","","","","","","","","","","","","","","","","","","","","","","","","","","","","","","","","","","",""
"763","<p style=""color:white; font-size: 35px;"">全能</p>","e","categorize-html","167","523938","0.0-6.0-0.0-8.0-1.29","3","3","4","3","3","3","3","4","4","4","4","4","5","4","4","4","5","4","4","4","2","2","3","3","4","4","2","1","1","1","0","1","0","0","1","0","1","0","1","0","0","0","0","0","4","1","2","1","1","1","4","2","5","1","776002406046765058","罗","595","","","","","","","","","","","","","","","","","","","true","4","4","ability","763","positive","全能","","","","","","","","","","","","","","",""
"null","","null","html-keyboard-response","168","524189","0.0-6.0-0.0-8.0-0.30","3","3","4","3","3","3","3","4","4","4","4","4","5","4","4","4","5","4","4","4","2","2","3","3","4","4","2","1","1","1","0","1","0","0","1","0","1","0","1","0","0","0","0","0","4","1","2","1","1","1","4","2","5","1","776002406046765058","罗","595","","","","","","","","","","","","","","","","","","","","","","","","","","","","","","","","","","","","","","","",""
"555","<p style=""color:rgb(150, 250, 100); font-size: 35px;"">他</p>","i","categorize-html","169","525561","0.0-6.0-0.0-8.0-1.30","3","3","4","3","3","3","3","4","4","4","4","4","5","4","4","4","5","4","4","4","2","2","3","3","4","4","2","1","1","1","0","1","0","0","1","0","1","0","1","0","0","0","0","0","4","1","2","1","1","1","4","2","5","1","776002406046765058","罗","595","","","","","","","","","","","","","","","","","","","false","4","4","ability","1349.127659574468","other","他","","","","","","","","","","","","","","",""
"null","","null","html-keyboard-response","170","525813","0.0-6.0-0.0-8.0-0.31","3","3","4","3","3","3","3","4","4","4","4","4","5","4","4","4","5","4","4","4","2","2","3","3","4","4","2","1","1","1","0","1","0","0","1","0","1","0","1","0","0","0","0","0","4","1","2","1","1","1","4","2","5","1","776002406046765058","罗","595","","","","","","","","","","","","","","","","","","","","","","","","","","","","","","","","","","","","","","","",""
"916","<p style=""color:white; font-size: 35px;"">废物</p>","i","categorize-html","171","526730","0.0-6.0-0.0-8.0-1.31","3","3","4","3","3","3","3","4","4","4","4","4","5","4","4","4","5","4","4","4","2","2","3","3","4","4","2","1","1","1","0","1","0","0","1","0","1","0","1","0","0","0","0","0","4","1","2","1","1","1","4","2","5","1","776002406046765058","罗","595","","","","","","","","","","","","","","","","","","","true","4","4","ability","916","negative","废物","","","","","","","","","","","","","","",""
"null","","null","html-keyboard-response","172","526982","0.0-6.0-0.0-8.0-0.32","3","3","4","3","3","3","3","4","4","4","4","4","5","4","4","4","5","4","4","4","2","2","3","3","4","4","2","1","1","1","0","1","0","0","1","0","1","0","1","0","0","0","0","0","4","1","2","1","1","1","4","2","5","1","776002406046765058","罗","595","","","","","","","","","","","","","","","","","","","","","","","","","","","","","","","","","","","","","","","",""
"899","<p style=""color:rgb(150, 250, 100); font-size: 35px;"">自己的</p>","i","categorize-html","173","527882","0.0-6.0-0.0-8.0-1.32","3","3","4","3","3","3","3","4","4","4","4","4","5","4","4","4","5","4","4","4","2","2","3","3","4","4","2","1","1","1","0","1","0","0","1","0","1","0","1","0","0","0","0","0","4","1","2","1","1","1","4","2","5","1","776002406046765058","罗","595","","","","","","","","","","","","","","","","","","","true","4","4","ability","899","self","自己的","","","","","","","","","","","","","","",""
"null","","null","html-keyboard-response","174","528134","0.0-6.0-0.0-8.0-0.33","3","3","4","3","3","3","3","4","4","4","4","4","5","4","4","4","5","4","4","4","2","2","3","3","4","4","2","1","1","1","0","1","0","0","1","0","1","0","1","0","0","0","0","0","4","1","2","1","1","1","4","2","5","1","776002406046765058","罗","595","","","","","","","","","","","","","","","","","","","","","","","","","","","","","","","","","","","","","","","",""
"811","<p style=""color:white; font-size: 35px;"">蠢笨</p>","i","categorize-html","175","528946","0.0-6.0-0.0-8.0-1.33","3","3","4","3","3","3","3","4","4","4","4","4","5","4","4","4","5","4","4","4","2","2","3","3","4","4","2","1","1","1","0","1","0","0","1","0","1","0","1","0","0","0","0","0","4","1","2","1","1","1","4","2","5","1","776002406046765058","罗","595","","","","","","","","","","","","","","","","","","","true","4","4","ability","811","negative","蠢笨","","","","","","","","","","","","","","",""
"null","","null","html-keyboard-response","176","529198","0.0-6.0-0.0-8.0-0.34","3","3","4","3","3","3","3","4","4","4","4","4","5","4","4","4","5","4","4","4","2","2","3","3","4","4","2","1","1","1","0","1","0","0","1","0","1","0","1","0","0","0","0","0","4","1","2","1","1","1","4","2","5","1","776002406046765058","罗","595","","","","","","","","","","","","","","","","","","","","","","","","","","","","","","","","","","","","","","","",""
"731","<p style=""color:rgb(150, 250, 100); font-size: 35px;"">他的</p>","e","categorize-html","177","529930","0.0-6.0-0.0-8.0-1.34","3","3","4","3","3","3","3","4","4","4","4","4","5","4","4","4","5","4","4","4","2","2","3","3","4","4","2","1","1","1","0","1","0","0","1","0","1","0","1","0","0","0","0","0","4","1","2","1","1","1","4","2","5","1","776002406046765058","罗","595","","","","","","","","","","","","","","","","","","","true","4","4","ability","731","other","他的","","","","","","","","","","","","","","",""
"null","","null","html-keyboard-response","178","530181","0.0-6.0-0.0-8.0-0.35","3","3","4","3","3","3","3","4","4","4","4","4","5","4","4","4","5","4","4","4","2","2","3","3","4","4","2","1","1","1","0","1","0","0","1","0","1","0","1","0","0","0","0","0","4","1","2","1","1","1","4","2","5","1","776002406046765058","罗","595","","","","","","","","","","","","","","","","","","","","","","","","","","","","","","","","","","","","","","","",""
"1611","<p style=""color:white; font-size: 35px;"">精干</p>","e","categorize-html","179","531794","0.0-6.0-0.0-8.0-1.35","3","3","4","3","3","3","3","4","4","4","4","4","5","4","4","4","5","4","4","4","2","2","3","3","4","4","2","1","1","1","0","1","0","0","1","0","1","0","1","0","0","0","0","0","4","1","2","1","1","1","4","2","5","1","776002406046765058","罗","595","","","","","","","","","","","","","","","","","","","true","4","4","ability","1611","positive","精干","","","","","","","","","","","","","","",""
"null","","null","html-keyboard-response","180","532045","0.0-6.0-0.0-8.0-0.36","3","3","4","3","3","3","3","4","4","4","4","4","5","4","4","4","5","4","4","4","2","2","3","3","4","4","2","1","1","1","0","1","0","0","1","0","1","0","1","0","0","0","0","0","4","1","2","1","1","1","4","2","5","1","776002406046765058","罗","595","","","","","","","","","","","","","","","","","","","","","","","","","","","","","","","","","","","","","","","",""
"587","<p style=""color:rgb(150, 250, 100); font-size: 35px;"">本人</p>","i","categorize-html","181","532634","0.0-6.0-0.0-8.0-1.36","3","3","4","3","3","3","3","4","4","4","4","4","5","4","4","4","5","4","4","4","2","2","3","3","4","4","2","1","1","1","0","1","0","0","1","0","1","0","1","0","0","0","0","0","4","1","2","1","1","1","4","2","5","1","776002406046765058","罗","595","","","","","","","","","","","","","","","","","","","true","4","4","ability","587","self","本人","","","","","","","","","","","","","","",""
"null","","null","html-keyboard-response","182","532886","0.0-6.0-0.0-8.0-0.37","3","3","4","3","3","3","3","4","4","4","4","4","5","4","4","4","5","4","4","4","2","2","3","3","4","4","2","1","1","1","0","1","0","0","1","0","1","0","1","0","0","0","0","0","4","1","2","1","1","1","4","2","5","1","776002406046765058","罗","595","","","","","","","","","","","","","","","","","","","","","","","","","","","","","","","","","","","","","","","",""
"1266","<p style=""color:white; font-size: 35px;"">能干</p>","e","categorize-html","183","534154","0.0-6.0-0.0-8.0-1.37","3","3","4","3","3","3","3","4","4","4","4","4","5","4","4","4","5","4","4","4","2","2","3","3","4","4","2","1","1","1","0","1","0","0","1","0","1","0","1","0","0","0","0","0","4","1","2","1","1","1","4","2","5","1","776002406046765058","罗","595","","","","","","","","","","","","","","","","","","","true","4","4","ability","1266","positive","能干","","","","","","","","","","","","","","",""
"null","","null","html-keyboard-response","184","534405","0.0-6.0-0.0-8.0-0.38","3","3","4","3","3","3","3","4","4","4","4","4","5","4","4","4","5","4","4","4","2","2","3","3","4","4","2","1","1","1","0","1","0","0","1","0","1","0","1","0","0","0","0","0","4","1","2","1","1","1","4","2","5","1","776002406046765058","罗","595","","","","","","","","","","","","","","","","","","","","","","","","","","","","","","","","","","","","","","","",""
"627","<p style=""color:rgb(150, 250, 100); font-size: 35px;"">他人的</p>","e","categorize-html","185","535034","0.0-6.0-0.0-8.0-1.38","3","3","4","3","3","3","3","4","4","4","4","4","5","4","4","4","5","4","4","4","2","2","3","3","4","4","2","1","1","1","0","1","0","0","1","0","1","0","1","0","0","0","0","0","4","1","2","1","1","1","4","2","5","1","776002406046765058","罗","595","","","","","","","","","","","","","","","","","","","true","4","4","ability","627","other","他人的","","","","","","","","","","","","","","",""
"null","","null","html-keyboard-response","186","535285","0.0-6.0-0.0-8.0-0.39","3","3","4","3","3","3","3","4","4","4","4","4","5","4","4","4","5","4","4","4","2","2","3","3","4","4","2","1","1","1","0","1","0","0","1","0","1","0","1","0","0","0","0","0","4","1","2","1","1","1","4","2","5","1","776002406046765058","罗","595","","","","","","","","","","","","","","","","","","","","","","","","","","","","","","","","","","","","","","","",""
"700","<p style=""color:white; font-size: 35px;"">低能</p>","i","categorize-html","187","535986","0.0-6.0-0.0-8.0-1.39","3","3","4","3","3","3","3","4","4","4","4","4","5","4","4","4","5","4","4","4","2","2","3","3","4","4","2","1","1","1","0","1","0","0","1","0","1","0","1","0","0","0","0","0","4","1","2","1","1","1","4","2","5","1","776002406046765058","罗","595","","","","","","","","","","","","","","","","","","","true","4","4","ability","700","negative","低能","","","","","","","","","","","","","","",""
"null","","null","html-keyboard-response","188","536237","0.0-6.0-0.0-8.0-0.40","3","3","4","3","3","3","3","4","4","4","4","4","5","4","4","4","5","4","4","4","2","2","3","3","4","4","2","1","1","1","0","1","0","0","1","0","1","0","1","0","0","0","0","0","4","1","2","1","1","1","4","2","5","1","776002406046765058","罗","595","","","","","","","","","","","","","","","","","","","","","","","","","","","","","","","","","","","","","","","",""
"2564","<p style=""color:rgb(150, 250, 100); font-size: 35px;"">本人</p>","i","categorize-html","189","538802","0.0-6.0-0.0-8.0-1.40","3","3","4","3","3","3","3","4","4","4","4","4","5","4","4","4","5","4","4","4","2","2","3","3","4","4","2","1","1","1","0","1","0","0","1","0","1","0","1","0","0","0","0","0","4","1","2","1","1","1","4","2","5","1","776002406046765058","罗","595","","","","","","","","","","","","","","","","","","","true","4","4","ability","2564","self","本人","","","","","","","","","","","","","","",""
"null","","null","html-keyboard-response","190","539054","0.0-6.0-0.0-8.0-0.41","3","3","4","3","3","3","3","4","4","4","4","4","5","4","4","4","5","4","4","4","2","2","3","3","4","4","2","1","1","1","0","1","0","0","1","0","1","0","1","0","0","0","0","0","4","1","2","1","1","1","4","2","5","1","776002406046765058","罗","595","","","","","","","","","","","","","","","","","","","","","","","","","","","","","","","","","","","","","","","",""
"1179","<p style=""color:white; font-size: 35px;"">天才</p>","e","categorize-html","191","540234","0.0-6.0-0.0-8.0-1.41","3","3","4","3","3","3","3","4","4","4","4","4","5","4","4","4","5","4","4","4","2","2","3","3","4","4","2","1","1","1","0","1","0","0","1","0","1","0","1","0","0","0","0","0","4","1","2","1","1","1","4","2","5","1","776002406046765058","罗","595","","","","","","","","","","","","","","","","","","","true","4","4","ability","1179","positive","天才","","","","","","","","","","","","","","",""
"null","","null","html-keyboard-response","192","540485","0.0-6.0-0.0-8.0-0.42","3","3","4","3","3","3","3","4","4","4","4","4","5","4","4","4","5","4","4","4","2","2","3","3","4","4","2","1","1","1","0","1","0","0","1","0","1","0","1","0","0","0","0","0","4","1","2","1","1","1","4","2","5","1","776002406046765058","罗","595","","","","","","","","","","","","","","","","","","","","","","","","","","","","","","","","","","","","","","","",""
"579","<p style=""color:rgb(150, 250, 100); font-size: 35px;"">别人的</p>","e","categorize-html","193","541066","0.0-6.0-0.0-8.0-1.42","3","3","4","3","3","3","3","4","4","4","4","4","5","4","4","4","5","4","4","4","2","2","3","3","4","4","2","1","1","1","0","1","0","0","1","0","1","0","1","0","0","0","0","0","4","1","2","1","1","1","4","2","5","1","776002406046765058","罗","595","","","","","","","","","","","","","","","","","","","true","4","4","ability","579","other","别人的","","","","","","","","","","","","","","",""
"null","","null","html-keyboard-response","194","541317","0.0-6.0-0.0-8.0-0.43","3","3","4","3","3","3","3","4","4","4","4","4","5","4","4","4","5","4","4","4","2","2","3","3","4","4","2","1","1","1","0","1","0","0","1","0","1","0","1","0","0","0","0","0","4","1","2","1","1","1","4","2","5","1","776002406046765058","罗","595","","","","","","","","","","","","","","","","","","","","","","","","","","","","","","","","","","","","","","","",""
"611","<p style=""color:white; font-size: 35px;"">废物</p>","i","categorize-html","195","541930","0.0-6.0-0.0-8.0-1.43","3","3","4","3","3","3","3","4","4","4","4","4","5","4","4","4","5","4","4","4","2","2","3","3","4","4","2","1","1","1","0","1","0","0","1","0","1","0","1","0","0","0","0","0","4","1","2","1","1","1","4","2","5","1","776002406046765058","罗","595","","","","","","","","","","","","","","","","","","","true","4","4","ability","611","negative","废物","","","","","","","","","","","","","","",""
"null","","null","html-keyboard-response","196","542181","0.0-6.0-0.0-8.0-0.44","3","3","4","3","3","3","3","4","4","4","4","4","5","4","4","4","5","4","4","4","2","2","3","3","4","4","2","1","1","1","0","1","0","0","1","0","1","0","1","0","0","0","0","0","4","1","2","1","1","1","4","2","5","1","776002406046765058","罗","595","","","","","","","","","","","","","","","","","","","","","","","","","","","","","","","","","","","","","","","",""
"595","<p style=""color:rgb(150, 250, 100); font-size: 35px;"">本人的</p>","i","categorize-html","197","542778","0.0-6.0-0.0-8.0-1.44","3","3","4","3","3","3","3","4","4","4","4","4","5","4","4","4","5","4","4","4","2","2","3","3","4","4","2","1","1","1","0","1","0","0","1","0","1","0","1","0","0","0","0","0","4","1","2","1","1","1","4","2","5","1","776002406046765058","罗","595","","","","","","","","","","","","","","","","","","","true","4","4","ability","595","self","本人的","","","","","","","","","","","","","","",""
