"rt","stimulus","response","trial_type","trial_index","time_elapsed","internal_node_id","ses_1","ses_2","ses_3","ses_4","ses_5","ses_6","ses_7","ses_8","ses_9","ses_10","coreself_1","coreself_2","coreself_3","coreself_4","coreself_5","coreself_6","coreself_7","coreself_8","coreself_9","coreself_10","SGPS_1","SGPS_2","SGPS_3","SGPS_4","SGPS_5","SGPS_6","SGPS_7","SGPS_8","SGPS_9","NPI1","NPI2","NPI3","NPI4","NPI5","NPI6","NPI7","NPI8","NPI9","NPI10","NPI11","NPI12","NPI13","NPI14","NPI15","hsns_1","hsns_2","hsns_3","hsns_4","hsns_5","hsns_6","hsns_7","hsns_8","hsns_9","hsns_10","subj_idx","friend_name","ParticipantID","value","success","user_agent","responses","item_order","radio_event_ids","radio_event_times","key_event_times","mouse_event_times","straightlining","zigzagging","honeypot","timeout","failed_images","failed_audio","failed_video","version_attrib","version_target","correct","IAT","screen_id","task_id","RT","condition","word","varname","summary","version_attrib2","version_target2","time_stamp","view_history","response_type","key_press","avg_frame_time","center_x","center_y","correct_response","identity","Image","question_order"
"17041","
   <p><div style = ""color: white;font-size:25px;"">您好，欢迎参加本次实验。</div> </p>
   <p><div style = ""color: white;font-size:25px;"">为充分保障您的权利，请确保您已经知晓并同意《参与实验同意书》以及《数据公开知情同意书》。</div></p>
   <p><div style = ""color: white;font-size:25px;"">如果您未见过上述内容，请咨询实验员。</div></p>
   <p><div style = ""color: white;font-size:25px;"">如果您选择继续实验，则表示您已经清楚两份知情同意书的内容并同意。</div></p>
   <p><div style = ""color: red;font-size:30px;"">请确保您记得day0的实验编号，您将在本次实验输入该编号，若您忘记，请咨询实验员后作答。</div></p>
   <p> <div style = ""color: green;font-size:25px;""><按空格键至下页></div> </p>
   "," ","html-keyboard-response","0","17044","0.0-0.0","4","3","4","3","3","4","3","2","4","4","5","4","5","4","4","5","5","3","4","5","1","2","2","3","1","2","1","2","2","1","0","1","1","0","0","0","1","0","1","1","0","1","0","1","5","2","3","1","2","1","3","1","2","2","774190846450077698","王","274","","","","","","","","","","","","","","","","","","","","","","","","","","","","","","","","","","","","","","","",""
"","","","call-function","1","17045","0.0-1.0-0.0","4","3","4","3","3","4","3","2","4","4","5","4","5","4","4","5","5","3","4","5","1","2","2","3","1","2","1","2","2","1","0","1","1","0","0","0","1","0","1","1","0","1","0","1","5","2","3","1","2","1","3","1","2","2","774190846450077698","王","274","","","","","","","","","","","","","","","","","","","","","","","","","","","","","","","","","","","","","","","",""
"16025","","{""friend_name"":""王"",""ParticipantID"":""274""}","survey-html-form","2","33070","0.0-1.0-1.0","4","3","4","3","3","4","3","2","4","4","5","4","5","4","4","5","5","3","4","5","1","2","2","3","1","2","1","2","2","1","0","1","1","0","0","0","1","0","1","1","0","1","0","1","5","2","3","1","2","1","3","1","2","2","774190846450077698","王","274","","","","","","","","","","","","","","","","","","","","","","","","","","","","","","","","","","","","","","","",""
"","","","fullscreen","3","42059","0.0-2.0","4","3","4","3","3","4","3","2","4","4","5","4","5","4","4","5","5","3","4","5","1","2","2","3","1","2","1","2","2","1","0","1","1","0","0","0","1","0","1","1","0","1","0","1","5","2","3","1","2","1","3","1","2","2","774190846450077698","王","274","","true","{}","","","","","","","","","","","","","","","","","","","","","","","","","","","","","","","","","","","","",""
"33642.299999952316","","{""Q01"":""4"",""Q02"":""3"",""Q03"":""4"",""Q04"":""3"",""Q05"":""3"",""Q06"":""4"",""Q07"":""3"",""Q08"":""2"",""Q09"":""4"",""Q10"":""4""}","survey-template","4","75703","0.0-3.0","4","3","4","3","3","4","3","2","4","4","5","4","5","4","4","5","5","3","4","5","1","2","2","3","1","2","1","2","2","1","0","1","1","0","0","0","1","0","1","1","0","1","0","1","5","2","3","1","2","1","3","1","2","2","774190846450077698","王","274","","","","{""Q01"":""4"",""Q02"":""3"",""Q03"":""4"",""Q04"":""3"",""Q05"":""3"",""Q06"":""4"",""Q07"":""3"",""Q08"":""2"",""Q09"":""4"",""Q10"":""4""}","[0,1,2,3,4,5,6,7,8,9]","[""Q01"",""Q02"",""Q03"",""Q04"",""Q05"",""Q06"",""Q05"",""Q07"",""Q09"",""Q10"",""Q08""]","[8177.5,10265.5,13785.5,15633.5,18945.5,20873.5,21921.5,23169.599999904633,29705.399999976158,31345.399999976158,32361.399999976158]","[]","[8177.5,10265.5,13785.5,15633.5,18945.5,20873.5,21921.5,23169.599999904633,29705.399999976158,31345.399999976158,32361.399999976158,33641.5]","0.4","0.3333333333333333","0","","","","","","","","","","","","","","","","","","","","","","","","","","","",""
"24547.5","","{""Q01"":""5"",""Q02"":""4"",""Q03"":""5"",""Q04"":""4"",""Q05"":""4"",""Q06"":""5"",""Q07"":""5"",""Q08"":""3"",""Q09"":""4"",""Q10"":""5""}","survey-template","5","100255","0.0-4.0","4","3","4","3","3","4","3","2","4","4","5","4","5","4","4","5","5","3","4","5","1","2","2","3","1","2","1","2","2","1","0","1","1","0","0","0","1","0","1","1","0","1","0","1","5","2","3","1","2","1","3","1","2","2","774190846450077698","王","274","","","","{""Q01"":""5"",""Q02"":""4"",""Q03"":""5"",""Q04"":""4"",""Q05"":""4"",""Q06"":""5"",""Q07"":""5"",""Q08"":""3"",""Q09"":""4"",""Q10"":""5""}","[0,1,2,3,4,5,6,7,8,9]","[""Q01"",""Q02"",""Q02"",""Q03"",""Q04"",""Q05"",""Q06"",""Q07"",""Q08"",""Q09"",""Q10""]","[2554.600000023842,6026.600000023842,7410.600000023842,8338.5,9898.600000023842,11482.600000023842,14050.5,18002.5,20258.5,21530.5,23442.5]","[]","[2554.600000023842,6026.600000023842,7410.600000023842,8338.5,9898.600000023842,11482.600000023842,14050.5,16162.600000023842,18002.5,20258.5,21530.5,23442.5,24546.5]","0.3","0.3333333333333333","0","","","","","","","","","","","","","","","","","","","","","","","","","","","",""
"","","","preload","6","100718","0.0-5.0","4","3","4","3","3","4","3","2","4","4","5","4","5","4","4","5","5","3","4","5","1","2","2","3","1","2","1","2","2","1","0","1","1","0","0","0","1","0","1","1","0","1","0","1","5","2","3","1","2","1","3","1","2","2","774190846450077698","王","274","","true","","","","","","","","","","","false","[]","[]","[]","","","","","","","","","","","","","","","","","","","","","","","",""
"20471","
    <h3>词语分类任务</h3>
    <p>在接下来的任务中，你需要对一系列词语进行分类。</p>
    <p>请先熟悉这些词语，这有利于你完成接下来的任务。</p>
    <table align=""center"" border=1 cellpadding=3 cellspacing=0>
    <tr> <th>类别</th> <th>词语</th> </tr>
    <tr> <td>&emsp;积极&emsp;</td> <td>&emsp;能干、全能、全才、高效、精干、天才&emsp;</td> </tr>
    <tr> <td>&emsp;消极&emsp;</td> <td>&emsp;无能、低能、废物、拙笨、愚钝、蠢笨&emsp;</td> </tr>
    <tr> <td>&emsp;自我&emsp;</td> <td>&emsp;我、我的、自己、自己的、本人、本人的&emsp;</td> </tr>
    <tr> <td>&emsp;他人&emsp;</td> <td>&emsp;他、他的、别人、别人的、他人、他人的&emsp;</td> </tr>
    </table><br/>","0","html-button-response","7","121190","0.0-6.0-0.0-0.0","4","3","4","3","3","4","3","2","4","4","5","4","5","4","4","5","5","3","4","5","1","2","2","3","1","2","1","2","2","1","0","1","1","0","0","0","1","0","1","1","0","1","0","1","5","2","3","1","2","1","3","1","2","2","774190846450077698","王","274","","","","","","","","","","","","","","","","","1","1","","","","","","","","","","","","","","","","","","","","","",""
"15909","
    <div class=""tag-bottom"">
    <p> —— 任务1：对“自我”词和“他人”词分类 ——<p/>
    不同词语会出现在屏幕中央，类别标签将始终显示在屏幕上方<p/>   
    <span style=""color:#FFD866""><b>请根据上方标签的提示，尽可能正确并且快速地做出按键反应</b></span><p/>
    当按键错误时屏幕中会出现<span style=""color:red""> X </span>，需要按另一个键纠正才能继续<br/><p/>
    请把双手食指分别放在键盘的“E”键和“I”键上<p/>
    按<空格键>开始
    </p></div>"," ","html-keyboard-response","8","137101","0.0-6.0-0.0-1.0","4","3","4","3","3","4","3","2","4","4","5","4","5","4","4","5","5","3","4","5","1","2","2","3","1","2","1","2","2","1","0","1","1","0","0","0","1","0","1","1","0","1","0","1","5","2","3","1","2","1","3","1","2","2","774190846450077698","王","274","","","","","","","","","","","","","","","","","","","","","","","","","","","","","","","","","","","","","","","",""
"null","","null","html-keyboard-response","9","137353","0.0-6.0-0.0-2.0-0.0","4","3","4","3","3","4","3","2","4","4","5","4","5","4","4","5","5","3","4","5","1","2","2","3","1","2","1","2","2","1","0","1","1","0","0","0","1","0","1","1","0","1","0","1","5","2","3","1","2","1","3","1","2","2","774190846450077698","王","274","","","","","","","","","","","","","","","","","","","","","","","","","","","","","","","","","","","","","","","",""
"787","<p style=""color:rgb(150, 250, 100); font-size: 35px;"">他的</p>","i","categorize-html","10","138142","0.0-6.0-0.0-2.0-1.0","4","3","4","3","3","4","3","2","4","4","5","4","5","4","4","5","5","3","4","5","1","2","2","3","1","2","1","2","2","1","0","1","1","0","0","0","1","0","1","1","0","1","0","1","5","2","3","1","2","1","3","1","2","2","774190846450077698","王","274","","","","","","","","","","","","","","","","","","","true","1","1","ability","787","other","他的","","","","","","","","","","","","","","",""
"null","","null","html-keyboard-response","11","138394","0.0-6.0-0.0-2.0-0.1","4","3","4","3","3","4","3","2","4","4","5","4","5","4","4","5","5","3","4","5","1","2","2","3","1","2","1","2","2","1","0","1","1","0","0","0","1","0","1","1","0","1","0","1","5","2","3","1","2","1","3","1","2","2","774190846450077698","王","274","","","","","","","","","","","","","","","","","","","","","","","","","","","","","","","","","","","","","","","",""
"531","<p style=""color:rgb(150, 250, 100); font-size: 35px;"">自己</p>","e","categorize-html","12","138926","0.0-6.0-0.0-2.0-1.1","4","3","4","3","3","4","3","2","4","4","5","4","5","4","4","5","5","3","4","5","1","2","2","3","1","2","1","2","2","1","0","1","1","0","0","0","1","0","1","1","0","1","0","1","5","2","3","1","2","1","3","1","2","2","774190846450077698","王","274","","","","","","","","","","","","","","","","","","","true","1","1","ability","531","self","自己","","","","","","","","","","","","","","",""
"null","","null","html-keyboard-response","13","139178","0.0-6.0-0.0-2.0-0.2","4","3","4","3","3","4","3","2","4","4","5","4","5","4","4","5","5","3","4","5","1","2","2","3","1","2","1","2","2","1","0","1","1","0","0","0","1","0","1","1","0","1","0","1","5","2","3","1","2","1","3","1","2","2","774190846450077698","王","274","","","","","","","","","","","","","","","","","","","","","","","","","","","","","","","","","","","","","","","",""
"515","<p style=""color:rgb(150, 250, 100); font-size: 35px;"">自己的</p>","e","categorize-html","14","139694","0.0-6.0-0.0-2.0-1.2","4","3","4","3","3","4","3","2","4","4","5","4","5","4","4","5","5","3","4","5","1","2","2","3","1","2","1","2","2","1","0","1","1","0","0","0","1","0","1","1","0","1","0","1","5","2","3","1","2","1","3","1","2","2","774190846450077698","王","274","","","","","","","","","","","","","","","","","","","true","1","1","ability","515","self","自己的","","","","","","","","","","","","","","",""
"null","","null","html-keyboard-response","15","139946","0.0-6.0-0.0-2.0-0.3","4","3","4","3","3","4","3","2","4","4","5","4","5","4","4","5","5","3","4","5","1","2","2","3","1","2","1","2","2","1","0","1","1","0","0","0","1","0","1","1","0","1","0","1","5","2","3","1","2","1","3","1","2","2","774190846450077698","王","274","","","","","","","","","","","","","","","","","","","","","","","","","","","","","","","","","","","","","","","",""
"419","<p style=""color:rgb(150, 250, 100); font-size: 35px;"">他人</p>","i","categorize-html","16","140366","0.0-6.0-0.0-2.0-1.3","4","3","4","3","3","4","3","2","4","4","5","4","5","4","4","5","5","3","4","5","1","2","2","3","1","2","1","2","2","1","0","1","1","0","0","0","1","0","1","1","0","1","0","1","5","2","3","1","2","1","3","1","2","2","774190846450077698","王","274","","","","","","","","","","","","","","","","","","","true","1","1","ability","419","other","他人","","","","","","","","","","","","","","",""
"null","","null","html-keyboard-response","17","140618","0.0-6.0-0.0-2.0-0.4","4","3","4","3","3","4","3","2","4","4","5","4","5","4","4","5","5","3","4","5","1","2","2","3","1","2","1","2","2","1","0","1","1","0","0","0","1","0","1","1","0","1","0","1","5","2","3","1","2","1","3","1","2","2","774190846450077698","王","274","","","","","","","","","","","","","","","","","","","","","","","","","","","","","","","","","","","","","","","",""
"475","<p style=""color:rgb(150, 250, 100); font-size: 35px;"">我</p>","e","categorize-html","18","141094","0.0-6.0-0.0-2.0-1.4","4","3","4","3","3","4","3","2","4","4","5","4","5","4","4","5","5","3","4","5","1","2","2","3","1","2","1","2","2","1","0","1","1","0","0","0","1","0","1","1","0","1","0","1","5","2","3","1","2","1","3","1","2","2","774190846450077698","王","274","","","","","","","","","","","","","","","","","","","true","1","1","ability","475","self","我","","","","","","","","","","","","","","",""
"null","","null","html-keyboard-response","19","141346","0.0-6.0-0.0-2.0-0.5","4","3","4","3","3","4","3","2","4","4","5","4","5","4","4","5","5","3","4","5","1","2","2","3","1","2","1","2","2","1","0","1","1","0","0","0","1","0","1","1","0","1","0","1","5","2","3","1","2","1","3","1","2","2","774190846450077698","王","274","","","","","","","","","","","","","","","","","","","","","","","","","","","","","","","","","","","","","","","",""
"411","<p style=""color:rgb(150, 250, 100); font-size: 35px;"">我的</p>","e","categorize-html","20","141758","0.0-6.0-0.0-2.0-1.5","4","3","4","3","3","4","3","2","4","4","5","4","5","4","4","5","5","3","4","5","1","2","2","3","1","2","1","2","2","1","0","1","1","0","0","0","1","0","1","1","0","1","0","1","5","2","3","1","2","1","3","1","2","2","774190846450077698","王","274","","","","","","","","","","","","","","","","","","","true","1","1","ability","411","self","我的","","","","","","","","","","","","","","",""
"null","","null","html-keyboard-response","21","142010","0.0-6.0-0.0-2.0-0.6","4","3","4","3","3","4","3","2","4","4","5","4","5","4","4","5","5","3","4","5","1","2","2","3","1","2","1","2","2","1","0","1","1","0","0","0","1","0","1","1","0","1","0","1","5","2","3","1","2","1","3","1","2","2","774190846450077698","王","274","","","","","","","","","","","","","","","","","","","","","","","","","","","","","","","","","","","","","","","",""
"771","<p style=""color:rgb(150, 250, 100); font-size: 35px;"">本人的</p>","e","categorize-html","22","142782","0.0-6.0-0.0-2.0-1.6","4","3","4","3","3","4","3","2","4","4","5","4","5","4","4","5","5","3","4","5","1","2","2","3","1","2","1","2","2","1","0","1","1","0","0","0","1","0","1","1","0","1","0","1","5","2","3","1","2","1","3","1","2","2","774190846450077698","王","274","","","","","","","","","","","","","","","","","","","true","1","1","ability","771","self","本人的","","","","","","","","","","","","","","",""
"null","","null","html-keyboard-response","23","143034","0.0-6.0-0.0-2.0-0.7","4","3","4","3","3","4","3","2","4","4","5","4","5","4","4","5","5","3","4","5","1","2","2","3","1","2","1","2","2","1","0","1","1","0","0","0","1","0","1","1","0","1","0","1","5","2","3","1","2","1","3","1","2","2","774190846450077698","王","274","","","","","","","","","","","","","","","","","","","","","","","","","","","","","","","","","","","","","","","",""
"490","<p style=""color:rgb(150, 250, 100); font-size: 35px;"">他人的</p>","i","categorize-html","24","143526","0.0-6.0-0.0-2.0-1.7","4","3","4","3","3","4","3","2","4","4","5","4","5","4","4","5","5","3","4","5","1","2","2","3","1","2","1","2","2","1","0","1","1","0","0","0","1","0","1","1","0","1","0","1","5","2","3","1","2","1","3","1","2","2","774190846450077698","王","274","","","","","","","","","","","","","","","","","","","true","1","1","ability","490","other","他人的","","","","","","","","","","","","","","",""
"null","","null","html-keyboard-response","25","143778","0.0-6.0-0.0-2.0-0.8","4","3","4","3","3","4","3","2","4","4","5","4","5","4","4","5","5","3","4","5","1","2","2","3","1","2","1","2","2","1","0","1","1","0","0","0","1","0","1","1","0","1","0","1","5","2","3","1","2","1","3","1","2","2","774190846450077698","王","274","","","","","","","","","","","","","","","","","","","","","","","","","","","","","","","","","","","","","","","",""
"539","<p style=""color:rgb(150, 250, 100); font-size: 35px;"">别人的</p>","i","categorize-html","26","144318","0.0-6.0-0.0-2.0-1.8","4","3","4","3","3","4","3","2","4","4","5","4","5","4","4","5","5","3","4","5","1","2","2","3","1","2","1","2","2","1","0","1","1","0","0","0","1","0","1","1","0","1","0","1","5","2","3","1","2","1","3","1","2","2","774190846450077698","王","274","","","","","","","","","","","","","","","","","","","true","1","1","ability","539","other","别人的","","","","","","","","","","","","","","",""
"null","","null","html-keyboard-response","27","144570","0.0-6.0-0.0-2.0-0.9","4","3","4","3","3","4","3","2","4","4","5","4","5","4","4","5","5","3","4","5","1","2","2","3","1","2","1","2","2","1","0","1","1","0","0","0","1","0","1","1","0","1","0","1","5","2","3","1","2","1","3","1","2","2","774190846450077698","王","274","","","","","","","","","","","","","","","","","","","","","","","","","","","","","","","","","","","","","","","",""
"475","<p style=""color:rgb(150, 250, 100); font-size: 35px;"">别人</p>","i","categorize-html","28","145046","0.0-6.0-0.0-2.0-1.9","4","3","4","3","3","4","3","2","4","4","5","4","5","4","4","5","5","3","4","5","1","2","2","3","1","2","1","2","2","1","0","1","1","0","0","0","1","0","1","1","0","1","0","1","5","2","3","1","2","1","3","1","2","2","774190846450077698","王","274","","","","","","","","","","","","","","","","","","","true","1","1","ability","475","other","别人","","","","","","","","","","","","","","",""
"null","","null","html-keyboard-response","29","145298","0.0-6.0-0.0-2.0-0.10","4","3","4","3","3","4","3","2","4","4","5","4","5","4","4","5","5","3","4","5","1","2","2","3","1","2","1","2","2","1","0","1","1","0","0","0","1","0","1","1","0","1","0","1","5","2","3","1","2","1","3","1","2","2","774190846450077698","王","274","","","","","","","","","","","","","","","","","","","","","","","","","","","","","","","","","","","","","","","",""
"491","<p style=""color:rgb(150, 250, 100); font-size: 35px;"">本人</p>","e","categorize-html","30","145790","0.0-6.0-0.0-2.0-1.10","4","3","4","3","3","4","3","2","4","4","5","4","5","4","4","5","5","3","4","5","1","2","2","3","1","2","1","2","2","1","0","1","1","0","0","0","1","0","1","1","0","1","0","1","5","2","3","1","2","1","3","1","2","2","774190846450077698","王","274","","","","","","","","","","","","","","","","","","","true","1","1","ability","491","self","本人","","","","","","","","","","","","","","",""
"null","","null","html-keyboard-response","31","146042","0.0-6.0-0.0-2.0-0.11","4","3","4","3","3","4","3","2","4","4","5","4","5","4","4","5","5","3","4","5","1","2","2","3","1","2","1","2","2","1","0","1","1","0","0","0","1","0","1","1","0","1","0","1","5","2","3","1","2","1","3","1","2","2","774190846450077698","王","274","","","","","","","","","","","","","","","","","","","","","","","","","","","","","","","","","","","","","","","",""
"467","<p style=""color:rgb(150, 250, 100); font-size: 35px;"">他</p>","i","categorize-html","32","146510","0.0-6.0-0.0-2.0-1.11","4","3","4","3","3","4","3","2","4","4","5","4","5","4","4","5","5","3","4","5","1","2","2","3","1","2","1","2","2","1","0","1","1","0","0","0","1","0","1","1","0","1","0","1","5","2","3","1","2","1","3","1","2","2","774190846450077698","王","274","","","","","","","","","","","","","","","","","","","true","1","1","ability","467","other","他","","","","","","","","","","","","","","",""
"4639","
    <div class=""tag-bottom""><p>
    —— 任务2：对“积极”词和“消极”词分类 ——<p/>   
    <span style=""color:#78DCE8""><b>注意上方，类别标签和需要分类的词语都已经改变</b></span><p/>
    <span style=""color:#FFD866""><b>请根据上方标签的提示，尽可能正确并且快速地做出按键反应</b></span><p/>
    当按键错误时屏幕中会出现<span style=""color:red""> X </span>，需要按另一个键纠正才能继续<br/><p/>
    请把双手食指分别放在键盘的“E”键和“I”键上<p/>
    按<空格键>开始
    </p></div>"," ","html-keyboard-response","33","151149","0.0-6.0-0.0-3.0","4","3","4","3","3","4","3","2","4","4","5","4","5","4","4","5","5","3","4","5","1","2","2","3","1","2","1","2","2","1","0","1","1","0","0","0","1","0","1","1","0","1","0","1","5","2","3","1","2","1","3","1","2","2","774190846450077698","王","274","","","","","","","","","","","","","","","","","","","","","","","","","","","","","","","","","","","","","","","",""
"null","","null","html-keyboard-response","34","151400","0.0-6.0-0.0-4.0-0.0","4","3","4","3","3","4","3","2","4","4","5","4","5","4","4","5","5","3","4","5","1","2","2","3","1","2","1","2","2","1","0","1","1","0","0","0","1","0","1","1","0","1","0","1","5","2","3","1","2","1","3","1","2","2","774190846450077698","王","274","","","","","","","","","","","","","","","","","","","","","","","","","","","","","","","","","","","","","","","",""
"908","<p style=""color:white; font-size: 35px;"">拙笨</p>","i","categorize-html","35","152310","0.0-6.0-0.0-4.0-1.0","4","3","4","3","3","4","3","2","4","4","5","4","5","4","4","5","5","3","4","5","1","2","2","3","1","2","1","2","2","1","0","1","1","0","0","0","1","0","1","1","0","1","0","1","5","2","3","1","2","1","3","1","2","2","774190846450077698","王","274","","","","","","","","","","","","","","","","","","","true","2","2","ability","908","negative","拙笨","","","","","","","","","","","","","","",""
"null","","null","html-keyboard-response","36","152562","0.0-6.0-0.0-4.0-0.1","4","3","4","3","3","4","3","2","4","4","5","4","5","4","4","5","5","3","4","5","1","2","2","3","1","2","1","2","2","1","0","1","1","0","0","0","1","0","1","1","0","1","0","1","5","2","3","1","2","1","3","1","2","2","774190846450077698","王","274","","","","","","","","","","","","","","","","","","","","","","","","","","","","","","","","","","","","","","","",""
"563","<p style=""color:white; font-size: 35px;"">精干</p>","e","categorize-html","37","153126","0.0-6.0-0.0-4.0-1.1","4","3","4","3","3","4","3","2","4","4","5","4","5","4","4","5","5","3","4","5","1","2","2","3","1","2","1","2","2","1","0","1","1","0","0","0","1","0","1","1","0","1","0","1","5","2","3","1","2","1","3","1","2","2","774190846450077698","王","274","","","","","","","","","","","","","","","","","","","true","2","2","ability","563","positive","精干","","","","","","","","","","","","","","",""
"null","","null","html-keyboard-response","38","153377","0.0-6.0-0.0-4.0-0.2","4","3","4","3","3","4","3","2","4","4","5","4","5","4","4","5","5","3","4","5","1","2","2","3","1","2","1","2","2","1","0","1","1","0","0","0","1","0","1","1","0","1","0","1","5","2","3","1","2","1","3","1","2","2","774190846450077698","王","274","","","","","","","","","","","","","","","","","","","","","","","","","","","","","","","","","","","","","","","",""
"588","<p style=""color:white; font-size: 35px;"">低能</p>","i","categorize-html","39","153966","0.0-6.0-0.0-4.0-1.2","4","3","4","3","3","4","3","2","4","4","5","4","5","4","4","5","5","3","4","5","1","2","2","3","1","2","1","2","2","1","0","1","1","0","0","0","1","0","1","1","0","1","0","1","5","2","3","1","2","1","3","1","2","2","774190846450077698","王","274","","","","","","","","","","","","","","","","","","","true","2","2","ability","588","negative","低能","","","","","","","","","","","","","","",""
"null","","null","html-keyboard-response","40","154218","0.0-6.0-0.0-4.0-0.3","4","3","4","3","3","4","3","2","4","4","5","4","5","4","4","5","5","3","4","5","1","2","2","3","1","2","1","2","2","1","0","1","1","0","0","0","1","0","1","1","0","1","0","1","5","2","3","1","2","1","3","1","2","2","774190846450077698","王","274","","","","","","","","","","","","","","","","","","","","","","","","","","","","","","","","","","","","","","","",""
"442","<p style=""color:white; font-size: 35px;"">无能</p>","i","categorize-html","41","154662","0.0-6.0-0.0-4.0-1.3","4","3","4","3","3","4","3","2","4","4","5","4","5","4","4","5","5","3","4","5","1","2","2","3","1","2","1","2","2","1","0","1","1","0","0","0","1","0","1","1","0","1","0","1","5","2","3","1","2","1","3","1","2","2","774190846450077698","王","274","","","","","","","","","","","","","","","","","","","true","2","2","ability","442","negative","无能","","","","","","","","","","","","","","",""
"null","","null","html-keyboard-response","42","154914","0.0-6.0-0.0-4.0-0.4","4","3","4","3","3","4","3","2","4","4","5","4","5","4","4","5","5","3","4","5","1","2","2","3","1","2","1","2","2","1","0","1","1","0","0","0","1","0","1","1","0","1","0","1","5","2","3","1","2","1","3","1","2","2","774190846450077698","王","274","","","","","","","","","","","","","","","","","","","","","","","","","","","","","","","","","","","","","","","",""
"659","<p style=""color:white; font-size: 35px;"">蠢笨</p>","i","categorize-html","43","155574","0.0-6.0-0.0-4.0-1.4","4","3","4","3","3","4","3","2","4","4","5","4","5","4","4","5","5","3","4","5","1","2","2","3","1","2","1","2","2","1","0","1","1","0","0","0","1","0","1","1","0","1","0","1","5","2","3","1","2","1","3","1","2","2","774190846450077698","王","274","","","","","","","","","","","","","","","","","","","true","2","2","ability","659","negative","蠢笨","","","","","","","","","","","","","","",""
"null","","null","html-keyboard-response","44","155826","0.0-6.0-0.0-4.0-0.5","4","3","4","3","3","4","3","2","4","4","5","4","5","4","4","5","5","3","4","5","1","2","2","3","1","2","1","2","2","1","0","1","1","0","0","0","1","0","1","1","0","1","0","1","5","2","3","1","2","1","3","1","2","2","774190846450077698","王","274","","","","","","","","","","","","","","","","","","","","","","","","","","","","","","","","","","","","","","","",""
"506","<p style=""color:white; font-size: 35px;"">天才</p>","e","categorize-html","45","156334","0.0-6.0-0.0-4.0-1.5","4","3","4","3","3","4","3","2","4","4","5","4","5","4","4","5","5","3","4","5","1","2","2","3","1","2","1","2","2","1","0","1","1","0","0","0","1","0","1","1","0","1","0","1","5","2","3","1","2","1","3","1","2","2","774190846450077698","王","274","","","","","","","","","","","","","","","","","","","true","2","2","ability","506","positive","天才","","","","","","","","","","","","","","",""
"null","","null","html-keyboard-response","46","156585","0.0-6.0-0.0-4.0-0.6","4","3","4","3","3","4","3","2","4","4","5","4","5","4","4","5","5","3","4","5","1","2","2","3","1","2","1","2","2","1","0","1","1","0","0","0","1","0","1","1","0","1","0","1","5","2","3","1","2","1","3","1","2","2","774190846450077698","王","274","","","","","","","","","","","","","","","","","","","","","","","","","","","","","","","","","","","","","","","",""
"499","<p style=""color:white; font-size: 35px;"">废物</p>","i","categorize-html","47","157086","0.0-6.0-0.0-4.0-1.6","4","3","4","3","3","4","3","2","4","4","5","4","5","4","4","5","5","3","4","5","1","2","2","3","1","2","1","2","2","1","0","1","1","0","0","0","1","0","1","1","0","1","0","1","5","2","3","1","2","1","3","1","2","2","774190846450077698","王","274","","","","","","","","","","","","","","","","","","","true","2","2","ability","499","negative","废物","","","","","","","","","","","","","","",""
"null","","null","html-keyboard-response","48","157338","0.0-6.0-0.0-4.0-0.7","4","3","4","3","3","4","3","2","4","4","5","4","5","4","4","5","5","3","4","5","1","2","2","3","1","2","1","2","2","1","0","1","1","0","0","0","1","0","1","1","0","1","0","1","5","2","3","1","2","1","3","1","2","2","774190846450077698","王","274","","","","","","","","","","","","","","","","","","","","","","","","","","","","","","","","","","","","","","","",""
"635","<p style=""color:white; font-size: 35px;"">全才</p>","e","categorize-html","49","157974","0.0-6.0-0.0-4.0-1.7","4","3","4","3","3","4","3","2","4","4","5","4","5","4","4","5","5","3","4","5","1","2","2","3","1","2","1","2","2","1","0","1","1","0","0","0","1","0","1","1","0","1","0","1","5","2","3","1","2","1","3","1","2","2","774190846450077698","王","274","","","","","","","","","","","","","","","","","","","true","2","2","ability","635","positive","全才","","","","","","","","","","","","","","",""
"null","","null","html-keyboard-response","50","158226","0.0-6.0-0.0-4.0-0.8","4","3","4","3","3","4","3","2","4","4","5","4","5","4","4","5","5","3","4","5","1","2","2","3","1","2","1","2","2","1","0","1","1","0","0","0","1","0","1","1","0","1","0","1","5","2","3","1","2","1","3","1","2","2","774190846450077698","王","274","","","","","","","","","","","","","","","","","","","","","","","","","","","","","","","","","","","","","","","",""
"507","<p style=""color:white; font-size: 35px;"">愚钝</p>","i","categorize-html","51","158734","0.0-6.0-0.0-4.0-1.8","4","3","4","3","3","4","3","2","4","4","5","4","5","4","4","5","5","3","4","5","1","2","2","3","1","2","1","2","2","1","0","1","1","0","0","0","1","0","1","1","0","1","0","1","5","2","3","1","2","1","3","1","2","2","774190846450077698","王","274","","","","","","","","","","","","","","","","","","","true","2","2","ability","507","negative","愚钝","","","","","","","","","","","","","","",""
"null","","null","html-keyboard-response","52","158986","0.0-6.0-0.0-4.0-0.9","4","3","4","3","3","4","3","2","4","4","5","4","5","4","4","5","5","3","4","5","1","2","2","3","1","2","1","2","2","1","0","1","1","0","0","0","1","0","1","1","0","1","0","1","5","2","3","1","2","1","3","1","2","2","774190846450077698","王","274","","","","","","","","","","","","","","","","","","","","","","","","","","","","","","","","","","","","","","","",""
"571","<p style=""color:white; font-size: 35px;"">全能</p>","e","categorize-html","53","159558","0.0-6.0-0.0-4.0-1.9","4","3","4","3","3","4","3","2","4","4","5","4","5","4","4","5","5","3","4","5","1","2","2","3","1","2","1","2","2","1","0","1","1","0","0","0","1","0","1","1","0","1","0","1","5","2","3","1","2","1","3","1","2","2","774190846450077698","王","274","","","","","","","","","","","","","","","","","","","true","2","2","ability","571","positive","全能","","","","","","","","","","","","","","",""
"null","","null","html-keyboard-response","54","159809","0.0-6.0-0.0-4.0-0.10","4","3","4","3","3","4","3","2","4","4","5","4","5","4","4","5","5","3","4","5","1","2","2","3","1","2","1","2","2","1","0","1","1","0","0","0","1","0","1","1","0","1","0","1","5","2","3","1","2","1","3","1","2","2","774190846450077698","王","274","","","","","","","","","","","","","","","","","","","","","","","","","","","","","","","","","","","","","","","",""
"555","<p style=""color:white; font-size: 35px;"">能干</p>","e","categorize-html","55","160366","0.0-6.0-0.0-4.0-1.10","4","3","4","3","3","4","3","2","4","4","5","4","5","4","4","5","5","3","4","5","1","2","2","3","1","2","1","2","2","1","0","1","1","0","0","0","1","0","1","1","0","1","0","1","5","2","3","1","2","1","3","1","2","2","774190846450077698","王","274","","","","","","","","","","","","","","","","","","","true","2","2","ability","555","positive","能干","","","","","","","","","","","","","","",""
"null","","null","html-keyboard-response","56","160618","0.0-6.0-0.0-4.0-0.11","4","3","4","3","3","4","3","2","4","4","5","4","5","4","4","5","5","3","4","5","1","2","2","3","1","2","1","2","2","1","0","1","1","0","0","0","1","0","1","1","0","1","0","1","5","2","3","1","2","1","3","1","2","2","774190846450077698","王","274","","","","","","","","","","","","","","","","","","","","","","","","","","","","","","","","","","","","","","","",""
"427","<p style=""color:white; font-size: 35px;"">高效</p>","e","categorize-html","57","161046","0.0-6.0-0.0-4.0-1.11","4","3","4","3","3","4","3","2","4","4","5","4","5","4","4","5","5","3","4","5","1","2","2","3","1","2","1","2","2","1","0","1","1","0","0","0","1","0","1","1","0","1","0","1","5","2","3","1","2","1","3","1","2","2","774190846450077698","王","274","","","","","","","","","","","","","","","","","","","true","2","2","ability","427","positive","高效","","","","","","","","","","","","","","",""
"4183","
    <div class=""tag-bottom""><p>
    —— 任务3：对“自我/积极”词和“他人/消极”词分类 ——<p/>
    <span style=""color:#78DCE8""><b>注意上方，之前的四类词语将混合在一起交替呈现</b></span><p/>
    <span style=""color:#FFD866""><b>请根据上方标签的提示，尽可能正确并且快速地做出按键反应</b></span><p/>
    当按键错误时屏幕中会出现<span style=""color:red""> X </span>，需要按另一个键纠正才能继续<br/><p/>
    请把双手食指分别放在键盘的“E”键和“I”键上<p/>
    按<空格键>开始
    </p></div>"," ","html-keyboard-response","58","165229","0.0-6.0-0.0-5.0","4","3","4","3","3","4","3","2","4","4","5","4","5","4","4","5","5","3","4","5","1","2","2","3","1","2","1","2","2","1","0","1","1","0","0","0","1","0","1","1","0","1","0","1","5","2","3","1","2","1","3","1","2","2","774190846450077698","王","274","","","","","","","","","","","","","","","","","","","","","","","","","","","","","","","","","","","","","","","",""
"null","","null","html-keyboard-response","59","165481","0.0-6.0-0.0-6.0-0.0","4","3","4","3","3","4","3","2","4","4","5","4","5","4","4","5","5","3","4","5","1","2","2","3","1","2","1","2","2","1","0","1","1","0","0","0","1","0","1","1","0","1","0","1","5","2","3","1","2","1","3","1","2","2","774190846450077698","王","274","","","","","","","","","","","","","","","","","","","","","","","","","","","","","","","","","","","","","","","",""
"643","<p style=""color:rgb(150, 250, 100); font-size: 35px;"">他</p>","i","categorize-html","60","166126","0.0-6.0-0.0-6.0-1.0","4","3","4","3","3","4","3","2","4","4","5","4","5","4","4","5","5","3","4","5","1","2","2","3","1","2","1","2","2","1","0","1","1","0","0","0","1","0","1","1","0","1","0","1","5","2","3","1","2","1","3","1","2","2","774190846450077698","王","274","","","","","","","","","","","","","","","","","","","true","3","3","ability","643","other","他","","","","","","","","","","","","","","",""
"null","","null","html-keyboard-response","61","166378","0.0-6.0-0.0-6.0-0.1","4","3","4","3","3","4","3","2","4","4","5","4","5","4","4","5","5","3","4","5","1","2","2","3","1","2","1","2","2","1","0","1","1","0","0","0","1","0","1","1","0","1","0","1","5","2","3","1","2","1","3","1","2","2","774190846450077698","王","274","","","","","","","","","","","","","","","","","","","","","","","","","","","","","","","","","","","","","","","",""
"642","<p style=""color:white; font-size: 35px;"">拙笨</p>","i","categorize-html","62","167022","0.0-6.0-0.0-6.0-1.1","4","3","4","3","3","4","3","2","4","4","5","4","5","4","4","5","5","3","4","5","1","2","2","3","1","2","1","2","2","1","0","1","1","0","0","0","1","0","1","1","0","1","0","1","5","2","3","1","2","1","3","1","2","2","774190846450077698","王","274","","","","","","","","","","","","","","","","","","","true","3","3","ability","642","negative","拙笨","","","","","","","","","","","","","","",""
"null","","null","html-keyboard-response","63","167274","0.0-6.0-0.0-6.0-0.2","4","3","4","3","3","4","3","2","4","4","5","4","5","4","4","5","5","3","4","5","1","2","2","3","1","2","1","2","2","1","0","1","1","0","0","0","1","0","1","1","0","1","0","1","5","2","3","1","2","1","3","1","2","2","774190846450077698","王","274","","","","","","","","","","","","","","","","","","","","","","","","","","","","","","","","","","","","","","","",""
"467","<p style=""color:rgb(150, 250, 100); font-size: 35px;"">自己</p>","e","categorize-html","64","167742","0.0-6.0-0.0-6.0-1.2","4","3","4","3","3","4","3","2","4","4","5","4","5","4","4","5","5","3","4","5","1","2","2","3","1","2","1","2","2","1","0","1","1","0","0","0","1","0","1","1","0","1","0","1","5","2","3","1","2","1","3","1","2","2","774190846450077698","王","274","","","","","","","","","","","","","","","","","","","true","3","3","ability","467","self","自己","","","","","","","","","","","","","","",""
"null","","null","html-keyboard-response","65","167995","0.0-6.0-0.0-6.0-0.3","4","3","4","3","3","4","3","2","4","4","5","4","5","4","4","5","5","3","4","5","1","2","2","3","1","2","1","2","2","1","0","1","1","0","0","0","1","0","1","1","0","1","0","1","5","2","3","1","2","1","3","1","2","2","774190846450077698","王","274","","","","","","","","","","","","","","","","","","","","","","","","","","","","","","","","","","","","","","","",""
"434","<p style=""color:white; font-size: 35px;"">全才</p>","e","categorize-html","66","168430","0.0-6.0-0.0-6.0-1.3","4","3","4","3","3","4","3","2","4","4","5","4","5","4","4","5","5","3","4","5","1","2","2","3","1","2","1","2","2","1","0","1","1","0","0","0","1","0","1","1","0","1","0","1","5","2","3","1","2","1","3","1","2","2","774190846450077698","王","274","","","","","","","","","","","","","","","","","","","true","3","3","ability","434","positive","全才","","","","","","","","","","","","","","",""
"null","","null","html-keyboard-response","67","168681","0.0-6.0-0.0-6.0-0.4","4","3","4","3","3","4","3","2","4","4","5","4","5","4","4","5","5","3","4","5","1","2","2","3","1","2","1","2","2","1","0","1","1","0","0","0","1","0","1","1","0","1","0","1","5","2","3","1","2","1","3","1","2","2","774190846450077698","王","274","","","","","","","","","","","","","","","","","","","","","","","","","","","","","","","","","","","","","","","",""
"547","<p style=""color:rgb(150, 250, 100); font-size: 35px;"">本人的</p>","e","categorize-html","68","169230","0.0-6.0-0.0-6.0-1.4","4","3","4","3","3","4","3","2","4","4","5","4","5","4","4","5","5","3","4","5","1","2","2","3","1","2","1","2","2","1","0","1","1","0","0","0","1","0","1","1","0","1","0","1","5","2","3","1","2","1","3","1","2","2","774190846450077698","王","274","","","","","","","","","","","","","","","","","","","true","3","3","ability","547","self","本人的","","","","","","","","","","","","","","",""
"null","","null","html-keyboard-response","69","169482","0.0-6.0-0.0-6.0-0.5","4","3","4","3","3","4","3","2","4","4","5","4","5","4","4","5","5","3","4","5","1","2","2","3","1","2","1","2","2","1","0","1","1","0","0","0","1","0","1","1","0","1","0","1","5","2","3","1","2","1","3","1","2","2","774190846450077698","王","274","","","","","","","","","","","","","","","","","","","","","","","","","","","","","","","","","","","","","","","",""
"459","<p style=""color:white; font-size: 35px;"">无能</p>","i","categorize-html","70","169942","0.0-6.0-0.0-6.0-1.5","4","3","4","3","3","4","3","2","4","4","5","4","5","4","4","5","5","3","4","5","1","2","2","3","1","2","1","2","2","1","0","1","1","0","0","0","1","0","1","1","0","1","0","1","5","2","3","1","2","1","3","1","2","2","774190846450077698","王","274","","","","","","","","","","","","","","","","","","","true","3","3","ability","459","negative","无能","","","","","","","","","","","","","","",""
"null","","null","html-keyboard-response","71","170194","0.0-6.0-0.0-6.0-0.6","4","3","4","3","3","4","3","2","4","4","5","4","5","4","4","5","5","3","4","5","1","2","2","3","1","2","1","2","2","1","0","1","1","0","0","0","1","0","1","1","0","1","0","1","5","2","3","1","2","1","3","1","2","2","774190846450077698","王","274","","","","","","","","","","","","","","","","","","","","","","","","","","","","","","","","","","","","","","","",""
"723","<p style=""color:rgb(150, 250, 100); font-size: 35px;"">别人的</p>","i","categorize-html","72","170918","0.0-6.0-0.0-6.0-1.6","4","3","4","3","3","4","3","2","4","4","5","4","5","4","4","5","5","3","4","5","1","2","2","3","1","2","1","2","2","1","0","1","1","0","0","0","1","0","1","1","0","1","0","1","5","2","3","1","2","1","3","1","2","2","774190846450077698","王","274","","","","","","","","","","","","","","","","","","","true","3","3","ability","723","other","别人的","","","","","","","","","","","","","","",""
"null","","null","html-keyboard-response","73","171170","0.0-6.0-0.0-6.0-0.7","4","3","4","3","3","4","3","2","4","4","5","4","5","4","4","5","5","3","4","5","1","2","2","3","1","2","1","2","2","1","0","1","1","0","0","0","1","0","1","1","0","1","0","1","5","2","3","1","2","1","3","1","2","2","774190846450077698","王","274","","","","","","","","","","","","","","","","","","","","","","","","","","","","","","","","","","","","","","","",""
"539","<p style=""color:white; font-size: 35px;"">精干</p>","e","categorize-html","74","171710","0.0-6.0-0.0-6.0-1.7","4","3","4","3","3","4","3","2","4","4","5","4","5","4","4","5","5","3","4","5","1","2","2","3","1","2","1","2","2","1","0","1","1","0","0","0","1","0","1","1","0","1","0","1","5","2","3","1","2","1","3","1","2","2","774190846450077698","王","274","","","","","","","","","","","","","","","","","","","true","3","3","ability","539","positive","精干","","","","","","","","","","","","","","",""
"null","","null","html-keyboard-response","75","171961","0.0-6.0-0.0-6.0-0.8","4","3","4","3","3","4","3","2","4","4","5","4","5","4","4","5","5","3","4","5","1","2","2","3","1","2","1","2","2","1","0","1","1","0","0","0","1","0","1","1","0","1","0","1","5","2","3","1","2","1","3","1","2","2","774190846450077698","王","274","","","","","","","","","","","","","","","","","","","","","","","","","","","","","","","","","","","","","","","",""
"507","<p style=""color:rgb(150, 250, 100); font-size: 35px;"">我</p>","i","categorize-html","76","173325","0.0-6.0-0.0-6.0-1.8","4","3","4","3","3","4","3","2","4","4","5","4","5","4","4","5","5","3","4","5","1","2","2","3","1","2","1","2","2","1","0","1","1","0","0","0","1","0","1","1","0","1","0","1","5","2","3","1","2","1","3","1","2","2","774190846450077698","王","274","","","","","","","","","","","","","","","","","","","false","3","3","ability","1187.913043478261","self","我","","","","","","","","","","","","","","",""
"null","","null","html-keyboard-response","77","173577","0.0-6.0-0.0-6.0-0.9","4","3","4","3","3","4","3","2","4","4","5","4","5","4","4","5","5","3","4","5","1","2","2","3","1","2","1","2","2","1","0","1","1","0","0","0","1","0","1","1","0","1","0","1","5","2","3","1","2","1","3","1","2","2","774190846450077698","王","274","","","","","","","","","","","","","","","","","","","","","","","","","","","","","","","","","","","","","","","",""
"571","<p style=""color:white; font-size: 35px;"">愚钝</p>","i","categorize-html","78","174150","0.0-6.0-0.0-6.0-1.9","4","3","4","3","3","4","3","2","4","4","5","4","5","4","4","5","5","3","4","5","1","2","2","3","1","2","1","2","2","1","0","1","1","0","0","0","1","0","1","1","0","1","0","1","5","2","3","1","2","1","3","1","2","2","774190846450077698","王","274","","","","","","","","","","","","","","","","","","","true","3","3","ability","571","negative","愚钝","","","","","","","","","","","","","","",""
"null","","null","html-keyboard-response","79","174402","0.0-6.0-0.0-6.0-0.10","4","3","4","3","3","4","3","2","4","4","5","4","5","4","4","5","5","3","4","5","1","2","2","3","1","2","1","2","2","1","0","1","1","0","0","0","1","0","1","1","0","1","0","1","5","2","3","1","2","1","3","1","2","2","774190846450077698","王","274","","","","","","","","","","","","","","","","","","","","","","","","","","","","","","","","","","","","","","","",""
"610","<p style=""color:rgb(150, 250, 100); font-size: 35px;"">他的</p>","i","categorize-html","80","175014","0.0-6.0-0.0-6.0-1.10","4","3","4","3","3","4","3","2","4","4","5","4","5","4","4","5","5","3","4","5","1","2","2","3","1","2","1","2","2","1","0","1","1","0","0","0","1","0","1","1","0","1","0","1","5","2","3","1","2","1","3","1","2","2","774190846450077698","王","274","","","","","","","","","","","","","","","","","","","true","3","3","ability","610","other","他的","","","","","","","","","","","","","","",""
"null","","null","html-keyboard-response","81","175266","0.0-6.0-0.0-6.0-0.11","4","3","4","3","3","4","3","2","4","4","5","4","5","4","4","5","5","3","4","5","1","2","2","3","1","2","1","2","2","1","0","1","1","0","0","0","1","0","1","1","0","1","0","1","5","2","3","1","2","1","3","1","2","2","774190846450077698","王","274","","","","","","","","","","","","","","","","","","","","","","","","","","","","","","","","","","","","","","","",""
"579","<p style=""color:white; font-size: 35px;"">高效</p>","e","categorize-html","82","175846","0.0-6.0-0.0-6.0-1.11","4","3","4","3","3","4","3","2","4","4","5","4","5","4","4","5","5","3","4","5","1","2","2","3","1","2","1","2","2","1","0","1","1","0","0","0","1","0","1","1","0","1","0","1","5","2","3","1","2","1","3","1","2","2","774190846450077698","王","274","","","","","","","","","","","","","","","","","","","true","3","3","ability","579","positive","高效","","","","","","","","","","","","","","",""
"null","","null","html-keyboard-response","83","176098","0.0-6.0-0.0-6.0-0.12","4","3","4","3","3","4","3","2","4","4","5","4","5","4","4","5","5","3","4","5","1","2","2","3","1","2","1","2","2","1","0","1","1","0","0","0","1","0","1","1","0","1","0","1","5","2","3","1","2","1","3","1","2","2","774190846450077698","王","274","","","","","","","","","","","","","","","","","","","","","","","","","","","","","","","","","","","","","","","",""
"603","<p style=""color:rgb(150, 250, 100); font-size: 35px;"">本人</p>","e","categorize-html","84","176702","0.0-6.0-0.0-6.0-1.12","4","3","4","3","3","4","3","2","4","4","5","4","5","4","4","5","5","3","4","5","1","2","2","3","1","2","1","2","2","1","0","1","1","0","0","0","1","0","1","1","0","1","0","1","5","2","3","1","2","1","3","1","2","2","774190846450077698","王","274","","","","","","","","","","","","","","","","","","","true","3","3","ability","603","self","本人","","","","","","","","","","","","","","",""
"null","","null","html-keyboard-response","85","176954","0.0-6.0-0.0-6.0-0.13","4","3","4","3","3","4","3","2","4","4","5","4","5","4","4","5","5","3","4","5","1","2","2","3","1","2","1","2","2","1","0","1","1","0","0","0","1","0","1","1","0","1","0","1","5","2","3","1","2","1","3","1","2","2","774190846450077698","王","274","","","","","","","","","","","","","","","","","","","","","","","","","","","","","","","","","","","","","","","",""
"515","<p style=""color:white; font-size: 35px;"">低能</p>","i","categorize-html","86","177470","0.0-6.0-0.0-6.0-1.13","4","3","4","3","3","4","3","2","4","4","5","4","5","4","4","5","5","3","4","5","1","2","2","3","1","2","1","2","2","1","0","1","1","0","0","0","1","0","1","1","0","1","0","1","5","2","3","1","2","1","3","1","2","2","774190846450077698","王","274","","","","","","","","","","","","","","","","","","","true","3","3","ability","515","negative","低能","","","","","","","","","","","","","","",""
"null","","null","html-keyboard-response","87","177729","0.0-6.0-0.0-6.0-0.14","4","3","4","3","3","4","3","2","4","4","5","4","5","4","4","5","5","3","4","5","1","2","2","3","1","2","1","2","2","1","0","1","1","0","0","0","1","0","1","1","0","1","0","1","5","2","3","1","2","1","3","1","2","2","774190846450077698","王","274","","","","","","","","","","","","","","","","","","","","","","","","","","","","","","","","","","","","","","","",""
"651","<p style=""color:rgb(150, 250, 100); font-size: 35px;"">他人的</p>","i","categorize-html","88","178382","0.0-6.0-0.0-6.0-1.14","4","3","4","3","3","4","3","2","4","4","5","4","5","4","4","5","5","3","4","5","1","2","2","3","1","2","1","2","2","1","0","1","1","0","0","0","1","0","1","1","0","1","0","1","5","2","3","1","2","1","3","1","2","2","774190846450077698","王","274","","","","","","","","","","","","","","","","","","","true","3","3","ability","651","other","他人的","","","","","","","","","","","","","","",""
"null","","null","html-keyboard-response","89","178634","0.0-6.0-0.0-6.0-0.15","4","3","4","3","3","4","3","2","4","4","5","4","5","4","4","5","5","3","4","5","1","2","2","3","1","2","1","2","2","1","0","1","1","0","0","0","1","0","1","1","0","1","0","1","5","2","3","1","2","1","3","1","2","2","774190846450077698","王","274","","","","","","","","","","","","","","","","","","","","","","","","","","","","","","","","","","","","","","","",""
"499","<p style=""color:white; font-size: 35px;"">能干</p>","e","categorize-html","90","179134","0.0-6.0-0.0-6.0-1.15","4","3","4","3","3","4","3","2","4","4","5","4","5","4","4","5","5","3","4","5","1","2","2","3","1","2","1","2","2","1","0","1","1","0","0","0","1","0","1","1","0","1","0","1","5","2","3","1","2","1","3","1","2","2","774190846450077698","王","274","","","","","","","","","","","","","","","","","","","true","3","3","ability","499","positive","能干","","","","","","","","","","","","","","",""
"null","","null","html-keyboard-response","91","179386","0.0-6.0-0.0-6.0-0.16","4","3","4","3","3","4","3","2","4","4","5","4","5","4","4","5","5","3","4","5","1","2","2","3","1","2","1","2","2","1","0","1","1","0","0","0","1","0","1","1","0","1","0","1","5","2","3","1","2","1","3","1","2","2","774190846450077698","王","274","","","","","","","","","","","","","","","","","","","","","","","","","","","","","","","","","","","","","","","",""
"979","<p style=""color:rgb(150, 250, 100); font-size: 35px;"">他人</p>","i","categorize-html","92","180366","0.0-6.0-0.0-6.0-1.16","4","3","4","3","3","4","3","2","4","4","5","4","5","4","4","5","5","3","4","5","1","2","2","3","1","2","1","2","2","1","0","1","1","0","0","0","1","0","1","1","0","1","0","1","5","2","3","1","2","1","3","1","2","2","774190846450077698","王","274","","","","","","","","","","","","","","","","","","","true","3","3","ability","979","other","他人","","","","","","","","","","","","","","",""
"null","","null","html-keyboard-response","93","180617","0.0-6.0-0.0-6.0-0.17","4","3","4","3","3","4","3","2","4","4","5","4","5","4","4","5","5","3","4","5","1","2","2","3","1","2","1","2","2","1","0","1","1","0","0","0","1","0","1","1","0","1","0","1","5","2","3","1","2","1","3","1","2","2","774190846450077698","王","274","","","","","","","","","","","","","","","","","","","","","","","","","","","","","","","","","","","","","","","",""
"548","<p style=""color:white; font-size: 35px;"">全能</p>","e","categorize-html","94","181166","0.0-6.0-0.0-6.0-1.17","4","3","4","3","3","4","3","2","4","4","5","4","5","4","4","5","5","3","4","5","1","2","2","3","1","2","1","2","2","1","0","1","1","0","0","0","1","0","1","1","0","1","0","1","5","2","3","1","2","1","3","1","2","2","774190846450077698","王","274","","","","","","","","","","","","","","","","","","","true","3","3","ability","548","positive","全能","","","","","","","","","","","","","","",""
"null","","null","html-keyboard-response","95","181418","0.0-6.0-0.0-6.0-0.18","4","3","4","3","3","4","3","2","4","4","5","4","5","4","4","5","5","3","4","5","1","2","2","3","1","2","1","2","2","1","0","1","1","0","0","0","1","0","1","1","0","1","0","1","5","2","3","1","2","1","3","1","2","2","774190846450077698","王","274","","","","","","","","","","","","","","","","","","","","","","","","","","","","","","","","","","","","","","","",""
"587","<p style=""color:rgb(150, 250, 100); font-size: 35px;"">我的</p>","e","categorize-html","96","182006","0.0-6.0-0.0-6.0-1.18","4","3","4","3","3","4","3","2","4","4","5","4","5","4","4","5","5","3","4","5","1","2","2","3","1","2","1","2","2","1","0","1","1","0","0","0","1","0","1","1","0","1","0","1","5","2","3","1","2","1","3","1","2","2","774190846450077698","王","274","","","","","","","","","","","","","","","","","","","true","3","3","ability","587","self","我的","","","","","","","","","","","","","","",""
"null","","null","html-keyboard-response","97","182258","0.0-6.0-0.0-6.0-0.19","4","3","4","3","3","4","3","2","4","4","5","4","5","4","4","5","5","3","4","5","1","2","2","3","1","2","1","2","2","1","0","1","1","0","0","0","1","0","1","1","0","1","0","1","5","2","3","1","2","1","3","1","2","2","774190846450077698","王","274","","","","","","","","","","","","","","","","","","","","","","","","","","","","","","","","","","","","","","","",""
"523","<p style=""color:white; font-size: 35px;"">蠢笨</p>","i","categorize-html","98","182782","0.0-6.0-0.0-6.0-1.19","4","3","4","3","3","4","3","2","4","4","5","4","5","4","4","5","5","3","4","5","1","2","2","3","1","2","1","2","2","1","0","1","1","0","0","0","1","0","1","1","0","1","0","1","5","2","3","1","2","1","3","1","2","2","774190846450077698","王","274","","","","","","","","","","","","","","","","","","","true","3","3","ability","523","negative","蠢笨","","","","","","","","","","","","","","",""
"null","","null","html-keyboard-response","99","183034","0.0-6.0-0.0-6.0-0.20","4","3","4","3","3","4","3","2","4","4","5","4","5","4","4","5","5","3","4","5","1","2","2","3","1","2","1","2","2","1","0","1","1","0","0","0","1","0","1","1","0","1","0","1","5","2","3","1","2","1","3","1","2","2","774190846450077698","王","274","","","","","","","","","","","","","","","","","","","","","","","","","","","","","","","","","","","","","","","",""
"802","<p style=""color:rgb(150, 250, 100); font-size: 35px;"">自己的</p>","e","categorize-html","100","183838","0.0-6.0-0.0-6.0-1.20","4","3","4","3","3","4","3","2","4","4","5","4","5","4","4","5","5","3","4","5","1","2","2","3","1","2","1","2","2","1","0","1","1","0","0","0","1","0","1","1","0","1","0","1","5","2","3","1","2","1","3","1","2","2","774190846450077698","王","274","","","","","","","","","","","","","","","","","","","true","3","3","ability","802","self","自己的","","","","","","","","","","","","","","",""
"null","","null","html-keyboard-response","101","184090","0.0-6.0-0.0-6.0-0.21","4","3","4","3","3","4","3","2","4","4","5","4","5","4","4","5","5","3","4","5","1","2","2","3","1","2","1","2","2","1","0","1","1","0","0","0","1","0","1","1","0","1","0","1","5","2","3","1","2","1","3","1","2","2","774190846450077698","王","274","","","","","","","","","","","","","","","","","","","","","","","","","","","","","","","","","","","","","","","",""
"515","<p style=""color:white; font-size: 35px;"">天才</p>","e","categorize-html","102","184607","0.0-6.0-0.0-6.0-1.21","4","3","4","3","3","4","3","2","4","4","5","4","5","4","4","5","5","3","4","5","1","2","2","3","1","2","1","2","2","1","0","1","1","0","0","0","1","0","1","1","0","1","0","1","5","2","3","1","2","1","3","1","2","2","774190846450077698","王","274","","","","","","","","","","","","","","","","","","","true","3","3","ability","515","positive","天才","","","","","","","","","","","","","","",""
"null","","null","html-keyboard-response","103","184858","0.0-6.0-0.0-6.0-0.22","4","3","4","3","3","4","3","2","4","4","5","4","5","4","4","5","5","3","4","5","1","2","2","3","1","2","1","2","2","1","0","1","1","0","0","0","1","0","1","1","0","1","0","1","5","2","3","1","2","1","3","1","2","2","774190846450077698","王","274","","","","","","","","","","","","","","","","","","","","","","","","","","","","","","","","","","","","","","","",""
"475","<p style=""color:rgb(150, 250, 100); font-size: 35px;"">别人</p>","i","categorize-html","104","185334","0.0-6.0-0.0-6.0-1.22","4","3","4","3","3","4","3","2","4","4","5","4","5","4","4","5","5","3","4","5","1","2","2","3","1","2","1","2","2","1","0","1","1","0","0","0","1","0","1","1","0","1","0","1","5","2","3","1","2","1","3","1","2","2","774190846450077698","王","274","","","","","","","","","","","","","","","","","","","true","3","3","ability","475","other","别人","","","","","","","","","","","","","","",""
"null","","null","html-keyboard-response","105","185586","0.0-6.0-0.0-6.0-0.23","4","3","4","3","3","4","3","2","4","4","5","4","5","4","4","5","5","3","4","5","1","2","2","3","1","2","1","2","2","1","0","1","1","0","0","0","1","0","1","1","0","1","0","1","5","2","3","1","2","1","3","1","2","2","774190846450077698","王","274","","","","","","","","","","","","","","","","","","","","","","","","","","","","","","","","","","","","","","","",""
"611","<p style=""color:white; font-size: 35px;"">废物</p>","i","categorize-html","106","186198","0.0-6.0-0.0-6.0-1.23","4","3","4","3","3","4","3","2","4","4","5","4","5","4","4","5","5","3","4","5","1","2","2","3","1","2","1","2","2","1","0","1","1","0","0","0","1","0","1","1","0","1","0","1","5","2","3","1","2","1","3","1","2","2","774190846450077698","王","274","","","","","","","","","","","","","","","","","","","true","3","3","ability","611","negative","废物","","","","","","","","","","","","","","",""
"10047","
    <div class=""tag-bottom""><p>
    —— 任务4：对“自我/积极”词和“他人/消极”词分类 ——<p/>
    <span style=""color:#78DCE8""><b>与刚才的任务完全相同，请再次对这四类词语分类</b></span><p/>
    <span style=""color:#FFD866""><b>请根据上方标签的提示，尽可能正确并且快速地做出按键反应</b></span><p/>
    当按键错误时屏幕中会出现<span style=""color:red""> X </span>，需要按另一个键纠正才能继续<br/><p/>
    请把双手食指分别放在键盘的“E”键和“I”键上<p/>
    按<空格键>开始
    </p></div>"," ","html-keyboard-response","107","196245","0.0-6.0-0.0-7.0","4","3","4","3","3","4","3","2","4","4","5","4","5","4","4","5","5","3","4","5","1","2","2","3","1","2","1","2","2","1","0","1","1","0","0","0","1","0","1","1","0","1","0","1","5","2","3","1","2","1","3","1","2","2","774190846450077698","王","274","","","","","","","","","","","","","","","","","","","","","","","","","","","","","","","","","","","","","","","",""
"null","","null","html-keyboard-response","108","196497","0.0-6.0-0.0-8.0-0.0","4","3","4","3","3","4","3","2","4","4","5","4","5","4","4","5","5","3","4","5","1","2","2","3","1","2","1","2","2","1","0","1","1","0","0","0","1","0","1","1","0","1","0","1","5","2","3","1","2","1","3","1","2","2","774190846450077698","王","274","","","","","","","","","","","","","","","","","","","","","","","","","","","","","","","","","","","","","","","",""
"659","<p style=""color:rgb(150, 250, 100); font-size: 35px;"">本人的</p>","e","categorize-html","109","197158","0.0-6.0-0.0-8.0-1.0","4","3","4","3","3","4","3","2","4","4","5","4","5","4","4","5","5","3","4","5","1","2","2","3","1","2","1","2","2","1","0","1","1","0","0","0","1","0","1","1","0","1","0","1","5","2","3","1","2","1","3","1","2","2","774190846450077698","王","274","","","","","","","","","","","","","","","","","","","true","4","4","ability","659","self","本人的","","","","","","","","","","","","","","",""
"null","","null","html-keyboard-response","110","197410","0.0-6.0-0.0-8.0-0.1","4","3","4","3","3","4","3","2","4","4","5","4","5","4","4","5","5","3","4","5","1","2","2","3","1","2","1","2","2","1","0","1","1","0","0","0","1","0","1","1","0","1","0","1","5","2","3","1","2","1","3","1","2","2","774190846450077698","王","274","","","","","","","","","","","","","","","","","","","","","","","","","","","","","","","","","","","","","","","",""
"450","<p style=""color:white; font-size: 35px;"">能干</p>","e","categorize-html","111","197862","0.0-6.0-0.0-8.0-1.1","4","3","4","3","3","4","3","2","4","4","5","4","5","4","4","5","5","3","4","5","1","2","2","3","1","2","1","2","2","1","0","1","1","0","0","0","1","0","1","1","0","1","0","1","5","2","3","1","2","1","3","1","2","2","774190846450077698","王","274","","","","","","","","","","","","","","","","","","","true","4","4","ability","450","positive","能干","","","","","","","","","","","","","","",""
"null","","null","html-keyboard-response","112","198114","0.0-6.0-0.0-8.0-0.2","4","3","4","3","3","4","3","2","4","4","5","4","5","4","4","5","5","3","4","5","1","2","2","3","1","2","1","2","2","1","0","1","1","0","0","0","1","0","1","1","0","1","0","1","5","2","3","1","2","1","3","1","2","2","774190846450077698","王","274","","","","","","","","","","","","","","","","","","","","","","","","","","","","","","","","","","","","","","","",""
"571","<p style=""color:rgb(150, 250, 100); font-size: 35px;"">别人的</p>","i","categorize-html","113","198686","0.0-6.0-0.0-8.0-1.2","4","3","4","3","3","4","3","2","4","4","5","4","5","4","4","5","5","3","4","5","1","2","2","3","1","2","1","2","2","1","0","1","1","0","0","0","1","0","1","1","0","1","0","1","5","2","3","1","2","1","3","1","2","2","774190846450077698","王","274","","","","","","","","","","","","","","","","","","","true","4","4","ability","571","other","别人的","","","","","","","","","","","","","","",""
"null","","null","html-keyboard-response","114","198938","0.0-6.0-0.0-8.0-0.3","4","3","4","3","3","4","3","2","4","4","5","4","5","4","4","5","5","3","4","5","1","2","2","3","1","2","1","2","2","1","0","1","1","0","0","0","1","0","1","1","0","1","0","1","5","2","3","1","2","1","3","1","2","2","774190846450077698","王","274","","","","","","","","","","","","","","","","","","","","","","","","","","","","","","","","","","","","","","","",""
"411","<p style=""color:white; font-size: 35px;"">愚钝</p>","i","categorize-html","115","199350","0.0-6.0-0.0-8.0-1.3","4","3","4","3","3","4","3","2","4","4","5","4","5","4","4","5","5","3","4","5","1","2","2","3","1","2","1","2","2","1","0","1","1","0","0","0","1","0","1","1","0","1","0","1","5","2","3","1","2","1","3","1","2","2","774190846450077698","王","274","","","","","","","","","","","","","","","","","","","true","4","4","ability","411","negative","愚钝","","","","","","","","","","","","","","",""
"null","","null","html-keyboard-response","116","199615","0.0-6.0-0.0-8.0-0.4","4","3","4","3","3","4","3","2","4","4","5","4","5","4","4","5","5","3","4","5","1","2","2","3","1","2","1","2","2","1","0","1","1","0","0","0","1","0","1","1","0","1","0","1","5","2","3","1","2","1","3","1","2","2","774190846450077698","王","274","","","","","","","","","","","","","","","","","","","","","","","","","","","","","","","","","","","","","","","",""
"510","<p style=""color:rgb(150, 250, 100); font-size: 35px;"">他人的</p>","i","categorize-html","117","200126","0.0-6.0-0.0-8.0-1.4","4","3","4","3","3","4","3","2","4","4","5","4","5","4","4","5","5","3","4","5","1","2","2","3","1","2","1","2","2","1","0","1","1","0","0","0","1","0","1","1","0","1","0","1","5","2","3","1","2","1","3","1","2","2","774190846450077698","王","274","","","","","","","","","","","","","","","","","","","true","4","4","ability","510","other","他人的","","","","","","","","","","","","","","",""
"null","","null","html-keyboard-response","118","200378","0.0-6.0-0.0-8.0-0.5","4","3","4","3","3","4","3","2","4","4","5","4","5","4","4","5","5","3","4","5","1","2","2","3","1","2","1","2","2","1","0","1","1","0","0","0","1","0","1","1","0","1","0","1","5","2","3","1","2","1","3","1","2","2","774190846450077698","王","274","","","","","","","","","","","","","","","","","","","","","","","","","","","","","","","","","","","","","","","",""
"467","<p style=""color:white; font-size: 35px;"">无能</p>","i","categorize-html","119","200846","0.0-6.0-0.0-8.0-1.5","4","3","4","3","3","4","3","2","4","4","5","4","5","4","4","5","5","3","4","5","1","2","2","3","1","2","1","2","2","1","0","1","1","0","0","0","1","0","1","1","0","1","0","1","5","2","3","1","2","1","3","1","2","2","774190846450077698","王","274","","","","","","","","","","","","","","","","","","","true","4","4","ability","467","negative","无能","","","","","","","","","","","","","","",""
"null","","null","html-keyboard-response","120","201098","0.0-6.0-0.0-8.0-0.6","4","3","4","3","3","4","3","2","4","4","5","4","5","4","4","5","5","3","4","5","1","2","2","3","1","2","1","2","2","1","0","1","1","0","0","0","1","0","1","1","0","1","0","1","5","2","3","1","2","1","3","1","2","2","774190846450077698","王","274","","","","","","","","","","","","","","","","","","","","","","","","","","","","","","","","","","","","","","","",""
"458","<p style=""color:rgb(150, 250, 100); font-size: 35px;"">自己的</p>","e","categorize-html","121","201558","0.0-6.0-0.0-8.0-1.6","4","3","4","3","3","4","3","2","4","4","5","4","5","4","4","5","5","3","4","5","1","2","2","3","1","2","1","2","2","1","0","1","1","0","0","0","1","0","1","1","0","1","0","1","5","2","3","1","2","1","3","1","2","2","774190846450077698","王","274","","","","","","","","","","","","","","","","","","","true","4","4","ability","458","self","自己的","","","","","","","","","","","","","","",""
"null","","null","html-keyboard-response","122","201810","0.0-6.0-0.0-8.0-0.7","4","3","4","3","3","4","3","2","4","4","5","4","5","4","4","5","5","3","4","5","1","2","2","3","1","2","1","2","2","1","0","1","1","0","0","0","1","0","1","1","0","1","0","1","5","2","3","1","2","1","3","1","2","2","774190846450077698","王","274","","","","","","","","","","","","","","","","","","","","","","","","","","","","","","","","","","","","","","","",""
"579","<p style=""color:white; font-size: 35px;"">天才</p>","e","categorize-html","123","202390","0.0-6.0-0.0-8.0-1.7","4","3","4","3","3","4","3","2","4","4","5","4","5","4","4","5","5","3","4","5","1","2","2","3","1","2","1","2","2","1","0","1","1","0","0","0","1","0","1","1","0","1","0","1","5","2","3","1","2","1","3","1","2","2","774190846450077698","王","274","","","","","","","","","","","","","","","","","","","true","4","4","ability","579","positive","天才","","","","","","","","","","","","","","",""
"null","","null","html-keyboard-response","124","202642","0.0-6.0-0.0-8.0-0.8","4","3","4","3","3","4","3","2","4","4","5","4","5","4","4","5","5","3","4","5","1","2","2","3","1","2","1","2","2","1","0","1","1","0","0","0","1","0","1","1","0","1","0","1","5","2","3","1","2","1","3","1","2","2","774190846450077698","王","274","","","","","","","","","","","","","","","","","","","","","","","","","","","","","","","","","","","","","","","",""
"466","<p style=""color:rgb(150, 250, 100); font-size: 35px;"">本人</p>","e","categorize-html","125","203110","0.0-6.0-0.0-8.0-1.8","4","3","4","3","3","4","3","2","4","4","5","4","5","4","4","5","5","3","4","5","1","2","2","3","1","2","1","2","2","1","0","1","1","0","0","0","1","0","1","1","0","1","0","1","5","2","3","1","2","1","3","1","2","2","774190846450077698","王","274","","","","","","","","","","","","","","","","","","","true","4","4","ability","466","self","本人","","","","","","","","","","","","","","",""
"null","","null","html-keyboard-response","126","203362","0.0-6.0-0.0-8.0-0.9","4","3","4","3","3","4","3","2","4","4","5","4","5","4","4","5","5","3","4","5","1","2","2","3","1","2","1","2","2","1","0","1","1","0","0","0","1","0","1","1","0","1","0","1","5","2","3","1","2","1","3","1","2","2","774190846450077698","王","274","","","","","","","","","","","","","","","","","","","","","","","","","","","","","","","","","","","","","","","",""
"563","<p style=""color:white; font-size: 35px;"">蠢笨</p>","i","categorize-html","127","203926","0.0-6.0-0.0-8.0-1.9","4","3","4","3","3","4","3","2","4","4","5","4","5","4","4","5","5","3","4","5","1","2","2","3","1","2","1","2","2","1","0","1","1","0","0","0","1","0","1","1","0","1","0","1","5","2","3","1","2","1","3","1","2","2","774190846450077698","王","274","","","","","","","","","","","","","","","","","","","true","4","4","ability","563","negative","蠢笨","","","","","","","","","","","","","","",""
"null","","null","html-keyboard-response","128","204178","0.0-6.0-0.0-8.0-0.10","4","3","4","3","3","4","3","2","4","4","5","4","5","4","4","5","5","3","4","5","1","2","2","3","1","2","1","2","2","1","0","1","1","0","0","0","1","0","1","1","0","1","0","1","5","2","3","1","2","1","3","1","2","2","774190846450077698","王","274","","","","","","","","","","","","","","","","","","","","","","","","","","","","","","","","","","","","","","","",""
"635","<p style=""color:rgb(150, 250, 100); font-size: 35px;"">他</p>","i","categorize-html","129","204814","0.0-6.0-0.0-8.0-1.10","4","3","4","3","3","4","3","2","4","4","5","4","5","4","4","5","5","3","4","5","1","2","2","3","1","2","1","2","2","1","0","1","1","0","0","0","1","0","1","1","0","1","0","1","5","2","3","1","2","1","3","1","2","2","774190846450077698","王","274","","","","","","","","","","","","","","","","","","","true","4","4","ability","635","other","他","","","","","","","","","","","","","","",""
"null","","null","html-keyboard-response","130","205065","0.0-6.0-0.0-8.0-0.11","4","3","4","3","3","4","3","2","4","4","5","4","5","4","4","5","5","3","4","5","1","2","2","3","1","2","1","2","2","1","0","1","1","0","0","0","1","0","1","1","0","1","0","1","5","2","3","1","2","1","3","1","2","2","774190846450077698","王","274","","","","","","","","","","","","","","","","","","","","","","","","","","","","","","","","","","","","","","","",""
"547","<p style=""color:white; font-size: 35px;"">全才</p>","e","categorize-html","131","205614","0.0-6.0-0.0-8.0-1.11","4","3","4","3","3","4","3","2","4","4","5","4","5","4","4","5","5","3","4","5","1","2","2","3","1","2","1","2","2","1","0","1","1","0","0","0","1","0","1","1","0","1","0","1","5","2","3","1","2","1","3","1","2","2","774190846450077698","王","274","","","","","","","","","","","","","","","","","","","true","4","4","ability","547","positive","全才","","","","","","","","","","","","","","",""
"null","","null","html-keyboard-response","132","205866","0.0-6.0-0.0-8.0-0.12","4","3","4","3","3","4","3","2","4","4","5","4","5","4","4","5","5","3","4","5","1","2","2","3","1","2","1","2","2","1","0","1","1","0","0","0","1","0","1","1","0","1","0","1","5","2","3","1","2","1","3","1","2","2","774190846450077698","王","274","","","","","","","","","","","","","","","","","","","","","","","","","","","","","","","","","","","","","","","",""
"651","<p style=""color:rgb(150, 250, 100); font-size: 35px;"">他人</p>","i","categorize-html","133","206518","0.0-6.0-0.0-8.0-1.12","4","3","4","3","3","4","3","2","4","4","5","4","5","4","4","5","5","3","4","5","1","2","2","3","1","2","1","2","2","1","0","1","1","0","0","0","1","0","1","1","0","1","0","1","5","2","3","1","2","1","3","1","2","2","774190846450077698","王","274","","","","","","","","","","","","","","","","","","","true","4","4","ability","651","other","他人","","","","","","","","","","","","","","",""
"null","","null","html-keyboard-response","134","206770","0.0-6.0-0.0-8.0-0.13","4","3","4","3","3","4","3","2","4","4","5","4","5","4","4","5","5","3","4","5","1","2","2","3","1","2","1","2","2","1","0","1","1","0","0","0","1","0","1","1","0","1","0","1","5","2","3","1","2","1","3","1","2","2","774190846450077698","王","274","","","","","","","","","","","","","","","","","","","","","","","","","","","","","","","","","","","","","","","",""
"611","<p style=""color:white; font-size: 35px;"">低能</p>","i","categorize-html","135","207382","0.0-6.0-0.0-8.0-1.13","4","3","4","3","3","4","3","2","4","4","5","4","5","4","4","5","5","3","4","5","1","2","2","3","1","2","1","2","2","1","0","1","1","0","0","0","1","0","1","1","0","1","0","1","5","2","3","1","2","1","3","1","2","2","774190846450077698","王","274","","","","","","","","","","","","","","","","","","","true","4","4","ability","611","negative","低能","","","","","","","","","","","","","","",""
"null","","null","html-keyboard-response","136","207634","0.0-6.0-0.0-8.0-0.14","4","3","4","3","3","4","3","2","4","4","5","4","5","4","4","5","5","3","4","5","1","2","2","3","1","2","1","2","2","1","0","1","1","0","0","0","1","0","1","1","0","1","0","1","5","2","3","1","2","1","3","1","2","2","774190846450077698","王","274","","","","","","","","","","","","","","","","","","","","","","","","","","","","","","","","","","","","","","","",""
"451","<p style=""color:rgb(150, 250, 100); font-size: 35px;"">我</p>","e","categorize-html","137","208086","0.0-6.0-0.0-8.0-1.14","4","3","4","3","3","4","3","2","4","4","5","4","5","4","4","5","5","3","4","5","1","2","2","3","1","2","1","2","2","1","0","1","1","0","0","0","1","0","1","1","0","1","0","1","5","2","3","1","2","1","3","1","2","2","774190846450077698","王","274","","","","","","","","","","","","","","","","","","","true","4","4","ability","451","self","我","","","","","","","","","","","","","","",""
"null","","null","html-keyboard-response","138","208341","0.0-6.0-0.0-8.0-0.15","4","3","4","3","3","4","3","2","4","4","5","4","5","4","4","5","5","3","4","5","1","2","2","3","1","2","1","2","2","1","0","1","1","0","0","0","1","0","1","1","0","1","0","1","5","2","3","1","2","1","3","1","2","2","774190846450077698","王","274","","","","","","","","","","","","","","","","","","","","","","","","","","","","","","","","","","","","","","","",""
"504","<p style=""color:white; font-size: 35px;"">天才</p>","e","categorize-html","139","208846","0.0-6.0-0.0-8.0-1.15","4","3","4","3","3","4","3","2","4","4","5","4","5","4","4","5","5","3","4","5","1","2","2","3","1","2","1","2","2","1","0","1","1","0","0","0","1","0","1","1","0","1","0","1","5","2","3","1","2","1","3","1","2","2","774190846450077698","王","274","","","","","","","","","","","","","","","","","","","true","4","4","ability","504","positive","天才","","","","","","","","","","","","","","",""
"null","","null","html-keyboard-response","140","209098","0.0-6.0-0.0-8.0-0.16","4","3","4","3","3","4","3","2","4","4","5","4","5","4","4","5","5","3","4","5","1","2","2","3","1","2","1","2","2","1","0","1","1","0","0","0","1","0","1","1","0","1","0","1","5","2","3","1","2","1","3","1","2","2","774190846450077698","王","274","","","","","","","","","","","","","","","","","","","","","","","","","","","","","","","","","","","","","","","",""
"426","<p style=""color:rgb(150, 250, 100); font-size: 35px;"">他的</p>","i","categorize-html","141","209526","0.0-6.0-0.0-8.0-1.16","4","3","4","3","3","4","3","2","4","4","5","4","5","4","4","5","5","3","4","5","1","2","2","3","1","2","1","2","2","1","0","1","1","0","0","0","1","0","1","1","0","1","0","1","5","2","3","1","2","1","3","1","2","2","774190846450077698","王","274","","","","","","","","","","","","","","","","","","","true","4","4","ability","426","other","他的","","","","","","","","","","","","","","",""
"null","","null","html-keyboard-response","142","209778","0.0-6.0-0.0-8.0-0.17","4","3","4","3","3","4","3","2","4","4","5","4","5","4","4","5","5","3","4","5","1","2","2","3","1","2","1","2","2","1","0","1","1","0","0","0","1","0","1","1","0","1","0","1","5","2","3","1","2","1","3","1","2","2","774190846450077698","王","274","","","","","","","","","","","","","","","","","","","","","","","","","","","","","","","","","","","","","","","",""
"843","<p style=""color:white; font-size: 35px;"">全能</p>","e","categorize-html","143","210622","0.0-6.0-0.0-8.0-1.17","4","3","4","3","3","4","3","2","4","4","5","4","5","4","4","5","5","3","4","5","1","2","2","3","1","2","1","2","2","1","0","1","1","0","0","0","1","0","1","1","0","1","0","1","5","2","3","1","2","1","3","1","2","2","774190846450077698","王","274","","","","","","","","","","","","","","","","","","","true","4","4","ability","843","positive","全能","","","","","","","","","","","","","","",""
"null","","null","html-keyboard-response","144","210874","0.0-6.0-0.0-8.0-0.18","4","3","4","3","3","4","3","2","4","4","5","4","5","4","4","5","5","3","4","5","1","2","2","3","1","2","1","2","2","1","0","1","1","0","0","0","1","0","1","1","0","1","0","1","5","2","3","1","2","1","3","1","2","2","774190846450077698","王","274","","","","","","","","","","","","","","","","","","","","","","","","","","","","","","","","","","","","","","","",""
"995","<p style=""color:rgb(150, 250, 100); font-size: 35px;"">本人的</p>","e","categorize-html","145","211870","0.0-6.0-0.0-8.0-1.18","4","3","4","3","3","4","3","2","4","4","5","4","5","4","4","5","5","3","4","5","1","2","2","3","1","2","1","2","2","1","0","1","1","0","0","0","1","0","1","1","0","1","0","1","5","2","3","1","2","1","3","1","2","2","774190846450077698","王","274","","","","","","","","","","","","","","","","","","","true","4","4","ability","995","self","本人的","","","","","","","","","","","","","","",""
"null","","null","html-keyboard-response","146","212122","0.0-6.0-0.0-8.0-0.19","4","3","4","3","3","4","3","2","4","4","5","4","5","4","4","5","5","3","4","5","1","2","2","3","1","2","1","2","2","1","0","1","1","0","0","0","1","0","1","1","0","1","0","1","5","2","3","1","2","1","3","1","2","2","774190846450077698","王","274","","","","","","","","","","","","","","","","","","","","","","","","","","","","","","","","","","","","","","","",""
"571","<p style=""color:white; font-size: 35px;"">拙笨</p>","i","categorize-html","147","212694","0.0-6.0-0.0-8.0-1.19","4","3","4","3","3","4","3","2","4","4","5","4","5","4","4","5","5","3","4","5","1","2","2","3","1","2","1","2","2","1","0","1","1","0","0","0","1","0","1","1","0","1","0","1","5","2","3","1","2","1","3","1","2","2","774190846450077698","王","274","","","","","","","","","","","","","","","","","","","true","4","4","ability","571","negative","拙笨","","","","","","","","","","","","","","",""
"null","","null","html-keyboard-response","148","212946","0.0-6.0-0.0-8.0-0.20","4","3","4","3","3","4","3","2","4","4","5","4","5","4","4","5","5","3","4","5","1","2","2","3","1","2","1","2","2","1","0","1","1","0","0","0","1","0","1","1","0","1","0","1","5","2","3","1","2","1","3","1","2","2","774190846450077698","王","274","","","","","","","","","","","","","","","","","","","","","","","","","","","","","","","","","","","","","","","",""
"1082","<p style=""color:rgb(150, 250, 100); font-size: 35px;"">他人</p>","i","categorize-html","149","214030","0.0-6.0-0.0-8.0-1.20","4","3","4","3","3","4","3","2","4","4","5","4","5","4","4","5","5","3","4","5","1","2","2","3","1","2","1","2","2","1","0","1","1","0","0","0","1","0","1","1","0","1","0","1","5","2","3","1","2","1","3","1","2","2","774190846450077698","王","274","","","","","","","","","","","","","","","","","","","true","4","4","ability","1082","other","他人","","","","","","","","","","","","","","",""
"null","","null","html-keyboard-response","150","214282","0.0-6.0-0.0-8.0-0.21","4","3","4","3","3","4","3","2","4","4","5","4","5","4","4","5","5","3","4","5","1","2","2","3","1","2","1","2","2","1","0","1","1","0","0","0","1","0","1","1","0","1","0","1","5","2","3","1","2","1","3","1","2","2","774190846450077698","王","274","","","","","","","","","","","","","","","","","","","","","","","","","","","","","","","","","","","","","","","",""
"515","<p style=""color:white; font-size: 35px;"">高效</p>","e","categorize-html","151","214798","0.0-6.0-0.0-8.0-1.21","4","3","4","3","3","4","3","2","4","4","5","4","5","4","4","5","5","3","4","5","1","2","2","3","1","2","1","2","2","1","0","1","1","0","0","0","1","0","1","1","0","1","0","1","5","2","3","1","2","1","3","1","2","2","774190846450077698","王","274","","","","","","","","","","","","","","","","","","","true","4","4","ability","515","positive","高效","","","","","","","","","","","","","","",""
"null","","null","html-keyboard-response","152","215050","0.0-6.0-0.0-8.0-0.22","4","3","4","3","3","4","3","2","4","4","5","4","5","4","4","5","5","3","4","5","1","2","2","3","1","2","1","2","2","1","0","1","1","0","0","0","1","0","1","1","0","1","0","1","5","2","3","1","2","1","3","1","2","2","774190846450077698","王","274","","","","","","","","","","","","","","","","","","","","","","","","","","","","","","","","","","","","","","","",""
"531","<p style=""color:rgb(150, 250, 100); font-size: 35px;"">自己的</p>","e","categorize-html","153","215582","0.0-6.0-0.0-8.0-1.22","4","3","4","3","3","4","3","2","4","4","5","4","5","4","4","5","5","3","4","5","1","2","2","3","1","2","1","2","2","1","0","1","1","0","0","0","1","0","1","1","0","1","0","1","5","2","3","1","2","1","3","1","2","2","774190846450077698","王","274","","","","","","","","","","","","","","","","","","","true","4","4","ability","531","self","自己的","","","","","","","","","","","","","","",""
"null","","null","html-keyboard-response","154","215834","0.0-6.0-0.0-8.0-0.23","4","3","4","3","3","4","3","2","4","4","5","4","5","4","4","5","5","3","4","5","1","2","2","3","1","2","1","2","2","1","0","1","1","0","0","0","1","0","1","1","0","1","0","1","5","2","3","1","2","1","3","1","2","2","774190846450077698","王","274","","","","","","","","","","","","","","","","","","","","","","","","","","","","","","","","","","","","","","","",""
"531","<p style=""color:white; font-size: 35px;"">拙笨</p>","i","categorize-html","155","216366","0.0-6.0-0.0-8.0-1.23","4","3","4","3","3","4","3","2","4","4","5","4","5","4","4","5","5","3","4","5","1","2","2","3","1","2","1","2","2","1","0","1","1","0","0","0","1","0","1","1","0","1","0","1","5","2","3","1","2","1","3","1","2","2","774190846450077698","王","274","","","","","","","","","","","","","","","","","","","true","4","4","ability","531","negative","拙笨","","","","","","","","","","","","","","",""
"null","","null","html-keyboard-response","156","216617","0.0-6.0-0.0-8.0-0.24","4","3","4","3","3","4","3","2","4","4","5","4","5","4","4","5","5","3","4","5","1","2","2","3","1","2","1","2","2","1","0","1","1","0","0","0","1","0","1","1","0","1","0","1","5","2","3","1","2","1","3","1","2","2","774190846450077698","王","274","","","","","","","","","","","","","","","","","","","","","","","","","","","","","","","","","","","","","","","",""
"723","<p style=""color:rgb(150, 250, 100); font-size: 35px;"">他的</p>","i","categorize-html","157","217342","0.0-6.0-0.0-8.0-1.24","4","3","4","3","3","4","3","2","4","4","5","4","5","4","4","5","5","3","4","5","1","2","2","3","1","2","1","2","2","1","0","1","1","0","0","0","1","0","1","1","0","1","0","1","5","2","3","1","2","1","3","1","2","2","774190846450077698","王","274","","","","","","","","","","","","","","","","","","","true","4","4","ability","723","other","他的","","","","","","","","","","","","","","",""
"null","","null","html-keyboard-response","158","217593","0.0-6.0-0.0-8.0-0.25","4","3","4","3","3","4","3","2","4","4","5","4","5","4","4","5","5","3","4","5","1","2","2","3","1","2","1","2","2","1","0","1","1","0","0","0","1","0","1","1","0","1","0","1","5","2","3","1","2","1","3","1","2","2","774190846450077698","王","274","","","","","","","","","","","","","","","","","","","","","","","","","","","","","","","","","","","","","","","",""
"579","<p style=""color:white; font-size: 35px;"">低能</p>","i","categorize-html","159","218174","0.0-6.0-0.0-8.0-1.25","4","3","4","3","3","4","3","2","4","4","5","4","5","4","4","5","5","3","4","5","1","2","2","3","1","2","1","2","2","1","0","1","1","0","0","0","1","0","1","1","0","1","0","1","5","2","3","1","2","1","3","1","2","2","774190846450077698","王","274","","","","","","","","","","","","","","","","","","","true","4","4","ability","579","negative","低能","","","","","","","","","","","","","","",""
"null","","null","html-keyboard-response","160","218426","0.0-6.0-0.0-8.0-0.26","4","3","4","3","3","4","3","2","4","4","5","4","5","4","4","5","5","3","4","5","1","2","2","3","1","2","1","2","2","1","0","1","1","0","0","0","1","0","1","1","0","1","0","1","5","2","3","1","2","1","3","1","2","2","774190846450077698","王","274","","","","","","","","","","","","","","","","","","","","","","","","","","","","","","","","","","","","","","","",""
"435","<p style=""color:rgb(150, 250, 100); font-size: 35px;"">本人</p>","e","categorize-html","161","218862","0.0-6.0-0.0-8.0-1.26","4","3","4","3","3","4","3","2","4","4","5","4","5","4","4","5","5","3","4","5","1","2","2","3","1","2","1","2","2","1","0","1","1","0","0","0","1","0","1","1","0","1","0","1","5","2","3","1","2","1","3","1","2","2","774190846450077698","王","274","","","","","","","","","","","","","","","","","","","true","4","4","ability","435","self","本人","","","","","","","","","","","","","","",""
"null","","null","html-keyboard-response","162","219114","0.0-6.0-0.0-8.0-0.27","4","3","4","3","3","4","3","2","4","4","5","4","5","4","4","5","5","3","4","5","1","2","2","3","1","2","1","2","2","1","0","1","1","0","0","0","1","0","1","1","0","1","0","1","5","2","3","1","2","1","3","1","2","2","774190846450077698","王","274","","","","","","","","","","","","","","","","","","","","","","","","","","","","","","","","","","","","","","","",""
"466","<p style=""color:white; font-size: 35px;"">能干</p>","e","categorize-html","163","219582","0.0-6.0-0.0-8.0-1.27","4","3","4","3","3","4","3","2","4","4","5","4","5","4","4","5","5","3","4","5","1","2","2","3","1","2","1","2","2","1","0","1","1","0","0","0","1","0","1","1","0","1","0","1","5","2","3","1","2","1","3","1","2","2","774190846450077698","王","274","","","","","","","","","","","","","","","","","","","true","4","4","ability","466","positive","能干","","","","","","","","","","","","","","",""
"null","","null","html-keyboard-response","164","219834","0.0-6.0-0.0-8.0-0.28","4","3","4","3","3","4","3","2","4","4","5","4","5","4","4","5","5","3","4","5","1","2","2","3","1","2","1","2","2","1","0","1","1","0","0","0","1","0","1","1","0","1","0","1","5","2","3","1","2","1","3","1","2","2","774190846450077698","王","274","","","","","","","","","","","","","","","","","","","","","","","","","","","","","","","","","","","","","","","",""
"515","<p style=""color:rgb(150, 250, 100); font-size: 35px;"">别人的</p>","i","categorize-html","165","220350","0.0-6.0-0.0-8.0-1.28","4","3","4","3","3","4","3","2","4","4","5","4","5","4","4","5","5","3","4","5","1","2","2","3","1","2","1","2","2","1","0","1","1","0","0","0","1","0","1","1","0","1","0","1","5","2","3","1","2","1","3","1","2","2","774190846450077698","王","274","","","","","","","","","","","","","","","","","","","true","4","4","ability","515","other","别人的","","","","","","","","","","","","","","",""
"null","","null","html-keyboard-response","166","220601","0.0-6.0-0.0-8.0-0.29","4","3","4","3","3","4","3","2","4","4","5","4","5","4","4","5","5","3","4","5","1","2","2","3","1","2","1","2","2","1","0","1","1","0","0","0","1","0","1","1","0","1","0","1","5","2","3","1","2","1","3","1","2","2","774190846450077698","王","274","","","","","","","","","","","","","","","","","","","","","","","","","","","","","","","","","","","","","","","",""
"787","<p style=""color:white; font-size: 35px;"">高效</p>","e","categorize-html","167","221390","0.0-6.0-0.0-8.0-1.29","4","3","4","3","3","4","3","2","4","4","5","4","5","4","4","5","5","3","4","5","1","2","2","3","1","2","1","2","2","1","0","1","1","0","0","0","1","0","1","1","0","1","0","1","5","2","3","1","2","1","3","1","2","2","774190846450077698","王","274","","","","","","","","","","","","","","","","","","","true","4","4","ability","787","positive","高效","","","","","","","","","","","","","","",""
"null","","null","html-keyboard-response","168","221642","0.0-6.0-0.0-8.0-0.30","4","3","4","3","3","4","3","2","4","4","5","4","5","4","4","5","5","3","4","5","1","2","2","3","1","2","1","2","2","1","0","1","1","0","0","0","1","0","1","1","0","1","0","1","5","2","3","1","2","1","3","1","2","2","774190846450077698","王","274","","","","","","","","","","","","","","","","","","","","","","","","","","","","","","","","","","","","","","","",""
"675","<p style=""color:rgb(150, 250, 100); font-size: 35px;"">我的</p>","e","categorize-html","169","222318","0.0-6.0-0.0-8.0-1.30","4","3","4","3","3","4","3","2","4","4","5","4","5","4","4","5","5","3","4","5","1","2","2","3","1","2","1","2","2","1","0","1","1","0","0","0","1","0","1","1","0","1","0","1","5","2","3","1","2","1","3","1","2","2","774190846450077698","王","274","","","","","","","","","","","","","","","","","","","true","4","4","ability","675","self","我的","","","","","","","","","","","","","","",""
"null","","null","html-keyboard-response","170","222570","0.0-6.0-0.0-8.0-0.31","4","3","4","3","3","4","3","2","4","4","5","4","5","4","4","5","5","3","4","5","1","2","2","3","1","2","1","2","2","1","0","1","1","0","0","0","1","0","1","1","0","1","0","1","5","2","3","1","2","1","3","1","2","2","774190846450077698","王","274","","","","","","","","","","","","","","","","","","","","","","","","","","","","","","","","","","","","","","","",""
"883","<p style=""color:white; font-size: 35px;"">蠢笨</p>","i","categorize-html","171","223454","0.0-6.0-0.0-8.0-1.31","4","3","4","3","3","4","3","2","4","4","5","4","5","4","4","5","5","3","4","5","1","2","2","3","1","2","1","2","2","1","0","1","1","0","0","0","1","0","1","1","0","1","0","1","5","2","3","1","2","1","3","1","2","2","774190846450077698","王","274","","","","","","","","","","","","","","","","","","","true","4","4","ability","883","negative","蠢笨","","","","","","","","","","","","","","",""
"null","","null","html-keyboard-response","172","223706","0.0-6.0-0.0-8.0-0.32","4","3","4","3","3","4","3","2","4","4","5","4","5","4","4","5","5","3","4","5","1","2","2","3","1","2","1","2","2","1","0","1","1","0","0","0","1","0","1","1","0","1","0","1","5","2","3","1","2","1","3","1","2","2","774190846450077698","王","274","","","","","","","","","","","","","","","","","","","","","","","","","","","","","","","","","","","","","","","",""
"611","<p style=""color:rgb(150, 250, 100); font-size: 35px;"">他人的</p>","i","categorize-html","173","224318","0.0-6.0-0.0-8.0-1.32","4","3","4","3","3","4","3","2","4","4","5","4","5","4","4","5","5","3","4","5","1","2","2","3","1","2","1","2","2","1","0","1","1","0","0","0","1","0","1","1","0","1","0","1","5","2","3","1","2","1","3","1","2","2","774190846450077698","王","274","","","","","","","","","","","","","","","","","","","true","4","4","ability","611","other","他人的","","","","","","","","","","","","","","",""
"null","","null","html-keyboard-response","174","224570","0.0-6.0-0.0-8.0-0.33","4","3","4","3","3","4","3","2","4","4","5","4","5","4","4","5","5","3","4","5","1","2","2","3","1","2","1","2","2","1","0","1","1","0","0","0","1","0","1","1","0","1","0","1","5","2","3","1","2","1","3","1","2","2","774190846450077698","王","274","","","","","","","","","","","","","","","","","","","","","","","","","","","","","","","","","","","","","","","",""
"483","<p style=""color:white; font-size: 35px;"">愚钝</p>","i","categorize-html","175","225054","0.0-6.0-0.0-8.0-1.33","4","3","4","3","3","4","3","2","4","4","5","4","5","4","4","5","5","3","4","5","1","2","2","3","1","2","1","2","2","1","0","1","1","0","0","0","1","0","1","1","0","1","0","1","5","2","3","1","2","1","3","1","2","2","774190846450077698","王","274","","","","","","","","","","","","","","","","","","","true","4","4","ability","483","negative","愚钝","","","","","","","","","","","","","","",""
"null","","null","html-keyboard-response","176","225306","0.0-6.0-0.0-8.0-0.34","4","3","4","3","3","4","3","2","4","4","5","4","5","4","4","5","5","3","4","5","1","2","2","3","1","2","1","2","2","1","0","1","1","0","0","0","1","0","1","1","0","1","0","1","5","2","3","1","2","1","3","1","2","2","774190846450077698","王","274","","","","","","","","","","","","","","","","","","","","","","","","","","","","","","","","","","","","","","","",""
"539","<p style=""color:rgb(150, 250, 100); font-size: 35px;"">我</p>","e","categorize-html","177","225846","0.0-6.0-0.0-8.0-1.34","4","3","4","3","3","4","3","2","4","4","5","4","5","4","4","5","5","3","4","5","1","2","2","3","1","2","1","2","2","1","0","1","1","0","0","0","1","0","1","1","0","1","0","1","5","2","3","1","2","1","3","1","2","2","774190846450077698","王","274","","","","","","","","","","","","","","","","","","","true","4","4","ability","539","self","我","","","","","","","","","","","","","","",""
"null","","null","html-keyboard-response","178","226098","0.0-6.0-0.0-8.0-0.35","4","3","4","3","3","4","3","2","4","4","5","4","5","4","4","5","5","3","4","5","1","2","2","3","1","2","1","2","2","1","0","1","1","0","0","0","1","0","1","1","0","1","0","1","5","2","3","1","2","1","3","1","2","2","774190846450077698","王","274","","","","","","","","","","","","","","","","","","","","","","","","","","","","","","","","","","","","","","","",""
"595","<p style=""color:white; font-size: 35px;"">精干</p>","e","categorize-html","179","226694","0.0-6.0-0.0-8.0-1.35","4","3","4","3","3","4","3","2","4","4","5","4","5","4","4","5","5","3","4","5","1","2","2","3","1","2","1","2","2","1","0","1","1","0","0","0","1","0","1","1","0","1","0","1","5","2","3","1","2","1","3","1","2","2","774190846450077698","王","274","","","","","","","","","","","","","","","","","","","true","4","4","ability","595","positive","精干","","","","","","","","","","","","","","",""
"null","","null","html-keyboard-response","180","226946","0.0-6.0-0.0-8.0-0.36","4","3","4","3","3","4","3","2","4","4","5","4","5","4","4","5","5","3","4","5","1","2","2","3","1","2","1","2","2","1","0","1","1","0","0","0","1","0","1","1","0","1","0","1","5","2","3","1","2","1","3","1","2","2","774190846450077698","王","274","","","","","","","","","","","","","","","","","","","","","","","","","","","","","","","","","","","","","","","",""
"571","<p style=""color:rgb(150, 250, 100); font-size: 35px;"">别人</p>","i","categorize-html","181","227518","0.0-6.0-0.0-8.0-1.36","4","3","4","3","3","4","3","2","4","4","5","4","5","4","4","5","5","3","4","5","1","2","2","3","1","2","1","2","2","1","0","1","1","0","0","0","1","0","1","1","0","1","0","1","5","2","3","1","2","1","3","1","2","2","774190846450077698","王","274","","","","","","","","","","","","","","","","","","","true","4","4","ability","571","other","别人","","","","","","","","","","","","","","",""
"null","","null","html-keyboard-response","182","227770","0.0-6.0-0.0-8.0-0.37","4","3","4","3","3","4","3","2","4","4","5","4","5","4","4","5","5","3","4","5","1","2","2","3","1","2","1","2","2","1","0","1","1","0","0","0","1","0","1","1","0","1","0","1","5","2","3","1","2","1","3","1","2","2","774190846450077698","王","274","","","","","","","","","","","","","","","","","","","","","","","","","","","","","","","","","","","","","","","",""
"643","<p style=""color:white; font-size: 35px;"">废物</p>","i","categorize-html","183","228414","0.0-6.0-0.0-8.0-1.37","4","3","4","3","3","4","3","2","4","4","5","4","5","4","4","5","5","3","4","5","1","2","2","3","1","2","1","2","2","1","0","1","1","0","0","0","1","0","1","1","0","1","0","1","5","2","3","1","2","1","3","1","2","2","774190846450077698","王","274","","","","","","","","","","","","","","","","","","","true","4","4","ability","643","negative","废物","","","","","","","","","","","","","","",""
"null","","null","html-keyboard-response","184","228666","0.0-6.0-0.0-8.0-0.38","4","3","4","3","3","4","3","2","4","4","5","4","5","4","4","5","5","3","4","5","1","2","2","3","1","2","1","2","2","1","0","1","1","0","0","0","1","0","1","1","0","1","0","1","5","2","3","1","2","1","3","1","2","2","774190846450077698","王","274","","","","","","","","","","","","","","","","","","","","","","","","","","","","","","","","","","","","","","","",""
"547","<p style=""color:rgb(150, 250, 100); font-size: 35px;"">自己</p>","e","categorize-html","185","229214","0.0-6.0-0.0-8.0-1.38","4","3","4","3","3","4","3","2","4","4","5","4","5","4","4","5","5","3","4","5","1","2","2","3","1","2","1","2","2","1","0","1","1","0","0","0","1","0","1","1","0","1","0","1","5","2","3","1","2","1","3","1","2","2","774190846450077698","王","274","","","","","","","","","","","","","","","","","","","true","4","4","ability","547","self","自己","","","","","","","","","","","","","","",""
"null","","null","html-keyboard-response","186","229465","0.0-6.0-0.0-8.0-0.39","4","3","4","3","3","4","3","2","4","4","5","4","5","4","4","5","5","3","4","5","1","2","2","3","1","2","1","2","2","1","0","1","1","0","0","0","1","0","1","1","0","1","0","1","5","2","3","1","2","1","3","1","2","2","774190846450077698","王","274","","","","","","","","","","","","","","","","","","","","","","","","","","","","","","","","","","","","","","","",""
"563","<p style=""color:white; font-size: 35px;"">全才</p>","e","categorize-html","187","230030","0.0-6.0-0.0-8.0-1.39","4","3","4","3","3","4","3","2","4","4","5","4","5","4","4","5","5","3","4","5","1","2","2","3","1","2","1","2","2","1","0","1","1","0","0","0","1","0","1","1","0","1","0","1","5","2","3","1","2","1","3","1","2","2","774190846450077698","王","274","","","","","","","","","","","","","","","","","","","true","4","4","ability","563","positive","全才","","","","","","","","","","","","","","",""
"null","","null","html-keyboard-response","188","230281","0.0-6.0-0.0-8.0-0.40","4","3","4","3","3","4","3","2","4","4","5","4","5","4","4","5","5","3","4","5","1","2","2","3","1","2","1","2","2","1","0","1","1","0","0","0","1","0","1","1","0","1","0","1","5","2","3","1","2","1","3","1","2","2","774190846450077698","王","274","","","","","","","","","","","","","","","","","","","","","","","","","","","","","","","","","","","","","","","",""
"524","<p style=""color:rgb(150, 250, 100); font-size: 35px;"">我的</p>","e","categorize-html","189","230806","0.0-6.0-0.0-8.0-1.40","4","3","4","3","3","4","3","2","4","4","5","4","5","4","4","5","5","3","4","5","1","2","2","3","1","2","1","2","2","1","0","1","1","0","0","0","1","0","1","1","0","1","0","1","5","2","3","1","2","1","3","1","2","2","774190846450077698","王","274","","","","","","","","","","","","","","","","","","","true","4","4","ability","524","self","我的","","","","","","","","","","","","","","",""
"null","","null","html-keyboard-response","190","231058","0.0-6.0-0.0-8.0-0.41","4","3","4","3","3","4","3","2","4","4","5","4","5","4","4","5","5","3","4","5","1","2","2","3","1","2","1","2","2","1","0","1","1","0","0","0","1","0","1","1","0","1","0","1","5","2","3","1","2","1","3","1","2","2","774190846450077698","王","274","","","","","","","","","","","","","","","","","","","","","","","","","","","","","","","","","","","","","","","",""
"507","<p style=""color:white; font-size: 35px;"">无能</p>","i","categorize-html","191","231566","0.0-6.0-0.0-8.0-1.41","4","3","4","3","3","4","3","2","4","4","5","4","5","4","4","5","5","3","4","5","1","2","2","3","1","2","1","2","2","1","0","1","1","0","0","0","1","0","1","1","0","1","0","1","5","2","3","1","2","1","3","1","2","2","774190846450077698","王","274","","","","","","","","","","","","","","","","","","","true","4","4","ability","507","negative","无能","","","","","","","","","","","","","","",""
"null","","null","html-keyboard-response","192","231817","0.0-6.0-0.0-8.0-0.42","4","3","4","3","3","4","3","2","4","4","5","4","5","4","4","5","5","3","4","5","1","2","2","3","1","2","1","2","2","1","0","1","1","0","0","0","1","0","1","1","0","1","0","1","5","2","3","1","2","1","3","1","2","2","774190846450077698","王","274","","","","","","","","","","","","","","","","","","","","","","","","","","","","","","","","","","","","","","","",""
"587","<p style=""color:rgb(150, 250, 100); font-size: 35px;"">他</p>","e","categorize-html","193","232901","0.0-6.0-0.0-8.0-1.42","4","3","4","3","3","4","3","2","4","4","5","4","5","4","4","5","5","3","4","5","1","2","2","3","1","2","1","2","2","1","0","1","1","0","0","0","1","0","1","1","0","1","0","1","5","2","3","1","2","1","3","1","2","2","774190846450077698","王","274","","","","","","","","","","","","","","","","","","","false","4","4","ability","1181.2978723404256","other","他","","","","","","","","","","","","","","",""
"null","","null","html-keyboard-response","194","233153","0.0-6.0-0.0-8.0-0.43","4","3","4","3","3","4","3","2","4","4","5","4","5","4","4","5","5","3","4","5","1","2","2","3","1","2","1","2","2","1","0","1","1","0","0","0","1","0","1","1","0","1","0","1","5","2","3","1","2","1","3","1","2","2","774190846450077698","王","274","","","","","","","","","","","","","","","","","","","","","","","","","","","","","","","","","","","","","","","",""
"516","<p style=""color:white; font-size: 35px;"">全能</p>","e","categorize-html","195","233670","0.0-6.0-0.0-8.0-1.43","4","3","4","3","3","4","3","2","4","4","5","4","5","4","4","5","5","3","4","5","1","2","2","3","1","2","1","2","2","1","0","1","1","0","0","0","1","0","1","1","0","1","0","1","5","2","3","1","2","1","3","1","2","2","774190846450077698","王","274","","","","","","","","","","","","","","","","","","","true","4","4","ability","516","positive","全能","","","","","","","","","","","","","","",""
"null","","null","html-keyboard-response","196","233922","0.0-6.0-0.0-8.0-0.44","4","3","4","3","3","4","3","2","4","4","5","4","5","4","4","5","5","3","4","5","1","2","2","3","1","2","1","2","2","1","0","1","1","0","0","0","1","0","1","1","0","1","0","1","5","2","3","1","2","1","3","1","2","2","774190846450077698","王","274","","","","","","","","","","","","","","","","","","","","","","","","","","","","","","","","","","","","","","","",""
"779","<p style=""color:rgb(150, 250, 100); font-size: 35px;"">自己</p>","e","categorize-html","197","234702","0.0-6.0-0.0-8.0-1.44","4","3","4","3","3","4","3","2","4","4","5","4","5","4","4","5","5","3","4","5","1","2","2","3","1","2","1","2","2","1","0","1","1","0","0","0","1","0","1","1","0","1","0","1","5","2","3","1","2","1","3","1","2","2","774190846450077698","王","274","","","","","","","","","","","","","","","","","","","true","4","4","ability","779","self","自己","","","","","","","","","","","","","","",""
