"rt","stimulus","response","trial_type","trial_index","time_elapsed","internal_node_id","ses_1","ses_2","ses_3","ses_4","ses_5","ses_6","ses_7","ses_8","ses_9","ses_10","coreself_1","coreself_2","coreself_3","coreself_4","coreself_5","coreself_6","coreself_7","coreself_8","coreself_9","coreself_10","SGPS_1","SGPS_2","SGPS_3","SGPS_4","SGPS_5","SGPS_6","SGPS_7","SGPS_8","SGPS_9","NPI1","NPI2","NPI3","NPI4","NPI5","NPI6","NPI7","NPI8","NPI9","NPI10","NPI11","NPI12","NPI13","NPI14","NPI15","hsns_1","hsns_2","hsns_3","hsns_4","hsns_5","hsns_6","hsns_7","hsns_8","hsns_9","hsns_10","subj_idx","friend_name","ParticipantID","value","success","user_agent","responses","item_order","radio_event_ids","radio_event_times","key_event_times","mouse_event_times","straightlining","zigzagging","honeypot","timeout","failed_images","failed_audio","failed_video","version_attrib2","version_target2","correct","IAT","screen_id","task_id","RT","condition","word","varname","summary","version_attrib","version_target","time_stamp","view_history","response_type","key_press","avg_frame_time","center_x","center_y","correct_response","identity","Image","question_order"
"8919","
   <p><div style = ""color: white;font-size:25px;"">您好，欢迎参加本次实验。</div> </p>
   <p><div style = ""color: white;font-size:25px;"">为充分保障您的权利，请确保您已经知晓并同意《参与实验同意书》以及《数据公开知情同意书》。</div></p>
   <p><div style = ""color: white;font-size:25px;"">如果您未见过上述内容，请咨询实验员。</div></p>
   <p><div style = ""color: white;font-size:25px;"">如果您选择继续实验，则表示您已经清楚两份知情同意书的内容并同意。</div></p>
   <p><div style = ""color: red;font-size:30px;"">请确保您记得day0的实验编号，您将在本次实验输入该编号，若您忘记，请咨询实验员后作答。</div></p>
   <p> <div style = ""color: green;font-size:25px;""><按空格键至下页></div> </p>
   "," ","html-keyboard-response","0","8924","0.0-0.0","4","3","4","3","3","4","3","2","4","4","4","4","4","5","5","4","4","4","1","4","4","5","4","4","3","4","4","5","4","1","0","1","1","0","0","0","1","1","1","1","0","0","0","1","5","4","5","2","4","2","4","5","4","4","598900137913221120","张","479","","","","","","","","","","","","","","","","","","","","","","","","","","","","","","","","","","","","","","","",""
"","","","call-function","1","8927","0.0-1.0-0.0","4","3","4","3","3","4","3","2","4","4","4","4","4","5","5","4","4","4","1","4","4","5","4","4","3","4","4","5","4","1","0","1","1","0","0","0","1","1","1","1","0","0","0","1","5","4","5","2","4","2","4","5","4","4","598900137913221120","张","479","","","","","","","","","","","","","","","","","","","","","","","","","","","","","","","","","","","","","","","",""
"29273","","{""friend_name"":""张"",""ParticipantID"":""479""}","survey-html-form","2","38203","0.0-1.0-1.0","4","3","4","3","3","4","3","2","4","4","4","4","4","5","5","4","4","4","1","4","4","5","4","4","3","4","4","5","4","1","0","1","1","0","0","0","1","1","1","1","0","0","0","1","5","4","5","2","4","2","4","5","4","4","598900137913221120","张","479","","","","","","","","","","","","","","","","","","","","","","","","","","","","","","","","","","","","","","","",""
"","","","fullscreen","3","39864","0.0-2.0","4","3","4","3","3","4","3","2","4","4","4","4","4","5","5","4","4","4","1","4","4","5","4","4","3","4","4","5","4","1","0","1","1","0","0","0","1","1","1","1","0","0","0","1","5","4","5","2","4","2","4","5","4","4","598900137913221120","张","479","","true","{}","","","","","","","","","","","","","","","","","","","","","","","","","","","","","","","","","","","","",""
"20983","","{""Q01"":""4"",""Q02"":""3"",""Q03"":""4"",""Q04"":""3"",""Q05"":""3"",""Q06"":""4"",""Q07"":""3"",""Q08"":""2"",""Q09"":""4"",""Q10"":""4""}","survey-template","4","60855","0.0-3.0","4","3","4","3","3","4","3","2","4","4","4","4","4","5","5","4","4","4","1","4","4","5","4","4","3","4","4","5","4","1","0","1","1","0","0","0","1","1","1","1","0","0","0","1","5","4","5","2","4","2","4","5","4","4","598900137913221120","张","479","","","","{""Q01"":""4"",""Q02"":""3"",""Q03"":""4"",""Q04"":""3"",""Q05"":""3"",""Q06"":""4"",""Q07"":""3"",""Q08"":""2"",""Q09"":""4"",""Q10"":""4""}","[0,1,2,3,4,5,6,7,8,9]","[""Q01"",""Q02"",""Q03"",""Q03"",""Q04"",""Q05"",""Q06"",""Q06"",""Q07"",""Q08"",""Q09"",""Q10""]","[5659.899999856949,6308.099999904633,7843.5,7867.799999952316,8851.399999856949,10419.899999856949,12355.799999952316,15350.399999856949,17083.700000047684,17789.5,19291.799999952316,20035.700000047684]","[]","[4988.299999952316,5659.899999856949,6308.099999904633,7483.799999952316,7843.5,7867.799999952316,8596.299999952316,8851.399999856949,10419.899999856949,12131.899999856949,12355.799999952316,13500.099999904633,13723.399999856949,15350.399999856949,16091.899999856949,17083.700000047684,17789.5,19291.799999952316,20035.700000047684,20980.700000047684]","0.4","0.3333333333333333","0","","","","","","","","","","","","","","","","","","","","","","","","","","","",""
"22383.5","","{""Q01"":""4"",""Q02"":""4"",""Q03"":""4"",""Q04"":""5"",""Q05"":""5"",""Q06"":""4"",""Q07"":""4"",""Q08"":""4"",""Q09"":""1"",""Q10"":""4""}","survey-template","5","83246","0.0-4.0","4","3","4","3","3","4","3","2","4","4","4","4","4","5","5","4","4","4","1","4","4","5","4","4","3","4","4","5","4","1","0","1","1","0","0","0","1","1","1","1","0","0","0","1","5","4","5","2","4","2","4","5","4","4","598900137913221120","张","479","","","","{""Q01"":""4"",""Q02"":""4"",""Q03"":""4"",""Q04"":""5"",""Q05"":""5"",""Q06"":""4"",""Q07"":""4"",""Q08"":""4"",""Q09"":""1"",""Q10"":""4""}","[0,1,2,3,4,5,6,7,8,9]","[""Q01"",""Q02"",""Q03"",""Q04"",""Q05"",""Q06"",""Q06"",""Q07"",""Q08"",""Q09"",""Q10""]","[4043.4000000953674,5899.700000047684,8619.400000095367,9483.900000095367,10963.400000095367,12539.200000047684,12555.099999904633,13259.799999952316,14659.299999952316,16659.599999904633,18003.200000047684]","[]","[4043.4000000953674,5365.099999904633,5899.700000047684,8043.5,8619.400000095367,9483.900000095367,10963.400000095367,11835.700000047684,12539.200000047684,12555.099999904633,13259.799999952316,14659.299999952316,16659.599999904633,18003.200000047684,22381.799999952316]","0.5","0.3333333333333333","0","","","","","","","","","","","","","","","","","","","","","","","","","","","",""
"","","","preload","6","85386","0.0-5.0","4","3","4","3","3","4","3","2","4","4","4","4","4","5","5","4","4","4","1","4","4","5","4","4","3","4","4","5","4","1","0","1","1","0","0","0","1","1","1","1","0","0","0","1","5","4","5","2","4","2","4","5","4","4","598900137913221120","张","479","","true","","","","","","","","","","","false","[]","[]","[]","","","","","","","","","","","","","","","","","","","","","","","",""
"34132","
    <h3>词语分类任务</h3>
    <p>在接下来的任务中，你需要对一系列词语进行分类。<p/>
    请先熟悉这些词语，这有利于你完成接下来的任务。</p>
    <table align=""center"" border=1 cellpadding=3 cellspacing=0>
    <tr> <th>类别</th> <th>词语</th> </tr>
    <tr> <td>&emsp;积极&emsp;</td> <td>&emsp;高尚、诚信、善良、君子、廉正、正直&emsp;</td> </tr>
    <tr> <td>&emsp;消极&emsp;</td> <td>&emsp;缺德、卑鄙、不孝、不仁、小人、黑心&emsp;</td> </tr>
    <tr> <td>&emsp;自我&emsp;</td> <td>&emsp;我、我的、自己、自己的、本人、本人的&emsp;</td> </tr>
    <tr> <td>&emsp;他人&emsp;</td> <td>&emsp;他、他的、别人、别人的、他人、他人的&emsp;</td> </tr>
    </table><br/>","0","html-button-response","7","119523","0.0-6.0-1.0-0.0","4","3","4","3","3","4","3","2","4","4","4","4","4","5","5","4","4","4","1","4","4","5","4","4","3","4","4","5","4","1","0","1","1","0","0","0","1","1","1","1","0","0","0","1","5","4","5","2","4","2","4","5","4","4","598900137913221120","张","479","","","","","","","","","","","","","","","","","2","1","","","","","","","","","","","","","","","","","","","","","",""
"4782","
    <div class=""tag-bottom""><p>
    —— 任务1：对“自我”词和“他人”词分类 ——<p/>
    不同词语会出现在屏幕中央，类别标签将始终显示在屏幕上方<p/>   
    <span style=""color:#FFD866""><b>请根据上方标签的提示，尽可能正确并且快速地做出按键反应</b></span><p/>
    当按键错误时屏幕中会出现<span style=""color:red""> X </span>，需要按另一个键纠正才能继续<br/><p/>
    请把双手食指分别放在键盘的“E”键和“I”键上<p/>
    按<空格键>开始
    </p></div>"," ","html-keyboard-response","8","124309","0.0-6.0-1.0-1.0","4","3","4","3","3","4","3","2","4","4","4","4","4","5","5","4","4","4","1","4","4","5","4","4","3","4","4","5","4","1","0","1","1","0","0","0","1","1","1","1","0","0","0","1","5","4","5","2","4","2","4","5","4","4","598900137913221120","张","479","","","","","","","","","","","","","","","","","","","","","","","","","","","","","","","","","","","","","","","",""
"null","","null","html-keyboard-response","9","124562","0.0-6.0-1.0-2.0-0.0","4","3","4","3","3","4","3","2","4","4","4","4","4","5","5","4","4","4","1","4","4","5","4","4","3","4","4","5","4","1","0","1","1","0","0","0","1","1","1","1","0","0","0","1","5","4","5","2","4","2","4","5","4","4","598900137913221120","张","479","","","","","","","","","","","","","","","","","","","","","","","","","","","","","","","","","","","","","","","",""
"1172","<p style=""color:rgb(150, 250, 100); font-size: 35px;"">他的</p>","i","categorize-html","10","125737","0.0-6.0-1.0-2.0-1.0","4","3","4","3","3","4","3","2","4","4","4","4","4","5","5","4","4","4","1","4","4","5","4","4","3","4","4","5","4","1","0","1","1","0","0","0","1","1","1","1","0","0","0","1","5","4","5","2","4","2","4","5","4","4","598900137913221120","张","479","","","","","","","","","","","","","","","","","","","true","11","1","moral","1172","other","他的","","","","","","","","","","","","","","",""
"null","","null","html-keyboard-response","11","125989","0.0-6.0-1.0-2.0-0.1","4","3","4","3","3","4","3","2","4","4","4","4","4","5","5","4","4","4","1","4","4","5","4","4","3","4","4","5","4","1","0","1","1","0","0","0","1","1","1","1","0","0","0","1","5","4","5","2","4","2","4","5","4","4","598900137913221120","张","479","","","","","","","","","","","","","","","","","","","","","","","","","","","","","","","","","","","","","","","",""
"760","<p style=""color:rgb(150, 250, 100); font-size: 35px;"">自己的</p>","e","categorize-html","12","126751","0.0-6.0-1.0-2.0-1.1","4","3","4","3","3","4","3","2","4","4","4","4","4","5","5","4","4","4","1","4","4","5","4","4","3","4","4","5","4","1","0","1","1","0","0","0","1","1","1","1","0","0","0","1","5","4","5","2","4","2","4","5","4","4","598900137913221120","张","479","","","","","","","","","","","","","","","","","","","true","11","1","moral","760","self","自己的","","","","","","","","","","","","","","",""
"null","","null","html-keyboard-response","13","127002","0.0-6.0-1.0-2.0-0.2","4","3","4","3","3","4","3","2","4","4","4","4","4","5","5","4","4","4","1","4","4","5","4","4","3","4","4","5","4","1","0","1","1","0","0","0","1","1","1","1","0","0","0","1","5","4","5","2","4","2","4","5","4","4","598900137913221120","张","479","","","","","","","","","","","","","","","","","","","","","","","","","","","","","","","","","","","","","","","",""
"1078","<p style=""color:rgb(150, 250, 100); font-size: 35px;"">他人的</p>","i","categorize-html","14","128082","0.0-6.0-1.0-2.0-1.2","4","3","4","3","3","4","3","2","4","4","4","4","4","5","5","4","4","4","1","4","4","5","4","4","3","4","4","5","4","1","0","1","1","0","0","0","1","1","1","1","0","0","0","1","5","4","5","2","4","2","4","5","4","4","598900137913221120","张","479","","","","","","","","","","","","","","","","","","","true","11","1","moral","1078","other","他人的","","","","","","","","","","","","","","",""
"null","","null","html-keyboard-response","15","128333","0.0-6.0-1.0-2.0-0.3","4","3","4","3","3","4","3","2","4","4","4","4","4","5","5","4","4","4","1","4","4","5","4","4","3","4","4","5","4","1","0","1","1","0","0","0","1","1","1","1","0","0","0","1","5","4","5","2","4","2","4","5","4","4","598900137913221120","张","479","","","","","","","","","","","","","","","","","","","","","","","","","","","","","","","","","","","","","","","",""
"836","<p style=""color:rgb(150, 250, 100); font-size: 35px;"">他人</p>","i","categorize-html","16","129171","0.0-6.0-1.0-2.0-1.3","4","3","4","3","3","4","3","2","4","4","4","4","4","5","5","4","4","4","1","4","4","5","4","4","3","4","4","5","4","1","0","1","1","0","0","0","1","1","1","1","0","0","0","1","5","4","5","2","4","2","4","5","4","4","598900137913221120","张","479","","","","","","","","","","","","","","","","","","","true","11","1","moral","836","other","他人","","","","","","","","","","","","","","",""
"null","","null","html-keyboard-response","17","129423","0.0-6.0-1.0-2.0-0.4","4","3","4","3","3","4","3","2","4","4","4","4","4","5","5","4","4","4","1","4","4","5","4","4","3","4","4","5","4","1","0","1","1","0","0","0","1","1","1","1","0","0","0","1","5","4","5","2","4","2","4","5","4","4","598900137913221120","张","479","","","","","","","","","","","","","","","","","","","","","","","","","","","","","","","","","","","","","","","",""
"1215","<p style=""color:rgb(150, 250, 100); font-size: 35px;"">我</p>","e","categorize-html","18","130639","0.0-6.0-1.0-2.0-1.4","4","3","4","3","3","4","3","2","4","4","4","4","4","5","5","4","4","4","1","4","4","5","4","4","3","4","4","5","4","1","0","1","1","0","0","0","1","1","1","1","0","0","0","1","5","4","5","2","4","2","4","5","4","4","598900137913221120","张","479","","","","","","","","","","","","","","","","","","","true","11","1","moral","1215","self","我","","","","","","","","","","","","","","",""
"null","","null","html-keyboard-response","19","130891","0.0-6.0-1.0-2.0-0.5","4","3","4","3","3","4","3","2","4","4","4","4","4","5","5","4","4","4","1","4","4","5","4","4","3","4","4","5","4","1","0","1","1","0","0","0","1","1","1","1","0","0","0","1","5","4","5","2","4","2","4","5","4","4","598900137913221120","张","479","","","","","","","","","","","","","","","","","","","","","","","","","","","","","","","","","","","","","","","",""
"651","<p style=""color:rgb(150, 250, 100); font-size: 35px;"">自己</p>","e","categorize-html","20","131545","0.0-6.0-1.0-2.0-1.5","4","3","4","3","3","4","3","2","4","4","4","4","4","5","5","4","4","4","1","4","4","5","4","4","3","4","4","5","4","1","0","1","1","0","0","0","1","1","1","1","0","0","0","1","5","4","5","2","4","2","4","5","4","4","598900137913221120","张","479","","","","","","","","","","","","","","","","","","","true","11","1","moral","651","self","自己","","","","","","","","","","","","","","",""
"null","","null","html-keyboard-response","21","131797","0.0-6.0-1.0-2.0-0.6","4","3","4","3","3","4","3","2","4","4","4","4","4","5","5","4","4","4","1","4","4","5","4","4","3","4","4","5","4","1","0","1","1","0","0","0","1","1","1","1","0","0","0","1","5","4","5","2","4","2","4","5","4","4","598900137913221120","张","479","","","","","","","","","","","","","","","","","","","","","","","","","","","","","","","","","","","","","","","",""
"613","<p style=""color:rgb(150, 250, 100); font-size: 35px;"">别人的</p>","i","categorize-html","22","132412","0.0-6.0-1.0-2.0-1.6","4","3","4","3","3","4","3","2","4","4","4","4","4","5","5","4","4","4","1","4","4","5","4","4","3","4","4","5","4","1","0","1","1","0","0","0","1","1","1","1","0","0","0","1","5","4","5","2","4","2","4","5","4","4","598900137913221120","张","479","","","","","","","","","","","","","","","","","","","true","11","1","moral","613","other","别人的","","","","","","","","","","","","","","",""
"null","","null","html-keyboard-response","23","132664","0.0-6.0-1.0-2.0-0.7","4","3","4","3","3","4","3","2","4","4","4","4","4","5","5","4","4","4","1","4","4","5","4","4","3","4","4","5","4","1","0","1","1","0","0","0","1","1","1","1","0","0","0","1","5","4","5","2","4","2","4","5","4","4","598900137913221120","张","479","","","","","","","","","","","","","","","","","","","","","","","","","","","","","","","","","","","","","","","",""
"678","<p style=""color:rgb(150, 250, 100); font-size: 35px;"">本人</p>","e","categorize-html","24","133344","0.0-6.0-1.0-2.0-1.7","4","3","4","3","3","4","3","2","4","4","4","4","4","5","5","4","4","4","1","4","4","5","4","4","3","4","4","5","4","1","0","1","1","0","0","0","1","1","1","1","0","0","0","1","5","4","5","2","4","2","4","5","4","4","598900137913221120","张","479","","","","","","","","","","","","","","","","","","","true","11","1","moral","678","self","本人","","","","","","","","","","","","","","",""
"null","","null","html-keyboard-response","25","133596","0.0-6.0-1.0-2.0-0.8","4","3","4","3","3","4","3","2","4","4","4","4","4","5","5","4","4","4","1","4","4","5","4","4","3","4","4","5","4","1","0","1","1","0","0","0","1","1","1","1","0","0","0","1","5","4","5","2","4","2","4","5","4","4","598900137913221120","张","479","","","","","","","","","","","","","","","","","","","","","","","","","","","","","","","","","","","","","","","",""
"653","<p style=""color:rgb(150, 250, 100); font-size: 35px;"">本人的</p>","e","categorize-html","26","134251","0.0-6.0-1.0-2.0-1.8","4","3","4","3","3","4","3","2","4","4","4","4","4","5","5","4","4","4","1","4","4","5","4","4","3","4","4","5","4","1","0","1","1","0","0","0","1","1","1","1","0","0","0","1","5","4","5","2","4","2","4","5","4","4","598900137913221120","张","479","","","","","","","","","","","","","","","","","","","true","11","1","moral","653","self","本人的","","","","","","","","","","","","","","",""
"null","","null","html-keyboard-response","27","134502","0.0-6.0-1.0-2.0-0.9","4","3","4","3","3","4","3","2","4","4","4","4","4","5","5","4","4","4","1","4","4","5","4","4","3","4","4","5","4","1","0","1","1","0","0","0","1","1","1","1","0","0","0","1","5","4","5","2","4","2","4","5","4","4","598900137913221120","张","479","","","","","","","","","","","","","","","","","","","","","","","","","","","","","","","","","","","","","","","",""
"698","<p style=""color:rgb(150, 250, 100); font-size: 35px;"">他</p>","i","categorize-html","28","135203","0.0-6.0-1.0-2.0-1.9","4","3","4","3","3","4","3","2","4","4","4","4","4","5","5","4","4","4","1","4","4","5","4","4","3","4","4","5","4","1","0","1","1","0","0","0","1","1","1","1","0","0","0","1","5","4","5","2","4","2","4","5","4","4","598900137913221120","张","479","","","","","","","","","","","","","","","","","","","true","11","1","moral","698","other","他","","","","","","","","","","","","","","",""
"null","","null","html-keyboard-response","29","135454","0.0-6.0-1.0-2.0-0.10","4","3","4","3","3","4","3","2","4","4","4","4","4","5","5","4","4","4","1","4","4","5","4","4","3","4","4","5","4","1","0","1","1","0","0","0","1","1","1","1","0","0","0","1","5","4","5","2","4","2","4","5","4","4","598900137913221120","张","479","","","","","","","","","","","","","","","","","","","","","","","","","","","","","","","","","","","","","","","",""
"562","<p style=""color:rgb(150, 250, 100); font-size: 35px;"">我的</p>","e","categorize-html","30","136018","0.0-6.0-1.0-2.0-1.10","4","3","4","3","3","4","3","2","4","4","4","4","4","5","5","4","4","4","1","4","4","5","4","4","3","4","4","5","4","1","0","1","1","0","0","0","1","1","1","1","0","0","0","1","5","4","5","2","4","2","4","5","4","4","598900137913221120","张","479","","","","","","","","","","","","","","","","","","","true","11","1","moral","562","self","我的","","","","","","","","","","","","","","",""
"null","","null","html-keyboard-response","31","136269","0.0-6.0-1.0-2.0-0.11","4","3","4","3","3","4","3","2","4","4","4","4","4","5","5","4","4","4","1","4","4","5","4","4","3","4","4","5","4","1","0","1","1","0","0","0","1","1","1","1","0","0","0","1","5","4","5","2","4","2","4","5","4","4","598900137913221120","张","479","","","","","","","","","","","","","","","","","","","","","","","","","","","","","","","","","","","","","","","",""
"576","<p style=""color:rgb(150, 250, 100); font-size: 35px;"">别人</p>","i","categorize-html","32","136848","0.0-6.0-1.0-2.0-1.11","4","3","4","3","3","4","3","2","4","4","4","4","4","5","5","4","4","4","1","4","4","5","4","4","3","4","4","5","4","1","0","1","1","0","0","0","1","1","1","1","0","0","0","1","5","4","5","2","4","2","4","5","4","4","598900137913221120","张","479","","","","","","","","","","","","","","","","","","","true","11","1","moral","576","other","别人","","","","","","","","","","","","","","",""
"5687","
    <div class=""tag-bottom""><p>
    —— 任务2：对“消极”词和“积极”词分类 ——<p/>   
    <span style=""color:#78DCE8""><b>注意上方，类别标签和需要分类的词语都已经改变</b></span><p/>
    <span style=""color:#FFD866""><b>请根据上方标签的提示，尽可能正确并且快速地做出按键反应</b></span><p/>
    当按键错误时屏幕中会出现<span style=""color:red""> X </span>，需要按另一个键纠正才能继续<br/><p/>
    请把双手食指分别放在键盘的“E”键和“I”键上<p/>
    按<空格键>开始
    </p></div>"," ","html-keyboard-response","33","142536","0.0-6.0-1.0-3.0","4","3","4","3","3","4","3","2","4","4","4","4","4","5","5","4","4","4","1","4","4","5","4","4","3","4","4","5","4","1","0","1","1","0","0","0","1","1","1","1","0","0","0","1","5","4","5","2","4","2","4","5","4","4","598900137913221120","张","479","","","","","","","","","","","","","","","","","","","","","","","","","","","","","","","","","","","","","","","",""
"null","","null","html-keyboard-response","34","142788","0.0-6.0-1.0-4.0-0.0","4","3","4","3","3","4","3","2","4","4","4","4","4","5","5","4","4","4","1","4","4","5","4","4","3","4","4","5","4","1","0","1","1","0","0","0","1","1","1","1","0","0","0","1","5","4","5","2","4","2","4","5","4","4","598900137913221120","张","479","","","","","","","","","","","","","","","","","","","","","","","","","","","","","","","","","","","","","","","",""
"847","<p style=""color:white; font-size: 35px;"">廉正</p>","i","categorize-html","35","143638","0.0-6.0-1.0-4.0-1.0","4","3","4","3","3","4","3","2","4","4","4","4","4","5","5","4","4","4","1","4","4","5","4","4","3","4","4","5","4","1","0","1","1","0","0","0","1","1","1","1","0","0","0","1","5","4","5","2","4","2","4","5","4","4","598900137913221120","张","479","","","","","","","","","","","","","","","","","","","true","12","2","moral","847","positive","廉正","","","","","","","","","","","","","","",""
"null","","null","html-keyboard-response","36","143889","0.0-6.0-1.0-4.0-0.1","4","3","4","3","3","4","3","2","4","4","4","4","4","5","5","4","4","4","1","4","4","5","4","4","3","4","4","5","4","1","0","1","1","0","0","0","1","1","1","1","0","0","0","1","5","4","5","2","4","2","4","5","4","4","598900137913221120","张","479","","","","","","","","","","","","","","","","","","","","","","","","","","","","","","","","","","","","","","","",""
"776","<p style=""color:white; font-size: 35px;"">不仁</p>","e","categorize-html","37","144667","0.0-6.0-1.0-4.0-1.1","4","3","4","3","3","4","3","2","4","4","4","4","4","5","5","4","4","4","1","4","4","5","4","4","3","4","4","5","4","1","0","1","1","0","0","0","1","1","1","1","0","0","0","1","5","4","5","2","4","2","4","5","4","4","598900137913221120","张","479","","","","","","","","","","","","","","","","","","","true","12","2","moral","776","negative","不仁","","","","","","","","","","","","","","",""
"null","","null","html-keyboard-response","38","144918","0.0-6.0-1.0-4.0-0.2","4","3","4","3","3","4","3","2","4","4","4","4","4","5","5","4","4","4","1","4","4","5","4","4","3","4","4","5","4","1","0","1","1","0","0","0","1","1","1","1","0","0","0","1","5","4","5","2","4","2","4","5","4","4","598900137913221120","张","479","","","","","","","","","","","","","","","","","","","","","","","","","","","","","","","","","","","","","","","",""
"758","<p style=""color:white; font-size: 35px;"">缺德</p>","e","categorize-html","39","145678","0.0-6.0-1.0-4.0-1.2","4","3","4","3","3","4","3","2","4","4","4","4","4","5","5","4","4","4","1","4","4","5","4","4","3","4","4","5","4","1","0","1","1","0","0","0","1","1","1","1","0","0","0","1","5","4","5","2","4","2","4","5","4","4","598900137913221120","张","479","","","","","","","","","","","","","","","","","","","true","12","2","moral","758","negative","缺德","","","","","","","","","","","","","","",""
"null","","null","html-keyboard-response","40","145930","0.0-6.0-1.0-4.0-0.3","4","3","4","3","3","4","3","2","4","4","4","4","4","5","5","4","4","4","1","4","4","5","4","4","3","4","4","5","4","1","0","1","1","0","0","0","1","1","1","1","0","0","0","1","5","4","5","2","4","2","4","5","4","4","598900137913221120","张","479","","","","","","","","","","","","","","","","","","","","","","","","","","","","","","","","","","","","","","","",""
"742","<p style=""color:white; font-size: 35px;"">善良</p>","i","categorize-html","41","146673","0.0-6.0-1.0-4.0-1.3","4","3","4","3","3","4","3","2","4","4","4","4","4","5","5","4","4","4","1","4","4","5","4","4","3","4","4","5","4","1","0","1","1","0","0","0","1","1","1","1","0","0","0","1","5","4","5","2","4","2","4","5","4","4","598900137913221120","张","479","","","","","","","","","","","","","","","","","","","true","12","2","moral","742","positive","善良","","","","","","","","","","","","","","",""
"null","","null","html-keyboard-response","42","146925","0.0-6.0-1.0-4.0-0.4","4","3","4","3","3","4","3","2","4","4","4","4","4","5","5","4","4","4","1","4","4","5","4","4","3","4","4","5","4","1","0","1","1","0","0","0","1","1","1","1","0","0","0","1","5","4","5","2","4","2","4","5","4","4","598900137913221120","张","479","","","","","","","","","","","","","","","","","","","","","","","","","","","","","","","","","","","","","","","",""
"616","<p style=""color:white; font-size: 35px;"">高尚</p>","i","categorize-html","43","147543","0.0-6.0-1.0-4.0-1.4","4","3","4","3","3","4","3","2","4","4","4","4","4","5","5","4","4","4","1","4","4","5","4","4","3","4","4","5","4","1","0","1","1","0","0","0","1","1","1","1","0","0","0","1","5","4","5","2","4","2","4","5","4","4","598900137913221120","张","479","","","","","","","","","","","","","","","","","","","true","12","2","moral","616","positive","高尚","","","","","","","","","","","","","","",""
"null","","null","html-keyboard-response","44","147795","0.0-6.0-1.0-4.0-0.5","4","3","4","3","3","4","3","2","4","4","4","4","4","5","5","4","4","4","1","4","4","5","4","4","3","4","4","5","4","1","0","1","1","0","0","0","1","1","1","1","0","0","0","1","5","4","5","2","4","2","4","5","4","4","598900137913221120","张","479","","","","","","","","","","","","","","","","","","","","","","","","","","","","","","","","","","","","","","","",""
"634","<p style=""color:white; font-size: 35px;"">黑心</p>","e","categorize-html","45","148430","0.0-6.0-1.0-4.0-1.5","4","3","4","3","3","4","3","2","4","4","4","4","4","5","5","4","4","4","1","4","4","5","4","4","3","4","4","5","4","1","0","1","1","0","0","0","1","1","1","1","0","0","0","1","5","4","5","2","4","2","4","5","4","4","598900137913221120","张","479","","","","","","","","","","","","","","","","","","","true","12","2","moral","634","negative","黑心","","","","","","","","","","","","","","",""
"null","","null","html-keyboard-response","46","148682","0.0-6.0-1.0-4.0-0.6","4","3","4","3","3","4","3","2","4","4","4","4","4","5","5","4","4","4","1","4","4","5","4","4","3","4","4","5","4","1","0","1","1","0","0","0","1","1","1","1","0","0","0","1","5","4","5","2","4","2","4","5","4","4","598900137913221120","张","479","","","","","","","","","","","","","","","","","","","","","","","","","","","","","","","","","","","","","","","",""
"928","<p style=""color:white; font-size: 35px;"">小人</p>","e","categorize-html","47","149612","0.0-6.0-1.0-4.0-1.6","4","3","4","3","3","4","3","2","4","4","4","4","4","5","5","4","4","4","1","4","4","5","4","4","3","4","4","5","4","1","0","1","1","0","0","0","1","1","1","1","0","0","0","1","5","4","5","2","4","2","4","5","4","4","598900137913221120","张","479","","","","","","","","","","","","","","","","","","","true","12","2","moral","928","negative","小人","","","","","","","","","","","","","","",""
"null","","null","html-keyboard-response","48","149863","0.0-6.0-1.0-4.0-0.7","4","3","4","3","3","4","3","2","4","4","4","4","4","5","5","4","4","4","1","4","4","5","4","4","3","4","4","5","4","1","0","1","1","0","0","0","1","1","1","1","0","0","0","1","5","4","5","2","4","2","4","5","4","4","598900137913221120","张","479","","","","","","","","","","","","","","","","","","","","","","","","","","","","","","","","","","","","","","","",""
"622","<p style=""color:white; font-size: 35px;"">正直</p>","i","categorize-html","49","150486","0.0-6.0-1.0-4.0-1.7","4","3","4","3","3","4","3","2","4","4","4","4","4","5","5","4","4","4","1","4","4","5","4","4","3","4","4","5","4","1","0","1","1","0","0","0","1","1","1","1","0","0","0","1","5","4","5","2","4","2","4","5","4","4","598900137913221120","张","479","","","","","","","","","","","","","","","","","","","true","12","2","moral","622","positive","正直","","","","","","","","","","","","","","",""
"null","","null","html-keyboard-response","50","150737","0.0-6.0-1.0-4.0-0.8","4","3","4","3","3","4","3","2","4","4","4","4","4","5","5","4","4","4","1","4","4","5","4","4","3","4","4","5","4","1","0","1","1","0","0","0","1","1","1","1","0","0","0","1","5","4","5","2","4","2","4","5","4","4","598900137913221120","张","479","","","","","","","","","","","","","","","","","","","","","","","","","","","","","","","","","","","","","","","",""
"1159","<p style=""color:white; font-size: 35px;"">卑鄙</p>","e","categorize-html","51","151898","0.0-6.0-1.0-4.0-1.8","4","3","4","3","3","4","3","2","4","4","4","4","4","5","5","4","4","4","1","4","4","5","4","4","3","4","4","5","4","1","0","1","1","0","0","0","1","1","1","1","0","0","0","1","5","4","5","2","4","2","4","5","4","4","598900137913221120","张","479","","","","","","","","","","","","","","","","","","","true","12","2","moral","1159","negative","卑鄙","","","","","","","","","","","","","","",""
"null","","null","html-keyboard-response","52","152162","0.0-6.0-1.0-4.0-0.9","4","3","4","3","3","4","3","2","4","4","4","4","4","5","5","4","4","4","1","4","4","5","4","4","3","4","4","5","4","1","0","1","1","0","0","0","1","1","1","1","0","0","0","1","5","4","5","2","4","2","4","5","4","4","598900137913221120","张","479","","","","","","","","","","","","","","","","","","","","","","","","","","","","","","","","","","","","","","","",""
"616","<p style=""color:white; font-size: 35px;"">君子</p>","i","categorize-html","53","152780","0.0-6.0-1.0-4.0-1.9","4","3","4","3","3","4","3","2","4","4","4","4","4","5","5","4","4","4","1","4","4","5","4","4","3","4","4","5","4","1","0","1","1","0","0","0","1","1","1","1","0","0","0","1","5","4","5","2","4","2","4","5","4","4","598900137913221120","张","479","","","","","","","","","","","","","","","","","","","true","12","2","moral","616","positive","君子","","","","","","","","","","","","","","",""
"null","","null","html-keyboard-response","54","153031","0.0-6.0-1.0-4.0-0.10","4","3","4","3","3","4","3","2","4","4","4","4","4","5","5","4","4","4","1","4","4","5","4","4","3","4","4","5","4","1","0","1","1","0","0","0","1","1","1","1","0","0","0","1","5","4","5","2","4","2","4","5","4","4","598900137913221120","张","479","","","","","","","","","","","","","","","","","","","","","","","","","","","","","","","","","","","","","","","",""
"732","<p style=""color:white; font-size: 35px;"">不孝</p>","e","categorize-html","55","153765","0.0-6.0-1.0-4.0-1.10","4","3","4","3","3","4","3","2","4","4","4","4","4","5","5","4","4","4","1","4","4","5","4","4","3","4","4","5","4","1","0","1","1","0","0","0","1","1","1","1","0","0","0","1","5","4","5","2","4","2","4","5","4","4","598900137913221120","张","479","","","","","","","","","","","","","","","","","","","true","12","2","moral","732","negative","不孝","","","","","","","","","","","","","","",""
"null","","null","html-keyboard-response","56","154017","0.0-6.0-1.0-4.0-0.11","4","3","4","3","3","4","3","2","4","4","4","4","4","5","5","4","4","4","1","4","4","5","4","4","3","4","4","5","4","1","0","1","1","0","0","0","1","1","1","1","0","0","0","1","5","4","5","2","4","2","4","5","4","4","598900137913221120","张","479","","","","","","","","","","","","","","","","","","","","","","","","","","","","","","","","","","","","","","","",""
"572","<p style=""color:white; font-size: 35px;"">诚信</p>","i","categorize-html","57","154591","0.0-6.0-1.0-4.0-1.11","4","3","4","3","3","4","3","2","4","4","4","4","4","5","5","4","4","4","1","4","4","5","4","4","3","4","4","5","4","1","0","1","1","0","0","0","1","1","1","1","0","0","0","1","5","4","5","2","4","2","4","5","4","4","598900137913221120","张","479","","","","","","","","","","","","","","","","","","","true","12","2","moral","572","positive","诚信","","","","","","","","","","","","","","",""
"4866","
    <div class=""tag-bottom""><p>
    —— 任务3：对“自我/消极”词和“他人/积极”词分类 ——<p/>
    <span style=""color:#78DCE8""><b>注意上方，之前的四类词语将混合在一起交替呈现</b></span><p/>
    <span style=""color:#FFD866""><b>请根据上方标签的提示，尽可能正确并且快速地做出按键反应</b></span><p/>
    当按键错误时屏幕中会出现<span style=""color:red""> X </span>，需要按另一个键纠正才能继续<br/><p/>
    请把双手食指分别放在键盘的“E”键和“I”键上<p/>
    按<空格键>开始
    </p></div>"," ","html-keyboard-response","58","159459","0.0-6.0-1.0-5.0","4","3","4","3","3","4","3","2","4","4","4","4","4","5","5","4","4","4","1","4","4","5","4","4","3","4","4","5","4","1","0","1","1","0","0","0","1","1","1","1","0","0","0","1","5","4","5","2","4","2","4","5","4","4","598900137913221120","张","479","","","","","","","","","","","","","","","","","","","","","","","","","","","","","","","","","","","","","","","",""
"null","","null","html-keyboard-response","59","159711","0.0-6.0-1.0-6.0-0.0","4","3","4","3","3","4","3","2","4","4","4","4","4","5","5","4","4","4","1","4","4","5","4","4","3","4","4","5","4","1","0","1","1","0","0","0","1","1","1","1","0","0","0","1","5","4","5","2","4","2","4","5","4","4","598900137913221120","张","479","","","","","","","","","","","","","","","","","","","","","","","","","","","","","","","","","","","","","","","",""
"788","<p style=""color:rgb(150, 250, 100); font-size: 35px;"">我的</p>","e","categorize-html","60","160502","0.0-6.0-1.0-6.0-1.0","4","3","4","3","3","4","3","2","4","4","4","4","4","5","5","4","4","4","1","4","4","5","4","4","3","4","4","5","4","1","0","1","1","0","0","0","1","1","1","1","0","0","0","1","5","4","5","2","4","2","4","5","4","4","598900137913221120","张","479","","","","","","","","","","","","","","","","","","","true","13","3","moral","788","self","我的","","","","","","","","","","","","","","",""
"null","","null","html-keyboard-response","61","160752","0.0-6.0-1.0-6.0-0.1","4","3","4","3","3","4","3","2","4","4","4","4","4","5","5","4","4","4","1","4","4","5","4","4","3","4","4","5","4","1","0","1","1","0","0","0","1","1","1","1","0","0","0","1","5","4","5","2","4","2","4","5","4","4","598900137913221120","张","479","","","","","","","","","","","","","","","","","","","","","","","","","","","","","","","","","","","","","","","",""
"686","<p style=""color:white; font-size: 35px;"">小人</p>","e","categorize-html","62","161440","0.0-6.0-1.0-6.0-1.1","4","3","4","3","3","4","3","2","4","4","4","4","4","5","5","4","4","4","1","4","4","5","4","4","3","4","4","5","4","1","0","1","1","0","0","0","1","1","1","1","0","0","0","1","5","4","5","2","4","2","4","5","4","4","598900137913221120","张","479","","","","","","","","","","","","","","","","","","","true","13","3","moral","686","negative","小人","","","","","","","","","","","","","","",""
"null","","null","html-keyboard-response","63","161691","0.0-6.0-1.0-6.0-0.2","4","3","4","3","3","4","3","2","4","4","4","4","4","5","5","4","4","4","1","4","4","5","4","4","3","4","4","5","4","1","0","1","1","0","0","0","1","1","1","1","0","0","0","1","5","4","5","2","4","2","4","5","4","4","598900137913221120","张","479","","","","","","","","","","","","","","","","","","","","","","","","","","","","","","","","","","","","","","","",""
"588","<p style=""color:rgb(150, 250, 100); font-size: 35px;"">他的</p>","i","categorize-html","64","162281","0.0-6.0-1.0-6.0-1.2","4","3","4","3","3","4","3","2","4","4","4","4","4","5","5","4","4","4","1","4","4","5","4","4","3","4","4","5","4","1","0","1","1","0","0","0","1","1","1","1","0","0","0","1","5","4","5","2","4","2","4","5","4","4","598900137913221120","张","479","","","","","","","","","","","","","","","","","","","true","13","3","moral","588","other","他的","","","","","","","","","","","","","","",""
"null","","null","html-keyboard-response","65","162534","0.0-6.0-1.0-6.0-0.3","4","3","4","3","3","4","3","2","4","4","4","4","4","5","5","4","4","4","1","4","4","5","4","4","3","4","4","5","4","1","0","1","1","0","0","0","1","1","1","1","0","0","0","1","5","4","5","2","4","2","4","5","4","4","598900137913221120","张","479","","","","","","","","","","","","","","","","","","","","","","","","","","","","","","","","","","","","","","","",""
"579","<p style=""color:white; font-size: 35px;"">正直</p>","i","categorize-html","66","163115","0.0-6.0-1.0-6.0-1.3","4","3","4","3","3","4","3","2","4","4","4","4","4","5","5","4","4","4","1","4","4","5","4","4","3","4","4","5","4","1","0","1","1","0","0","0","1","1","1","1","0","0","0","1","5","4","5","2","4","2","4","5","4","4","598900137913221120","张","479","","","","","","","","","","","","","","","","","","","true","13","3","moral","579","positive","正直","","","","","","","","","","","","","","",""
"null","","null","html-keyboard-response","67","163366","0.0-6.0-1.0-6.0-0.4","4","3","4","3","3","4","3","2","4","4","4","4","4","5","5","4","4","4","1","4","4","5","4","4","3","4","4","5","4","1","0","1","1","0","0","0","1","1","1","1","0","0","0","1","5","4","5","2","4","2","4","5","4","4","598900137913221120","张","479","","","","","","","","","","","","","","","","","","","","","","","","","","","","","","","","","","","","","","","",""
"623","<p style=""color:rgb(150, 250, 100); font-size: 35px;"">他</p>","i","categorize-html","68","163993","0.0-6.0-1.0-6.0-1.4","4","3","4","3","3","4","3","2","4","4","4","4","4","5","5","4","4","4","1","4","4","5","4","4","3","4","4","5","4","1","0","1","1","0","0","0","1","1","1","1","0","0","0","1","5","4","5","2","4","2","4","5","4","4","598900137913221120","张","479","","","","","","","","","","","","","","","","","","","true","13","3","moral","623","other","他","","","","","","","","","","","","","","",""
"null","","null","html-keyboard-response","69","164244","0.0-6.0-1.0-6.0-0.5","4","3","4","3","3","4","3","2","4","4","4","4","4","5","5","4","4","4","1","4","4","5","4","4","3","4","4","5","4","1","0","1","1","0","0","0","1","1","1","1","0","0","0","1","5","4","5","2","4","2","4","5","4","4","598900137913221120","张","479","","","","","","","","","","","","","","","","","","","","","","","","","","","","","","","","","","","","","","","",""
"688","<p style=""color:white; font-size: 35px;"">高尚</p>","i","categorize-html","70","164934","0.0-6.0-1.0-6.0-1.5","4","3","4","3","3","4","3","2","4","4","4","4","4","5","5","4","4","4","1","4","4","5","4","4","3","4","4","5","4","1","0","1","1","0","0","0","1","1","1","1","0","0","0","1","5","4","5","2","4","2","4","5","4","4","598900137913221120","张","479","","","","","","","","","","","","","","","","","","","true","13","3","moral","688","positive","高尚","","","","","","","","","","","","","","",""
"null","","null","html-keyboard-response","71","165186","0.0-6.0-1.0-6.0-0.6","4","3","4","3","3","4","3","2","4","4","4","4","4","5","5","4","4","4","1","4","4","5","4","4","3","4","4","5","4","1","0","1","1","0","0","0","1","1","1","1","0","0","0","1","5","4","5","2","4","2","4","5","4","4","598900137913221120","张","479","","","","","","","","","","","","","","","","","","","","","","","","","","","","","","","","","","","","","","","",""
"704","<p style=""color:rgb(150, 250, 100); font-size: 35px;"">本人</p>","e","categorize-html","72","165892","0.0-6.0-1.0-6.0-1.6","4","3","4","3","3","4","3","2","4","4","4","4","4","5","5","4","4","4","1","4","4","5","4","4","3","4","4","5","4","1","0","1","1","0","0","0","1","1","1","1","0","0","0","1","5","4","5","2","4","2","4","5","4","4","598900137913221120","张","479","","","","","","","","","","","","","","","","","","","true","13","3","moral","704","self","本人","","","","","","","","","","","","","","",""
"null","","null","html-keyboard-response","73","166145","0.0-6.0-1.0-6.0-0.7","4","3","4","3","3","4","3","2","4","4","4","4","4","5","5","4","4","4","1","4","4","5","4","4","3","4","4","5","4","1","0","1","1","0","0","0","1","1","1","1","0","0","0","1","5","4","5","2","4","2","4","5","4","4","598900137913221120","张","479","","","","","","","","","","","","","","","","","","","","","","","","","","","","","","","","","","","","","","","",""
"671","<p style=""color:white; font-size: 35px;"">不孝</p>","e","categorize-html","74","166818","0.0-6.0-1.0-6.0-1.7","4","3","4","3","3","4","3","2","4","4","4","4","4","5","5","4","4","4","1","4","4","5","4","4","3","4","4","5","4","1","0","1","1","0","0","0","1","1","1","1","0","0","0","1","5","4","5","2","4","2","4","5","4","4","598900137913221120","张","479","","","","","","","","","","","","","","","","","","","true","13","3","moral","671","negative","不孝","","","","","","","","","","","","","","",""
"null","","null","html-keyboard-response","75","167069","0.0-6.0-1.0-6.0-0.8","4","3","4","3","3","4","3","2","4","4","4","4","4","5","5","4","4","4","1","4","4","5","4","4","3","4","4","5","4","1","0","1","1","0","0","0","1","1","1","1","0","0","0","1","5","4","5","2","4","2","4","5","4","4","598900137913221120","张","479","","","","","","","","","","","","","","","","","","","","","","","","","","","","","","","","","","","","","","","",""
"568","<p style=""color:rgb(150, 250, 100); font-size: 35px;"">他人的</p>","i","categorize-html","76","167638","0.0-6.0-1.0-6.0-1.8","4","3","4","3","3","4","3","2","4","4","4","4","4","5","5","4","4","4","1","4","4","5","4","4","3","4","4","5","4","1","0","1","1","0","0","0","1","1","1","1","0","0","0","1","5","4","5","2","4","2","4","5","4","4","598900137913221120","张","479","","","","","","","","","","","","","","","","","","","true","13","3","moral","568","other","他人的","","","","","","","","","","","","","","",""
"null","","null","html-keyboard-response","77","167890","0.0-6.0-1.0-6.0-0.9","4","3","4","3","3","4","3","2","4","4","4","4","4","5","5","4","4","4","1","4","4","5","4","4","3","4","4","5","4","1","0","1","1","0","0","0","1","1","1","1","0","0","0","1","5","4","5","2","4","2","4","5","4","4","598900137913221120","张","479","","","","","","","","","","","","","","","","","","","","","","","","","","","","","","","","","","","","","","","",""
"611","<p style=""color:white; font-size: 35px;"">诚信</p>","i","categorize-html","78","168503","0.0-6.0-1.0-6.0-1.9","4","3","4","3","3","4","3","2","4","4","4","4","4","5","5","4","4","4","1","4","4","5","4","4","3","4","4","5","4","1","0","1","1","0","0","0","1","1","1","1","0","0","0","1","5","4","5","2","4","2","4","5","4","4","598900137913221120","张","479","","","","","","","","","","","","","","","","","","","true","13","3","moral","611","positive","诚信","","","","","","","","","","","","","","",""
"null","","null","html-keyboard-response","79","168755","0.0-6.0-1.0-6.0-0.10","4","3","4","3","3","4","3","2","4","4","4","4","4","5","5","4","4","4","1","4","4","5","4","4","3","4","4","5","4","1","0","1","1","0","0","0","1","1","1","1","0","0","0","1","5","4","5","2","4","2","4","5","4","4","598900137913221120","张","479","","","","","","","","","","","","","","","","","","","","","","","","","","","","","","","","","","","","","","","",""
"624","<p style=""color:rgb(150, 250, 100); font-size: 35px;"">我</p>","i","categorize-html","80","169846","0.0-6.0-1.0-6.0-1.10","4","3","4","3","3","4","3","2","4","4","4","4","4","5","5","4","4","4","1","4","4","5","4","4","3","4","4","5","4","1","0","1","1","0","0","0","1","1","1","1","0","0","0","1","5","4","5","2","4","2","4","5","4","4","598900137913221120","张","479","","","","","","","","","","","","","","","","","","","false","13","3","moral","1356.608695652174","self","我","","","","","","","","","","","","","","",""
"null","","null","html-keyboard-response","81","170097","0.0-6.0-1.0-6.0-0.11","4","3","4","3","3","4","3","2","4","4","4","4","4","5","5","4","4","4","1","4","4","5","4","4","3","4","4","5","4","1","0","1","1","0","0","0","1","1","1","1","0","0","0","1","5","4","5","2","4","2","4","5","4","4","598900137913221120","张","479","","","","","","","","","","","","","","","","","","","","","","","","","","","","","","","","","","","","","","","",""
"783","<p style=""color:white; font-size: 35px;"">黑心</p>","e","categorize-html","82","170883","0.0-6.0-1.0-6.0-1.11","4","3","4","3","3","4","3","2","4","4","4","4","4","5","5","4","4","4","1","4","4","5","4","4","3","4","4","5","4","1","0","1","1","0","0","0","1","1","1","1","0","0","0","1","5","4","5","2","4","2","4","5","4","4","598900137913221120","张","479","","","","","","","","","","","","","","","","","","","true","13","3","moral","783","negative","黑心","","","","","","","","","","","","","","",""
"null","","null","html-keyboard-response","83","171134","0.0-6.0-1.0-6.0-0.12","4","3","4","3","3","4","3","2","4","4","4","4","4","5","5","4","4","4","1","4","4","5","4","4","3","4","4","5","4","1","0","1","1","0","0","0","1","1","1","1","0","0","0","1","5","4","5","2","4","2","4","5","4","4","598900137913221120","张","479","","","","","","","","","","","","","","","","","","","","","","","","","","","","","","","","","","","","","","","",""
"812","<p style=""color:rgb(150, 250, 100); font-size: 35px;"">本人的</p>","e","categorize-html","84","171948","0.0-6.0-1.0-6.0-1.12","4","3","4","3","3","4","3","2","4","4","4","4","4","5","5","4","4","4","1","4","4","5","4","4","3","4","4","5","4","1","0","1","1","0","0","0","1","1","1","1","0","0","0","1","5","4","5","2","4","2","4","5","4","4","598900137913221120","张","479","","","","","","","","","","","","","","","","","","","true","13","3","moral","812","self","本人的","","","","","","","","","","","","","","",""
"null","","null","html-keyboard-response","85","172200","0.0-6.0-1.0-6.0-0.13","4","3","4","3","3","4","3","2","4","4","4","4","4","5","5","4","4","4","1","4","4","5","4","4","3","4","4","5","4","1","0","1","1","0","0","0","1","1","1","1","0","0","0","1","5","4","5","2","4","2","4","5","4","4","598900137913221120","张","479","","","","","","","","","","","","","","","","","","","","","","","","","","","","","","","","","","","","","","","",""
"736","<p style=""color:white; font-size: 35px;"">缺德</p>","e","categorize-html","86","172939","0.0-6.0-1.0-6.0-1.13","4","3","4","3","3","4","3","2","4","4","4","4","4","5","5","4","4","4","1","4","4","5","4","4","3","4","4","5","4","1","0","1","1","0","0","0","1","1","1","1","0","0","0","1","5","4","5","2","4","2","4","5","4","4","598900137913221120","张","479","","","","","","","","","","","","","","","","","","","true","13","3","moral","736","negative","缺德","","","","","","","","","","","","","","",""
"null","","null","html-keyboard-response","87","173203","0.0-6.0-1.0-6.0-0.14","4","3","4","3","3","4","3","2","4","4","4","4","4","5","5","4","4","4","1","4","4","5","4","4","3","4","4","5","4","1","0","1","1","0","0","0","1","1","1","1","0","0","0","1","5","4","5","2","4","2","4","5","4","4","598900137913221120","张","479","","","","","","","","","","","","","","","","","","","","","","","","","","","","","","","","","","","","","","","",""
"652","<p style=""color:rgb(150, 250, 100); font-size: 35px;"">别人的</p>","i","categorize-html","88","173857","0.0-6.0-1.0-6.0-1.14","4","3","4","3","3","4","3","2","4","4","4","4","4","5","5","4","4","4","1","4","4","5","4","4","3","4","4","5","4","1","0","1","1","0","0","0","1","1","1","1","0","0","0","1","5","4","5","2","4","2","4","5","4","4","598900137913221120","张","479","","","","","","","","","","","","","","","","","","","true","13","3","moral","652","other","别人的","","","","","","","","","","","","","","",""
"null","","null","html-keyboard-response","89","174109","0.0-6.0-1.0-6.0-0.15","4","3","4","3","3","4","3","2","4","4","4","4","4","5","5","4","4","4","1","4","4","5","4","4","3","4","4","5","4","1","0","1","1","0","0","0","1","1","1","1","0","0","0","1","5","4","5","2","4","2","4","5","4","4","598900137913221120","张","479","","","","","","","","","","","","","","","","","","","","","","","","","","","","","","","","","","","","","","","",""
"664","<p style=""color:white; font-size: 35px;"">善良</p>","i","categorize-html","90","174774","0.0-6.0-1.0-6.0-1.15","4","3","4","3","3","4","3","2","4","4","4","4","4","5","5","4","4","4","1","4","4","5","4","4","3","4","4","5","4","1","0","1","1","0","0","0","1","1","1","1","0","0","0","1","5","4","5","2","4","2","4","5","4","4","598900137913221120","张","479","","","","","","","","","","","","","","","","","","","true","13","3","moral","664","positive","善良","","","","","","","","","","","","","","",""
"null","","null","html-keyboard-response","91","175026","0.0-6.0-1.0-6.0-0.16","4","3","4","3","3","4","3","2","4","4","4","4","4","5","5","4","4","4","1","4","4","5","4","4","3","4","4","5","4","1","0","1","1","0","0","0","1","1","1","1","0","0","0","1","5","4","5","2","4","2","4","5","4","4","598900137913221120","张","479","","","","","","","","","","","","","","","","","","","","","","","","","","","","","","","","","","","","","","","",""
"1110","<p style=""color:rgb(150, 250, 100); font-size: 35px;"">自己</p>","e","categorize-html","92","176138","0.0-6.0-1.0-6.0-1.16","4","3","4","3","3","4","3","2","4","4","4","4","4","5","5","4","4","4","1","4","4","5","4","4","3","4","4","5","4","1","0","1","1","0","0","0","1","1","1","1","0","0","0","1","5","4","5","2","4","2","4","5","4","4","598900137913221120","张","479","","","","","","","","","","","","","","","","","","","true","13","3","moral","1110","self","自己","","","","","","","","","","","","","","",""
"null","","null","html-keyboard-response","93","176390","0.0-6.0-1.0-6.0-0.17","4","3","4","3","3","4","3","2","4","4","4","4","4","5","5","4","4","4","1","4","4","5","4","4","3","4","4","5","4","1","0","1","1","0","0","0","1","1","1","1","0","0","0","1","5","4","5","2","4","2","4","5","4","4","598900137913221120","张","479","","","","","","","","","","","","","","","","","","","","","","","","","","","","","","","","","","","","","","","",""
"619","<p style=""color:white; font-size: 35px;"">卑鄙</p>","e","categorize-html","94","177011","0.0-6.0-1.0-6.0-1.17","4","3","4","3","3","4","3","2","4","4","4","4","4","5","5","4","4","4","1","4","4","5","4","4","3","4","4","5","4","1","0","1","1","0","0","0","1","1","1","1","0","0","0","1","5","4","5","2","4","2","4","5","4","4","598900137913221120","张","479","","","","","","","","","","","","","","","","","","","true","13","3","moral","619","negative","卑鄙","","","","","","","","","","","","","","",""
"null","","null","html-keyboard-response","95","177262","0.0-6.0-1.0-6.0-0.18","4","3","4","3","3","4","3","2","4","4","4","4","4","5","5","4","4","4","1","4","4","5","4","4","3","4","4","5","4","1","0","1","1","0","0","0","1","1","1","1","0","0","0","1","5","4","5","2","4","2","4","5","4","4","598900137913221120","张","479","","","","","","","","","","","","","","","","","","","","","","","","","","","","","","","","","","","","","","","",""
"610","<p style=""color:rgb(150, 250, 100); font-size: 35px;"">他人</p>","i","categorize-html","96","177874","0.0-6.0-1.0-6.0-1.18","4","3","4","3","3","4","3","2","4","4","4","4","4","5","5","4","4","4","1","4","4","5","4","4","3","4","4","5","4","1","0","1","1","0","0","0","1","1","1","1","0","0","0","1","5","4","5","2","4","2","4","5","4","4","598900137913221120","张","479","","","","","","","","","","","","","","","","","","","true","13","3","moral","610","other","他人","","","","","","","","","","","","","","",""
"null","","null","html-keyboard-response","97","178126","0.0-6.0-1.0-6.0-0.19","4","3","4","3","3","4","3","2","4","4","4","4","4","5","5","4","4","4","1","4","4","5","4","4","3","4","4","5","4","1","0","1","1","0","0","0","1","1","1","1","0","0","0","1","5","4","5","2","4","2","4","5","4","4","598900137913221120","张","479","","","","","","","","","","","","","","","","","","","","","","","","","","","","","","","","","","","","","","","",""
"676","<p style=""color:white; font-size: 35px;"">君子</p>","i","categorize-html","98","178805","0.0-6.0-1.0-6.0-1.19","4","3","4","3","3","4","3","2","4","4","4","4","4","5","5","4","4","4","1","4","4","5","4","4","3","4","4","5","4","1","0","1","1","0","0","0","1","1","1","1","0","0","0","1","5","4","5","2","4","2","4","5","4","4","598900137913221120","张","479","","","","","","","","","","","","","","","","","","","true","13","3","moral","676","positive","君子","","","","","","","","","","","","","","",""
"null","","null","html-keyboard-response","99","179057","0.0-6.0-1.0-6.0-0.20","4","3","4","3","3","4","3","2","4","4","4","4","4","5","5","4","4","4","1","4","4","5","4","4","3","4","4","5","4","1","0","1","1","0","0","0","1","1","1","1","0","0","0","1","5","4","5","2","4","2","4","5","4","4","598900137913221120","张","479","","","","","","","","","","","","","","","","","","","","","","","","","","","","","","","","","","","","","","","",""
"1580","<p style=""color:rgb(150, 250, 100); font-size: 35px;"">自己的</p>","e","categorize-html","100","180639","0.0-6.0-1.0-6.0-1.20","4","3","4","3","3","4","3","2","4","4","4","4","4","5","5","4","4","4","1","4","4","5","4","4","3","4","4","5","4","1","0","1","1","0","0","0","1","1","1","1","0","0","0","1","5","4","5","2","4","2","4","5","4","4","598900137913221120","张","479","","","","","","","","","","","","","","","","","","","true","13","3","moral","1580","self","自己的","","","","","","","","","","","","","","",""
"null","","null","html-keyboard-response","101","180891","0.0-6.0-1.0-6.0-0.21","4","3","4","3","3","4","3","2","4","4","4","4","4","5","5","4","4","4","1","4","4","5","4","4","3","4","4","5","4","1","0","1","1","0","0","0","1","1","1","1","0","0","0","1","5","4","5","2","4","2","4","5","4","4","598900137913221120","张","479","","","","","","","","","","","","","","","","","","","","","","","","","","","","","","","","","","","","","","","",""
"661","<p style=""color:white; font-size: 35px;"">不仁</p>","e","categorize-html","102","181554","0.0-6.0-1.0-6.0-1.21","4","3","4","3","3","4","3","2","4","4","4","4","4","5","5","4","4","4","1","4","4","5","4","4","3","4","4","5","4","1","0","1","1","0","0","0","1","1","1","1","0","0","0","1","5","4","5","2","4","2","4","5","4","4","598900137913221120","张","479","","","","","","","","","","","","","","","","","","","true","13","3","moral","661","negative","不仁","","","","","","","","","","","","","","",""
"null","","null","html-keyboard-response","103","181805","0.0-6.0-1.0-6.0-0.22","4","3","4","3","3","4","3","2","4","4","4","4","4","5","5","4","4","4","1","4","4","5","4","4","3","4","4","5","4","1","0","1","1","0","0","0","1","1","1","1","0","0","0","1","5","4","5","2","4","2","4","5","4","4","598900137913221120","张","479","","","","","","","","","","","","","","","","","","","","","","","","","","","","","","","","","","","","","","","",""
"1408","<p style=""color:rgb(150, 250, 100); font-size: 35px;"">别人</p>","i","categorize-html","104","183215","0.0-6.0-1.0-6.0-1.22","4","3","4","3","3","4","3","2","4","4","4","4","4","5","5","4","4","4","1","4","4","5","4","4","3","4","4","5","4","1","0","1","1","0","0","0","1","1","1","1","0","0","0","1","5","4","5","2","4","2","4","5","4","4","598900137913221120","张","479","","","","","","","","","","","","","","","","","","","true","13","3","moral","1408","other","别人","","","","","","","","","","","","","","",""
"null","","null","html-keyboard-response","105","183466","0.0-6.0-1.0-6.0-0.23","4","3","4","3","3","4","3","2","4","4","4","4","4","5","5","4","4","4","1","4","4","5","4","4","3","4","4","5","4","1","0","1","1","0","0","0","1","1","1","1","0","0","0","1","5","4","5","2","4","2","4","5","4","4","598900137913221120","张","479","","","","","","","","","","","","","","","","","","","","","","","","","","","","","","","","","","","","","","","",""
"585","<p style=""color:white; font-size: 35px;"">廉正</p>","i","categorize-html","106","184053","0.0-6.0-1.0-6.0-1.23","4","3","4","3","3","4","3","2","4","4","4","4","4","5","5","4","4","4","1","4","4","5","4","4","3","4","4","5","4","1","0","1","1","0","0","0","1","1","1","1","0","0","0","1","5","4","5","2","4","2","4","5","4","4","598900137913221120","张","479","","","","","","","","","","","","","","","","","","","true","13","3","moral","585","positive","廉正","","","","","","","","","","","","","","",""
"34921","
    <div class=""tag-bottom""><p>
    —— 任务4：对“自我/消极”词和“他人/积极”词分类 ——<p/>
    <span style=""color:#78DCE8""><b>与刚才的任务完全相同，请再次对这四类词语分类</b></span><p/>
    <span style=""color:#FFD866""><b>请根据上方标签的提示，尽可能正确并且快速地做出按键反应</b></span><p/>
    当按键错误时屏幕中会出现<span style=""color:red""> X </span>，需要按另一个键纠正才能继续<br/><p/>
    请把双手食指分别放在键盘的“E”键和“I”键上<p/>
    按<空格键>开始
    </p></div>"," ","html-keyboard-response","107","218974","0.0-6.0-1.0-7.0","4","3","4","3","3","4","3","2","4","4","4","4","4","5","5","4","4","4","1","4","4","5","4","4","3","4","4","5","4","1","0","1","1","0","0","0","1","1","1","1","0","0","0","1","5","4","5","2","4","2","4","5","4","4","598900137913221120","张","479","","","","","","","","","","","","","","","","","","","","","","","","","","","","","","","","","","","","","","","",""
"null","","null","html-keyboard-response","108","219226","0.0-6.0-1.0-8.0-0.0","4","3","4","3","3","4","3","2","4","4","4","4","4","5","5","4","4","4","1","4","4","5","4","4","3","4","4","5","4","1","0","1","1","0","0","0","1","1","1","1","0","0","0","1","5","4","5","2","4","2","4","5","4","4","598900137913221120","张","479","","","","","","","","","","","","","","","","","","","","","","","","","","","","","","","","","","","","","","","",""
"683","<p style=""color:rgb(150, 250, 100); font-size: 35px;"">我的</p>","e","categorize-html","109","219911","0.0-6.0-1.0-8.0-1.0","4","3","4","3","3","4","3","2","4","4","4","4","4","5","5","4","4","4","1","4","4","5","4","4","3","4","4","5","4","1","0","1","1","0","0","0","1","1","1","1","0","0","0","1","5","4","5","2","4","2","4","5","4","4","598900137913221120","张","479","","","","","","","","","","","","","","","","","","","true","14","4","moral","683","self","我的","","","","","","","","","","","","","","",""
"null","","null","html-keyboard-response","110","220163","0.0-6.0-1.0-8.0-0.1","4","3","4","3","3","4","3","2","4","4","4","4","4","5","5","4","4","4","1","4","4","5","4","4","3","4","4","5","4","1","0","1","1","0","0","0","1","1","1","1","0","0","0","1","5","4","5","2","4","2","4","5","4","4","598900137913221120","张","479","","","","","","","","","","","","","","","","","","","","","","","","","","","","","","","","","","","","","","","",""
"731","<p style=""color:white; font-size: 35px;"">不仁</p>","e","categorize-html","111","220896","0.0-6.0-1.0-8.0-1.1","4","3","4","3","3","4","3","2","4","4","4","4","4","5","5","4","4","4","1","4","4","5","4","4","3","4","4","5","4","1","0","1","1","0","0","0","1","1","1","1","0","0","0","1","5","4","5","2","4","2","4","5","4","4","598900137913221120","张","479","","","","","","","","","","","","","","","","","","","true","14","4","moral","731","negative","不仁","","","","","","","","","","","","","","",""
"null","","null","html-keyboard-response","112","221160","0.0-6.0-1.0-8.0-0.2","4","3","4","3","3","4","3","2","4","4","4","4","4","5","5","4","4","4","1","4","4","5","4","4","3","4","4","5","4","1","0","1","1","0","0","0","1","1","1","1","0","0","0","1","5","4","5","2","4","2","4","5","4","4","598900137913221120","张","479","","","","","","","","","","","","","","","","","","","","","","","","","","","","","","","","","","","","","","","",""
"581","<p style=""color:rgb(150, 250, 100); font-size: 35px;"">别人</p>","i","categorize-html","113","221742","0.0-6.0-1.0-8.0-1.2","4","3","4","3","3","4","3","2","4","4","4","4","4","5","5","4","4","4","1","4","4","5","4","4","3","4","4","5","4","1","0","1","1","0","0","0","1","1","1","1","0","0","0","1","5","4","5","2","4","2","4","5","4","4","598900137913221120","张","479","","","","","","","","","","","","","","","","","","","true","14","4","moral","581","other","别人","","","","","","","","","","","","","","",""
"null","","null","html-keyboard-response","114","221994","0.0-6.0-1.0-8.0-0.3","4","3","4","3","3","4","3","2","4","4","4","4","4","5","5","4","4","4","1","4","4","5","4","4","3","4","4","5","4","1","0","1","1","0","0","0","1","1","1","1","0","0","0","1","5","4","5","2","4","2","4","5","4","4","598900137913221120","张","479","","","","","","","","","","","","","","","","","","","","","","","","","","","","","","","","","","","","","","","",""
"601","<p style=""color:white; font-size: 35px;"">正直</p>","i","categorize-html","115","222597","0.0-6.0-1.0-8.0-1.3","4","3","4","3","3","4","3","2","4","4","4","4","4","5","5","4","4","4","1","4","4","5","4","4","3","4","4","5","4","1","0","1","1","0","0","0","1","1","1","1","0","0","0","1","5","4","5","2","4","2","4","5","4","4","598900137913221120","张","479","","","","","","","","","","","","","","","","","","","true","14","4","moral","601","positive","正直","","","","","","","","","","","","","","",""
"null","","null","html-keyboard-response","116","222848","0.0-6.0-1.0-8.0-0.4","4","3","4","3","3","4","3","2","4","4","4","4","4","5","5","4","4","4","1","4","4","5","4","4","3","4","4","5","4","1","0","1","1","0","0","0","1","1","1","1","0","0","0","1","5","4","5","2","4","2","4","5","4","4","598900137913221120","张","479","","","","","","","","","","","","","","","","","","","","","","","","","","","","","","","","","","","","","","","",""
"641","<p style=""color:rgb(150, 250, 100); font-size: 35px;"">我</p>","e","categorize-html","117","223490","0.0-6.0-1.0-8.0-1.4","4","3","4","3","3","4","3","2","4","4","4","4","4","5","5","4","4","4","1","4","4","5","4","4","3","4","4","5","4","1","0","1","1","0","0","0","1","1","1","1","0","0","0","1","5","4","5","2","4","2","4","5","4","4","598900137913221120","张","479","","","","","","","","","","","","","","","","","","","true","14","4","moral","641","self","我","","","","","","","","","","","","","","",""
"null","","null","html-keyboard-response","118","223741","0.0-6.0-1.0-8.0-0.5","4","3","4","3","3","4","3","2","4","4","4","4","4","5","5","4","4","4","1","4","4","5","4","4","3","4","4","5","4","1","0","1","1","0","0","0","1","1","1","1","0","0","0","1","5","4","5","2","4","2","4","5","4","4","598900137913221120","张","479","","","","","","","","","","","","","","","","","","","","","","","","","","","","","","","","","","","","","","","",""
"574","<p style=""color:white; font-size: 35px;"">诚信</p>","i","categorize-html","119","224318","0.0-6.0-1.0-8.0-1.5","4","3","4","3","3","4","3","2","4","4","4","4","4","5","5","4","4","4","1","4","4","5","4","4","3","4","4","5","4","1","0","1","1","0","0","0","1","1","1","1","0","0","0","1","5","4","5","2","4","2","4","5","4","4","598900137913221120","张","479","","","","","","","","","","","","","","","","","","","true","14","4","moral","574","positive","诚信","","","","","","","","","","","","","","",""
"null","","null","html-keyboard-response","120","224568","0.0-6.0-1.0-8.0-0.6","4","3","4","3","3","4","3","2","4","4","4","4","4","5","5","4","4","4","1","4","4","5","4","4","3","4","4","5","4","1","0","1","1","0","0","0","1","1","1","1","0","0","0","1","5","4","5","2","4","2","4","5","4","4","598900137913221120","张","479","","","","","","","","","","","","","","","","","","","","","","","","","","","","","","","","","","","","","","","",""
"910","<p style=""color:rgb(150, 250, 100); font-size: 35px;"">他</p>","i","categorize-html","121","225480","0.0-6.0-1.0-8.0-1.6","4","3","4","3","3","4","3","2","4","4","4","4","4","5","5","4","4","4","1","4","4","5","4","4","3","4","4","5","4","1","0","1","1","0","0","0","1","1","1","1","0","0","0","1","5","4","5","2","4","2","4","5","4","4","598900137913221120","张","479","","","","","","","","","","","","","","","","","","","true","14","4","moral","910","other","他","","","","","","","","","","","","","","",""
"null","","null","html-keyboard-response","122","225731","0.0-6.0-1.0-8.0-0.7","4","3","4","3","3","4","3","2","4","4","4","4","4","5","5","4","4","4","1","4","4","5","4","4","3","4","4","5","4","1","0","1","1","0","0","0","1","1","1","1","0","0","0","1","5","4","5","2","4","2","4","5","4","4","598900137913221120","张","479","","","","","","","","","","","","","","","","","","","","","","","","","","","","","","","","","","","","","","","",""
"639","<p style=""color:white; font-size: 35px;"">不孝</p>","e","categorize-html","123","226373","0.0-6.0-1.0-8.0-1.7","4","3","4","3","3","4","3","2","4","4","4","4","4","5","5","4","4","4","1","4","4","5","4","4","3","4","4","5","4","1","0","1","1","0","0","0","1","1","1","1","0","0","0","1","5","4","5","2","4","2","4","5","4","4","598900137913221120","张","479","","","","","","","","","","","","","","","","","","","true","14","4","moral","639","negative","不孝","","","","","","","","","","","","","","",""
"null","","null","html-keyboard-response","124","226625","0.0-6.0-1.0-8.0-0.8","4","3","4","3","3","4","3","2","4","4","4","4","4","5","5","4","4","4","1","4","4","5","4","4","3","4","4","5","4","1","0","1","1","0","0","0","1","1","1","1","0","0","0","1","5","4","5","2","4","2","4","5","4","4","598900137913221120","张","479","","","","","","","","","","","","","","","","","","","","","","","","","","","","","","","","","","","","","","","",""
"713","<p style=""color:rgb(150, 250, 100); font-size: 35px;"">本人的</p>","e","categorize-html","125","227340","0.0-6.0-1.0-8.0-1.8","4","3","4","3","3","4","3","2","4","4","4","4","4","5","5","4","4","4","1","4","4","5","4","4","3","4","4","5","4","1","0","1","1","0","0","0","1","1","1","1","0","0","0","1","5","4","5","2","4","2","4","5","4","4","598900137913221120","张","479","","","","","","","","","","","","","","","","","","","true","14","4","moral","713","self","本人的","","","","","","","","","","","","","","",""
"null","","null","html-keyboard-response","126","227591","0.0-6.0-1.0-8.0-0.9","4","3","4","3","3","4","3","2","4","4","4","4","4","5","5","4","4","4","1","4","4","5","4","4","3","4","4","5","4","1","0","1","1","0","0","0","1","1","1","1","0","0","0","1","5","4","5","2","4","2","4","5","4","4","598900137913221120","张","479","","","","","","","","","","","","","","","","","","","","","","","","","","","","","","","","","","","","","","","",""
"666","<p style=""color:white; font-size: 35px;"">正直</p>","i","categorize-html","127","228259","0.0-6.0-1.0-8.0-1.9","4","3","4","3","3","4","3","2","4","4","4","4","4","5","5","4","4","4","1","4","4","5","4","4","3","4","4","5","4","1","0","1","1","0","0","0","1","1","1","1","0","0","0","1","5","4","5","2","4","2","4","5","4","4","598900137913221120","张","479","","","","","","","","","","","","","","","","","","","true","14","4","moral","666","positive","正直","","","","","","","","","","","","","","",""
"null","","null","html-keyboard-response","128","228510","0.0-6.0-1.0-8.0-0.10","4","3","4","3","3","4","3","2","4","4","4","4","4","5","5","4","4","4","1","4","4","5","4","4","3","4","4","5","4","1","0","1","1","0","0","0","1","1","1","1","0","0","0","1","5","4","5","2","4","2","4","5","4","4","598900137913221120","张","479","","","","","","","","","","","","","","","","","","","","","","","","","","","","","","","","","","","","","","","",""
"678","<p style=""color:rgb(150, 250, 100); font-size: 35px;"">他</p>","i","categorize-html","129","229190","0.0-6.0-1.0-8.0-1.10","4","3","4","3","3","4","3","2","4","4","4","4","4","5","5","4","4","4","1","4","4","5","4","4","3","4","4","5","4","1","0","1","1","0","0","0","1","1","1","1","0","0","0","1","5","4","5","2","4","2","4","5","4","4","598900137913221120","张","479","","","","","","","","","","","","","","","","","","","true","14","4","moral","678","other","他","","","","","","","","","","","","","","",""
"null","","null","html-keyboard-response","130","229442","0.0-6.0-1.0-8.0-0.11","4","3","4","3","3","4","3","2","4","4","4","4","4","5","5","4","4","4","1","4","4","5","4","4","3","4","4","5","4","1","0","1","1","0","0","0","1","1","1","1","0","0","0","1","5","4","5","2","4","2","4","5","4","4","598900137913221120","张","479","","","","","","","","","","","","","","","","","","","","","","","","","","","","","","","","","","","","","","","",""
"667","<p style=""color:white; font-size: 35px;"">小人</p>","e","categorize-html","131","230111","0.0-6.0-1.0-8.0-1.11","4","3","4","3","3","4","3","2","4","4","4","4","4","5","5","4","4","4","1","4","4","5","4","4","3","4","4","5","4","1","0","1","1","0","0","0","1","1","1","1","0","0","0","1","5","4","5","2","4","2","4","5","4","4","598900137913221120","张","479","","","","","","","","","","","","","","","","","","","true","14","4","moral","667","negative","小人","","","","","","","","","","","","","","",""
"null","","null","html-keyboard-response","132","230362","0.0-6.0-1.0-8.0-0.12","4","3","4","3","3","4","3","2","4","4","4","4","4","5","5","4","4","4","1","4","4","5","4","4","3","4","4","5","4","1","0","1","1","0","0","0","1","1","1","1","0","0","0","1","5","4","5","2","4","2","4","5","4","4","598900137913221120","张","479","","","","","","","","","","","","","","","","","","","","","","","","","","","","","","","","","","","","","","","",""
"725","<p style=""color:rgb(150, 250, 100); font-size: 35px;"">他人的</p>","i","categorize-html","133","231090","0.0-6.0-1.0-8.0-1.12","4","3","4","3","3","4","3","2","4","4","4","4","4","5","5","4","4","4","1","4","4","5","4","4","3","4","4","5","4","1","0","1","1","0","0","0","1","1","1","1","0","0","0","1","5","4","5","2","4","2","4","5","4","4","598900137913221120","张","479","","","","","","","","","","","","","","","","","","","true","14","4","moral","725","other","他人的","","","","","","","","","","","","","","",""
"null","","null","html-keyboard-response","134","231341","0.0-6.0-1.0-8.0-0.13","4","3","4","3","3","4","3","2","4","4","4","4","4","5","5","4","4","4","1","4","4","5","4","4","3","4","4","5","4","1","0","1","1","0","0","0","1","1","1","1","0","0","0","1","5","4","5","2","4","2","4","5","4","4","598900137913221120","张","479","","","","","","","","","","","","","","","","","","","","","","","","","","","","","","","","","","","","","","","",""
"711","<p style=""color:white; font-size: 35px;"">廉正</p>","i","categorize-html","135","232054","0.0-6.0-1.0-8.0-1.13","4","3","4","3","3","4","3","2","4","4","4","4","4","5","5","4","4","4","1","4","4","5","4","4","3","4","4","5","4","1","0","1","1","0","0","0","1","1","1","1","0","0","0","1","5","4","5","2","4","2","4","5","4","4","598900137913221120","张","479","","","","","","","","","","","","","","","","","","","true","14","4","moral","711","positive","廉正","","","","","","","","","","","","","","",""
"null","","null","html-keyboard-response","136","232306","0.0-6.0-1.0-8.0-0.14","4","3","4","3","3","4","3","2","4","4","4","4","4","5","5","4","4","4","1","4","4","5","4","4","3","4","4","5","4","1","0","1","1","0","0","0","1","1","1","1","0","0","0","1","5","4","5","2","4","2","4","5","4","4","598900137913221120","张","479","","","","","","","","","","","","","","","","","","","","","","","","","","","","","","","","","","","","","","","",""
"793","<p style=""color:rgb(150, 250, 100); font-size: 35px;"">我的</p>","e","categorize-html","137","233101","0.0-6.0-1.0-8.0-1.14","4","3","4","3","3","4","3","2","4","4","4","4","4","5","5","4","4","4","1","4","4","5","4","4","3","4","4","5","4","1","0","1","1","0","0","0","1","1","1","1","0","0","0","1","5","4","5","2","4","2","4","5","4","4","598900137913221120","张","479","","","","","","","","","","","","","","","","","","","true","14","4","moral","793","self","我的","","","","","","","","","","","","","","",""
"null","","null","html-keyboard-response","138","233353","0.0-6.0-1.0-8.0-0.15","4","3","4","3","3","4","3","2","4","4","4","4","4","5","5","4","4","4","1","4","4","5","4","4","3","4","4","5","4","1","0","1","1","0","0","0","1","1","1","1","0","0","0","1","5","4","5","2","4","2","4","5","4","4","598900137913221120","张","479","","","","","","","","","","","","","","","","","","","","","","","","","","","","","","","","","","","","","","","",""
"700","<p style=""color:white; font-size: 35px;"">不仁</p>","e","categorize-html","139","234055","0.0-6.0-1.0-8.0-1.15","4","3","4","3","3","4","3","2","4","4","4","4","4","5","5","4","4","4","1","4","4","5","4","4","3","4","4","5","4","1","0","1","1","0","0","0","1","1","1","1","0","0","0","1","5","4","5","2","4","2","4","5","4","4","598900137913221120","张","479","","","","","","","","","","","","","","","","","","","true","14","4","moral","700","negative","不仁","","","","","","","","","","","","","","",""
"null","","null","html-keyboard-response","140","234306","0.0-6.0-1.0-8.0-0.16","4","3","4","3","3","4","3","2","4","4","4","4","4","5","5","4","4","4","1","4","4","5","4","4","3","4","4","5","4","1","0","1","1","0","0","0","1","1","1","1","0","0","0","1","5","4","5","2","4","2","4","5","4","4","598900137913221120","张","479","","","","","","","","","","","","","","","","","","","","","","","","","","","","","","","","","","","","","","","",""
"896","<p style=""color:rgb(150, 250, 100); font-size: 35px;"">本人</p>","e","categorize-html","141","235205","0.0-6.0-1.0-8.0-1.16","4","3","4","3","3","4","3","2","4","4","4","4","4","5","5","4","4","4","1","4","4","5","4","4","3","4","4","5","4","1","0","1","1","0","0","0","1","1","1","1","0","0","0","1","5","4","5","2","4","2","4","5","4","4","598900137913221120","张","479","","","","","","","","","","","","","","","","","","","true","14","4","moral","896","self","本人","","","","","","","","","","","","","","",""
"null","","null","html-keyboard-response","142","235456","0.0-6.0-1.0-8.0-0.17","4","3","4","3","3","4","3","2","4","4","4","4","4","5","5","4","4","4","1","4","4","5","4","4","3","4","4","5","4","1","0","1","1","0","0","0","1","1","1","1","0","0","0","1","5","4","5","2","4","2","4","5","4","4","598900137913221120","张","479","","","","","","","","","","","","","","","","","","","","","","","","","","","","","","","","","","","","","","","",""
"1042","<p style=""color:white; font-size: 35px;"">廉正</p>","i","categorize-html","143","236499","0.0-6.0-1.0-8.0-1.17","4","3","4","3","3","4","3","2","4","4","4","4","4","5","5","4","4","4","1","4","4","5","4","4","3","4","4","5","4","1","0","1","1","0","0","0","1","1","1","1","0","0","0","1","5","4","5","2","4","2","4","5","4","4","598900137913221120","张","479","","","","","","","","","","","","","","","","","","","true","14","4","moral","1042","positive","廉正","","","","","","","","","","","","","","",""
"null","","null","html-keyboard-response","144","236751","0.0-6.0-1.0-8.0-0.18","4","3","4","3","3","4","3","2","4","4","4","4","4","5","5","4","4","4","1","4","4","5","4","4","3","4","4","5","4","1","0","1","1","0","0","0","1","1","1","1","0","0","0","1","5","4","5","2","4","2","4","5","4","4","598900137913221120","张","479","","","","","","","","","","","","","","","","","","","","","","","","","","","","","","","","","","","","","","","",""
"1277","<p style=""color:rgb(150, 250, 100); font-size: 35px;"">他人</p>","i","categorize-html","145","238030","0.0-6.0-1.0-8.0-1.18","4","3","4","3","3","4","3","2","4","4","4","4","4","5","5","4","4","4","1","4","4","5","4","4","3","4","4","5","4","1","0","1","1","0","0","0","1","1","1","1","0","0","0","1","5","4","5","2","4","2","4","5","4","4","598900137913221120","张","479","","","","","","","","","","","","","","","","","","","true","14","4","moral","1277","other","他人","","","","","","","","","","","","","","",""
"null","","null","html-keyboard-response","146","238281","0.0-6.0-1.0-8.0-0.19","4","3","4","3","3","4","3","2","4","4","4","4","4","5","5","4","4","4","1","4","4","5","4","4","3","4","4","5","4","1","0","1","1","0","0","0","1","1","1","1","0","0","0","1","5","4","5","2","4","2","4","5","4","4","598900137913221120","张","479","","","","","","","","","","","","","","","","","","","","","","","","","","","","","","","","","","","","","","","",""
"584","<p style=""color:white; font-size: 35px;"">黑心</p>","e","categorize-html","147","238867","0.0-6.0-1.0-8.0-1.19","4","3","4","3","3","4","3","2","4","4","4","4","4","5","5","4","4","4","1","4","4","5","4","4","3","4","4","5","4","1","0","1","1","0","0","0","1","1","1","1","0","0","0","1","5","4","5","2","4","2","4","5","4","4","598900137913221120","张","479","","","","","","","","","","","","","","","","","","","true","14","4","moral","584","negative","黑心","","","","","","","","","","","","","","",""
"null","","null","html-keyboard-response","148","239118","0.0-6.0-1.0-8.0-0.20","4","3","4","3","3","4","3","2","4","4","4","4","4","5","5","4","4","4","1","4","4","5","4","4","3","4","4","5","4","1","0","1","1","0","0","0","1","1","1","1","0","0","0","1","5","4","5","2","4","2","4","5","4","4","598900137913221120","张","479","","","","","","","","","","","","","","","","","","","","","","","","","","","","","","","","","","","","","","","",""
"639","<p style=""color:rgb(150, 250, 100); font-size: 35px;"">别人的</p>","i","categorize-html","149","239760","0.0-6.0-1.0-8.0-1.20","4","3","4","3","3","4","3","2","4","4","4","4","4","5","5","4","4","4","1","4","4","5","4","4","3","4","4","5","4","1","0","1","1","0","0","0","1","1","1","1","0","0","0","1","5","4","5","2","4","2","4","5","4","4","598900137913221120","张","479","","","","","","","","","","","","","","","","","","","true","14","4","moral","639","other","别人的","","","","","","","","","","","","","","",""
"null","","null","html-keyboard-response","150","240011","0.0-6.0-1.0-8.0-0.21","4","3","4","3","3","4","3","2","4","4","4","4","4","5","5","4","4","4","1","4","4","5","4","4","3","4","4","5","4","1","0","1","1","0","0","0","1","1","1","1","0","0","0","1","5","4","5","2","4","2","4","5","4","4","598900137913221120","张","479","","","","","","","","","","","","","","","","","","","","","","","","","","","","","","","","","","","","","","","",""
"640","<p style=""color:white; font-size: 35px;"">善良</p>","i","categorize-html","151","240652","0.0-6.0-1.0-8.0-1.21","4","3","4","3","3","4","3","2","4","4","4","4","4","5","5","4","4","4","1","4","4","5","4","4","3","4","4","5","4","1","0","1","1","0","0","0","1","1","1","1","0","0","0","1","5","4","5","2","4","2","4","5","4","4","598900137913221120","张","479","","","","","","","","","","","","","","","","","","","true","14","4","moral","640","positive","善良","","","","","","","","","","","","","","",""
"null","","null","html-keyboard-response","152","240904","0.0-6.0-1.0-8.0-0.22","4","3","4","3","3","4","3","2","4","4","4","4","4","5","5","4","4","4","1","4","4","5","4","4","3","4","4","5","4","1","0","1","1","0","0","0","1","1","1","1","0","0","0","1","5","4","5","2","4","2","4","5","4","4","598900137913221120","张","479","","","","","","","","","","","","","","","","","","","","","","","","","","","","","","","","","","","","","","","",""
"787","<p style=""color:rgb(150, 250, 100); font-size: 35px;"">自己</p>","e","categorize-html","153","241693","0.0-6.0-1.0-8.0-1.22","4","3","4","3","3","4","3","2","4","4","4","4","4","5","5","4","4","4","1","4","4","5","4","4","3","4","4","5","4","1","0","1","1","0","0","0","1","1","1","1","0","0","0","1","5","4","5","2","4","2","4","5","4","4","598900137913221120","张","479","","","","","","","","","","","","","","","","","","","true","14","4","moral","787","self","自己","","","","","","","","","","","","","","",""
"null","","null","html-keyboard-response","154","241945","0.0-6.0-1.0-8.0-0.23","4","3","4","3","3","4","3","2","4","4","4","4","4","5","5","4","4","4","1","4","4","5","4","4","3","4","4","5","4","1","0","1","1","0","0","0","1","1","1","1","0","0","0","1","5","4","5","2","4","2","4","5","4","4","598900137913221120","张","479","","","","","","","","","","","","","","","","","","","","","","","","","","","","","","","","","","","","","","","",""
"690","<p style=""color:white; font-size: 35px;"">小人</p>","e","categorize-html","155","242636","0.0-6.0-1.0-8.0-1.23","4","3","4","3","3","4","3","2","4","4","4","4","4","5","5","4","4","4","1","4","4","5","4","4","3","4","4","5","4","1","0","1","1","0","0","0","1","1","1","1","0","0","0","1","5","4","5","2","4","2","4","5","4","4","598900137913221120","张","479","","","","","","","","","","","","","","","","","","","true","14","4","moral","690","negative","小人","","","","","","","","","","","","","","",""
"null","","null","html-keyboard-response","156","242888","0.0-6.0-1.0-8.0-0.24","4","3","4","3","3","4","3","2","4","4","4","4","4","5","5","4","4","4","1","4","4","5","4","4","3","4","4","5","4","1","0","1","1","0","0","0","1","1","1","1","0","0","0","1","5","4","5","2","4","2","4","5","4","4","598900137913221120","张","479","","","","","","","","","","","","","","","","","","","","","","","","","","","","","","","","","","","","","","","",""
"618","<p style=""color:rgb(150, 250, 100); font-size: 35px;"">别人的</p>","i","categorize-html","157","243508","0.0-6.0-1.0-8.0-1.24","4","3","4","3","3","4","3","2","4","4","4","4","4","5","5","4","4","4","1","4","4","5","4","4","3","4","4","5","4","1","0","1","1","0","0","0","1","1","1","1","0","0","0","1","5","4","5","2","4","2","4","5","4","4","598900137913221120","张","479","","","","","","","","","","","","","","","","","","","true","14","4","moral","618","other","别人的","","","","","","","","","","","","","","",""
"null","","null","html-keyboard-response","158","243759","0.0-6.0-1.0-8.0-0.25","4","3","4","3","3","4","3","2","4","4","4","4","4","5","5","4","4","4","1","4","4","5","4","4","3","4","4","5","4","1","0","1","1","0","0","0","1","1","1","1","0","0","0","1","5","4","5","2","4","2","4","5","4","4","598900137913221120","张","479","","","","","","","","","","","","","","","","","","","","","","","","","","","","","","","","","","","","","","","",""
"808","<p style=""color:white; font-size: 35px;"">缺德</p>","e","categorize-html","159","244569","0.0-6.0-1.0-8.0-1.25","4","3","4","3","3","4","3","2","4","4","4","4","4","5","5","4","4","4","1","4","4","5","4","4","3","4","4","5","4","1","0","1","1","0","0","0","1","1","1","1","0","0","0","1","5","4","5","2","4","2","4","5","4","4","598900137913221120","张","479","","","","","","","","","","","","","","","","","","","true","14","4","moral","808","negative","缺德","","","","","","","","","","","","","","",""
"null","","null","html-keyboard-response","160","244821","0.0-6.0-1.0-8.0-0.26","4","3","4","3","3","4","3","2","4","4","4","4","4","5","5","4","4","4","1","4","4","5","4","4","3","4","4","5","4","1","0","1","1","0","0","0","1","1","1","1","0","0","0","1","5","4","5","2","4","2","4","5","4","4","598900137913221120","张","479","","","","","","","","","","","","","","","","","","","","","","","","","","","","","","","","","","","","","","","",""
"1010","<p style=""color:rgb(150, 250, 100); font-size: 35px;"">我</p>","e","categorize-html","161","245834","0.0-6.0-1.0-8.0-1.26","4","3","4","3","3","4","3","2","4","4","4","4","4","5","5","4","4","4","1","4","4","5","4","4","3","4","4","5","4","1","0","1","1","0","0","0","1","1","1","1","0","0","0","1","5","4","5","2","4","2","4","5","4","4","598900137913221120","张","479","","","","","","","","","","","","","","","","","","","true","14","4","moral","1010","self","我","","","","","","","","","","","","","","",""
"null","","null","html-keyboard-response","162","246086","0.0-6.0-1.0-8.0-0.27","4","3","4","3","3","4","3","2","4","4","4","4","4","5","5","4","4","4","1","4","4","5","4","4","3","4","4","5","4","1","0","1","1","0","0","0","1","1","1","1","0","0","0","1","5","4","5","2","4","2","4","5","4","4","598900137913221120","张","479","","","","","","","","","","","","","","","","","","","","","","","","","","","","","","","","","","","","","","","",""
"598","<p style=""color:white; font-size: 35px;"">诚信</p>","i","categorize-html","163","246687","0.0-6.0-1.0-8.0-1.27","4","3","4","3","3","4","3","2","4","4","4","4","4","5","5","4","4","4","1","4","4","5","4","4","3","4","4","5","4","1","0","1","1","0","0","0","1","1","1","1","0","0","0","1","5","4","5","2","4","2","4","5","4","4","598900137913221120","张","479","","","","","","","","","","","","","","","","","","","true","14","4","moral","598","positive","诚信","","","","","","","","","","","","","","",""
"null","","null","html-keyboard-response","164","246938","0.0-6.0-1.0-8.0-0.28","4","3","4","3","3","4","3","2","4","4","4","4","4","5","5","4","4","4","1","4","4","5","4","4","3","4","4","5","4","1","0","1","1","0","0","0","1","1","1","1","0","0","0","1","5","4","5","2","4","2","4","5","4","4","598900137913221120","张","479","","","","","","","","","","","","","","","","","","","","","","","","","","","","","","","","","","","","","","","",""
"619","<p style=""color:rgb(150, 250, 100); font-size: 35px;"">他人的</p>","i","categorize-html","165","247559","0.0-6.0-1.0-8.0-1.28","4","3","4","3","3","4","3","2","4","4","4","4","4","5","5","4","4","4","1","4","4","5","4","4","3","4","4","5","4","1","0","1","1","0","0","0","1","1","1","1","0","0","0","1","5","4","5","2","4","2","4","5","4","4","598900137913221120","张","479","","","","","","","","","","","","","","","","","","","true","14","4","moral","619","other","他人的","","","","","","","","","","","","","","",""
"null","","null","html-keyboard-response","166","247811","0.0-6.0-1.0-8.0-0.29","4","3","4","3","3","4","3","2","4","4","4","4","4","5","5","4","4","4","1","4","4","5","4","4","3","4","4","5","4","1","0","1","1","0","0","0","1","1","1","1","0","0","0","1","5","4","5","2","4","2","4","5","4","4","598900137913221120","张","479","","","","","","","","","","","","","","","","","","","","","","","","","","","","","","","","","","","","","","","",""
"648","<p style=""color:white; font-size: 35px;"">黑心</p>","e","categorize-html","167","248461","0.0-6.0-1.0-8.0-1.29","4","3","4","3","3","4","3","2","4","4","4","4","4","5","5","4","4","4","1","4","4","5","4","4","3","4","4","5","4","1","0","1","1","0","0","0","1","1","1","1","0","0","0","1","5","4","5","2","4","2","4","5","4","4","598900137913221120","张","479","","","","","","","","","","","","","","","","","","","true","14","4","moral","648","negative","黑心","","","","","","","","","","","","","","",""
"null","","null","html-keyboard-response","168","248713","0.0-6.0-1.0-8.0-0.30","4","3","4","3","3","4","3","2","4","4","4","4","4","5","5","4","4","4","1","4","4","5","4","4","3","4","4","5","4","1","0","1","1","0","0","0","1","1","1","1","0","0","0","1","5","4","5","2","4","2","4","5","4","4","598900137913221120","张","479","","","","","","","","","","","","","","","","","","","","","","","","","","","","","","","","","","","","","","","",""
"946","<p style=""color:rgb(150, 250, 100); font-size: 35px;"">自己的</p>","e","categorize-html","169","249660","0.0-6.0-1.0-8.0-1.30","4","3","4","3","3","4","3","2","4","4","4","4","4","5","5","4","4","4","1","4","4","5","4","4","3","4","4","5","4","1","0","1","1","0","0","0","1","1","1","1","0","0","0","1","5","4","5","2","4","2","4","5","4","4","598900137913221120","张","479","","","","","","","","","","","","","","","","","","","true","14","4","moral","946","self","自己的","","","","","","","","","","","","","","",""
"null","","null","html-keyboard-response","170","249912","0.0-6.0-1.0-8.0-0.31","4","3","4","3","3","4","3","2","4","4","4","4","4","5","5","4","4","4","1","4","4","5","4","4","3","4","4","5","4","1","0","1","1","0","0","0","1","1","1","1","0","0","0","1","5","4","5","2","4","2","4","5","4","4","598900137913221120","张","479","","","","","","","","","","","","","","","","","","","","","","","","","","","","","","","","","","","","","","","",""
"918","<p style=""color:white; font-size: 35px;"">君子</p>","i","categorize-html","171","250832","0.0-6.0-1.0-8.0-1.31","4","3","4","3","3","4","3","2","4","4","4","4","4","5","5","4","4","4","1","4","4","5","4","4","3","4","4","5","4","1","0","1","1","0","0","0","1","1","1","1","0","0","0","1","5","4","5","2","4","2","4","5","4","4","598900137913221120","张","479","","","","","","","","","","","","","","","","","","","true","14","4","moral","918","positive","君子","","","","","","","","","","","","","","",""
"null","","null","html-keyboard-response","172","251084","0.0-6.0-1.0-8.0-0.32","4","3","4","3","3","4","3","2","4","4","4","4","4","5","5","4","4","4","1","4","4","5","4","4","3","4","4","5","4","1","0","1","1","0","0","0","1","1","1","1","0","0","0","1","5","4","5","2","4","2","4","5","4","4","598900137913221120","张","479","","","","","","","","","","","","","","","","","","","","","","","","","","","","","","","","","","","","","","","",""
"2353","<p style=""color:rgb(150, 250, 100); font-size: 35px;"">他人</p>","i","categorize-html","173","253440","0.0-6.0-1.0-8.0-1.32","4","3","4","3","3","4","3","2","4","4","4","4","4","5","5","4","4","4","1","4","4","5","4","4","3","4","4","5","4","1","0","1","1","0","0","0","1","1","1","1","0","0","0","1","5","4","5","2","4","2","4","5","4","4","598900137913221120","张","479","","","","","","","","","","","","","","","","","","","true","14","4","moral","2353","other","他人","","","","","","","","","","","","","","",""
"null","","null","html-keyboard-response","174","253692","0.0-6.0-1.0-8.0-0.33","4","3","4","3","3","4","3","2","4","4","4","4","4","5","5","4","4","4","1","4","4","5","4","4","3","4","4","5","4","1","0","1","1","0","0","0","1","1","1","1","0","0","0","1","5","4","5","2","4","2","4","5","4","4","598900137913221120","张","479","","","","","","","","","","","","","","","","","","","","","","","","","","","","","","","","","","","","","","","",""
"571","<p style=""color:white; font-size: 35px;"">卑鄙</p>","e","categorize-html","175","254265","0.0-6.0-1.0-8.0-1.33","4","3","4","3","3","4","3","2","4","4","4","4","4","5","5","4","4","4","1","4","4","5","4","4","3","4","4","5","4","1","0","1","1","0","0","0","1","1","1","1","0","0","0","1","5","4","5","2","4","2","4","5","4","4","598900137913221120","张","479","","","","","","","","","","","","","","","","","","","true","14","4","moral","571","negative","卑鄙","","","","","","","","","","","","","","",""
"null","","null","html-keyboard-response","176","254517","0.0-6.0-1.0-8.0-0.34","4","3","4","3","3","4","3","2","4","4","4","4","4","5","5","4","4","4","1","4","4","5","4","4","3","4","4","5","4","1","0","1","1","0","0","0","1","1","1","1","0","0","0","1","5","4","5","2","4","2","4","5","4","4","598900137913221120","张","479","","","","","","","","","","","","","","","","","","","","","","","","","","","","","","","","","","","","","","","",""
"680","<p style=""color:rgb(150, 250, 100); font-size: 35px;"">自己</p>","e","categorize-html","177","255198","0.0-6.0-1.0-8.0-1.34","4","3","4","3","3","4","3","2","4","4","4","4","4","5","5","4","4","4","1","4","4","5","4","4","3","4","4","5","4","1","0","1","1","0","0","0","1","1","1","1","0","0","0","1","5","4","5","2","4","2","4","5","4","4","598900137913221120","张","479","","","","","","","","","","","","","","","","","","","true","14","4","moral","680","self","自己","","","","","","","","","","","","","","",""
"null","","null","html-keyboard-response","178","255451","0.0-6.0-1.0-8.0-0.35","4","3","4","3","3","4","3","2","4","4","4","4","4","5","5","4","4","4","1","4","4","5","4","4","3","4","4","5","4","1","0","1","1","0","0","0","1","1","1","1","0","0","0","1","5","4","5","2","4","2","4","5","4","4","598900137913221120","张","479","","","","","","","","","","","","","","","","","","","","","","","","","","","","","","","","","","","","","","","",""
"597","<p style=""color:white; font-size: 35px;"">高尚</p>","i","categorize-html","179","256049","0.0-6.0-1.0-8.0-1.35","4","3","4","3","3","4","3","2","4","4","4","4","4","5","5","4","4","4","1","4","4","5","4","4","3","4","4","5","4","1","0","1","1","0","0","0","1","1","1","1","0","0","0","1","5","4","5","2","4","2","4","5","4","4","598900137913221120","张","479","","","","","","","","","","","","","","","","","","","true","14","4","moral","597","positive","高尚","","","","","","","","","","","","","","",""
"null","","null","html-keyboard-response","180","256301","0.0-6.0-1.0-8.0-0.36","4","3","4","3","3","4","3","2","4","4","4","4","4","5","5","4","4","4","1","4","4","5","4","4","3","4","4","5","4","1","0","1","1","0","0","0","1","1","1","1","0","0","0","1","5","4","5","2","4","2","4","5","4","4","598900137913221120","张","479","","","","","","","","","","","","","","","","","","","","","","","","","","","","","","","","","","","","","","","",""
"685","<p style=""color:rgb(150, 250, 100); font-size: 35px;"">别人</p>","i","categorize-html","181","256989","0.0-6.0-1.0-8.0-1.36","4","3","4","3","3","4","3","2","4","4","4","4","4","5","5","4","4","4","1","4","4","5","4","4","3","4","4","5","4","1","0","1","1","0","0","0","1","1","1","1","0","0","0","1","5","4","5","2","4","2","4","5","4","4","598900137913221120","张","479","","","","","","","","","","","","","","","","","","","true","14","4","moral","685","other","别人","","","","","","","","","","","","","","",""
"null","","null","html-keyboard-response","182","257240","0.0-6.0-1.0-8.0-0.37","4","3","4","3","3","4","3","2","4","4","4","4","4","5","5","4","4","4","1","4","4","5","4","4","3","4","4","5","4","1","0","1","1","0","0","0","1","1","1","1","0","0","0","1","5","4","5","2","4","2","4","5","4","4","598900137913221120","张","479","","","","","","","","","","","","","","","","","","","","","","","","","","","","","","","","","","","","","","","",""
"649","<p style=""color:white; font-size: 35px;"">卑鄙</p>","e","categorize-html","183","257891","0.0-6.0-1.0-8.0-1.37","4","3","4","3","3","4","3","2","4","4","4","4","4","5","5","4","4","4","1","4","4","5","4","4","3","4","4","5","4","1","0","1","1","0","0","0","1","1","1","1","0","0","0","1","5","4","5","2","4","2","4","5","4","4","598900137913221120","张","479","","","","","","","","","","","","","","","","","","","true","14","4","moral","649","negative","卑鄙","","","","","","","","","","","","","","",""
"null","","null","html-keyboard-response","184","258143","0.0-6.0-1.0-8.0-0.38","4","3","4","3","3","4","3","2","4","4","4","4","4","5","5","4","4","4","1","4","4","5","4","4","3","4","4","5","4","1","0","1","1","0","0","0","1","1","1","1","0","0","0","1","5","4","5","2","4","2","4","5","4","4","598900137913221120","张","479","","","","","","","","","","","","","","","","","","","","","","","","","","","","","","","","","","","","","","","",""
"783","<p style=""color:rgb(150, 250, 100); font-size: 35px;"">自己的</p>","e","categorize-html","185","258929","0.0-6.0-1.0-8.0-1.38","4","3","4","3","3","4","3","2","4","4","4","4","4","5","5","4","4","4","1","4","4","5","4","4","3","4","4","5","4","1","0","1","1","0","0","0","1","1","1","1","0","0","0","1","5","4","5","2","4","2","4","5","4","4","598900137913221120","张","479","","","","","","","","","","","","","","","","","","","true","14","4","moral","783","self","自己的","","","","","","","","","","","","","","",""
"null","","null","html-keyboard-response","186","259180","0.0-6.0-1.0-8.0-0.39","4","3","4","3","3","4","3","2","4","4","4","4","4","5","5","4","4","4","1","4","4","5","4","4","3","4","4","5","4","1","0","1","1","0","0","0","1","1","1","1","0","0","0","1","5","4","5","2","4","2","4","5","4","4","598900137913221120","张","479","","","","","","","","","","","","","","","","","","","","","","","","","","","","","","","","","","","","","","","",""
"826","<p style=""color:white; font-size: 35px;"">君子</p>","i","categorize-html","187","260008","0.0-6.0-1.0-8.0-1.39","4","3","4","3","3","4","3","2","4","4","4","4","4","5","5","4","4","4","1","4","4","5","4","4","3","4","4","5","4","1","0","1","1","0","0","0","1","1","1","1","0","0","0","1","5","4","5","2","4","2","4","5","4","4","598900137913221120","张","479","","","","","","","","","","","","","","","","","","","true","14","4","moral","826","positive","君子","","","","","","","","","","","","","","",""
"null","","null","html-keyboard-response","188","260268","0.0-6.0-1.0-8.0-0.40","4","3","4","3","3","4","3","2","4","4","4","4","4","5","5","4","4","4","1","4","4","5","4","4","3","4","4","5","4","1","0","1","1","0","0","0","1","1","1","1","0","0","0","1","5","4","5","2","4","2","4","5","4","4","598900137913221120","张","479","","","","","","","","","","","","","","","","","","","","","","","","","","","","","","","","","","","","","","","",""
"1476","<p style=""color:rgb(150, 250, 100); font-size: 35px;"">他的</p>","i","categorize-html","189","261746","0.0-6.0-1.0-8.0-1.40","4","3","4","3","3","4","3","2","4","4","4","4","4","5","5","4","4","4","1","4","4","5","4","4","3","4","4","5","4","1","0","1","1","0","0","0","1","1","1","1","0","0","0","1","5","4","5","2","4","2","4","5","4","4","598900137913221120","张","479","","","","","","","","","","","","","","","","","","","true","14","4","moral","1476","other","他的","","","","","","","","","","","","","","",""
"null","","null","html-keyboard-response","190","261997","0.0-6.0-1.0-8.0-0.41","4","3","4","3","3","4","3","2","4","4","4","4","4","5","5","4","4","4","1","4","4","5","4","4","3","4","4","5","4","1","0","1","1","0","0","0","1","1","1","1","0","0","0","1","5","4","5","2","4","2","4","5","4","4","598900137913221120","张","479","","","","","","","","","","","","","","","","","","","","","","","","","","","","","","","","","","","","","","","",""
"1543","<p style=""color:white; font-size: 35px;"">善良</p>","i","categorize-html","191","263542","0.0-6.0-1.0-8.0-1.41","4","3","4","3","3","4","3","2","4","4","4","4","4","5","5","4","4","4","1","4","4","5","4","4","3","4","4","5","4","1","0","1","1","0","0","0","1","1","1","1","0","0","0","1","5","4","5","2","4","2","4","5","4","4","598900137913221120","张","479","","","","","","","","","","","","","","","","","","","true","14","4","moral","1543","positive","善良","","","","","","","","","","","","","","",""
"null","","null","html-keyboard-response","192","263794","0.0-6.0-1.0-8.0-0.42","4","3","4","3","3","4","3","2","4","4","4","4","4","5","5","4","4","4","1","4","4","5","4","4","3","4","4","5","4","1","0","1","1","0","0","0","1","1","1","1","0","0","0","1","5","4","5","2","4","2","4","5","4","4","598900137913221120","张","479","","","","","","","","","","","","","","","","","","","","","","","","","","","","","","","","","","","","","","","",""
"921","<p style=""color:rgb(150, 250, 100); font-size: 35px;"">本人</p>","e","categorize-html","193","264717","0.0-6.0-1.0-8.0-1.42","4","3","4","3","3","4","3","2","4","4","4","4","4","5","5","4","4","4","1","4","4","5","4","4","3","4","4","5","4","1","0","1","1","0","0","0","1","1","1","1","0","0","0","1","5","4","5","2","4","2","4","5","4","4","598900137913221120","张","479","","","","","","","","","","","","","","","","","","","true","14","4","moral","921","self","本人","","","","","","","","","","","","","","",""
"null","","null","html-keyboard-response","194","264968","0.0-6.0-1.0-8.0-0.43","4","3","4","3","3","4","3","2","4","4","4","4","4","5","5","4","4","4","1","4","4","5","4","4","3","4","4","5","4","1","0","1","1","0","0","0","1","1","1","1","0","0","0","1","5","4","5","2","4","2","4","5","4","4","598900137913221120","张","479","","","","","","","","","","","","","","","","","","","","","","","","","","","","","","","","","","","","","","","",""
"717","<p style=""color:white; font-size: 35px;"">不孝</p>","e","categorize-html","195","265687","0.0-6.0-1.0-8.0-1.43","4","3","4","3","3","4","3","2","4","4","4","4","4","5","5","4","4","4","1","4","4","5","4","4","3","4","4","5","4","1","0","1","1","0","0","0","1","1","1","1","0","0","0","1","5","4","5","2","4","2","4","5","4","4","598900137913221120","张","479","","","","","","","","","","","","","","","","","","","true","14","4","moral","717","negative","不孝","","","","","","","","","","","","","","",""
"null","","null","html-keyboard-response","196","265939","0.0-6.0-1.0-8.0-0.44","4","3","4","3","3","4","3","2","4","4","4","4","4","5","5","4","4","4","1","4","4","5","4","4","3","4","4","5","4","1","0","1","1","0","0","0","1","1","1","1","0","0","0","1","5","4","5","2","4","2","4","5","4","4","598900137913221120","张","479","","","","","","","","","","","","","","","","","","","","","","","","","","","","","","","","","","","","","","","",""
