"rt","stimulus","response","trial_type","trial_index","time_elapsed","internal_node_id","ses_1","ses_2","ses_3","ses_4","ses_5","ses_6","ses_7","ses_8","ses_9","ses_10","coreself_1","coreself_2","coreself_3","coreself_4","coreself_5","coreself_6","coreself_7","coreself_8","coreself_9","coreself_10","SGPS_1","SGPS_2","SGPS_3","SGPS_4","SGPS_5","SGPS_6","SGPS_7","SGPS_8","SGPS_9","NPI1","NPI2","NPI3","NPI4","NPI5","NPI6","NPI7","NPI8","NPI9","NPI10","NPI11","NPI12","NPI13","NPI14","NPI15","hsns_1","hsns_2","hsns_3","hsns_4","hsns_5","hsns_6","hsns_7","hsns_8","hsns_9","hsns_10","subj_idx","friend_name","ParticipantID","value","success","user_agent","responses","item_order","radio_event_ids","radio_event_times","key_event_times","mouse_event_times","straightlining","zigzagging","honeypot","timeout","failed_images","failed_audio","failed_video","version_attrib","version_target","correct","IAT","screen_id","task_id","RT","condition","word","varname","summary","version_attrib2","version_target2","time_stamp","view_history","response_type","key_press","avg_frame_time","center_x","center_y","correct_response","identity","Image","question_order"
"10405","
   <p><div style = ""color: white;font-size:25px;"">您好，欢迎参加本次实验。</div> </p>
   <p><div style = ""color: white;font-size:25px;"">为充分保障您的权利，请确保您已经知晓并同意《参与实验同意书》以及《数据公开知情同意书》。</div></p>
   <p><div style = ""color: white;font-size:25px;"">如果您未见过上述内容，请咨询实验员。</div></p>
   <p><div style = ""color: white;font-size:25px;"">如果您选择继续实验，则表示您已经清楚两份知情同意书的内容并同意。</div></p>
   <p><div style = ""color: red;font-size:30px;"">请确保您记得day0的实验编号，您将在本次实验输入该编号，若您忘记，请咨询实验员后作答。</div></p>
   <p> <div style = ""color: green;font-size:25px;""><按空格键至下页></div> </p>
   "," ","html-keyboard-response","0","10413","0.0-0.0","4","4","4","4","3","3","4","4","4","4","4","4","4","4","5","5","4","4","4","5","2","3","2","1","2","2","2","1","1","1","0","0","1","0","0","0","1","0","1","1","0","0","0","0","4","5","4","1","4","5","4","4","1","1","763753736781959170","周","319","","","","","","","","","","","","","","","","","","","","","","","","","","","","","","","","","","","","","","","",""
"","","","call-function","1","10417","0.0-1.0-0.0","4","4","4","4","3","3","4","4","4","4","4","4","4","4","5","5","4","4","4","5","2","3","2","1","2","2","2","1","1","1","0","0","1","0","0","0","1","0","1","1","0","0","0","0","4","5","4","1","4","5","4","4","1","1","763753736781959170","周","319","","","","","","","","","","","","","","","","","","","","","","","","","","","","","","","","","","","","","","","",""
"22066","","{""friend_name"":""周"",""ParticipantID"":""319""}","survey-html-form","2","32489","0.0-1.0-1.0","4","4","4","4","3","3","4","4","4","4","4","4","4","4","5","5","4","4","4","5","2","3","2","1","2","2","2","1","1","1","0","0","1","0","0","0","1","0","1","1","0","0","0","0","4","5","4","1","4","5","4","4","1","1","763753736781959170","周","319","","","","","","","","","","","","","","","","","","","","","","","","","","","","","","","","","","","","","","","",""
"","","","fullscreen","3","54284","0.0-2.0","4","4","4","4","3","3","4","4","4","4","4","4","4","4","5","5","4","4","4","5","2","3","2","1","2","2","2","1","1","1","0","0","1","0","0","0","1","0","1","1","0","0","0","0","4","5","4","1","4","5","4","4","1","1","763753736781959170","周","319","","true","{}","","","","","","","","","","","","","","","","","","","","","","","","","","","","","","","","","","","","",""
"32268.5","","{""Q01"":""4"",""Q02"":""4"",""Q03"":""4"",""Q04"":""4"",""Q05"":""3"",""Q06"":""3"",""Q07"":""4"",""Q08"":""4"",""Q09"":""4"",""Q10"":""4""}","survey-template","4","86569","0.0-3.0","4","4","4","4","3","3","4","4","4","4","4","4","4","4","5","5","4","4","4","5","2","3","2","1","2","2","2","1","1","1","0","0","1","0","0","0","1","0","1","1","0","0","0","0","4","5","4","1","4","5","4","4","1","1","763753736781959170","周","319","","","","{""Q01"":""4"",""Q02"":""4"",""Q03"":""4"",""Q04"":""4"",""Q05"":""3"",""Q06"":""3"",""Q07"":""4"",""Q08"":""4"",""Q09"":""4"",""Q10"":""4""}","[0,1,2,3,4,5,6,7,8,9]","[""Q02"",""Q01"",""Q03"",""Q04"",""Q05"",""Q06"",""Q07"",""Q08"",""Q09"",""Q10""]","[6905,8368.200000001118,10675.60000000149,12995.300000000745,14683.800000000745,18924.300000000745,20272.900000000373,22822.900000000373,26439.200000001118,27934]","[]","[5709.5,6905,7670.9000000003725,8368.200000001118,10675.60000000149,12995.300000000745,14683.800000000745,18924.300000000745,20272.900000000373,22822.900000000373,26439.200000001118,27934,32260.700000001118]","0.4","0.5555555555555556","0","","","","","","","","","","","","","","","","","","","","","","","","","","","",""
"30031.700000001118","","{""Q01"":""4"",""Q02"":""4"",""Q03"":""4"",""Q04"":""4"",""Q05"":""5"",""Q06"":""5"",""Q07"":""4"",""Q08"":""4"",""Q09"":""4"",""Q10"":""5""}","survey-template","5","116641","0.0-4.0","4","4","4","4","3","3","4","4","4","4","4","4","4","4","5","5","4","4","4","5","2","3","2","1","2","2","2","1","1","1","0","0","1","0","0","0","1","0","1","1","0","0","0","0","4","5","4","1","4","5","4","4","1","1","763753736781959170","周","319","","","","{""Q01"":""4"",""Q02"":""4"",""Q03"":""4"",""Q04"":""4"",""Q05"":""5"",""Q06"":""5"",""Q07"":""4"",""Q08"":""4"",""Q09"":""4"",""Q10"":""5""}","[0,1,2,3,4,5,6,7,8,9]","[""Q01"",""Q02"",""Q03"",""Q04"",""Q05"",""Q06"",""Q07"",""Q08"",""Q09"",""Q10""]","[5374.5,9835.300000000745,11223.5,13147,15823.400000000373,17507,20172,22810.900000000373,24607,26288.5]","[]","[3615.300000000745,4823.200000001118,5374.5,9835.300000000745,11223.5,13147,15823.400000000373,17507,20172,22810.900000000373,24607,26288.5,30022.300000000745]","0.4","0.1111111111111111","0","","","","","","","","","","","","","","","","","","","","","","","","","","","",""
"","","","preload","6","117290","0.0-5.0","4","4","4","4","3","3","4","4","4","4","4","4","4","4","5","5","4","4","4","5","2","3","2","1","2","2","2","1","1","1","0","0","1","0","0","0","1","0","1","1","0","0","0","0","4","5","4","1","4","5","4","4","1","1","763753736781959170","周","319","","true","","","","","","","","","","","false","[]","[]","[]","","","","","","","","","","","","","","","","","","","","","","","",""
"13858","
    <h3>词语分类任务</h3>
    <p>在接下来的任务中，你需要对一系列词语进行分类。</p>
    <p>请先熟悉这些词语，这有利于你完成接下来的任务。</p>
    <table align=""center"" border=1 cellpadding=3 cellspacing=0>
    <tr> <th>类别</th> <th>词语</th> </tr>
    <tr> <td>&emsp;积极&emsp;</td> <td>&emsp;能干、全能、全才、高效、精干、天才&emsp;</td> </tr>
    <tr> <td>&emsp;消极&emsp;</td> <td>&emsp;无能、低能、废物、拙笨、愚钝、蠢笨&emsp;</td> </tr>
    <tr> <td>&emsp;自我&emsp;</td> <td>&emsp;我、我的、自己、自己的、本人、本人的&emsp;</td> </tr>
    <tr> <td>&emsp;他人&emsp;</td> <td>&emsp;他、他的、别人、别人的、他人、他人的&emsp;</td> </tr>
    </table><br/>","0","html-button-response","7","131184","0.0-6.0-0.0-0.0","4","4","4","4","3","3","4","4","4","4","4","4","4","4","5","5","4","4","4","5","2","3","2","1","2","2","2","1","1","1","0","0","1","0","0","0","1","0","1","1","0","0","0","0","4","5","4","1","4","5","4","4","1","1","763753736781959170","周","319","","","","","","","","","","","","","","","","","1","1","","","","","","","","","","","","","","","","","","","","","",""
"19525","
    <div class=""tag-bottom"">
    <p> —— 任务1：对“自我”词和“他人”词分类 ——<p/>
    不同词语会出现在屏幕中央，类别标签将始终显示在屏幕上方<p/>   
    <span style=""color:#FFD866""><b>请根据上方标签的提示，尽可能正确并且快速地做出按键反应</b></span><p/>
    当按键错误时屏幕中会出现<span style=""color:red""> X </span>，需要按另一个键纠正才能继续<br/><p/>
    请把双手食指分别放在键盘的“E”键和“I”键上<p/>
    按<空格键>开始
    </p></div>"," ","html-keyboard-response","8","150720","0.0-6.0-0.0-1.0","4","4","4","4","3","3","4","4","4","4","4","4","4","4","5","5","4","4","4","5","2","3","2","1","2","2","2","1","1","1","0","0","1","0","0","0","1","0","1","1","0","0","0","0","4","5","4","1","4","5","4","4","1","1","763753736781959170","周","319","","","","","","","","","","","","","","","","","","","","","","","","","","","","","","","","","","","","","","","",""
"null","","null","html-keyboard-response","9","150973","0.0-6.0-0.0-2.0-0.0","4","4","4","4","3","3","4","4","4","4","4","4","4","4","5","5","4","4","4","5","2","3","2","1","2","2","2","1","1","1","0","0","1","0","0","0","1","0","1","1","0","0","0","0","4","5","4","1","4","5","4","4","1","1","763753736781959170","周","319","","","","","","","","","","","","","","","","","","","","","","","","","","","","","","","","","","","","","","","",""
"800","<p style=""color:rgb(150, 250, 100); font-size: 35px;"">自己的</p>","e","categorize-html","10","151784","0.0-6.0-0.0-2.0-1.0","4","4","4","4","3","3","4","4","4","4","4","4","4","4","5","5","4","4","4","5","2","3","2","1","2","2","2","1","1","1","0","0","1","0","0","0","1","0","1","1","0","0","0","0","4","5","4","1","4","5","4","4","1","1","763753736781959170","周","319","","","","","","","","","","","","","","","","","","","true","1","1","ability","800","self","自己的","","","","","","","","","","","","","","",""
"null","","null","html-keyboard-response","11","152038","0.0-6.0-0.0-2.0-0.1","4","4","4","4","3","3","4","4","4","4","4","4","4","4","5","5","4","4","4","5","2","3","2","1","2","2","2","1","1","1","0","0","1","0","0","0","1","0","1","1","0","0","0","0","4","5","4","1","4","5","4","4","1","1","763753736781959170","周","319","","","","","","","","","","","","","","","","","","","","","","","","","","","","","","","","","","","","","","","",""
"504","<p style=""color:rgb(150, 250, 100); font-size: 35px;"">我的</p>","e","categorize-html","12","152548","0.0-6.0-0.0-2.0-1.1","4","4","4","4","3","3","4","4","4","4","4","4","4","4","5","5","4","4","4","5","2","3","2","1","2","2","2","1","1","1","0","0","1","0","0","0","1","0","1","1","0","0","0","0","4","5","4","1","4","5","4","4","1","1","763753736781959170","周","319","","","","","","","","","","","","","","","","","","","true","1","1","ability","504","self","我的","","","","","","","","","","","","","","",""
"null","","null","html-keyboard-response","13","152801","0.0-6.0-0.0-2.0-0.2","4","4","4","4","3","3","4","4","4","4","4","4","4","4","5","5","4","4","4","5","2","3","2","1","2","2","2","1","1","1","0","0","1","0","0","0","1","0","1","1","0","0","0","0","4","5","4","1","4","5","4","4","1","1","763753736781959170","周","319","","","","","","","","","","","","","","","","","","","","","","","","","","","","","","","","","","","","","","","",""
"689","<p style=""color:rgb(150, 250, 100); font-size: 35px;"">本人</p>","e","categorize-html","14","153496","0.0-6.0-0.0-2.0-1.2","4","4","4","4","3","3","4","4","4","4","4","4","4","4","5","5","4","4","4","5","2","3","2","1","2","2","2","1","1","1","0","0","1","0","0","0","1","0","1","1","0","0","0","0","4","5","4","1","4","5","4","4","1","1","763753736781959170","周","319","","","","","","","","","","","","","","","","","","","true","1","1","ability","689","self","本人","","","","","","","","","","","","","","",""
"null","","null","html-keyboard-response","15","153748","0.0-6.0-0.0-2.0-0.3","4","4","4","4","3","3","4","4","4","4","4","4","4","4","5","5","4","4","4","5","2","3","2","1","2","2","2","1","1","1","0","0","1","0","0","0","1","0","1","1","0","0","0","0","4","5","4","1","4","5","4","4","1","1","763753736781959170","周","319","","","","","","","","","","","","","","","","","","","","","","","","","","","","","","","","","","","","","","","",""
"522","<p style=""color:rgb(150, 250, 100); font-size: 35px;"">自己</p>","e","categorize-html","16","154278","0.0-6.0-0.0-2.0-1.3","4","4","4","4","3","3","4","4","4","4","4","4","4","4","5","5","4","4","4","5","2","3","2","1","2","2","2","1","1","1","0","0","1","0","0","0","1","0","1","1","0","0","0","0","4","5","4","1","4","5","4","4","1","1","763753736781959170","周","319","","","","","","","","","","","","","","","","","","","true","1","1","ability","522","self","自己","","","","","","","","","","","","","","",""
"null","","null","html-keyboard-response","17","154533","0.0-6.0-0.0-2.0-0.4","4","4","4","4","3","3","4","4","4","4","4","4","4","4","5","5","4","4","4","5","2","3","2","1","2","2","2","1","1","1","0","0","1","0","0","0","1","0","1","1","0","0","0","0","4","5","4","1","4","5","4","4","1","1","763753736781959170","周","319","","","","","","","","","","","","","","","","","","","","","","","","","","","","","","","","","","","","","","","",""
"570","<p style=""color:rgb(150, 250, 100); font-size: 35px;"">他人</p>","i","categorize-html","18","155109","0.0-6.0-0.0-2.0-1.4","4","4","4","4","3","3","4","4","4","4","4","4","4","4","5","5","4","4","4","5","2","3","2","1","2","2","2","1","1","1","0","0","1","0","0","0","1","0","1","1","0","0","0","0","4","5","4","1","4","5","4","4","1","1","763753736781959170","周","319","","","","","","","","","","","","","","","","","","","true","1","1","ability","570","other","他人","","","","","","","","","","","","","","",""
"null","","null","html-keyboard-response","19","155362","0.0-6.0-0.0-2.0-0.5","4","4","4","4","3","3","4","4","4","4","4","4","4","4","5","5","4","4","4","5","2","3","2","1","2","2","2","1","1","1","0","0","1","0","0","0","1","0","1","1","0","0","0","0","4","5","4","1","4","5","4","4","1","1","763753736781959170","周","319","","","","","","","","","","","","","","","","","","","","","","","","","","","","","","","","","","","","","","","",""
"449","<p style=""color:rgb(150, 250, 100); font-size: 35px;"">本人的</p>","e","categorize-html","20","155816","0.0-6.0-0.0-2.0-1.5","4","4","4","4","3","3","4","4","4","4","4","4","4","4","5","5","4","4","4","5","2","3","2","1","2","2","2","1","1","1","0","0","1","0","0","0","1","0","1","1","0","0","0","0","4","5","4","1","4","5","4","4","1","1","763753736781959170","周","319","","","","","","","","","","","","","","","","","","","true","1","1","ability","449","self","本人的","","","","","","","","","","","","","","",""
"null","","null","html-keyboard-response","21","156069","0.0-6.0-0.0-2.0-0.6","4","4","4","4","3","3","4","4","4","4","4","4","4","4","5","5","4","4","4","5","2","3","2","1","2","2","2","1","1","1","0","0","1","0","0","0","1","0","1","1","0","0","0","0","4","5","4","1","4","5","4","4","1","1","763753736781959170","周","319","","","","","","","","","","","","","","","","","","","","","","","","","","","","","","","","","","","","","","","",""
"599","<p style=""color:rgb(150, 250, 100); font-size: 35px;"">我</p>","e","categorize-html","22","156676","0.0-6.0-0.0-2.0-1.6","4","4","4","4","3","3","4","4","4","4","4","4","4","4","5","5","4","4","4","5","2","3","2","1","2","2","2","1","1","1","0","0","1","0","0","0","1","0","1","1","0","0","0","0","4","5","4","1","4","5","4","4","1","1","763753736781959170","周","319","","","","","","","","","","","","","","","","","","","true","1","1","ability","599","self","我","","","","","","","","","","","","","","",""
"null","","null","html-keyboard-response","23","156929","0.0-6.0-0.0-2.0-0.7","4","4","4","4","3","3","4","4","4","4","4","4","4","4","5","5","4","4","4","5","2","3","2","1","2","2","2","1","1","1","0","0","1","0","0","0","1","0","1","1","0","0","0","0","4","5","4","1","4","5","4","4","1","1","763753736781959170","周","319","","","","","","","","","","","","","","","","","","","","","","","","","","","","","","","","","","","","","","","",""
"612","<p style=""color:rgb(150, 250, 100); font-size: 35px;"">别人的</p>","i","categorize-html","24","157547","0.0-6.0-0.0-2.0-1.7","4","4","4","4","3","3","4","4","4","4","4","4","4","4","5","5","4","4","4","5","2","3","2","1","2","2","2","1","1","1","0","0","1","0","0","0","1","0","1","1","0","0","0","0","4","5","4","1","4","5","4","4","1","1","763753736781959170","周","319","","","","","","","","","","","","","","","","","","","true","1","1","ability","612","other","别人的","","","","","","","","","","","","","","",""
"null","","null","html-keyboard-response","25","157799","0.0-6.0-0.0-2.0-0.8","4","4","4","4","3","3","4","4","4","4","4","4","4","4","5","5","4","4","4","5","2","3","2","1","2","2","2","1","1","1","0","0","1","0","0","0","1","0","1","1","0","0","0","0","4","5","4","1","4","5","4","4","1","1","763753736781959170","周","319","","","","","","","","","","","","","","","","","","","","","","","","","","","","","","","","","","","","","","","",""
"618","<p style=""color:rgb(150, 250, 100); font-size: 35px;"">他</p>","i","categorize-html","26","158422","0.0-6.0-0.0-2.0-1.8","4","4","4","4","3","3","4","4","4","4","4","4","4","4","5","5","4","4","4","5","2","3","2","1","2","2","2","1","1","1","0","0","1","0","0","0","1","0","1","1","0","0","0","0","4","5","4","1","4","5","4","4","1","1","763753736781959170","周","319","","","","","","","","","","","","","","","","","","","true","1","1","ability","618","other","他","","","","","","","","","","","","","","",""
"null","","null","html-keyboard-response","27","158675","0.0-6.0-0.0-2.0-0.9","4","4","4","4","3","3","4","4","4","4","4","4","4","4","5","5","4","4","4","5","2","3","2","1","2","2","2","1","1","1","0","0","1","0","0","0","1","0","1","1","0","0","0","0","4","5","4","1","4","5","4","4","1","1","763753736781959170","周","319","","","","","","","","","","","","","","","","","","","","","","","","","","","","","","","","","","","","","","","",""
"452","<p style=""color:rgb(150, 250, 100); font-size: 35px;"">他的</p>","i","categorize-html","28","159132","0.0-6.0-0.0-2.0-1.9","4","4","4","4","3","3","4","4","4","4","4","4","4","4","5","5","4","4","4","5","2","3","2","1","2","2","2","1","1","1","0","0","1","0","0","0","1","0","1","1","0","0","0","0","4","5","4","1","4","5","4","4","1","1","763753736781959170","周","319","","","","","","","","","","","","","","","","","","","true","1","1","ability","452","other","他的","","","","","","","","","","","","","","",""
"null","","null","html-keyboard-response","29","159385","0.0-6.0-0.0-2.0-0.10","4","4","4","4","3","3","4","4","4","4","4","4","4","4","5","5","4","4","4","5","2","3","2","1","2","2","2","1","1","1","0","0","1","0","0","0","1","0","1","1","0","0","0","0","4","5","4","1","4","5","4","4","1","1","763753736781959170","周","319","","","","","","","","","","","","","","","","","","","","","","","","","","","","","","","","","","","","","","","",""
"552","<p style=""color:rgb(150, 250, 100); font-size: 35px;"">别人</p>","i","categorize-html","30","159944","0.0-6.0-0.0-2.0-1.10","4","4","4","4","3","3","4","4","4","4","4","4","4","4","5","5","4","4","4","5","2","3","2","1","2","2","2","1","1","1","0","0","1","0","0","0","1","0","1","1","0","0","0","0","4","5","4","1","4","5","4","4","1","1","763753736781959170","周","319","","","","","","","","","","","","","","","","","","","true","1","1","ability","552","other","别人","","","","","","","","","","","","","","",""
"null","","null","html-keyboard-response","31","160196","0.0-6.0-0.0-2.0-0.11","4","4","4","4","3","3","4","4","4","4","4","4","4","4","5","5","4","4","4","5","2","3","2","1","2","2","2","1","1","1","0","0","1","0","0","0","1","0","1","1","0","0","0","0","4","5","4","1","4","5","4","4","1","1","763753736781959170","周","319","","","","","","","","","","","","","","","","","","","","","","","","","","","","","","","","","","","","","","","",""
"524","<p style=""color:rgb(150, 250, 100); font-size: 35px;"">他人的</p>","i","categorize-html","32","160726","0.0-6.0-0.0-2.0-1.11","4","4","4","4","3","3","4","4","4","4","4","4","4","4","5","5","4","4","4","5","2","3","2","1","2","2","2","1","1","1","0","0","1","0","0","0","1","0","1","1","0","0","0","0","4","5","4","1","4","5","4","4","1","1","763753736781959170","周","319","","","","","","","","","","","","","","","","","","","true","1","1","ability","524","other","他人的","","","","","","","","","","","","","","",""
"9609","
    <div class=""tag-bottom""><p>
    —— 任务2：对“积极”词和“消极”词分类 ——<p/>   
    <span style=""color:#78DCE8""><b>注意上方，类别标签和需要分类的词语都已经改变</b></span><p/>
    <span style=""color:#FFD866""><b>请根据上方标签的提示，尽可能正确并且快速地做出按键反应</b></span><p/>
    当按键错误时屏幕中会出现<span style=""color:red""> X </span>，需要按另一个键纠正才能继续<br/><p/>
    请把双手食指分别放在键盘的“E”键和“I”键上<p/>
    按<空格键>开始
    </p></div>"," ","html-keyboard-response","33","170337","0.0-6.0-0.0-3.0","4","4","4","4","3","3","4","4","4","4","4","4","4","4","5","5","4","4","4","5","2","3","2","1","2","2","2","1","1","1","0","0","1","0","0","0","1","0","1","1","0","0","0","0","4","5","4","1","4","5","4","4","1","1","763753736781959170","周","319","","","","","","","","","","","","","","","","","","","","","","","","","","","","","","","","","","","","","","","",""
"null","","null","html-keyboard-response","34","170589","0.0-6.0-0.0-4.0-0.0","4","4","4","4","3","3","4","4","4","4","4","4","4","4","5","5","4","4","4","5","2","3","2","1","2","2","2","1","1","1","0","0","1","0","0","0","1","0","1","1","0","0","0","0","4","5","4","1","4","5","4","4","1","1","763753736781959170","周","319","","","","","","","","","","","","","","","","","","","","","","","","","","","","","","","","","","","","","","","",""
"691","<p style=""color:white; font-size: 35px;"">蠢笨</p>","i","categorize-html","35","171291","0.0-6.0-0.0-4.0-1.0","4","4","4","4","3","3","4","4","4","4","4","4","4","4","5","5","4","4","4","5","2","3","2","1","2","2","2","1","1","1","0","0","1","0","0","0","1","0","1","1","0","0","0","0","4","5","4","1","4","5","4","4","1","1","763753736781959170","周","319","","","","","","","","","","","","","","","","","","","true","2","2","ability","691","negative","蠢笨","","","","","","","","","","","","","","",""
"null","","null","html-keyboard-response","36","171544","0.0-6.0-0.0-4.0-0.1","4","4","4","4","3","3","4","4","4","4","4","4","4","4","5","5","4","4","4","5","2","3","2","1","2","2","2","1","1","1","0","0","1","0","0","0","1","0","1","1","0","0","0","0","4","5","4","1","4","5","4","4","1","1","763753736781959170","周","319","","","","","","","","","","","","","","","","","","","","","","","","","","","","","","","","","","","","","","","",""
"489","<p style=""color:white; font-size: 35px;"">天才</p>","e","categorize-html","37","172040","0.0-6.0-0.0-4.0-1.1","4","4","4","4","3","3","4","4","4","4","4","4","4","4","5","5","4","4","4","5","2","3","2","1","2","2","2","1","1","1","0","0","1","0","0","0","1","0","1","1","0","0","0","0","4","5","4","1","4","5","4","4","1","1","763753736781959170","周","319","","","","","","","","","","","","","","","","","","","true","2","2","ability","489","positive","天才","","","","","","","","","","","","","","",""
"null","","null","html-keyboard-response","38","172292","0.0-6.0-0.0-4.0-0.2","4","4","4","4","3","3","4","4","4","4","4","4","4","4","5","5","4","4","4","5","2","3","2","1","2","2","2","1","1","1","0","0","1","0","0","0","1","0","1","1","0","0","0","0","4","5","4","1","4","5","4","4","1","1","763753736781959170","周","319","","","","","","","","","","","","","","","","","","","","","","","","","","","","","","","","","","","","","","","",""
"571","<p style=""color:white; font-size: 35px;"">拙笨</p>","i","categorize-html","39","172869","0.0-6.0-0.0-4.0-1.2","4","4","4","4","3","3","4","4","4","4","4","4","4","4","5","5","4","4","4","5","2","3","2","1","2","2","2","1","1","1","0","0","1","0","0","0","1","0","1","1","0","0","0","0","4","5","4","1","4","5","4","4","1","1","763753736781959170","周","319","","","","","","","","","","","","","","","","","","","true","2","2","ability","571","negative","拙笨","","","","","","","","","","","","","","",""
"null","","null","html-keyboard-response","40","173121","0.0-6.0-0.0-4.0-0.3","4","4","4","4","3","3","4","4","4","4","4","4","4","4","5","5","4","4","4","5","2","3","2","1","2","2","2","1","1","1","0","0","1","0","0","0","1","0","1","1","0","0","0","0","4","5","4","1","4","5","4","4","1","1","763753736781959170","周","319","","","","","","","","","","","","","","","","","","","","","","","","","","","","","","","","","","","","","","","",""
"522","<p style=""color:white; font-size: 35px;"">废物</p>","i","categorize-html","41","173653","0.0-6.0-0.0-4.0-1.3","4","4","4","4","3","3","4","4","4","4","4","4","4","4","5","5","4","4","4","5","2","3","2","1","2","2","2","1","1","1","0","0","1","0","0","0","1","0","1","1","0","0","0","0","4","5","4","1","4","5","4","4","1","1","763753736781959170","周","319","","","","","","","","","","","","","","","","","","","true","2","2","ability","522","negative","废物","","","","","","","","","","","","","","",""
"null","","null","html-keyboard-response","42","173906","0.0-6.0-0.0-4.0-0.4","4","4","4","4","3","3","4","4","4","4","4","4","4","4","5","5","4","4","4","5","2","3","2","1","2","2","2","1","1","1","0","0","1","0","0","0","1","0","1","1","0","0","0","0","4","5","4","1","4","5","4","4","1","1","763753736781959170","周","319","","","","","","","","","","","","","","","","","","","","","","","","","","","","","","","","","","","","","","","",""
"832","<p style=""color:white; font-size: 35px;"">全才</p>","e","categorize-html","43","174744","0.0-6.0-0.0-4.0-1.4","4","4","4","4","3","3","4","4","4","4","4","4","4","4","5","5","4","4","4","5","2","3","2","1","2","2","2","1","1","1","0","0","1","0","0","0","1","0","1","1","0","0","0","0","4","5","4","1","4","5","4","4","1","1","763753736781959170","周","319","","","","","","","","","","","","","","","","","","","true","2","2","ability","832","positive","全才","","","","","","","","","","","","","","",""
"null","","null","html-keyboard-response","44","174996","0.0-6.0-0.0-4.0-0.5","4","4","4","4","3","3","4","4","4","4","4","4","4","4","5","5","4","4","4","5","2","3","2","1","2","2","2","1","1","1","0","0","1","0","0","0","1","0","1","1","0","0","0","0","4","5","4","1","4","5","4","4","1","1","763753736781959170","周","319","","","","","","","","","","","","","","","","","","","","","","","","","","","","","","","","","","","","","","","",""
"556","<p style=""color:white; font-size: 35px;"">能干</p>","e","categorize-html","45","175559","0.0-6.0-0.0-4.0-1.5","4","4","4","4","3","3","4","4","4","4","4","4","4","4","5","5","4","4","4","5","2","3","2","1","2","2","2","1","1","1","0","0","1","0","0","0","1","0","1","1","0","0","0","0","4","5","4","1","4","5","4","4","1","1","763753736781959170","周","319","","","","","","","","","","","","","","","","","","","true","2","2","ability","556","positive","能干","","","","","","","","","","","","","","",""
"null","","null","html-keyboard-response","46","175811","0.0-6.0-0.0-4.0-0.6","4","4","4","4","3","3","4","4","4","4","4","4","4","4","5","5","4","4","4","5","2","3","2","1","2","2","2","1","1","1","0","0","1","0","0","0","1","0","1","1","0","0","0","0","4","5","4","1","4","5","4","4","1","1","763753736781959170","周","319","","","","","","","","","","","","","","","","","","","","","","","","","","","","","","","","","","","","","","","",""
"611","<p style=""color:white; font-size: 35px;"">高效</p>","e","categorize-html","47","176429","0.0-6.0-0.0-4.0-1.6","4","4","4","4","3","3","4","4","4","4","4","4","4","4","5","5","4","4","4","5","2","3","2","1","2","2","2","1","1","1","0","0","1","0","0","0","1","0","1","1","0","0","0","0","4","5","4","1","4","5","4","4","1","1","763753736781959170","周","319","","","","","","","","","","","","","","","","","","","true","2","2","ability","611","positive","高效","","","","","","","","","","","","","","",""
"null","","null","html-keyboard-response","48","176681","0.0-6.0-0.0-4.0-0.7","4","4","4","4","3","3","4","4","4","4","4","4","4","4","5","5","4","4","4","5","2","3","2","1","2","2","2","1","1","1","0","0","1","0","0","0","1","0","1","1","0","0","0","0","4","5","4","1","4","5","4","4","1","1","763753736781959170","周","319","","","","","","","","","","","","","","","","","","","","","","","","","","","","","","","","","","","","","","","",""
"578","<p style=""color:white; font-size: 35px;"">精干</p>","e","categorize-html","49","177265","0.0-6.0-0.0-4.0-1.7","4","4","4","4","3","3","4","4","4","4","4","4","4","4","5","5","4","4","4","5","2","3","2","1","2","2","2","1","1","1","0","0","1","0","0","0","1","0","1","1","0","0","0","0","4","5","4","1","4","5","4","4","1","1","763753736781959170","周","319","","","","","","","","","","","","","","","","","","","true","2","2","ability","578","positive","精干","","","","","","","","","","","","","","",""
"null","","null","html-keyboard-response","50","177517","0.0-6.0-0.0-4.0-0.8","4","4","4","4","3","3","4","4","4","4","4","4","4","4","5","5","4","4","4","5","2","3","2","1","2","2","2","1","1","1","0","0","1","0","0","0","1","0","1","1","0","0","0","0","4","5","4","1","4","5","4","4","1","1","763753736781959170","周","319","","","","","","","","","","","","","","","","","","","","","","","","","","","","","","","","","","","","","","","",""
"462","<p style=""color:white; font-size: 35px;"">无能</p>","i","categorize-html","51","177985","0.0-6.0-0.0-4.0-1.8","4","4","4","4","3","3","4","4","4","4","4","4","4","4","5","5","4","4","4","5","2","3","2","1","2","2","2","1","1","1","0","0","1","0","0","0","1","0","1","1","0","0","0","0","4","5","4","1","4","5","4","4","1","1","763753736781959170","周","319","","","","","","","","","","","","","","","","","","","true","2","2","ability","462","negative","无能","","","","","","","","","","","","","","",""
"null","","null","html-keyboard-response","52","178237","0.0-6.0-0.0-4.0-0.9","4","4","4","4","3","3","4","4","4","4","4","4","4","4","5","5","4","4","4","5","2","3","2","1","2","2","2","1","1","1","0","0","1","0","0","0","1","0","1","1","0","0","0","0","4","5","4","1","4","5","4","4","1","1","763753736781959170","周","319","","","","","","","","","","","","","","","","","","","","","","","","","","","","","","","","","","","","","","","",""
"512","<p style=""color:white; font-size: 35px;"">愚钝</p>","i","categorize-html","53","178757","0.0-6.0-0.0-4.0-1.9","4","4","4","4","3","3","4","4","4","4","4","4","4","4","5","5","4","4","4","5","2","3","2","1","2","2","2","1","1","1","0","0","1","0","0","0","1","0","1","1","0","0","0","0","4","5","4","1","4","5","4","4","1","1","763753736781959170","周","319","","","","","","","","","","","","","","","","","","","true","2","2","ability","512","negative","愚钝","","","","","","","","","","","","","","",""
"null","","null","html-keyboard-response","54","179009","0.0-6.0-0.0-4.0-0.10","4","4","4","4","3","3","4","4","4","4","4","4","4","4","5","5","4","4","4","5","2","3","2","1","2","2","2","1","1","1","0","0","1","0","0","0","1","0","1","1","0","0","0","0","4","5","4","1","4","5","4","4","1","1","763753736781959170","周","319","","","","","","","","","","","","","","","","","","","","","","","","","","","","","","","","","","","","","","","",""
"502","<p style=""color:white; font-size: 35px;"">低能</p>","i","categorize-html","55","179522","0.0-6.0-0.0-4.0-1.10","4","4","4","4","3","3","4","4","4","4","4","4","4","4","5","5","4","4","4","5","2","3","2","1","2","2","2","1","1","1","0","0","1","0","0","0","1","0","1","1","0","0","0","0","4","5","4","1","4","5","4","4","1","1","763753736781959170","周","319","","","","","","","","","","","","","","","","","","","true","2","2","ability","502","negative","低能","","","","","","","","","","","","","","",""
"null","","null","html-keyboard-response","56","179774","0.0-6.0-0.0-4.0-0.11","4","4","4","4","3","3","4","4","4","4","4","4","4","4","5","5","4","4","4","5","2","3","2","1","2","2","2","1","1","1","0","0","1","0","0","0","1","0","1","1","0","0","0","0","4","5","4","1","4","5","4","4","1","1","763753736781959170","周","319","","","","","","","","","","","","","","","","","","","","","","","","","","","","","","","","","","","","","","","",""
"493","<p style=""color:white; font-size: 35px;"">全能</p>","e","categorize-html","57","180272","0.0-6.0-0.0-4.0-1.11","4","4","4","4","3","3","4","4","4","4","4","4","4","4","5","5","4","4","4","5","2","3","2","1","2","2","2","1","1","1","0","0","1","0","0","0","1","0","1","1","0","0","0","0","4","5","4","1","4","5","4","4","1","1","763753736781959170","周","319","","","","","","","","","","","","","","","","","","","true","2","2","ability","493","positive","全能","","","","","","","","","","","","","","",""
"4107","
    <div class=""tag-bottom""><p>
    —— 任务3：对“自我/积极”词和“他人/消极”词分类 ——<p/>
    <span style=""color:#78DCE8""><b>注意上方，之前的四类词语将混合在一起交替呈现</b></span><p/>
    <span style=""color:#FFD866""><b>请根据上方标签的提示，尽可能正确并且快速地做出按键反应</b></span><p/>
    当按键错误时屏幕中会出现<span style=""color:red""> X </span>，需要按另一个键纠正才能继续<br/><p/>
    请把双手食指分别放在键盘的“E”键和“I”键上<p/>
    按<空格键>开始
    </p></div>"," ","html-keyboard-response","58","184381","0.0-6.0-0.0-5.0","4","4","4","4","3","3","4","4","4","4","4","4","4","4","5","5","4","4","4","5","2","3","2","1","2","2","2","1","1","1","0","0","1","0","0","0","1","0","1","1","0","0","0","0","4","5","4","1","4","5","4","4","1","1","763753736781959170","周","319","","","","","","","","","","","","","","","","","","","","","","","","","","","","","","","","","","","","","","","",""
"null","","null","html-keyboard-response","59","184634","0.0-6.0-0.0-6.0-0.0","4","4","4","4","3","3","4","4","4","4","4","4","4","4","5","5","4","4","4","5","2","3","2","1","2","2","2","1","1","1","0","0","1","0","0","0","1","0","1","1","0","0","0","0","4","5","4","1","4","5","4","4","1","1","763753736781959170","周","319","","","","","","","","","","","","","","","","","","","","","","","","","","","","","","","","","","","","","","","",""
"465","<p style=""color:rgb(150, 250, 100); font-size: 35px;"">自己</p>","e","categorize-html","60","185109","0.0-6.0-0.0-6.0-1.0","4","4","4","4","3","3","4","4","4","4","4","4","4","4","5","5","4","4","4","5","2","3","2","1","2","2","2","1","1","1","0","0","1","0","0","0","1","0","1","1","0","0","0","0","4","5","4","1","4","5","4","4","1","1","763753736781959170","周","319","","","","","","","","","","","","","","","","","","","true","3","3","ability","465","self","自己","","","","","","","","","","","","","","",""
"null","","null","html-keyboard-response","61","185366","0.0-6.0-0.0-6.0-0.1","4","4","4","4","3","3","4","4","4","4","4","4","4","4","5","5","4","4","4","5","2","3","2","1","2","2","2","1","1","1","0","0","1","0","0","0","1","0","1","1","0","0","0","0","4","5","4","1","4","5","4","4","1","1","763753736781959170","周","319","","","","","","","","","","","","","","","","","","","","","","","","","","","","","","","","","","","","","","","",""
"523","<p style=""color:white; font-size: 35px;"">全能</p>","e","categorize-html","62","185896","0.0-6.0-0.0-6.0-1.1","4","4","4","4","3","3","4","4","4","4","4","4","4","4","5","5","4","4","4","5","2","3","2","1","2","2","2","1","1","1","0","0","1","0","0","0","1","0","1","1","0","0","0","0","4","5","4","1","4","5","4","4","1","1","763753736781959170","周","319","","","","","","","","","","","","","","","","","","","true","3","3","ability","523","positive","全能","","","","","","","","","","","","","","",""
"null","","null","html-keyboard-response","63","186147","0.0-6.0-0.0-6.0-0.2","4","4","4","4","3","3","4","4","4","4","4","4","4","4","5","5","4","4","4","5","2","3","2","1","2","2","2","1","1","1","0","0","1","0","0","0","1","0","1","1","0","0","0","0","4","5","4","1","4","5","4","4","1","1","763753736781959170","周","319","","","","","","","","","","","","","","","","","","","","","","","","","","","","","","","","","","","","","","","",""
"699","<p style=""color:rgb(150, 250, 100); font-size: 35px;"">别人</p>","i","categorize-html","64","186854","0.0-6.0-0.0-6.0-1.2","4","4","4","4","3","3","4","4","4","4","4","4","4","4","5","5","4","4","4","5","2","3","2","1","2","2","2","1","1","1","0","0","1","0","0","0","1","0","1","1","0","0","0","0","4","5","4","1","4","5","4","4","1","1","763753736781959170","周","319","","","","","","","","","","","","","","","","","","","true","3","3","ability","699","other","别人","","","","","","","","","","","","","","",""
"null","","null","html-keyboard-response","65","187106","0.0-6.0-0.0-6.0-0.3","4","4","4","4","3","3","4","4","4","4","4","4","4","4","5","5","4","4","4","5","2","3","2","1","2","2","2","1","1","1","0","0","1","0","0","0","1","0","1","1","0","0","0","0","4","5","4","1","4","5","4","4","1","1","763753736781959170","周","319","","","","","","","","","","","","","","","","","","","","","","","","","","","","","","","","","","","","","","","",""
"596","<p style=""color:white; font-size: 35px;"">拙笨</p>","i","categorize-html","66","187707","0.0-6.0-0.0-6.0-1.3","4","4","4","4","3","3","4","4","4","4","4","4","4","4","5","5","4","4","4","5","2","3","2","1","2","2","2","1","1","1","0","0","1","0","0","0","1","0","1","1","0","0","0","0","4","5","4","1","4","5","4","4","1","1","763753736781959170","周","319","","","","","","","","","","","","","","","","","","","true","3","3","ability","596","negative","拙笨","","","","","","","","","","","","","","",""
"null","","null","html-keyboard-response","67","187960","0.0-6.0-0.0-6.0-0.4","4","4","4","4","3","3","4","4","4","4","4","4","4","4","5","5","4","4","4","5","2","3","2","1","2","2","2","1","1","1","0","0","1","0","0","0","1","0","1","1","0","0","0","0","4","5","4","1","4","5","4","4","1","1","763753736781959170","周","319","","","","","","","","","","","","","","","","","","","","","","","","","","","","","","","","","","","","","","","",""
"680","<p style=""color:rgb(150, 250, 100); font-size: 35px;"">本人的</p>","e","categorize-html","68","188647","0.0-6.0-0.0-6.0-1.4","4","4","4","4","3","3","4","4","4","4","4","4","4","4","5","5","4","4","4","5","2","3","2","1","2","2","2","1","1","1","0","0","1","0","0","0","1","0","1","1","0","0","0","0","4","5","4","1","4","5","4","4","1","1","763753736781959170","周","319","","","","","","","","","","","","","","","","","","","true","3","3","ability","680","self","本人的","","","","","","","","","","","","","","",""
"null","","null","html-keyboard-response","69","188901","0.0-6.0-0.0-6.0-0.5","4","4","4","4","3","3","4","4","4","4","4","4","4","4","5","5","4","4","4","5","2","3","2","1","2","2","2","1","1","1","0","0","1","0","0","0","1","0","1","1","0","0","0","0","4","5","4","1","4","5","4","4","1","1","763753736781959170","周","319","","","","","","","","","","","","","","","","","","","","","","","","","","","","","","","","","","","","","","","",""
"548","<p style=""color:white; font-size: 35px;"">蠢笨</p>","i","categorize-html","70","189462","0.0-6.0-0.0-6.0-1.5","4","4","4","4","3","3","4","4","4","4","4","4","4","4","5","5","4","4","4","5","2","3","2","1","2","2","2","1","1","1","0","0","1","0","0","0","1","0","1","1","0","0","0","0","4","5","4","1","4","5","4","4","1","1","763753736781959170","周","319","","","","","","","","","","","","","","","","","","","true","3","3","ability","548","negative","蠢笨","","","","","","","","","","","","","","",""
"null","","null","html-keyboard-response","71","189715","0.0-6.0-0.0-6.0-0.6","4","4","4","4","3","3","4","4","4","4","4","4","4","4","5","5","4","4","4","5","2","3","2","1","2","2","2","1","1","1","0","0","1","0","0","0","1","0","1","1","0","0","0","0","4","5","4","1","4","5","4","4","1","1","763753736781959170","周","319","","","","","","","","","","","","","","","","","","","","","","","","","","","","","","","","","","","","","","","",""
"580","<p style=""color:rgb(150, 250, 100); font-size: 35px;"">他</p>","i","categorize-html","72","190303","0.0-6.0-0.0-6.0-1.6","4","4","4","4","3","3","4","4","4","4","4","4","4","4","5","5","4","4","4","5","2","3","2","1","2","2","2","1","1","1","0","0","1","0","0","0","1","0","1","1","0","0","0","0","4","5","4","1","4","5","4","4","1","1","763753736781959170","周","319","","","","","","","","","","","","","","","","","","","true","3","3","ability","580","other","他","","","","","","","","","","","","","","",""
"null","","null","html-keyboard-response","73","190556","0.0-6.0-0.0-6.0-0.7","4","4","4","4","3","3","4","4","4","4","4","4","4","4","5","5","4","4","4","5","2","3","2","1","2","2","2","1","1","1","0","0","1","0","0","0","1","0","1","1","0","0","0","0","4","5","4","1","4","5","4","4","1","1","763753736781959170","周","319","","","","","","","","","","","","","","","","","","","","","","","","","","","","","","","","","","","","","","","",""
"608","<p style=""color:white; font-size: 35px;"">精干</p>","e","categorize-html","74","191171","0.0-6.0-0.0-6.0-1.7","4","4","4","4","3","3","4","4","4","4","4","4","4","4","5","5","4","4","4","5","2","3","2","1","2","2","2","1","1","1","0","0","1","0","0","0","1","0","1","1","0","0","0","0","4","5","4","1","4","5","4","4","1","1","763753736781959170","周","319","","","","","","","","","","","","","","","","","","","true","3","3","ability","608","positive","精干","","","","","","","","","","","","","","",""
"null","","null","html-keyboard-response","75","191424","0.0-6.0-0.0-6.0-0.8","4","4","4","4","3","3","4","4","4","4","4","4","4","4","5","5","4","4","4","5","2","3","2","1","2","2","2","1","1","1","0","0","1","0","0","0","1","0","1","1","0","0","0","0","4","5","4","1","4","5","4","4","1","1","763753736781959170","周","319","","","","","","","","","","","","","","","","","","","","","","","","","","","","","","","","","","","","","","","",""
"628","<p style=""color:rgb(150, 250, 100); font-size: 35px;"">我</p>","e","categorize-html","76","192059","0.0-6.0-0.0-6.0-1.8","4","4","4","4","3","3","4","4","4","4","4","4","4","4","5","5","4","4","4","5","2","3","2","1","2","2","2","1","1","1","0","0","1","0","0","0","1","0","1","1","0","0","0","0","4","5","4","1","4","5","4","4","1","1","763753736781959170","周","319","","","","","","","","","","","","","","","","","","","true","3","3","ability","628","self","我","","","","","","","","","","","","","","",""
"null","","null","html-keyboard-response","77","192311","0.0-6.0-0.0-6.0-0.9","4","4","4","4","3","3","4","4","4","4","4","4","4","4","5","5","4","4","4","5","2","3","2","1","2","2","2","1","1","1","0","0","1","0","0","0","1","0","1","1","0","0","0","0","4","5","4","1","4","5","4","4","1","1","763753736781959170","周","319","","","","","","","","","","","","","","","","","","","","","","","","","","","","","","","","","","","","","","","",""
"651","<p style=""color:white; font-size: 35px;"">能干</p>","e","categorize-html","78","192967","0.0-6.0-0.0-6.0-1.9","4","4","4","4","3","3","4","4","4","4","4","4","4","4","5","5","4","4","4","5","2","3","2","1","2","2","2","1","1","1","0","0","1","0","0","0","1","0","1","1","0","0","0","0","4","5","4","1","4","5","4","4","1","1","763753736781959170","周","319","","","","","","","","","","","","","","","","","","","true","3","3","ability","651","positive","能干","","","","","","","","","","","","","","",""
"null","","null","html-keyboard-response","79","193220","0.0-6.0-0.0-6.0-0.10","4","4","4","4","3","3","4","4","4","4","4","4","4","4","5","5","4","4","4","5","2","3","2","1","2","2","2","1","1","1","0","0","1","0","0","0","1","0","1","1","0","0","0","0","4","5","4","1","4","5","4","4","1","1","763753736781959170","周","319","","","","","","","","","","","","","","","","","","","","","","","","","","","","","","","","","","","","","","","",""
"626","<p style=""color:rgb(150, 250, 100); font-size: 35px;"">他人的</p>","i","categorize-html","80","193853","0.0-6.0-0.0-6.0-1.10","4","4","4","4","3","3","4","4","4","4","4","4","4","4","5","5","4","4","4","5","2","3","2","1","2","2","2","1","1","1","0","0","1","0","0","0","1","0","1","1","0","0","0","0","4","5","4","1","4","5","4","4","1","1","763753736781959170","周","319","","","","","","","","","","","","","","","","","","","true","3","3","ability","626","other","他人的","","","","","","","","","","","","","","",""
"null","","null","html-keyboard-response","81","194105","0.0-6.0-0.0-6.0-0.11","4","4","4","4","3","3","4","4","4","4","4","4","4","4","5","5","4","4","4","5","2","3","2","1","2","2","2","1","1","1","0","0","1","0","0","0","1","0","1","1","0","0","0","0","4","5","4","1","4","5","4","4","1","1","763753736781959170","周","319","","","","","","","","","","","","","","","","","","","","","","","","","","","","","","","","","","","","","","","",""
"538","<p style=""color:white; font-size: 35px;"">无能</p>","i","categorize-html","82","194650","0.0-6.0-0.0-6.0-1.11","4","4","4","4","3","3","4","4","4","4","4","4","4","4","5","5","4","4","4","5","2","3","2","1","2","2","2","1","1","1","0","0","1","0","0","0","1","0","1","1","0","0","0","0","4","5","4","1","4","5","4","4","1","1","763753736781959170","周","319","","","","","","","","","","","","","","","","","","","true","3","3","ability","538","negative","无能","","","","","","","","","","","","","","",""
"null","","null","html-keyboard-response","83","194902","0.0-6.0-0.0-6.0-0.12","4","4","4","4","3","3","4","4","4","4","4","4","4","4","5","5","4","4","4","5","2","3","2","1","2","2","2","1","1","1","0","0","1","0","0","0","1","0","1","1","0","0","0","0","4","5","4","1","4","5","4","4","1","1","763753736781959170","周","319","","","","","","","","","","","","","","","","","","","","","","","","","","","","","","","","","","","","","","","",""
"773","<p style=""color:rgb(150, 250, 100); font-size: 35px;"">自己的</p>","e","categorize-html","84","195682","0.0-6.0-0.0-6.0-1.12","4","4","4","4","3","3","4","4","4","4","4","4","4","4","5","5","4","4","4","5","2","3","2","1","2","2","2","1","1","1","0","0","1","0","0","0","1","0","1","1","0","0","0","0","4","5","4","1","4","5","4","4","1","1","763753736781959170","周","319","","","","","","","","","","","","","","","","","","","true","3","3","ability","773","self","自己的","","","","","","","","","","","","","","",""
"null","","null","html-keyboard-response","85","195934","0.0-6.0-0.0-6.0-0.13","4","4","4","4","3","3","4","4","4","4","4","4","4","4","5","5","4","4","4","5","2","3","2","1","2","2","2","1","1","1","0","0","1","0","0","0","1","0","1","1","0","0","0","0","4","5","4","1","4","5","4","4","1","1","763753736781959170","周","319","","","","","","","","","","","","","","","","","","","","","","","","","","","","","","","","","","","","","","","",""
"596","<p style=""color:white; font-size: 35px;"">废物</p>","i","categorize-html","86","196539","0.0-6.0-0.0-6.0-1.13","4","4","4","4","3","3","4","4","4","4","4","4","4","4","5","5","4","4","4","5","2","3","2","1","2","2","2","1","1","1","0","0","1","0","0","0","1","0","1","1","0","0","0","0","4","5","4","1","4","5","4","4","1","1","763753736781959170","周","319","","","","","","","","","","","","","","","","","","","true","3","3","ability","596","negative","废物","","","","","","","","","","","","","","",""
"null","","null","html-keyboard-response","87","196796","0.0-6.0-0.0-6.0-0.14","4","4","4","4","3","3","4","4","4","4","4","4","4","4","5","5","4","4","4","5","2","3","2","1","2","2","2","1","1","1","0","0","1","0","0","0","1","0","1","1","0","0","0","0","4","5","4","1","4","5","4","4","1","1","763753736781959170","周","319","","","","","","","","","","","","","","","","","","","","","","","","","","","","","","","","","","","","","","","",""
"532","<p style=""color:rgb(150, 250, 100); font-size: 35px;"">他的</p>","i","categorize-html","88","197334","0.0-6.0-0.0-6.0-1.14","4","4","4","4","3","3","4","4","4","4","4","4","4","4","5","5","4","4","4","5","2","3","2","1","2","2","2","1","1","1","0","0","1","0","0","0","1","0","1","1","0","0","0","0","4","5","4","1","4","5","4","4","1","1","763753736781959170","周","319","","","","","","","","","","","","","","","","","","","true","3","3","ability","532","other","他的","","","","","","","","","","","","","","",""
"null","","null","html-keyboard-response","89","197587","0.0-6.0-0.0-6.0-0.15","4","4","4","4","3","3","4","4","4","4","4","4","4","4","5","5","4","4","4","5","2","3","2","1","2","2","2","1","1","1","0","0","1","0","0","0","1","0","1","1","0","0","0","0","4","5","4","1","4","5","4","4","1","1","763753736781959170","周","319","","","","","","","","","","","","","","","","","","","","","","","","","","","","","","","","","","","","","","","",""
"601","<p style=""color:white; font-size: 35px;"">天才</p>","e","categorize-html","90","198196","0.0-6.0-0.0-6.0-1.15","4","4","4","4","3","3","4","4","4","4","4","4","4","4","5","5","4","4","4","5","2","3","2","1","2","2","2","1","1","1","0","0","1","0","0","0","1","0","1","1","0","0","0","0","4","5","4","1","4","5","4","4","1","1","763753736781959170","周","319","","","","","","","","","","","","","","","","","","","true","3","3","ability","601","positive","天才","","","","","","","","","","","","","","",""
"null","","null","html-keyboard-response","91","198448","0.0-6.0-0.0-6.0-0.16","4","4","4","4","3","3","4","4","4","4","4","4","4","4","5","5","4","4","4","5","2","3","2","1","2","2","2","1","1","1","0","0","1","0","0","0","1","0","1","1","0","0","0","0","4","5","4","1","4","5","4","4","1","1","763753736781959170","周","319","","","","","","","","","","","","","","","","","","","","","","","","","","","","","","","","","","","","","","","",""
"684","<p style=""color:rgb(150, 250, 100); font-size: 35px;"">我的</p>","e","categorize-html","92","199138","0.0-6.0-0.0-6.0-1.16","4","4","4","4","3","3","4","4","4","4","4","4","4","4","5","5","4","4","4","5","2","3","2","1","2","2","2","1","1","1","0","0","1","0","0","0","1","0","1","1","0","0","0","0","4","5","4","1","4","5","4","4","1","1","763753736781959170","周","319","","","","","","","","","","","","","","","","","","","true","3","3","ability","684","self","我的","","","","","","","","","","","","","","",""
"null","","null","html-keyboard-response","93","199390","0.0-6.0-0.0-6.0-0.17","4","4","4","4","3","3","4","4","4","4","4","4","4","4","5","5","4","4","4","5","2","3","2","1","2","2","2","1","1","1","0","0","1","0","0","0","1","0","1","1","0","0","0","0","4","5","4","1","4","5","4","4","1","1","763753736781959170","周","319","","","","","","","","","","","","","","","","","","","","","","","","","","","","","","","","","","","","","","","",""
"617","<p style=""color:white; font-size: 35px;"">愚钝</p>","i","categorize-html","94","200014","0.0-6.0-0.0-6.0-1.17","4","4","4","4","3","3","4","4","4","4","4","4","4","4","5","5","4","4","4","5","2","3","2","1","2","2","2","1","1","1","0","0","1","0","0","0","1","0","1","1","0","0","0","0","4","5","4","1","4","5","4","4","1","1","763753736781959170","周","319","","","","","","","","","","","","","","","","","","","true","3","3","ability","617","negative","愚钝","","","","","","","","","","","","","","",""
"null","","null","html-keyboard-response","95","200267","0.0-6.0-0.0-6.0-0.18","4","4","4","4","3","3","4","4","4","4","4","4","4","4","5","5","4","4","4","5","2","3","2","1","2","2","2","1","1","1","0","0","1","0","0","0","1","0","1","1","0","0","0","0","4","5","4","1","4","5","4","4","1","1","763753736781959170","周","319","","","","","","","","","","","","","","","","","","","","","","","","","","","","","","","","","","","","","","","",""
"725","<p style=""color:rgb(150, 250, 100); font-size: 35px;"">别人的</p>","i","categorize-html","96","200997","0.0-6.0-0.0-6.0-1.18","4","4","4","4","3","3","4","4","4","4","4","4","4","4","5","5","4","4","4","5","2","3","2","1","2","2","2","1","1","1","0","0","1","0","0","0","1","0","1","1","0","0","0","0","4","5","4","1","4","5","4","4","1","1","763753736781959170","周","319","","","","","","","","","","","","","","","","","","","true","3","3","ability","725","other","别人的","","","","","","","","","","","","","","",""
"null","","null","html-keyboard-response","97","201249","0.0-6.0-0.0-6.0-0.19","4","4","4","4","3","3","4","4","4","4","4","4","4","4","5","5","4","4","4","5","2","3","2","1","2","2","2","1","1","1","0","0","1","0","0","0","1","0","1","1","0","0","0","0","4","5","4","1","4","5","4","4","1","1","763753736781959170","周","319","","","","","","","","","","","","","","","","","","","","","","","","","","","","","","","","","","","","","","","",""
"531","<p style=""color:white; font-size: 35px;"">高效</p>","e","categorize-html","98","201790","0.0-6.0-0.0-6.0-1.19","4","4","4","4","3","3","4","4","4","4","4","4","4","4","5","5","4","4","4","5","2","3","2","1","2","2","2","1","1","1","0","0","1","0","0","0","1","0","1","1","0","0","0","0","4","5","4","1","4","5","4","4","1","1","763753736781959170","周","319","","","","","","","","","","","","","","","","","","","true","3","3","ability","531","positive","高效","","","","","","","","","","","","","","",""
"null","","null","html-keyboard-response","99","202043","0.0-6.0-0.0-6.0-0.20","4","4","4","4","3","3","4","4","4","4","4","4","4","4","5","5","4","4","4","5","2","3","2","1","2","2","2","1","1","1","0","0","1","0","0","0","1","0","1","1","0","0","0","0","4","5","4","1","4","5","4","4","1","1","763753736781959170","周","319","","","","","","","","","","","","","","","","","","","","","","","","","","","","","","","","","","","","","","","",""
"653","<p style=""color:rgb(150, 250, 100); font-size: 35px;"">他人</p>","i","categorize-html","100","202706","0.0-6.0-0.0-6.0-1.20","4","4","4","4","3","3","4","4","4","4","4","4","4","4","5","5","4","4","4","5","2","3","2","1","2","2","2","1","1","1","0","0","1","0","0","0","1","0","1","1","0","0","0","0","4","5","4","1","4","5","4","4","1","1","763753736781959170","周","319","","","","","","","","","","","","","","","","","","","true","3","3","ability","653","other","他人","","","","","","","","","","","","","","",""
"null","","null","html-keyboard-response","101","202960","0.0-6.0-0.0-6.0-0.21","4","4","4","4","3","3","4","4","4","4","4","4","4","4","5","5","4","4","4","5","2","3","2","1","2","2","2","1","1","1","0","0","1","0","0","0","1","0","1","1","0","0","0","0","4","5","4","1","4","5","4","4","1","1","763753736781959170","周","319","","","","","","","","","","","","","","","","","","","","","","","","","","","","","","","","","","","","","","","",""
"576","<p style=""color:white; font-size: 35px;"">全才</p>","e","categorize-html","102","203543","0.0-6.0-0.0-6.0-1.21","4","4","4","4","3","3","4","4","4","4","4","4","4","4","5","5","4","4","4","5","2","3","2","1","2","2","2","1","1","1","0","0","1","0","0","0","1","0","1","1","0","0","0","0","4","5","4","1","4","5","4","4","1","1","763753736781959170","周","319","","","","","","","","","","","","","","","","","","","true","3","3","ability","576","positive","全才","","","","","","","","","","","","","","",""
"null","","null","html-keyboard-response","103","203795","0.0-6.0-0.0-6.0-0.22","4","4","4","4","3","3","4","4","4","4","4","4","4","4","5","5","4","4","4","5","2","3","2","1","2","2","2","1","1","1","0","0","1","0","0","0","1","0","1","1","0","0","0","0","4","5","4","1","4","5","4","4","1","1","763753736781959170","周","319","","","","","","","","","","","","","","","","","","","","","","","","","","","","","","","","","","","","","","","",""
"555","<p style=""color:rgb(150, 250, 100); font-size: 35px;"">本人</p>","e","categorize-html","104","204356","0.0-6.0-0.0-6.0-1.22","4","4","4","4","3","3","4","4","4","4","4","4","4","4","5","5","4","4","4","5","2","3","2","1","2","2","2","1","1","1","0","0","1","0","0","0","1","0","1","1","0","0","0","0","4","5","4","1","4","5","4","4","1","1","763753736781959170","周","319","","","","","","","","","","","","","","","","","","","true","3","3","ability","555","self","本人","","","","","","","","","","","","","","",""
"null","","null","html-keyboard-response","105","204608","0.0-6.0-0.0-6.0-0.23","4","4","4","4","3","3","4","4","4","4","4","4","4","4","5","5","4","4","4","5","2","3","2","1","2","2","2","1","1","1","0","0","1","0","0","0","1","0","1","1","0","0","0","0","4","5","4","1","4","5","4","4","1","1","763753736781959170","周","319","","","","","","","","","","","","","","","","","","","","","","","","","","","","","","","","","","","","","","","",""
"576","<p style=""color:white; font-size: 35px;"">低能</p>","i","categorize-html","106","205190","0.0-6.0-0.0-6.0-1.23","4","4","4","4","3","3","4","4","4","4","4","4","4","4","5","5","4","4","4","5","2","3","2","1","2","2","2","1","1","1","0","0","1","0","0","0","1","0","1","1","0","0","0","0","4","5","4","1","4","5","4","4","1","1","763753736781959170","周","319","","","","","","","","","","","","","","","","","","","true","3","3","ability","576","negative","低能","","","","","","","","","","","","","","",""
"4958","
    <div class=""tag-bottom""><p>
    —— 任务4：对“自我/积极”词和“他人/消极”词分类 ——<p/>
    <span style=""color:#78DCE8""><b>与刚才的任务完全相同，请再次对这四类词语分类</b></span><p/>
    <span style=""color:#FFD866""><b>请根据上方标签的提示，尽可能正确并且快速地做出按键反应</b></span><p/>
    当按键错误时屏幕中会出现<span style=""color:red""> X </span>，需要按另一个键纠正才能继续<br/><p/>
    请把双手食指分别放在键盘的“E”键和“I”键上<p/>
    按<空格键>开始
    </p></div>"," ","html-keyboard-response","107","210150","0.0-6.0-0.0-7.0","4","4","4","4","3","3","4","4","4","4","4","4","4","4","5","5","4","4","4","5","2","3","2","1","2","2","2","1","1","1","0","0","1","0","0","0","1","0","1","1","0","0","0","0","4","5","4","1","4","5","4","4","1","1","763753736781959170","周","319","","","","","","","","","","","","","","","","","","","","","","","","","","","","","","","","","","","","","","","",""
"null","","null","html-keyboard-response","108","210402","0.0-6.0-0.0-8.0-0.0","4","4","4","4","3","3","4","4","4","4","4","4","4","4","5","5","4","4","4","5","2","3","2","1","2","2","2","1","1","1","0","0","1","0","0","0","1","0","1","1","0","0","0","0","4","5","4","1","4","5","4","4","1","1","763753736781959170","周","319","","","","","","","","","","","","","","","","","","","","","","","","","","","","","","","","","","","","","","","",""
"430","<p style=""color:rgb(150, 250, 100); font-size: 35px;"">自己</p>","e","categorize-html","109","210839","0.0-6.0-0.0-8.0-1.0","4","4","4","4","3","3","4","4","4","4","4","4","4","4","5","5","4","4","4","5","2","3","2","1","2","2","2","1","1","1","0","0","1","0","0","0","1","0","1","1","0","0","0","0","4","5","4","1","4","5","4","4","1","1","763753736781959170","周","319","","","","","","","","","","","","","","","","","","","true","4","4","ability","430","self","自己","","","","","","","","","","","","","","",""
"null","","null","html-keyboard-response","110","211093","0.0-6.0-0.0-8.0-0.1","4","4","4","4","3","3","4","4","4","4","4","4","4","4","5","5","4","4","4","5","2","3","2","1","2","2","2","1","1","1","0","0","1","0","0","0","1","0","1","1","0","0","0","0","4","5","4","1","4","5","4","4","1","1","763753736781959170","周","319","","","","","","","","","","","","","","","","","","","","","","","","","","","","","","","","","","","","","","","",""
"586","<p style=""color:white; font-size: 35px;"">愚钝</p>","i","categorize-html","111","211686","0.0-6.0-0.0-8.0-1.1","4","4","4","4","3","3","4","4","4","4","4","4","4","4","5","5","4","4","4","5","2","3","2","1","2","2","2","1","1","1","0","0","1","0","0","0","1","0","1","1","0","0","0","0","4","5","4","1","4","5","4","4","1","1","763753736781959170","周","319","","","","","","","","","","","","","","","","","","","true","4","4","ability","586","negative","愚钝","","","","","","","","","","","","","","",""
"null","","null","html-keyboard-response","112","211938","0.0-6.0-0.0-8.0-0.2","4","4","4","4","3","3","4","4","4","4","4","4","4","4","5","5","4","4","4","5","2","3","2","1","2","2","2","1","1","1","0","0","1","0","0","0","1","0","1","1","0","0","0","0","4","5","4","1","4","5","4","4","1","1","763753736781959170","周","319","","","","","","","","","","","","","","","","","","","","","","","","","","","","","","","","","","","","","","","",""
"570","<p style=""color:rgb(150, 250, 100); font-size: 35px;"">他的</p>","i","categorize-html","113","212515","0.0-6.0-0.0-8.0-1.2","4","4","4","4","3","3","4","4","4","4","4","4","4","4","5","5","4","4","4","5","2","3","2","1","2","2","2","1","1","1","0","0","1","0","0","0","1","0","1","1","0","0","0","0","4","5","4","1","4","5","4","4","1","1","763753736781959170","周","319","","","","","","","","","","","","","","","","","","","true","4","4","ability","570","other","他的","","","","","","","","","","","","","","",""
"null","","null","html-keyboard-response","114","212767","0.0-6.0-0.0-8.0-0.3","4","4","4","4","3","3","4","4","4","4","4","4","4","4","5","5","4","4","4","5","2","3","2","1","2","2","2","1","1","1","0","0","1","0","0","0","1","0","1","1","0","0","0","0","4","5","4","1","4","5","4","4","1","1","763753736781959170","周","319","","","","","","","","","","","","","","","","","","","","","","","","","","","","","","","","","","","","","","","",""
"552","<p style=""color:white; font-size: 35px;"">精干</p>","e","categorize-html","115","213325","0.0-6.0-0.0-8.0-1.3","4","4","4","4","3","3","4","4","4","4","4","4","4","4","5","5","4","4","4","5","2","3","2","1","2","2","2","1","1","1","0","0","1","0","0","0","1","0","1","1","0","0","0","0","4","5","4","1","4","5","4","4","1","1","763753736781959170","周","319","","","","","","","","","","","","","","","","","","","true","4","4","ability","552","positive","精干","","","","","","","","","","","","","","",""
"null","","null","html-keyboard-response","116","213578","0.0-6.0-0.0-8.0-0.4","4","4","4","4","3","3","4","4","4","4","4","4","4","4","5","5","4","4","4","5","2","3","2","1","2","2","2","1","1","1","0","0","1","0","0","0","1","0","1","1","0","0","0","0","4","5","4","1","4","5","4","4","1","1","763753736781959170","周","319","","","","","","","","","","","","","","","","","","","","","","","","","","","","","","","","","","","","","","","",""
"534","<p style=""color:rgb(150, 250, 100); font-size: 35px;"">别人的</p>","i","categorize-html","117","214117","0.0-6.0-0.0-8.0-1.4","4","4","4","4","3","3","4","4","4","4","4","4","4","4","5","5","4","4","4","5","2","3","2","1","2","2","2","1","1","1","0","0","1","0","0","0","1","0","1","1","0","0","0","0","4","5","4","1","4","5","4","4","1","1","763753736781959170","周","319","","","","","","","","","","","","","","","","","","","true","4","4","ability","534","other","别人的","","","","","","","","","","","","","","",""
"null","","null","html-keyboard-response","118","214369","0.0-6.0-0.0-8.0-0.5","4","4","4","4","3","3","4","4","4","4","4","4","4","4","5","5","4","4","4","5","2","3","2","1","2","2","2","1","1","1","0","0","1","0","0","0","1","0","1","1","0","0","0","0","4","5","4","1","4","5","4","4","1","1","763753736781959170","周","319","","","","","","","","","","","","","","","","","","","","","","","","","","","","","","","","","","","","","","","",""
"498","<p style=""color:white; font-size: 35px;"">蠢笨</p>","i","categorize-html","119","214873","0.0-6.0-0.0-8.0-1.5","4","4","4","4","3","3","4","4","4","4","4","4","4","4","5","5","4","4","4","5","2","3","2","1","2","2","2","1","1","1","0","0","1","0","0","0","1","0","1","1","0","0","0","0","4","5","4","1","4","5","4","4","1","1","763753736781959170","周","319","","","","","","","","","","","","","","","","","","","true","4","4","ability","498","negative","蠢笨","","","","","","","","","","","","","","",""
"null","","null","html-keyboard-response","120","215125","0.0-6.0-0.0-8.0-0.6","4","4","4","4","3","3","4","4","4","4","4","4","4","4","5","5","4","4","4","5","2","3","2","1","2","2","2","1","1","1","0","0","1","0","0","0","1","0","1","1","0","0","0","0","4","5","4","1","4","5","4","4","1","1","763753736781959170","周","319","","","","","","","","","","","","","","","","","","","","","","","","","","","","","","","","","","","","","","","",""
"521","<p style=""color:rgb(150, 250, 100); font-size: 35px;"">本人的</p>","e","categorize-html","121","215652","0.0-6.0-0.0-8.0-1.6","4","4","4","4","3","3","4","4","4","4","4","4","4","4","5","5","4","4","4","5","2","3","2","1","2","2","2","1","1","1","0","0","1","0","0","0","1","0","1","1","0","0","0","0","4","5","4","1","4","5","4","4","1","1","763753736781959170","周","319","","","","","","","","","","","","","","","","","","","true","4","4","ability","521","self","本人的","","","","","","","","","","","","","","",""
"null","","null","html-keyboard-response","122","215904","0.0-6.0-0.0-8.0-0.7","4","4","4","4","3","3","4","4","4","4","4","4","4","4","5","5","4","4","4","5","2","3","2","1","2","2","2","1","1","1","0","0","1","0","0","0","1","0","1","1","0","0","0","0","4","5","4","1","4","5","4","4","1","1","763753736781959170","周","319","","","","","","","","","","","","","","","","","","","","","","","","","","","","","","","","","","","","","","","",""
"564","<p style=""color:white; font-size: 35px;"">能干</p>","e","categorize-html","123","216475","0.0-6.0-0.0-8.0-1.7","4","4","4","4","3","3","4","4","4","4","4","4","4","4","5","5","4","4","4","5","2","3","2","1","2","2","2","1","1","1","0","0","1","0","0","0","1","0","1","1","0","0","0","0","4","5","4","1","4","5","4","4","1","1","763753736781959170","周","319","","","","","","","","","","","","","","","","","","","true","4","4","ability","564","positive","能干","","","","","","","","","","","","","","",""
"null","","null","html-keyboard-response","124","216727","0.0-6.0-0.0-8.0-0.8","4","4","4","4","3","3","4","4","4","4","4","4","4","4","5","5","4","4","4","5","2","3","2","1","2","2","2","1","1","1","0","0","1","0","0","0","1","0","1","1","0","0","0","0","4","5","4","1","4","5","4","4","1","1","763753736781959170","周","319","","","","","","","","","","","","","","","","","","","","","","","","","","","","","","","","","","","","","","","",""
"553","<p style=""color:rgb(150, 250, 100); font-size: 35px;"">本人的</p>","e","categorize-html","125","217285","0.0-6.0-0.0-8.0-1.8","4","4","4","4","3","3","4","4","4","4","4","4","4","4","5","5","4","4","4","5","2","3","2","1","2","2","2","1","1","1","0","0","1","0","0","0","1","0","1","1","0","0","0","0","4","5","4","1","4","5","4","4","1","1","763753736781959170","周","319","","","","","","","","","","","","","","","","","","","true","4","4","ability","553","self","本人的","","","","","","","","","","","","","","",""
"null","","null","html-keyboard-response","126","217537","0.0-6.0-0.0-8.0-0.9","4","4","4","4","3","3","4","4","4","4","4","4","4","4","5","5","4","4","4","5","2","3","2","1","2","2","2","1","1","1","0","0","1","0","0","0","1","0","1","1","0","0","0","0","4","5","4","1","4","5","4","4","1","1","763753736781959170","周","319","","","","","","","","","","","","","","","","","","","","","","","","","","","","","","","","","","","","","","","",""
"470","<p style=""color:white; font-size: 35px;"">废物</p>","i","categorize-html","127","218013","0.0-6.0-0.0-8.0-1.9","4","4","4","4","3","3","4","4","4","4","4","4","4","4","5","5","4","4","4","5","2","3","2","1","2","2","2","1","1","1","0","0","1","0","0","0","1","0","1","1","0","0","0","0","4","5","4","1","4","5","4","4","1","1","763753736781959170","周","319","","","","","","","","","","","","","","","","","","","true","4","4","ability","470","negative","废物","","","","","","","","","","","","","","",""
"null","","null","html-keyboard-response","128","218265","0.0-6.0-0.0-8.0-0.10","4","4","4","4","3","3","4","4","4","4","4","4","4","4","5","5","4","4","4","5","2","3","2","1","2","2","2","1","1","1","0","0","1","0","0","0","1","0","1","1","0","0","0","0","4","5","4","1","4","5","4","4","1","1","763753736781959170","周","319","","","","","","","","","","","","","","","","","","","","","","","","","","","","","","","","","","","","","","","",""
"560","<p style=""color:rgb(150, 250, 100); font-size: 35px;"">他人</p>","i","categorize-html","129","218831","0.0-6.0-0.0-8.0-1.10","4","4","4","4","3","3","4","4","4","4","4","4","4","4","5","5","4","4","4","5","2","3","2","1","2","2","2","1","1","1","0","0","1","0","0","0","1","0","1","1","0","0","0","0","4","5","4","1","4","5","4","4","1","1","763753736781959170","周","319","","","","","","","","","","","","","","","","","","","true","4","4","ability","560","other","他人","","","","","","","","","","","","","","",""
"null","","null","html-keyboard-response","130","219083","0.0-6.0-0.0-8.0-0.11","4","4","4","4","3","3","4","4","4","4","4","4","4","4","5","5","4","4","4","5","2","3","2","1","2","2","2","1","1","1","0","0","1","0","0","0","1","0","1","1","0","0","0","0","4","5","4","1","4","5","4","4","1","1","763753736781959170","周","319","","","","","","","","","","","","","","","","","","","","","","","","","","","","","","","","","","","","","","","",""
"604","<p style=""color:white; font-size: 35px;"">全能</p>","e","categorize-html","131","219694","0.0-6.0-0.0-8.0-1.11","4","4","4","4","3","3","4","4","4","4","4","4","4","4","5","5","4","4","4","5","2","3","2","1","2","2","2","1","1","1","0","0","1","0","0","0","1","0","1","1","0","0","0","0","4","5","4","1","4","5","4","4","1","1","763753736781959170","周","319","","","","","","","","","","","","","","","","","","","true","4","4","ability","604","positive","全能","","","","","","","","","","","","","","",""
"null","","null","html-keyboard-response","132","219946","0.0-6.0-0.0-8.0-0.12","4","4","4","4","3","3","4","4","4","4","4","4","4","4","5","5","4","4","4","5","2","3","2","1","2","2","2","1","1","1","0","0","1","0","0","0","1","0","1","1","0","0","0","0","4","5","4","1","4","5","4","4","1","1","763753736781959170","周","319","","","","","","","","","","","","","","","","","","","","","","","","","","","","","","","","","","","","","","","",""
"542","<p style=""color:rgb(150, 250, 100); font-size: 35px;"">我的</p>","e","categorize-html","133","220494","0.0-6.0-0.0-8.0-1.12","4","4","4","4","3","3","4","4","4","4","4","4","4","4","5","5","4","4","4","5","2","3","2","1","2","2","2","1","1","1","0","0","1","0","0","0","1","0","1","1","0","0","0","0","4","5","4","1","4","5","4","4","1","1","763753736781959170","周","319","","","","","","","","","","","","","","","","","","","true","4","4","ability","542","self","我的","","","","","","","","","","","","","","",""
"null","","null","html-keyboard-response","134","220746","0.0-6.0-0.0-8.0-0.13","4","4","4","4","3","3","4","4","4","4","4","4","4","4","5","5","4","4","4","5","2","3","2","1","2","2","2","1","1","1","0","0","1","0","0","0","1","0","1","1","0","0","0","0","4","5","4","1","4","5","4","4","1","1","763753736781959170","周","319","","","","","","","","","","","","","","","","","","","","","","","","","","","","","","","","","","","","","","","",""
"465","<p style=""color:white; font-size: 35px;"">废物</p>","i","categorize-html","135","221219","0.0-6.0-0.0-8.0-1.13","4","4","4","4","3","3","4","4","4","4","4","4","4","4","5","5","4","4","4","5","2","3","2","1","2","2","2","1","1","1","0","0","1","0","0","0","1","0","1","1","0","0","0","0","4","5","4","1","4","5","4","4","1","1","763753736781959170","周","319","","","","","","","","","","","","","","","","","","","true","4","4","ability","465","negative","废物","","","","","","","","","","","","","","",""
"null","","null","html-keyboard-response","136","221472","0.0-6.0-0.0-8.0-0.14","4","4","4","4","3","3","4","4","4","4","4","4","4","4","5","5","4","4","4","5","2","3","2","1","2","2","2","1","1","1","0","0","1","0","0","0","1","0","1","1","0","0","0","0","4","5","4","1","4","5","4","4","1","1","763753736781959170","周","319","","","","","","","","","","","","","","","","","","","","","","","","","","","","","","","","","","","","","","","",""
"607","<p style=""color:rgb(150, 250, 100); font-size: 35px;"">别人</p>","i","categorize-html","137","222087","0.0-6.0-0.0-8.0-1.14","4","4","4","4","3","3","4","4","4","4","4","4","4","4","5","5","4","4","4","5","2","3","2","1","2","2","2","1","1","1","0","0","1","0","0","0","1","0","1","1","0","0","0","0","4","5","4","1","4","5","4","4","1","1","763753736781959170","周","319","","","","","","","","","","","","","","","","","","","true","4","4","ability","607","other","别人","","","","","","","","","","","","","","",""
"null","","null","html-keyboard-response","138","222338","0.0-6.0-0.0-8.0-0.15","4","4","4","4","3","3","4","4","4","4","4","4","4","4","5","5","4","4","4","5","2","3","2","1","2","2","2","1","1","1","0","0","1","0","0","0","1","0","1","1","0","0","0","0","4","5","4","1","4","5","4","4","1","1","763753736781959170","周","319","","","","","","","","","","","","","","","","","","","","","","","","","","","","","","","","","","","","","","","",""
"580","<p style=""color:white; font-size: 35px;"">高效</p>","e","categorize-html","139","222924","0.0-6.0-0.0-8.0-1.15","4","4","4","4","3","3","4","4","4","4","4","4","4","4","5","5","4","4","4","5","2","3","2","1","2","2","2","1","1","1","0","0","1","0","0","0","1","0","1","1","0","0","0","0","4","5","4","1","4","5","4","4","1","1","763753736781959170","周","319","","","","","","","","","","","","","","","","","","","true","4","4","ability","580","positive","高效","","","","","","","","","","","","","","",""
"null","","null","html-keyboard-response","140","223177","0.0-6.0-0.0-8.0-0.16","4","4","4","4","3","3","4","4","4","4","4","4","4","4","5","5","4","4","4","5","2","3","2","1","2","2","2","1","1","1","0","0","1","0","0","0","1","0","1","1","0","0","0","0","4","5","4","1","4","5","4","4","1","1","763753736781959170","周","319","","","","","","","","","","","","","","","","","","","","","","","","","","","","","","","","","","","","","","","",""
"565","<p style=""color:rgb(150, 250, 100); font-size: 35px;"">我的</p>","e","categorize-html","141","223748","0.0-6.0-0.0-8.0-1.16","4","4","4","4","3","3","4","4","4","4","4","4","4","4","5","5","4","4","4","5","2","3","2","1","2","2","2","1","1","1","0","0","1","0","0","0","1","0","1","1","0","0","0","0","4","5","4","1","4","5","4","4","1","1","763753736781959170","周","319","","","","","","","","","","","","","","","","","","","true","4","4","ability","565","self","我的","","","","","","","","","","","","","","",""
"null","","null","html-keyboard-response","142","224001","0.0-6.0-0.0-8.0-0.17","4","4","4","4","3","3","4","4","4","4","4","4","4","4","5","5","4","4","4","5","2","3","2","1","2","2","2","1","1","1","0","0","1","0","0","0","1","0","1","1","0","0","0","0","4","5","4","1","4","5","4","4","1","1","763753736781959170","周","319","","","","","","","","","","","","","","","","","","","","","","","","","","","","","","","","","","","","","","","",""
"533","<p style=""color:white; font-size: 35px;"">精干</p>","e","categorize-html","143","224540","0.0-6.0-0.0-8.0-1.17","4","4","4","4","3","3","4","4","4","4","4","4","4","4","5","5","4","4","4","5","2","3","2","1","2","2","2","1","1","1","0","0","1","0","0","0","1","0","1","1","0","0","0","0","4","5","4","1","4","5","4","4","1","1","763753736781959170","周","319","","","","","","","","","","","","","","","","","","","true","4","4","ability","533","positive","精干","","","","","","","","","","","","","","",""
"null","","null","html-keyboard-response","144","224792","0.0-6.0-0.0-8.0-0.18","4","4","4","4","3","3","4","4","4","4","4","4","4","4","5","5","4","4","4","5","2","3","2","1","2","2","2","1","1","1","0","0","1","0","0","0","1","0","1","1","0","0","0","0","4","5","4","1","4","5","4","4","1","1","763753736781959170","周","319","","","","","","","","","","","","","","","","","","","","","","","","","","","","","","","","","","","","","","","",""
"558","<p style=""color:rgb(150, 250, 100); font-size: 35px;"">他的</p>","i","categorize-html","145","225357","0.0-6.0-0.0-8.0-1.18","4","4","4","4","3","3","4","4","4","4","4","4","4","4","5","5","4","4","4","5","2","3","2","1","2","2","2","1","1","1","0","0","1","0","0","0","1","0","1","1","0","0","0","0","4","5","4","1","4","5","4","4","1","1","763753736781959170","周","319","","","","","","","","","","","","","","","","","","","true","4","4","ability","558","other","他的","","","","","","","","","","","","","","",""
"null","","null","html-keyboard-response","146","225609","0.0-6.0-0.0-8.0-0.19","4","4","4","4","3","3","4","4","4","4","4","4","4","4","5","5","4","4","4","5","2","3","2","1","2","2","2","1","1","1","0","0","1","0","0","0","1","0","1","1","0","0","0","0","4","5","4","1","4","5","4","4","1","1","763753736781959170","周","319","","","","","","","","","","","","","","","","","","","","","","","","","","","","","","","","","","","","","","","",""
"792","<p style=""color:white; font-size: 35px;"">低能</p>","i","categorize-html","147","226408","0.0-6.0-0.0-8.0-1.19","4","4","4","4","3","3","4","4","4","4","4","4","4","4","5","5","4","4","4","5","2","3","2","1","2","2","2","1","1","1","0","0","1","0","0","0","1","0","1","1","0","0","0","0","4","5","4","1","4","5","4","4","1","1","763753736781959170","周","319","","","","","","","","","","","","","","","","","","","true","4","4","ability","792","negative","低能","","","","","","","","","","","","","","",""
"null","","null","html-keyboard-response","148","226659","0.0-6.0-0.0-8.0-0.20","4","4","4","4","3","3","4","4","4","4","4","4","4","4","5","5","4","4","4","5","2","3","2","1","2","2","2","1","1","1","0","0","1","0","0","0","1","0","1","1","0","0","0","0","4","5","4","1","4","5","4","4","1","1","763753736781959170","周","319","","","","","","","","","","","","","","","","","","","","","","","","","","","","","","","","","","","","","","","",""
"564","<p style=""color:rgb(150, 250, 100); font-size: 35px;"">别人的</p>","i","categorize-html","149","227232","0.0-6.0-0.0-8.0-1.20","4","4","4","4","3","3","4","4","4","4","4","4","4","4","5","5","4","4","4","5","2","3","2","1","2","2","2","1","1","1","0","0","1","0","0","0","1","0","1","1","0","0","0","0","4","5","4","1","4","5","4","4","1","1","763753736781959170","周","319","","","","","","","","","","","","","","","","","","","true","4","4","ability","564","other","别人的","","","","","","","","","","","","","","",""
"null","","null","html-keyboard-response","150","227486","0.0-6.0-0.0-8.0-0.21","4","4","4","4","3","3","4","4","4","4","4","4","4","4","5","5","4","4","4","5","2","3","2","1","2","2","2","1","1","1","0","0","1","0","0","0","1","0","1","1","0","0","0","0","4","5","4","1","4","5","4","4","1","1","763753736781959170","周","319","","","","","","","","","","","","","","","","","","","","","","","","","","","","","","","","","","","","","","","",""
"518","<p style=""color:white; font-size: 35px;"">愚钝</p>","i","categorize-html","151","228010","0.0-6.0-0.0-8.0-1.21","4","4","4","4","3","3","4","4","4","4","4","4","4","4","5","5","4","4","4","5","2","3","2","1","2","2","2","1","1","1","0","0","1","0","0","0","1","0","1","1","0","0","0","0","4","5","4","1","4","5","4","4","1","1","763753736781959170","周","319","","","","","","","","","","","","","","","","","","","true","4","4","ability","518","negative","愚钝","","","","","","","","","","","","","","",""
"null","","null","html-keyboard-response","152","228261","0.0-6.0-0.0-8.0-0.22","4","4","4","4","3","3","4","4","4","4","4","4","4","4","5","5","4","4","4","5","2","3","2","1","2","2","2","1","1","1","0","0","1","0","0","0","1","0","1","1","0","0","0","0","4","5","4","1","4","5","4","4","1","1","763753736781959170","周","319","","","","","","","","","","","","","","","","","","","","","","","","","","","","","","","","","","","","","","","",""
"775","<p style=""color:rgb(150, 250, 100); font-size: 35px;"">本人</p>","e","categorize-html","153","229043","0.0-6.0-0.0-8.0-1.22","4","4","4","4","3","3","4","4","4","4","4","4","4","4","5","5","4","4","4","5","2","3","2","1","2","2","2","1","1","1","0","0","1","0","0","0","1","0","1","1","0","0","0","0","4","5","4","1","4","5","4","4","1","1","763753736781959170","周","319","","","","","","","","","","","","","","","","","","","true","4","4","ability","775","self","本人","","","","","","","","","","","","","","",""
"null","","null","html-keyboard-response","154","229295","0.0-6.0-0.0-8.0-0.23","4","4","4","4","3","3","4","4","4","4","4","4","4","4","5","5","4","4","4","5","2","3","2","1","2","2","2","1","1","1","0","0","1","0","0","0","1","0","1","1","0","0","0","0","4","5","4","1","4","5","4","4","1","1","763753736781959170","周","319","","","","","","","","","","","","","","","","","","","","","","","","","","","","","","","","","","","","","","","",""
"530","<p style=""color:white; font-size: 35px;"">天才</p>","e","categorize-html","155","229832","0.0-6.0-0.0-8.0-1.23","4","4","4","4","3","3","4","4","4","4","4","4","4","4","5","5","4","4","4","5","2","3","2","1","2","2","2","1","1","1","0","0","1","0","0","0","1","0","1","1","0","0","0","0","4","5","4","1","4","5","4","4","1","1","763753736781959170","周","319","","","","","","","","","","","","","","","","","","","true","4","4","ability","530","positive","天才","","","","","","","","","","","","","","",""
"null","","null","html-keyboard-response","156","230084","0.0-6.0-0.0-8.0-0.24","4","4","4","4","3","3","4","4","4","4","4","4","4","4","5","5","4","4","4","5","2","3","2","1","2","2","2","1","1","1","0","0","1","0","0","0","1","0","1","1","0","0","0","0","4","5","4","1","4","5","4","4","1","1","763753736781959170","周","319","","","","","","","","","","","","","","","","","","","","","","","","","","","","","","","","","","","","","","","",""
"673","<p style=""color:rgb(150, 250, 100); font-size: 35px;"">他人的</p>","i","categorize-html","157","230765","0.0-6.0-0.0-8.0-1.24","4","4","4","4","3","3","4","4","4","4","4","4","4","4","5","5","4","4","4","5","2","3","2","1","2","2","2","1","1","1","0","0","1","0","0","0","1","0","1","1","0","0","0","0","4","5","4","1","4","5","4","4","1","1","763753736781959170","周","319","","","","","","","","","","","","","","","","","","","true","4","4","ability","673","other","他人的","","","","","","","","","","","","","","",""
"null","","null","html-keyboard-response","158","231018","0.0-6.0-0.0-8.0-0.25","4","4","4","4","3","3","4","4","4","4","4","4","4","4","5","5","4","4","4","5","2","3","2","1","2","2","2","1","1","1","0","0","1","0","0","0","1","0","1","1","0","0","0","0","4","5","4","1","4","5","4","4","1","1","763753736781959170","周","319","","","","","","","","","","","","","","","","","","","","","","","","","","","","","","","","","","","","","","","",""
"833","<p style=""color:white; font-size: 35px;"">无能</p>","i","categorize-html","159","231858","0.0-6.0-0.0-8.0-1.25","4","4","4","4","3","3","4","4","4","4","4","4","4","4","5","5","4","4","4","5","2","3","2","1","2","2","2","1","1","1","0","0","1","0","0","0","1","0","1","1","0","0","0","0","4","5","4","1","4","5","4","4","1","1","763753736781959170","周","319","","","","","","","","","","","","","","","","","","","true","4","4","ability","833","negative","无能","","","","","","","","","","","","","","",""
"null","","null","html-keyboard-response","160","232111","0.0-6.0-0.0-8.0-0.26","4","4","4","4","3","3","4","4","4","4","4","4","4","4","5","5","4","4","4","5","2","3","2","1","2","2","2","1","1","1","0","0","1","0","0","0","1","0","1","1","0","0","0","0","4","5","4","1","4","5","4","4","1","1","763753736781959170","周","319","","","","","","","","","","","","","","","","","","","","","","","","","","","","","","","","","","","","","","","",""
"556","<p style=""color:rgb(150, 250, 100); font-size: 35px;"">自己</p>","e","categorize-html","161","232674","0.0-6.0-0.0-8.0-1.26","4","4","4","4","3","3","4","4","4","4","4","4","4","4","5","5","4","4","4","5","2","3","2","1","2","2","2","1","1","1","0","0","1","0","0","0","1","0","1","1","0","0","0","0","4","5","4","1","4","5","4","4","1","1","763753736781959170","周","319","","","","","","","","","","","","","","","","","","","true","4","4","ability","556","self","自己","","","","","","","","","","","","","","",""
"null","","null","html-keyboard-response","162","232926","0.0-6.0-0.0-8.0-0.27","4","4","4","4","3","3","4","4","4","4","4","4","4","4","5","5","4","4","4","5","2","3","2","1","2","2","2","1","1","1","0","0","1","0","0","0","1","0","1","1","0","0","0","0","4","5","4","1","4","5","4","4","1","1","763753736781959170","周","319","","","","","","","","","","","","","","","","","","","","","","","","","","","","","","","","","","","","","","","",""
"577","<p style=""color:white; font-size: 35px;"">高效</p>","e","categorize-html","163","233509","0.0-6.0-0.0-8.0-1.27","4","4","4","4","3","3","4","4","4","4","4","4","4","4","5","5","4","4","4","5","2","3","2","1","2","2","2","1","1","1","0","0","1","0","0","0","1","0","1","1","0","0","0","0","4","5","4","1","4","5","4","4","1","1","763753736781959170","周","319","","","","","","","","","","","","","","","","","","","true","4","4","ability","577","positive","高效","","","","","","","","","","","","","","",""
"null","","null","html-keyboard-response","164","233762","0.0-6.0-0.0-8.0-0.28","4","4","4","4","3","3","4","4","4","4","4","4","4","4","5","5","4","4","4","5","2","3","2","1","2","2","2","1","1","1","0","0","1","0","0","0","1","0","1","1","0","0","0","0","4","5","4","1","4","5","4","4","1","1","763753736781959170","周","319","","","","","","","","","","","","","","","","","","","","","","","","","","","","","","","","","","","","","","","",""
"735","<p style=""color:rgb(150, 250, 100); font-size: 35px;"">自己的</p>","e","categorize-html","165","234503","0.0-6.0-0.0-8.0-1.28","4","4","4","4","3","3","4","4","4","4","4","4","4","4","5","5","4","4","4","5","2","3","2","1","2","2","2","1","1","1","0","0","1","0","0","0","1","0","1","1","0","0","0","0","4","5","4","1","4","5","4","4","1","1","763753736781959170","周","319","","","","","","","","","","","","","","","","","","","true","4","4","ability","735","self","自己的","","","","","","","","","","","","","","",""
"null","","null","html-keyboard-response","166","234755","0.0-6.0-0.0-8.0-0.29","4","4","4","4","3","3","4","4","4","4","4","4","4","4","5","5","4","4","4","5","2","3","2","1","2","2","2","1","1","1","0","0","1","0","0","0","1","0","1","1","0","0","0","0","4","5","4","1","4","5","4","4","1","1","763753736781959170","周","319","","","","","","","","","","","","","","","","","","","","","","","","","","","","","","","","","","","","","","","",""
"527","<p style=""color:white; font-size: 35px;"">蠢笨</p>","i","categorize-html","167","235288","0.0-6.0-0.0-8.0-1.29","4","4","4","4","3","3","4","4","4","4","4","4","4","4","5","5","4","4","4","5","2","3","2","1","2","2","2","1","1","1","0","0","1","0","0","0","1","0","1","1","0","0","0","0","4","5","4","1","4","5","4","4","1","1","763753736781959170","周","319","","","","","","","","","","","","","","","","","","","true","4","4","ability","527","negative","蠢笨","","","","","","","","","","","","","","",""
"null","","null","html-keyboard-response","168","235541","0.0-6.0-0.0-8.0-0.30","4","4","4","4","3","3","4","4","4","4","4","4","4","4","5","5","4","4","4","5","2","3","2","1","2","2","2","1","1","1","0","0","1","0","0","0","1","0","1","1","0","0","0","0","4","5","4","1","4","5","4","4","1","1","763753736781959170","周","319","","","","","","","","","","","","","","","","","","","","","","","","","","","","","","","","","","","","","","","",""
"585","<p style=""color:rgb(150, 250, 100); font-size: 35px;"">别人</p>","i","categorize-html","169","236134","0.0-6.0-0.0-8.0-1.30","4","4","4","4","3","3","4","4","4","4","4","4","4","4","5","5","4","4","4","5","2","3","2","1","2","2","2","1","1","1","0","0","1","0","0","0","1","0","1","1","0","0","0","0","4","5","4","1","4","5","4","4","1","1","763753736781959170","周","319","","","","","","","","","","","","","","","","","","","true","4","4","ability","585","other","别人","","","","","","","","","","","","","","",""
"null","","null","html-keyboard-response","170","236387","0.0-6.0-0.0-8.0-0.31","4","4","4","4","3","3","4","4","4","4","4","4","4","4","5","5","4","4","4","5","2","3","2","1","2","2","2","1","1","1","0","0","1","0","0","0","1","0","1","1","0","0","0","0","4","5","4","1","4","5","4","4","1","1","763753736781959170","周","319","","","","","","","","","","","","","","","","","","","","","","","","","","","","","","","","","","","","","","","",""
"556","<p style=""color:white; font-size: 35px;"">全才</p>","e","categorize-html","171","236949","0.0-6.0-0.0-8.0-1.31","4","4","4","4","3","3","4","4","4","4","4","4","4","4","5","5","4","4","4","5","2","3","2","1","2","2","2","1","1","1","0","0","1","0","0","0","1","0","1","1","0","0","0","0","4","5","4","1","4","5","4","4","1","1","763753736781959170","周","319","","","","","","","","","","","","","","","","","","","true","4","4","ability","556","positive","全才","","","","","","","","","","","","","","",""
"null","","null","html-keyboard-response","172","237202","0.0-6.0-0.0-8.0-0.32","4","4","4","4","3","3","4","4","4","4","4","4","4","4","5","5","4","4","4","5","2","3","2","1","2","2","2","1","1","1","0","0","1","0","0","0","1","0","1","1","0","0","0","0","4","5","4","1","4","5","4","4","1","1","763753736781959170","周","319","","","","","","","","","","","","","","","","","","","","","","","","","","","","","","","","","","","","","","","",""
"626","<p style=""color:rgb(150, 250, 100); font-size: 35px;"">本人</p>","e","categorize-html","173","237834","0.0-6.0-0.0-8.0-1.32","4","4","4","4","3","3","4","4","4","4","4","4","4","4","5","5","4","4","4","5","2","3","2","1","2","2","2","1","1","1","0","0","1","0","0","0","1","0","1","1","0","0","0","0","4","5","4","1","4","5","4","4","1","1","763753736781959170","周","319","","","","","","","","","","","","","","","","","","","true","4","4","ability","626","self","本人","","","","","","","","","","","","","","",""
"null","","null","html-keyboard-response","174","238087","0.0-6.0-0.0-8.0-0.33","4","4","4","4","3","3","4","4","4","4","4","4","4","4","5","5","4","4","4","5","2","3","2","1","2","2","2","1","1","1","0","0","1","0","0","0","1","0","1","1","0","0","0","0","4","5","4","1","4","5","4","4","1","1","763753736781959170","周","319","","","","","","","","","","","","","","","","","","","","","","","","","","","","","","","","","","","","","","","",""
"596","<p style=""color:white; font-size: 35px;"">天才</p>","e","categorize-html","175","238689","0.0-6.0-0.0-8.0-1.33","4","4","4","4","3","3","4","4","4","4","4","4","4","4","5","5","4","4","4","5","2","3","2","1","2","2","2","1","1","1","0","0","1","0","0","0","1","0","1","1","0","0","0","0","4","5","4","1","4","5","4","4","1","1","763753736781959170","周","319","","","","","","","","","","","","","","","","","","","true","4","4","ability","596","positive","天才","","","","","","","","","","","","","","",""
"null","","null","html-keyboard-response","176","238941","0.0-6.0-0.0-8.0-0.34","4","4","4","4","3","3","4","4","4","4","4","4","4","4","5","5","4","4","4","5","2","3","2","1","2","2","2","1","1","1","0","0","1","0","0","0","1","0","1","1","0","0","0","0","4","5","4","1","4","5","4","4","1","1","763753736781959170","周","319","","","","","","","","","","","","","","","","","","","","","","","","","","","","","","","","","","","","","","","",""
"516","<p style=""color:rgb(150, 250, 100); font-size: 35px;"">他</p>","i","categorize-html","177","239464","0.0-6.0-0.0-8.0-1.34","4","4","4","4","3","3","4","4","4","4","4","4","4","4","5","5","4","4","4","5","2","3","2","1","2","2","2","1","1","1","0","0","1","0","0","0","1","0","1","1","0","0","0","0","4","5","4","1","4","5","4","4","1","1","763753736781959170","周","319","","","","","","","","","","","","","","","","","","","true","4","4","ability","516","other","他","","","","","","","","","","","","","","",""
"null","","null","html-keyboard-response","178","239716","0.0-6.0-0.0-8.0-0.35","4","4","4","4","3","3","4","4","4","4","4","4","4","4","5","5","4","4","4","5","2","3","2","1","2","2","2","1","1","1","0","0","1","0","0","0","1","0","1","1","0","0","0","0","4","5","4","1","4","5","4","4","1","1","763753736781959170","周","319","","","","","","","","","","","","","","","","","","","","","","","","","","","","","","","","","","","","","","","",""
"518","<p style=""color:white; font-size: 35px;"">低能</p>","i","categorize-html","179","240240","0.0-6.0-0.0-8.0-1.35","4","4","4","4","3","3","4","4","4","4","4","4","4","4","5","5","4","4","4","5","2","3","2","1","2","2","2","1","1","1","0","0","1","0","0","0","1","0","1","1","0","0","0","0","4","5","4","1","4","5","4","4","1","1","763753736781959170","周","319","","","","","","","","","","","","","","","","","","","true","4","4","ability","518","negative","低能","","","","","","","","","","","","","","",""
"null","","null","html-keyboard-response","180","240492","0.0-6.0-0.0-8.0-0.36","4","4","4","4","3","3","4","4","4","4","4","4","4","4","5","5","4","4","4","5","2","3","2","1","2","2","2","1","1","1","0","0","1","0","0","0","1","0","1","1","0","0","0","0","4","5","4","1","4","5","4","4","1","1","763753736781959170","周","319","","","","","","","","","","","","","","","","","","","","","","","","","","","","","","","","","","","","","","","",""
"527","<p style=""color:rgb(150, 250, 100); font-size: 35px;"">自己的</p>","e","categorize-html","181","241027","0.0-6.0-0.0-8.0-1.36","4","4","4","4","3","3","4","4","4","4","4","4","4","4","5","5","4","4","4","5","2","3","2","1","2","2","2","1","1","1","0","0","1","0","0","0","1","0","1","1","0","0","0","0","4","5","4","1","4","5","4","4","1","1","763753736781959170","周","319","","","","","","","","","","","","","","","","","","","true","4","4","ability","527","self","自己的","","","","","","","","","","","","","","",""
"null","","null","html-keyboard-response","182","241280","0.0-6.0-0.0-8.0-0.37","4","4","4","4","3","3","4","4","4","4","4","4","4","4","5","5","4","4","4","5","2","3","2","1","2","2","2","1","1","1","0","0","1","0","0","0","1","0","1","1","0","0","0","0","4","5","4","1","4","5","4","4","1","1","763753736781959170","周","319","","","","","","","","","","","","","","","","","","","","","","","","","","","","","","","","","","","","","","","",""
"528","<p style=""color:white; font-size: 35px;"">全能</p>","e","categorize-html","183","241816","0.0-6.0-0.0-8.0-1.37","4","4","4","4","3","3","4","4","4","4","4","4","4","4","5","5","4","4","4","5","2","3","2","1","2","2","2","1","1","1","0","0","1","0","0","0","1","0","1","1","0","0","0","0","4","5","4","1","4","5","4","4","1","1","763753736781959170","周","319","","","","","","","","","","","","","","","","","","","true","4","4","ability","528","positive","全能","","","","","","","","","","","","","","",""
"null","","null","html-keyboard-response","184","242068","0.0-6.0-0.0-8.0-0.38","4","4","4","4","3","3","4","4","4","4","4","4","4","4","5","5","4","4","4","5","2","3","2","1","2","2","2","1","1","1","0","0","1","0","0","0","1","0","1","1","0","0","0","0","4","5","4","1","4","5","4","4","1","1","763753736781959170","周","319","","","","","","","","","","","","","","","","","","","","","","","","","","","","","","","","","","","","","","","",""
"664","<p style=""color:rgb(150, 250, 100); font-size: 35px;"">他</p>","i","categorize-html","185","242738","0.0-6.0-0.0-8.0-1.38","4","4","4","4","3","3","4","4","4","4","4","4","4","4","5","5","4","4","4","5","2","3","2","1","2","2","2","1","1","1","0","0","1","0","0","0","1","0","1","1","0","0","0","0","4","5","4","1","4","5","4","4","1","1","763753736781959170","周","319","","","","","","","","","","","","","","","","","","","true","4","4","ability","664","other","他","","","","","","","","","","","","","","",""
"null","","null","html-keyboard-response","186","242990","0.0-6.0-0.0-8.0-0.39","4","4","4","4","3","3","4","4","4","4","4","4","4","4","5","5","4","4","4","5","2","3","2","1","2","2","2","1","1","1","0","0","1","0","0","0","1","0","1","1","0","0","0","0","4","5","4","1","4","5","4","4","1","1","763753736781959170","周","319","","","","","","","","","","","","","","","","","","","","","","","","","","","","","","","","","","","","","","","",""
"488","<p style=""color:white; font-size: 35px;"">拙笨</p>","i","categorize-html","187","243486","0.0-6.0-0.0-8.0-1.39","4","4","4","4","3","3","4","4","4","4","4","4","4","4","5","5","4","4","4","5","2","3","2","1","2","2","2","1","1","1","0","0","1","0","0","0","1","0","1","1","0","0","0","0","4","5","4","1","4","5","4","4","1","1","763753736781959170","周","319","","","","","","","","","","","","","","","","","","","true","4","4","ability","488","negative","拙笨","","","","","","","","","","","","","","",""
"null","","null","html-keyboard-response","188","243738","0.0-6.0-0.0-8.0-0.40","4","4","4","4","3","3","4","4","4","4","4","4","4","4","5","5","4","4","4","5","2","3","2","1","2","2","2","1","1","1","0","0","1","0","0","0","1","0","1","1","0","0","0","0","4","5","4","1","4","5","4","4","1","1","763753736781959170","周","319","","","","","","","","","","","","","","","","","","","","","","","","","","","","","","","","","","","","","","","",""
"519","<p style=""color:rgb(150, 250, 100); font-size: 35px;"">我</p>","e","categorize-html","189","244264","0.0-6.0-0.0-8.0-1.40","4","4","4","4","3","3","4","4","4","4","4","4","4","4","5","5","4","4","4","5","2","3","2","1","2","2","2","1","1","1","0","0","1","0","0","0","1","0","1","1","0","0","0","0","4","5","4","1","4","5","4","4","1","1","763753736781959170","周","319","","","","","","","","","","","","","","","","","","","true","4","4","ability","519","self","我","","","","","","","","","","","","","","",""
"null","","null","html-keyboard-response","190","244516","0.0-6.0-0.0-8.0-0.41","4","4","4","4","3","3","4","4","4","4","4","4","4","4","5","5","4","4","4","5","2","3","2","1","2","2","2","1","1","1","0","0","1","0","0","0","1","0","1","1","0","0","0","0","4","5","4","1","4","5","4","4","1","1","763753736781959170","周","319","","","","","","","","","","","","","","","","","","","","","","","","","","","","","","","","","","","","","","","",""
"485","<p style=""color:white; font-size: 35px;"">全才</p>","e","categorize-html","191","245007","0.0-6.0-0.0-8.0-1.41","4","4","4","4","3","3","4","4","4","4","4","4","4","4","5","5","4","4","4","5","2","3","2","1","2","2","2","1","1","1","0","0","1","0","0","0","1","0","1","1","0","0","0","0","4","5","4","1","4","5","4","4","1","1","763753736781959170","周","319","","","","","","","","","","","","","","","","","","","true","4","4","ability","485","positive","全才","","","","","","","","","","","","","","",""
"null","","null","html-keyboard-response","192","245259","0.0-6.0-0.0-8.0-0.42","4","4","4","4","3","3","4","4","4","4","4","4","4","4","5","5","4","4","4","5","2","3","2","1","2","2","2","1","1","1","0","0","1","0","0","0","1","0","1","1","0","0","0","0","4","5","4","1","4","5","4","4","1","1","763753736781959170","周","319","","","","","","","","","","","","","","","","","","","","","","","","","","","","","","","","","","","","","","","",""
"552","<p style=""color:rgb(150, 250, 100); font-size: 35px;"">他人</p>","i","categorize-html","193","245818","0.0-6.0-0.0-8.0-1.42","4","4","4","4","3","3","4","4","4","4","4","4","4","4","5","5","4","4","4","5","2","3","2","1","2","2","2","1","1","1","0","0","1","0","0","0","1","0","1","1","0","0","0","0","4","5","4","1","4","5","4","4","1","1","763753736781959170","周","319","","","","","","","","","","","","","","","","","","","true","4","4","ability","552","other","他人","","","","","","","","","","","","","","",""
"null","","null","html-keyboard-response","194","246071","0.0-6.0-0.0-8.0-0.43","4","4","4","4","3","3","4","4","4","4","4","4","4","4","5","5","4","4","4","5","2","3","2","1","2","2","2","1","1","1","0","0","1","0","0","0","1","0","1","1","0","0","0","0","4","5","4","1","4","5","4","4","1","1","763753736781959170","周","319","","","","","","","","","","","","","","","","","","","","","","","","","","","","","","","","","","","","","","","",""
"498","<p style=""color:white; font-size: 35px;"">拙笨</p>","i","categorize-html","195","246576","0.0-6.0-0.0-8.0-1.43","4","4","4","4","3","3","4","4","4","4","4","4","4","4","5","5","4","4","4","5","2","3","2","1","2","2","2","1","1","1","0","0","1","0","0","0","1","0","1","1","0","0","0","0","4","5","4","1","4","5","4","4","1","1","763753736781959170","周","319","","","","","","","","","","","","","","","","","","","true","4","4","ability","498","negative","拙笨","","","","","","","","","","","","","","",""
"null","","null","html-keyboard-response","196","246828","0.0-6.0-0.0-8.0-0.44","4","4","4","4","3","3","4","4","4","4","4","4","4","4","5","5","4","4","4","5","2","3","2","1","2","2","2","1","1","1","0","0","1","0","0","0","1","0","1","1","0","0","0","0","4","5","4","1","4","5","4","4","1","1","763753736781959170","周","319","","","","","","","","","","","","","","","","","","","","","","","","","","","","","","","","","","","","","","","",""
"526","<p style=""color:rgb(150, 250, 100); font-size: 35px;"">我</p>","e","categorize-html","197","247360","0.0-6.0-0.0-8.0-1.44","4","4","4","4","3","3","4","4","4","4","4","4","4","4","5","5","4","4","4","5","2","3","2","1","2","2","2","1","1","1","0","0","1","0","0","0","1","0","1","1","0","0","0","0","4","5","4","1","4","5","4","4","1","1","763753736781959170","周","319","","","","","","","","","","","","","","","","","","","true","4","4","ability","526","self","我","","","","","","","","","","","","","","",""
