"rt","stimulus","response","trial_type","trial_index","time_elapsed","internal_node_id","ses_1","ses_2","ses_3","ses_4","ses_5","ses_6","ses_7","ses_8","ses_9","ses_10","coreself_1","coreself_2","coreself_3","coreself_4","coreself_5","coreself_6","coreself_7","coreself_8","coreself_9","coreself_10","SGPS_1","SGPS_2","SGPS_3","SGPS_4","SGPS_5","SGPS_6","SGPS_7","SGPS_8","SGPS_9","NPI1","NPI2","NPI3","NPI4","NPI5","NPI6","NPI7","NPI8","NPI9","NPI10","NPI11","NPI12","NPI13","NPI14","NPI15","hsns_1","hsns_2","hsns_3","hsns_4","hsns_5","hsns_6","hsns_7","hsns_8","hsns_9","hsns_10","subj_idx","friend_name","ParticipantID","value","success","user_agent","responses","item_order","radio_event_ids","radio_event_times","key_event_times","mouse_event_times","straightlining","zigzagging","honeypot","timeout","failed_images","failed_audio","failed_video","version_attrib2","version_target2","correct","IAT","screen_id","task_id","RT","condition","word","varname","summary","version_attrib","version_target","time_stamp","view_history","response_type","key_press","avg_frame_time","center_x","center_y","correct_response","identity","Image","question_order"
"6553","
   <p><div style = ""color: white;font-size:25px;"">您好，欢迎参加本次实验。</div> </p>
   <p><div style = ""color: white;font-size:25px;"">为充分保障您的权利，请确保您已经知晓并同意《参与实验同意书》以及《数据公开知情同意书》。</div></p>
   <p><div style = ""color: white;font-size:25px;"">如果您未见过上述内容，请咨询实验员。</div></p>
   <p><div style = ""color: white;font-size:25px;"">如果您选择继续实验，则表示您已经清楚两份知情同意书的内容并同意。</div></p>
   <p><div style = ""color: red;font-size:30px;"">请确保您记得day0的实验编号，您将在本次实验输入该编号，若您忘记，请咨询实验员后作答。</div></p>
   <p> <div style = ""color: green;font-size:25px;""><按空格键至下页></div> </p>
   "," ","html-keyboard-response","0","6556","0.0-0.0","4","4","4","3","4","4","4","3","3","4","5","5","4","4","5","5","4","5","4","5","1","2","2","1","2","1","4","5","2","1","0","1","1","0","0","0","1","1","1","1","0","1","0","1","2","4","1","2","4","1","2","4","5","2","634029991171981312","胡","425","","","","","","","","","","","","","","","","","","","","","","","","","","","","","","","","","","","","","","","",""
"","","","call-function","1","6557","0.0-1.0-0.0","4","4","4","3","4","4","4","3","3","4","5","5","4","4","5","5","4","5","4","5","1","2","2","1","2","1","4","5","2","1","0","1","1","0","0","0","1","1","1","1","0","1","0","1","2","4","1","2","4","1","2","4","5","2","634029991171981312","胡","425","","","","","","","","","","","","","","","","","","","","","","","","","","","","","","","","","","","","","","","",""
"20878","","{""friend_name"":""胡"",""ParticipantID"":""425""}","survey-html-form","2","27441","0.0-1.0-1.0","4","4","4","3","4","4","4","3","3","4","5","5","4","4","5","5","4","5","4","5","1","2","2","1","2","1","4","5","2","1","0","1","1","0","0","0","1","1","1","1","0","1","0","1","2","4","1","2","4","1","2","4","5","2","634029991171981312","胡","425","","","","","","","","","","","","","","","","","","","","","","","","","","","","","","","","","","","","","","","",""
"","","","fullscreen","3","29010","0.0-2.0","4","4","4","3","4","4","4","3","3","4","5","5","4","4","5","5","4","5","4","5","1","2","2","1","2","1","4","5","2","1","0","1","1","0","0","0","1","1","1","1","0","1","0","1","2","4","1","2","4","1","2","4","5","2","634029991171981312","胡","425","","true","{}","","","","","","","","","","","","","","","","","","","","","","","","","","","","","","","","","","","","",""
"35080.90000003576","","{""Q01"":""4"",""Q02"":""4"",""Q03"":""4"",""Q04"":""3"",""Q05"":""4"",""Q06"":""4"",""Q07"":""4"",""Q08"":""3"",""Q09"":""3"",""Q10"":""4""}","survey-template","4","64100","0.0-3.0","4","4","4","3","4","4","4","3","3","4","5","5","4","4","5","5","4","5","4","5","1","2","2","1","2","1","4","5","2","1","0","1","1","0","0","0","1","1","1","1","0","1","0","1","2","4","1","2","4","1","2","4","5","2","634029991171981312","胡","425","","","","{""Q01"":""4"",""Q02"":""4"",""Q03"":""4"",""Q04"":""3"",""Q05"":""4"",""Q06"":""4"",""Q07"":""4"",""Q08"":""3"",""Q09"":""3"",""Q10"":""4""}","[0,1,2,3,4,5,6,7,8,9]","[""Q01"",""Q02"",""Q03"",""Q04"",""Q03"",""Q05"",""Q06"",""Q07"",""Q08"",""Q09"",""Q10"",""Q05"",""Q08""]","[3009.300000011921,4410.100000023842,5678.100000023842,6852,8508,9965.700000047684,11869.800000011921,12880.700000047684,14209.700000047684,15733.900000035763,17701.80000001192,25545.600000023842,31067.600000023842]","[]","[3009.300000011921,4410.100000023842,5678.100000023842,6852,8508,9965.700000047684,11869.800000011921,12880.700000047684,14209.700000047684,15733.900000035763,17057.700000047684,17701.80000001192,25545.600000023842,31067.600000023842,35079.40000003576]","0.4","0.3333333333333333","0","","","","","","","","","","","","","","","","","","","","","","","","","","","",""
"79892.90000003576","","{""Q01"":""5"",""Q02"":""5"",""Q03"":""4"",""Q04"":""4"",""Q05"":""5"",""Q06"":""5"",""Q07"":""4"",""Q08"":""5"",""Q09"":""4"",""Q10"":""5""}","survey-template","5","144000","0.0-4.0","4","4","4","3","4","4","4","3","3","4","5","5","4","4","5","5","4","5","4","5","1","2","2","1","2","1","4","5","2","1","0","1","1","0","0","0","1","1","1","1","0","1","0","1","2","4","1","2","4","1","2","4","5","2","634029991171981312","胡","425","","","","{""Q01"":""5"",""Q02"":""5"",""Q03"":""4"",""Q04"":""4"",""Q05"":""5"",""Q06"":""5"",""Q07"":""4"",""Q08"":""5"",""Q09"":""4"",""Q10"":""5""}","[0,1,2,3,4,5,6,7,8,9]","[""Q01"",""Q02"",""Q03"",""Q04"",""Q05"",""Q06"",""Q07"",""Q08"",""Q09"",""Q10""]","[3175.800000011921,7845.300000011921,8771.400000035763,10176.900000035763,12319.5,14416.600000023842,16143.5,18273.600000023842,19279.600000023842,21465.400000035763]","[]","[2565.600000023842,3175.800000011921,6881.699999988079,7535.400000035763,7845.300000011921,8771.400000035763,10176.900000035763,12319.5,14416.600000023842,16143.5,17244,18273.600000023842,19279.600000023842,21011.600000023842,21465.400000035763,79891.5]","0.4","0.4444444444444444","0","","","","","","","","","","","","","","","","","","","","","","","","","","","",""
"","","","preload","6","144285","0.0-5.0","4","4","4","3","4","4","4","3","3","4","5","5","4","4","5","5","4","5","4","5","1","2","2","1","2","1","4","5","2","1","0","1","1","0","0","0","1","1","1","1","0","1","0","1","2","4","1","2","4","1","2","4","5","2","634029991171981312","胡","425","","true","","","","","","","","","","","false","[]","[]","[]","","","","","","","","","","","","","","","","","","","","","","","",""
"20624","
    <h3>词语分类任务</h3>
    <p>在接下来的任务中，你需要对一系列词语进行分类。<p/>
    请先熟悉这些词语，这有利于你完成接下来的任务。</p>
    <table align=""center"" border=1 cellpadding=3 cellspacing=0>
    <tr> <th>类别</th> <th>词语</th> </tr>
    <tr> <td>&emsp;积极&emsp;</td> <td>&emsp;高尚、诚信、善良、君子、廉正、正直&emsp;</td> </tr>
    <tr> <td>&emsp;消极&emsp;</td> <td>&emsp;缺德、卑鄙、不孝、不仁、小人、黑心&emsp;</td> </tr>
    <tr> <td>&emsp;自我&emsp;</td> <td>&emsp;我、我的、自己、自己的、本人、本人的&emsp;</td> </tr>
    <tr> <td>&emsp;他人&emsp;</td> <td>&emsp;他、他的、别人、别人的、他人、他人的&emsp;</td> </tr>
    </table><br/>","0","html-button-response","7","164913","0.0-6.0-1.0-0.0","4","4","4","3","4","4","4","3","3","4","5","5","4","4","5","5","4","5","4","5","1","2","2","1","2","1","4","5","2","1","0","1","1","0","0","0","1","1","1","1","0","1","0","1","2","4","1","2","4","1","2","4","5","2","634029991171981312","胡","425","","","","","","","","","","","","","","","","","1","1","","","","","","","","","","","","","","","","","","","","","",""
"3135","
    <div class=""tag-bottom""><p>
    —— 任务1：对“自我”词和“他人”词分类 ——<p/>
    不同词语会出现在屏幕中央，类别标签将始终显示在屏幕上方<p/>   
    <span style=""color:#FFD866""><b>请根据上方标签的提示，尽可能正确并且快速地做出按键反应</b></span><p/>
    当按键错误时屏幕中会出现<span style=""color:red""> X </span>，需要按另一个键纠正才能继续<br/><p/>
    请把双手食指分别放在键盘的“E”键和“I”键上<p/>
    按<空格键>开始
    </p></div>"," ","html-keyboard-response","8","168051","0.0-6.0-1.0-1.0","4","4","4","3","4","4","4","3","3","4","5","5","4","4","5","5","4","5","4","5","1","2","2","1","2","1","4","5","2","1","0","1","1","0","0","0","1","1","1","1","0","1","0","1","2","4","1","2","4","1","2","4","5","2","634029991171981312","胡","425","","","","","","","","","","","","","","","","","","","","","","","","","","","","","","","","","","","","","","","",""
"null","","null","html-keyboard-response","9","168303","0.0-6.0-1.0-2.0-0.0","4","4","4","3","4","4","4","3","3","4","5","5","4","4","5","5","4","5","4","5","1","2","2","1","2","1","4","5","2","1","0","1","1","0","0","0","1","1","1","1","0","1","0","1","2","4","1","2","4","1","2","4","5","2","634029991171981312","胡","425","","","","","","","","","","","","","","","","","","","","","","","","","","","","","","","","","","","","","","","",""
"1130","<p style=""color:rgb(150, 250, 100); font-size: 35px;"">别人</p>","i","categorize-html","10","169439","0.0-6.0-1.0-2.0-1.0","4","4","4","3","4","4","4","3","3","4","5","5","4","4","5","5","4","5","4","5","1","2","2","1","2","1","4","5","2","1","0","1","1","0","0","0","1","1","1","1","0","1","0","1","2","4","1","2","4","1","2","4","5","2","634029991171981312","胡","425","","","","","","","","","","","","","","","","","","","true","11","1","moral","1130","other","别人","","","","","","","","","","","","","","",""
"null","","null","html-keyboard-response","11","169691","0.0-6.0-1.0-2.0-0.1","4","4","4","3","4","4","4","3","3","4","5","5","4","4","5","5","4","5","4","5","1","2","2","1","2","1","4","5","2","1","0","1","1","0","0","0","1","1","1","1","0","1","0","1","2","4","1","2","4","1","2","4","5","2","634029991171981312","胡","425","","","","","","","","","","","","","","","","","","","","","","","","","","","","","","","","","","","","","","","",""
"452","<p style=""color:rgb(150, 250, 100); font-size: 35px;"">他</p>","i","categorize-html","12","170146","0.0-6.0-1.0-2.0-1.1","4","4","4","3","4","4","4","3","3","4","5","5","4","4","5","5","4","5","4","5","1","2","2","1","2","1","4","5","2","1","0","1","1","0","0","0","1","1","1","1","0","1","0","1","2","4","1","2","4","1","2","4","5","2","634029991171981312","胡","425","","","","","","","","","","","","","","","","","","","true","11","1","moral","452","other","他","","","","","","","","","","","","","","",""
"null","","null","html-keyboard-response","13","170397","0.0-6.0-1.0-2.0-0.2","4","4","4","3","4","4","4","3","3","4","5","5","4","4","5","5","4","5","4","5","1","2","2","1","2","1","4","5","2","1","0","1","1","0","0","0","1","1","1","1","0","1","0","1","2","4","1","2","4","1","2","4","5","2","634029991171981312","胡","425","","","","","","","","","","","","","","","","","","","","","","","","","","","","","","","","","","","","","","","",""
"461","<p style=""color:rgb(150, 250, 100); font-size: 35px;"">自己的</p>","e","categorize-html","14","170860","0.0-6.0-1.0-2.0-1.2","4","4","4","3","4","4","4","3","3","4","5","5","4","4","5","5","4","5","4","5","1","2","2","1","2","1","4","5","2","1","0","1","1","0","0","0","1","1","1","1","0","1","0","1","2","4","1","2","4","1","2","4","5","2","634029991171981312","胡","425","","","","","","","","","","","","","","","","","","","true","11","1","moral","461","self","自己的","","","","","","","","","","","","","","",""
"null","","null","html-keyboard-response","15","171112","0.0-6.0-1.0-2.0-0.3","4","4","4","3","4","4","4","3","3","4","5","5","4","4","5","5","4","5","4","5","1","2","2","1","2","1","4","5","2","1","0","1","1","0","0","0","1","1","1","1","0","1","0","1","2","4","1","2","4","1","2","4","5","2","634029991171981312","胡","425","","","","","","","","","","","","","","","","","","","","","","","","","","","","","","","","","","","","","","","",""
"545","<p style=""color:rgb(150, 250, 100); font-size: 35px;"">本人</p>","e","categorize-html","16","171660","0.0-6.0-1.0-2.0-1.3","4","4","4","3","4","4","4","3","3","4","5","5","4","4","5","5","4","5","4","5","1","2","2","1","2","1","4","5","2","1","0","1","1","0","0","0","1","1","1","1","0","1","0","1","2","4","1","2","4","1","2","4","5","2","634029991171981312","胡","425","","","","","","","","","","","","","","","","","","","true","11","1","moral","545","self","本人","","","","","","","","","","","","","","",""
"null","","null","html-keyboard-response","17","171911","0.0-6.0-1.0-2.0-0.4","4","4","4","3","4","4","4","3","3","4","5","5","4","4","5","5","4","5","4","5","1","2","2","1","2","1","4","5","2","1","0","1","1","0","0","0","1","1","1","1","0","1","0","1","2","4","1","2","4","1","2","4","5","2","634029991171981312","胡","425","","","","","","","","","","","","","","","","","","","","","","","","","","","","","","","","","","","","","","","",""
"454","<p style=""color:rgb(150, 250, 100); font-size: 35px;"">我</p>","e","categorize-html","18","172367","0.0-6.0-1.0-2.0-1.4","4","4","4","3","4","4","4","3","3","4","5","5","4","4","5","5","4","5","4","5","1","2","2","1","2","1","4","5","2","1","0","1","1","0","0","0","1","1","1","1","0","1","0","1","2","4","1","2","4","1","2","4","5","2","634029991171981312","胡","425","","","","","","","","","","","","","","","","","","","true","11","1","moral","454","self","我","","","","","","","","","","","","","","",""
"null","","null","html-keyboard-response","19","172619","0.0-6.0-1.0-2.0-0.5","4","4","4","3","4","4","4","3","3","4","5","5","4","4","5","5","4","5","4","5","1","2","2","1","2","1","4","5","2","1","0","1","1","0","0","0","1","1","1","1","0","1","0","1","2","4","1","2","4","1","2","4","5","2","634029991171981312","胡","425","","","","","","","","","","","","","","","","","","","","","","","","","","","","","","","","","","","","","","","",""
"658","<p style=""color:rgb(150, 250, 100); font-size: 35px;"">自己</p>","i","categorize-html","20","173619","0.0-6.0-1.0-2.0-1.5","4","4","4","3","4","4","4","3","3","4","5","5","4","4","5","5","4","5","4","5","1","2","2","1","2","1","4","5","2","1","0","1","1","0","0","0","1","1","1","1","0","1","0","1","2","4","1","2","4","1","2","4","5","2","634029991171981312","胡","425","","","","","","","","","","","","","","","","","","","false","11","1","moral","658","self","自己","","","","","","","","","","","","","","",""
"null","","null","html-keyboard-response","21","173871","0.0-6.0-1.0-2.0-0.6","4","4","4","3","4","4","4","3","3","4","5","5","4","4","5","5","4","5","4","5","1","2","2","1","2","1","4","5","2","1","0","1","1","0","0","0","1","1","1","1","0","1","0","1","2","4","1","2","4","1","2","4","5","2","634029991171981312","胡","425","","","","","","","","","","","","","","","","","","","","","","","","","","","","","","","","","","","","","","","",""
"817","<p style=""color:rgb(150, 250, 100); font-size: 35px;"">他的</p>","i","categorize-html","22","174690","0.0-6.0-1.0-2.0-1.6","4","4","4","3","4","4","4","3","3","4","5","5","4","4","5","5","4","5","4","5","1","2","2","1","2","1","4","5","2","1","0","1","1","0","0","0","1","1","1","1","0","1","0","1","2","4","1","2","4","1","2","4","5","2","634029991171981312","胡","425","","","","","","","","","","","","","","","","","","","true","11","1","moral","817","other","他的","","","","","","","","","","","","","","",""
"null","","null","html-keyboard-response","23","174942","0.0-6.0-1.0-2.0-0.7","4","4","4","3","4","4","4","3","3","4","5","5","4","4","5","5","4","5","4","5","1","2","2","1","2","1","4","5","2","1","0","1","1","0","0","0","1","1","1","1","0","1","0","1","2","4","1","2","4","1","2","4","5","2","634029991171981312","胡","425","","","","","","","","","","","","","","","","","","","","","","","","","","","","","","","","","","","","","","","",""
"573","<p style=""color:rgb(150, 250, 100); font-size: 35px;"">他人的</p>","i","categorize-html","24","175516","0.0-6.0-1.0-2.0-1.7","4","4","4","3","4","4","4","3","3","4","5","5","4","4","5","5","4","5","4","5","1","2","2","1","2","1","4","5","2","1","0","1","1","0","0","0","1","1","1","1","0","1","0","1","2","4","1","2","4","1","2","4","5","2","634029991171981312","胡","425","","","","","","","","","","","","","","","","","","","true","11","1","moral","573","other","他人的","","","","","","","","","","","","","","",""
"null","","null","html-keyboard-response","25","175769","0.0-6.0-1.0-2.0-0.8","4","4","4","3","4","4","4","3","3","4","5","5","4","4","5","5","4","5","4","5","1","2","2","1","2","1","4","5","2","1","0","1","1","0","0","0","1","1","1","1","0","1","0","1","2","4","1","2","4","1","2","4","5","2","634029991171981312","胡","425","","","","","","","","","","","","","","","","","","","","","","","","","","","","","","","","","","","","","","","",""
"702","<p style=""color:rgb(150, 250, 100); font-size: 35px;"">本人的</p>","e","categorize-html","26","176474","0.0-6.0-1.0-2.0-1.8","4","4","4","3","4","4","4","3","3","4","5","5","4","4","5","5","4","5","4","5","1","2","2","1","2","1","4","5","2","1","0","1","1","0","0","0","1","1","1","1","0","1","0","1","2","4","1","2","4","1","2","4","5","2","634029991171981312","胡","425","","","","","","","","","","","","","","","","","","","true","11","1","moral","702","self","本人的","","","","","","","","","","","","","","",""
"null","","null","html-keyboard-response","27","176725","0.0-6.0-1.0-2.0-0.9","4","4","4","3","4","4","4","3","3","4","5","5","4","4","5","5","4","5","4","5","1","2","2","1","2","1","4","5","2","1","0","1","1","0","0","0","1","1","1","1","0","1","0","1","2","4","1","2","4","1","2","4","5","2","634029991171981312","胡","425","","","","","","","","","","","","","","","","","","","","","","","","","","","","","","","","","","","","","","","",""
"712","<p style=""color:rgb(150, 250, 100); font-size: 35px;"">他人</p>","i","categorize-html","28","177439","0.0-6.0-1.0-2.0-1.9","4","4","4","3","4","4","4","3","3","4","5","5","4","4","5","5","4","5","4","5","1","2","2","1","2","1","4","5","2","1","0","1","1","0","0","0","1","1","1","1","0","1","0","1","2","4","1","2","4","1","2","4","5","2","634029991171981312","胡","425","","","","","","","","","","","","","","","","","","","true","11","1","moral","712","other","他人","","","","","","","","","","","","","","",""
"null","","null","html-keyboard-response","29","177691","0.0-6.0-1.0-2.0-0.10","4","4","4","3","4","4","4","3","3","4","5","5","4","4","5","5","4","5","4","5","1","2","2","1","2","1","4","5","2","1","0","1","1","0","0","0","1","1","1","1","0","1","0","1","2","4","1","2","4","1","2","4","5","2","634029991171981312","胡","425","","","","","","","","","","","","","","","","","","","","","","","","","","","","","","","","","","","","","","","",""
"745","<p style=""color:rgb(150, 250, 100); font-size: 35px;"">别人的</p>","i","categorize-html","30","178438","0.0-6.0-1.0-2.0-1.10","4","4","4","3","4","4","4","3","3","4","5","5","4","4","5","5","4","5","4","5","1","2","2","1","2","1","4","5","2","1","0","1","1","0","0","0","1","1","1","1","0","1","0","1","2","4","1","2","4","1","2","4","5","2","634029991171981312","胡","425","","","","","","","","","","","","","","","","","","","true","11","1","moral","745","other","别人的","","","","","","","","","","","","","","",""
"null","","null","html-keyboard-response","31","178690","0.0-6.0-1.0-2.0-0.11","4","4","4","3","4","4","4","3","3","4","5","5","4","4","5","5","4","5","4","5","1","2","2","1","2","1","4","5","2","1","0","1","1","0","0","0","1","1","1","1","0","1","0","1","2","4","1","2","4","1","2","4","5","2","634029991171981312","胡","425","","","","","","","","","","","","","","","","","","","","","","","","","","","","","","","","","","","","","","","",""
"647","<p style=""color:rgb(150, 250, 100); font-size: 35px;"">我的</p>","e","categorize-html","32","179338","0.0-6.0-1.0-2.0-1.11","4","4","4","3","4","4","4","3","3","4","5","5","4","4","5","5","4","5","4","5","1","2","2","1","2","1","4","5","2","1","0","1","1","0","0","0","1","1","1","1","0","1","0","1","2","4","1","2","4","1","2","4","5","2","634029991171981312","胡","425","","","","","","","","","","","","","","","","","","","true","11","1","moral","647","self","我的","","","","","","","","","","","","","","",""
"884","
    <div class=""tag-bottom""><p>
    —— 任务2：对“积极”词和“消极”词分类 ——<p/>   
    <span style=""color:#78DCE8""><b>注意上方，类别标签和需要分类的词语都已经改变</b></span><p/>
    <span style=""color:#FFD866""><b>请根据上方标签的提示，尽可能正确并且快速地做出按键反应</b></span><p/>
    当按键错误时屏幕中会出现<span style=""color:red""> X </span>，需要按另一个键纠正才能继续<br/><p/>
    请把双手食指分别放在键盘的“E”键和“I”键上<p/>
    按<空格键>开始
    </p></div>"," ","html-keyboard-response","33","180223","0.0-6.0-1.0-3.0","4","4","4","3","4","4","4","3","3","4","5","5","4","4","5","5","4","5","4","5","1","2","2","1","2","1","4","5","2","1","0","1","1","0","0","0","1","1","1","1","0","1","0","1","2","4","1","2","4","1","2","4","5","2","634029991171981312","胡","425","","","","","","","","","","","","","","","","","","","","","","","","","","","","","","","","","","","","","","","",""
"null","","null","html-keyboard-response","34","180474","0.0-6.0-1.0-4.0-0.0","4","4","4","3","4","4","4","3","3","4","5","5","4","4","5","5","4","5","4","5","1","2","2","1","2","1","4","5","2","1","0","1","1","0","0","0","1","1","1","1","0","1","0","1","2","4","1","2","4","1","2","4","5","2","634029991171981312","胡","425","","","","","","","","","","","","","","","","","","","","","","","","","","","","","","","","","","","","","","","",""
"1504","<p style=""color:white; font-size: 35px;"">正直</p>","i","categorize-html","35","182650","0.0-6.0-1.0-4.0-1.0","4","4","4","3","4","4","4","3","3","4","5","5","4","4","5","5","4","5","4","5","1","2","2","1","2","1","4","5","2","1","0","1","1","0","0","0","1","1","1","1","0","1","0","1","2","4","1","2","4","1","2","4","5","2","634029991171981312","胡","425","","","","","","","","","","","","","","","","","","","false","12","2","moral","1504","positive","正直","","","","","","","","","","","","","","",""
"null","","null","html-keyboard-response","36","182902","0.0-6.0-1.0-4.0-0.1","4","4","4","3","4","4","4","3","3","4","5","5","4","4","5","5","4","5","4","5","1","2","2","1","2","1","4","5","2","1","0","1","1","0","0","0","1","1","1","1","0","1","0","1","2","4","1","2","4","1","2","4","5","2","634029991171981312","胡","425","","","","","","","","","","","","","","","","","","","","","","","","","","","","","","","","","","","","","","","",""
"526","<p style=""color:white; font-size: 35px;"">高尚</p>","e","categorize-html","37","183431","0.0-6.0-1.0-4.0-1.1","4","4","4","3","4","4","4","3","3","4","5","5","4","4","5","5","4","5","4","5","1","2","2","1","2","1","4","5","2","1","0","1","1","0","0","0","1","1","1","1","0","1","0","1","2","4","1","2","4","1","2","4","5","2","634029991171981312","胡","425","","","","","","","","","","","","","","","","","","","true","12","2","moral","526","positive","高尚","","","","","","","","","","","","","","",""
"null","","null","html-keyboard-response","38","183682","0.0-6.0-1.0-4.0-0.2","4","4","4","3","4","4","4","3","3","4","5","5","4","4","5","5","4","5","4","5","1","2","2","1","2","1","4","5","2","1","0","1","1","0","0","0","1","1","1","1","0","1","0","1","2","4","1","2","4","1","2","4","5","2","634029991171981312","胡","425","","","","","","","","","","","","","","","","","","","","","","","","","","","","","","","","","","","","","","","",""
"481","<p style=""color:white; font-size: 35px;"">廉正</p>","e","categorize-html","39","184165","0.0-6.0-1.0-4.0-1.2","4","4","4","3","4","4","4","3","3","4","5","5","4","4","5","5","4","5","4","5","1","2","2","1","2","1","4","5","2","1","0","1","1","0","0","0","1","1","1","1","0","1","0","1","2","4","1","2","4","1","2","4","5","2","634029991171981312","胡","425","","","","","","","","","","","","","","","","","","","true","12","2","moral","481","positive","廉正","","","","","","","","","","","","","","",""
"null","","null","html-keyboard-response","40","184416","0.0-6.0-1.0-4.0-0.3","4","4","4","3","4","4","4","3","3","4","5","5","4","4","5","5","4","5","4","5","1","2","2","1","2","1","4","5","2","1","0","1","1","0","0","0","1","1","1","1","0","1","0","1","2","4","1","2","4","1","2","4","5","2","634029991171981312","胡","425","","","","","","","","","","","","","","","","","","","","","","","","","","","","","","","","","","","","","","","",""
"497","<p style=""color:white; font-size: 35px;"">善良</p>","e","categorize-html","41","184916","0.0-6.0-1.0-4.0-1.3","4","4","4","3","4","4","4","3","3","4","5","5","4","4","5","5","4","5","4","5","1","2","2","1","2","1","4","5","2","1","0","1","1","0","0","0","1","1","1","1","0","1","0","1","2","4","1","2","4","1","2","4","5","2","634029991171981312","胡","425","","","","","","","","","","","","","","","","","","","true","12","2","moral","497","positive","善良","","","","","","","","","","","","","","",""
"null","","null","html-keyboard-response","42","185167","0.0-6.0-1.0-4.0-0.4","4","4","4","3","4","4","4","3","3","4","5","5","4","4","5","5","4","5","4","5","1","2","2","1","2","1","4","5","2","1","0","1","1","0","0","0","1","1","1","1","0","1","0","1","2","4","1","2","4","1","2","4","5","2","634029991171981312","胡","425","","","","","","","","","","","","","","","","","","","","","","","","","","","","","","","","","","","","","","","",""
"669","<p style=""color:white; font-size: 35px;"">卑鄙</p>","i","categorize-html","43","185837","0.0-6.0-1.0-4.0-1.4","4","4","4","3","4","4","4","3","3","4","5","5","4","4","5","5","4","5","4","5","1","2","2","1","2","1","4","5","2","1","0","1","1","0","0","0","1","1","1","1","0","1","0","1","2","4","1","2","4","1","2","4","5","2","634029991171981312","胡","425","","","","","","","","","","","","","","","","","","","true","12","2","moral","669","negative","卑鄙","","","","","","","","","","","","","","",""
"null","","null","html-keyboard-response","44","186089","0.0-6.0-1.0-4.0-0.5","4","4","4","3","4","4","4","3","3","4","5","5","4","4","5","5","4","5","4","5","1","2","2","1","2","1","4","5","2","1","0","1","1","0","0","0","1","1","1","1","0","1","0","1","2","4","1","2","4","1","2","4","5","2","634029991171981312","胡","425","","","","","","","","","","","","","","","","","","","","","","","","","","","","","","","","","","","","","","","",""
"513","<p style=""color:white; font-size: 35px;"">不仁</p>","i","categorize-html","45","186604","0.0-6.0-1.0-4.0-1.5","4","4","4","3","4","4","4","3","3","4","5","5","4","4","5","5","4","5","4","5","1","2","2","1","2","1","4","5","2","1","0","1","1","0","0","0","1","1","1","1","0","1","0","1","2","4","1","2","4","1","2","4","5","2","634029991171981312","胡","425","","","","","","","","","","","","","","","","","","","true","12","2","moral","513","negative","不仁","","","","","","","","","","","","","","",""
"null","","null","html-keyboard-response","46","186855","0.0-6.0-1.0-4.0-0.6","4","4","4","3","4","4","4","3","3","4","5","5","4","4","5","5","4","5","4","5","1","2","2","1","2","1","4","5","2","1","0","1","1","0","0","0","1","1","1","1","0","1","0","1","2","4","1","2","4","1","2","4","5","2","634029991171981312","胡","425","","","","","","","","","","","","","","","","","","","","","","","","","","","","","","","","","","","","","","","",""
"536","<p style=""color:white; font-size: 35px;"">小人</p>","i","categorize-html","47","187393","0.0-6.0-1.0-4.0-1.6","4","4","4","3","4","4","4","3","3","4","5","5","4","4","5","5","4","5","4","5","1","2","2","1","2","1","4","5","2","1","0","1","1","0","0","0","1","1","1","1","0","1","0","1","2","4","1","2","4","1","2","4","5","2","634029991171981312","胡","425","","","","","","","","","","","","","","","","","","","true","12","2","moral","536","negative","小人","","","","","","","","","","","","","","",""
"null","","null","html-keyboard-response","48","187646","0.0-6.0-1.0-4.0-0.7","4","4","4","3","4","4","4","3","3","4","5","5","4","4","5","5","4","5","4","5","1","2","2","1","2","1","4","5","2","1","0","1","1","0","0","0","1","1","1","1","0","1","0","1","2","4","1","2","4","1","2","4","5","2","634029991171981312","胡","425","","","","","","","","","","","","","","","","","","","","","","","","","","","","","","","","","","","","","","","",""
"470","<p style=""color:white; font-size: 35px;"">缺德</p>","i","categorize-html","49","188117","0.0-6.0-1.0-4.0-1.7","4","4","4","3","4","4","4","3","3","4","5","5","4","4","5","5","4","5","4","5","1","2","2","1","2","1","4","5","2","1","0","1","1","0","0","0","1","1","1","1","0","1","0","1","2","4","1","2","4","1","2","4","5","2","634029991171981312","胡","425","","","","","","","","","","","","","","","","","","","true","12","2","moral","470","negative","缺德","","","","","","","","","","","","","","",""
"null","","null","html-keyboard-response","50","188368","0.0-6.0-1.0-4.0-0.8","4","4","4","3","4","4","4","3","3","4","5","5","4","4","5","5","4","5","4","5","1","2","2","1","2","1","4","5","2","1","0","1","1","0","0","0","1","1","1","1","0","1","0","1","2","4","1","2","4","1","2","4","5","2","634029991171981312","胡","425","","","","","","","","","","","","","","","","","","","","","","","","","","","","","","","","","","","","","","","",""
"741","<p style=""color:white; font-size: 35px;"">诚信</p>","e","categorize-html","51","189112","0.0-6.0-1.0-4.0-1.8","4","4","4","3","4","4","4","3","3","4","5","5","4","4","5","5","4","5","4","5","1","2","2","1","2","1","4","5","2","1","0","1","1","0","0","0","1","1","1","1","0","1","0","1","2","4","1","2","4","1","2","4","5","2","634029991171981312","胡","425","","","","","","","","","","","","","","","","","","","true","12","2","moral","741","positive","诚信","","","","","","","","","","","","","","",""
"null","","null","html-keyboard-response","52","189363","0.0-6.0-1.0-4.0-0.9","4","4","4","3","4","4","4","3","3","4","5","5","4","4","5","5","4","5","4","5","1","2","2","1","2","1","4","5","2","1","0","1","1","0","0","0","1","1","1","1","0","1","0","1","2","4","1","2","4","1","2","4","5","2","634029991171981312","胡","425","","","","","","","","","","","","","","","","","","","","","","","","","","","","","","","","","","","","","","","",""
"845","<p style=""color:white; font-size: 35px;"">黑心</p>","i","categorize-html","53","190210","0.0-6.0-1.0-4.0-1.9","4","4","4","3","4","4","4","3","3","4","5","5","4","4","5","5","4","5","4","5","1","2","2","1","2","1","4","5","2","1","0","1","1","0","0","0","1","1","1","1","0","1","0","1","2","4","1","2","4","1","2","4","5","2","634029991171981312","胡","425","","","","","","","","","","","","","","","","","","","true","12","2","moral","845","negative","黑心","","","","","","","","","","","","","","",""
"null","","null","html-keyboard-response","54","190461","0.0-6.0-1.0-4.0-0.10","4","4","4","3","4","4","4","3","3","4","5","5","4","4","5","5","4","5","4","5","1","2","2","1","2","1","4","5","2","1","0","1","1","0","0","0","1","1","1","1","0","1","0","1","2","4","1","2","4","1","2","4","5","2","634029991171981312","胡","425","","","","","","","","","","","","","","","","","","","","","","","","","","","","","","","","","","","","","","","",""
"558","<p style=""color:white; font-size: 35px;"">君子</p>","e","categorize-html","55","191022","0.0-6.0-1.0-4.0-1.10","4","4","4","3","4","4","4","3","3","4","5","5","4","4","5","5","4","5","4","5","1","2","2","1","2","1","4","5","2","1","0","1","1","0","0","0","1","1","1","1","0","1","0","1","2","4","1","2","4","1","2","4","5","2","634029991171981312","胡","425","","","","","","","","","","","","","","","","","","","true","12","2","moral","558","positive","君子","","","","","","","","","","","","","","",""
"null","","null","html-keyboard-response","56","191274","0.0-6.0-1.0-4.0-0.11","4","4","4","3","4","4","4","3","3","4","5","5","4","4","5","5","4","5","4","5","1","2","2","1","2","1","4","5","2","1","0","1","1","0","0","0","1","1","1","1","0","1","0","1","2","4","1","2","4","1","2","4","5","2","634029991171981312","胡","425","","","","","","","","","","","","","","","","","","","","","","","","","","","","","","","","","","","","","","","",""
"868","<p style=""color:white; font-size: 35px;"">不孝</p>","i","categorize-html","57","192144","0.0-6.0-1.0-4.0-1.11","4","4","4","3","4","4","4","3","3","4","5","5","4","4","5","5","4","5","4","5","1","2","2","1","2","1","4","5","2","1","0","1","1","0","0","0","1","1","1","1","0","1","0","1","2","4","1","2","4","1","2","4","5","2","634029991171981312","胡","425","","","","","","","","","","","","","","","","","","","true","12","2","moral","868","negative","不孝","","","","","","","","","","","","","","",""
"707","
    <div class=""tag-bottom""><p>
    —— 任务3：对“自我/积极”词和“他人/消极”词分类 ——<p/>
    <span style=""color:#78DCE8""><b>注意上方，之前的四类词语将混合在一起交替呈现</b></span><p/>
    <span style=""color:#FFD866""><b>请根据上方标签的提示，尽可能正确并且快速地做出按键反应</b></span><p/>
    当按键错误时屏幕中会出现<span style=""color:red""> X </span>，需要按另一个键纠正才能继续<br/><p/>
    请把双手食指分别放在键盘的“E”键和“I”键上<p/>
    按<空格键>开始
    </p></div>"," ","html-keyboard-response","58","192851","0.0-6.0-1.0-5.0","4","4","4","3","4","4","4","3","3","4","5","5","4","4","5","5","4","5","4","5","1","2","2","1","2","1","4","5","2","1","0","1","1","0","0","0","1","1","1","1","0","1","0","1","2","4","1","2","4","1","2","4","5","2","634029991171981312","胡","425","","","","","","","","","","","","","","","","","","","","","","","","","","","","","","","","","","","","","","","",""
"null","","null","html-keyboard-response","59","193103","0.0-6.0-1.0-6.0-0.0","4","4","4","3","4","4","4","3","3","4","5","5","4","4","5","5","4","5","4","5","1","2","2","1","2","1","4","5","2","1","0","1","1","0","0","0","1","1","1","1","0","1","0","1","2","4","1","2","4","1","2","4","5","2","634029991171981312","胡","425","","","","","","","","","","","","","","","","","","","","","","","","","","","","","","","","","","","","","","","",""
"1513","<p style=""color:rgb(150, 250, 100); font-size: 35px;"">本人</p>","e","categorize-html","60","194619","0.0-6.0-1.0-6.0-1.0","4","4","4","3","4","4","4","3","3","4","5","5","4","4","5","5","4","5","4","5","1","2","2","1","2","1","4","5","2","1","0","1","1","0","0","0","1","1","1","1","0","1","0","1","2","4","1","2","4","1","2","4","5","2","634029991171981312","胡","425","","","","","","","","","","","","","","","","","","","true","13","3","moral","1513","self","本人","","","","","","","","","","","","","","",""
"null","","null","html-keyboard-response","61","194871","0.0-6.0-1.0-6.0-0.1","4","4","4","3","4","4","4","3","3","4","5","5","4","4","5","5","4","5","4","5","1","2","2","1","2","1","4","5","2","1","0","1","1","0","0","0","1","1","1","1","0","1","0","1","2","4","1","2","4","1","2","4","5","2","634029991171981312","胡","425","","","","","","","","","","","","","","","","","","","","","","","","","","","","","","","","","","","","","","","",""
"617","<p style=""color:white; font-size: 35px;"">正直</p>","e","categorize-html","62","195490","0.0-6.0-1.0-6.0-1.1","4","4","4","3","4","4","4","3","3","4","5","5","4","4","5","5","4","5","4","5","1","2","2","1","2","1","4","5","2","1","0","1","1","0","0","0","1","1","1","1","0","1","0","1","2","4","1","2","4","1","2","4","5","2","634029991171981312","胡","425","","","","","","","","","","","","","","","","","","","true","13","3","moral","617","positive","正直","","","","","","","","","","","","","","",""
"null","","null","html-keyboard-response","63","195742","0.0-6.0-1.0-6.0-0.2","4","4","4","3","4","4","4","3","3","4","5","5","4","4","5","5","4","5","4","5","1","2","2","1","2","1","4","5","2","1","0","1","1","0","0","0","1","1","1","1","0","1","0","1","2","4","1","2","4","1","2","4","5","2","634029991171981312","胡","425","","","","","","","","","","","","","","","","","","","","","","","","","","","","","","","","","","","","","","","",""
"653","<p style=""color:rgb(150, 250, 100); font-size: 35px;"">别人的</p>","i","categorize-html","64","196397","0.0-6.0-1.0-6.0-1.2","4","4","4","3","4","4","4","3","3","4","5","5","4","4","5","5","4","5","4","5","1","2","2","1","2","1","4","5","2","1","0","1","1","0","0","0","1","1","1","1","0","1","0","1","2","4","1","2","4","1","2","4","5","2","634029991171981312","胡","425","","","","","","","","","","","","","","","","","","","true","13","3","moral","653","other","别人的","","","","","","","","","","","","","","",""
"null","","null","html-keyboard-response","65","196648","0.0-6.0-1.0-6.0-0.3","4","4","4","3","4","4","4","3","3","4","5","5","4","4","5","5","4","5","4","5","1","2","2","1","2","1","4","5","2","1","0","1","1","0","0","0","1","1","1","1","0","1","0","1","2","4","1","2","4","1","2","4","5","2","634029991171981312","胡","425","","","","","","","","","","","","","","","","","","","","","","","","","","","","","","","","","","","","","","","",""
"621","<p style=""color:white; font-size: 35px;"">小人</p>","i","categorize-html","66","197271","0.0-6.0-1.0-6.0-1.3","4","4","4","3","4","4","4","3","3","4","5","5","4","4","5","5","4","5","4","5","1","2","2","1","2","1","4","5","2","1","0","1","1","0","0","0","1","1","1","1","0","1","0","1","2","4","1","2","4","1","2","4","5","2","634029991171981312","胡","425","","","","","","","","","","","","","","","","","","","true","13","3","moral","621","negative","小人","","","","","","","","","","","","","","",""
"null","","null","html-keyboard-response","67","197522","0.0-6.0-1.0-6.0-0.4","4","4","4","3","4","4","4","3","3","4","5","5","4","4","5","5","4","5","4","5","1","2","2","1","2","1","4","5","2","1","0","1","1","0","0","0","1","1","1","1","0","1","0","1","2","4","1","2","4","1","2","4","5","2","634029991171981312","胡","425","","","","","","","","","","","","","","","","","","","","","","","","","","","","","","","","","","","","","","","",""
"700","<p style=""color:rgb(150, 250, 100); font-size: 35px;"">我</p>","e","categorize-html","68","198224","0.0-6.0-1.0-6.0-1.4","4","4","4","3","4","4","4","3","3","4","5","5","4","4","5","5","4","5","4","5","1","2","2","1","2","1","4","5","2","1","0","1","1","0","0","0","1","1","1","1","0","1","0","1","2","4","1","2","4","1","2","4","5","2","634029991171981312","胡","425","","","","","","","","","","","","","","","","","","","true","13","3","moral","700","self","我","","","","","","","","","","","","","","",""
"null","","null","html-keyboard-response","69","198475","0.0-6.0-1.0-6.0-0.5","4","4","4","3","4","4","4","3","3","4","5","5","4","4","5","5","4","5","4","5","1","2","2","1","2","1","4","5","2","1","0","1","1","0","0","0","1","1","1","1","0","1","0","1","2","4","1","2","4","1","2","4","5","2","634029991171981312","胡","425","","","","","","","","","","","","","","","","","","","","","","","","","","","","","","","","","","","","","","","",""
"681","<p style=""color:white; font-size: 35px;"">诚信</p>","e","categorize-html","70","199158","0.0-6.0-1.0-6.0-1.5","4","4","4","3","4","4","4","3","3","4","5","5","4","4","5","5","4","5","4","5","1","2","2","1","2","1","4","5","2","1","0","1","1","0","0","0","1","1","1","1","0","1","0","1","2","4","1","2","4","1","2","4","5","2","634029991171981312","胡","425","","","","","","","","","","","","","","","","","","","true","13","3","moral","681","positive","诚信","","","","","","","","","","","","","","",""
"null","","null","html-keyboard-response","71","199409","0.0-6.0-1.0-6.0-0.6","4","4","4","3","4","4","4","3","3","4","5","5","4","4","5","5","4","5","4","5","1","2","2","1","2","1","4","5","2","1","0","1","1","0","0","0","1","1","1","1","0","1","0","1","2","4","1","2","4","1","2","4","5","2","634029991171981312","胡","425","","","","","","","","","","","","","","","","","","","","","","","","","","","","","","","","","","","","","","","",""
"677","<p style=""color:rgb(150, 250, 100); font-size: 35px;"">他人</p>","e","categorize-html","72","200422","0.0-6.0-1.0-6.0-1.6","4","4","4","3","4","4","4","3","3","4","5","5","4","4","5","5","4","5","4","5","1","2","2","1","2","1","4","5","2","1","0","1","1","0","0","0","1","1","1","1","0","1","0","1","2","4","1","2","4","1","2","4","5","2","634029991171981312","胡","425","","","","","","","","","","","","","","","","","","","false","13","3","moral","1335.3478260869565","other","他人","","","","","","","","","","","","","","",""
"null","","null","html-keyboard-response","73","200674","0.0-6.0-1.0-6.0-0.7","4","4","4","3","4","4","4","3","3","4","5","5","4","4","5","5","4","5","4","5","1","2","2","1","2","1","4","5","2","1","0","1","1","0","0","0","1","1","1","1","0","1","0","1","2","4","1","2","4","1","2","4","5","2","634029991171981312","胡","425","","","","","","","","","","","","","","","","","","","","","","","","","","","","","","","","","","","","","","","",""
"867","<p style=""color:white; font-size: 35px;"">不孝</p>","i","categorize-html","74","201543","0.0-6.0-1.0-6.0-1.7","4","4","4","3","4","4","4","3","3","4","5","5","4","4","5","5","4","5","4","5","1","2","2","1","2","1","4","5","2","1","0","1","1","0","0","0","1","1","1","1","0","1","0","1","2","4","1","2","4","1","2","4","5","2","634029991171981312","胡","425","","","","","","","","","","","","","","","","","","","true","13","3","moral","867","negative","不孝","","","","","","","","","","","","","","",""
"null","","null","html-keyboard-response","75","201795","0.0-6.0-1.0-6.0-0.8","4","4","4","3","4","4","4","3","3","4","5","5","4","4","5","5","4","5","4","5","1","2","2","1","2","1","4","5","2","1","0","1","1","0","0","0","1","1","1","1","0","1","0","1","2","4","1","2","4","1","2","4","5","2","634029991171981312","胡","425","","","","","","","","","","","","","","","","","","","","","","","","","","","","","","","","","","","","","","","",""
"632","<p style=""color:rgb(150, 250, 100); font-size: 35px;"">我的</p>","e","categorize-html","76","202428","0.0-6.0-1.0-6.0-1.8","4","4","4","3","4","4","4","3","3","4","5","5","4","4","5","5","4","5","4","5","1","2","2","1","2","1","4","5","2","1","0","1","1","0","0","0","1","1","1","1","0","1","0","1","2","4","1","2","4","1","2","4","5","2","634029991171981312","胡","425","","","","","","","","","","","","","","","","","","","true","13","3","moral","632","self","我的","","","","","","","","","","","","","","",""
"null","","null","html-keyboard-response","77","202679","0.0-6.0-1.0-6.0-0.9","4","4","4","3","4","4","4","3","3","4","5","5","4","4","5","5","4","5","4","5","1","2","2","1","2","1","4","5","2","1","0","1","1","0","0","0","1","1","1","1","0","1","0","1","2","4","1","2","4","1","2","4","5","2","634029991171981312","胡","425","","","","","","","","","","","","","","","","","","","","","","","","","","","","","","","","","","","","","","","",""
"699","<p style=""color:white; font-size: 35px;"">君子</p>","e","categorize-html","78","203382","0.0-6.0-1.0-6.0-1.9","4","4","4","3","4","4","4","3","3","4","5","5","4","4","5","5","4","5","4","5","1","2","2","1","2","1","4","5","2","1","0","1","1","0","0","0","1","1","1","1","0","1","0","1","2","4","1","2","4","1","2","4","5","2","634029991171981312","胡","425","","","","","","","","","","","","","","","","","","","true","13","3","moral","699","positive","君子","","","","","","","","","","","","","","",""
"null","","null","html-keyboard-response","79","203633","0.0-6.0-1.0-6.0-0.10","4","4","4","3","4","4","4","3","3","4","5","5","4","4","5","5","4","5","4","5","1","2","2","1","2","1","4","5","2","1","0","1","1","0","0","0","1","1","1","1","0","1","0","1","2","4","1","2","4","1","2","4","5","2","634029991171981312","胡","425","","","","","","","","","","","","","","","","","","","","","","","","","","","","","","","","","","","","","","","",""
"832","<p style=""color:rgb(150, 250, 100); font-size: 35px;"">他人的</p>","i","categorize-html","80","204468","0.0-6.0-1.0-6.0-1.10","4","4","4","3","4","4","4","3","3","4","5","5","4","4","5","5","4","5","4","5","1","2","2","1","2","1","4","5","2","1","0","1","1","0","0","0","1","1","1","1","0","1","0","1","2","4","1","2","4","1","2","4","5","2","634029991171981312","胡","425","","","","","","","","","","","","","","","","","","","true","13","3","moral","832","other","他人的","","","","","","","","","","","","","","",""
"null","","null","html-keyboard-response","81","204719","0.0-6.0-1.0-6.0-0.11","4","4","4","3","4","4","4","3","3","4","5","5","4","4","5","5","4","5","4","5","1","2","2","1","2","1","4","5","2","1","0","1","1","0","0","0","1","1","1","1","0","1","0","1","2","4","1","2","4","1","2","4","5","2","634029991171981312","胡","425","","","","","","","","","","","","","","","","","","","","","","","","","","","","","","","","","","","","","","","",""
"778","<p style=""color:white; font-size: 35px;"">黑心</p>","i","categorize-html","82","205499","0.0-6.0-1.0-6.0-1.11","4","4","4","3","4","4","4","3","3","4","5","5","4","4","5","5","4","5","4","5","1","2","2","1","2","1","4","5","2","1","0","1","1","0","0","0","1","1","1","1","0","1","0","1","2","4","1","2","4","1","2","4","5","2","634029991171981312","胡","425","","","","","","","","","","","","","","","","","","","true","13","3","moral","778","negative","黑心","","","","","","","","","","","","","","",""
"null","","null","html-keyboard-response","83","205751","0.0-6.0-1.0-6.0-0.12","4","4","4","3","4","4","4","3","3","4","5","5","4","4","5","5","4","5","4","5","1","2","2","1","2","1","4","5","2","1","0","1","1","0","0","0","1","1","1","1","0","1","0","1","2","4","1","2","4","1","2","4","5","2","634029991171981312","胡","425","","","","","","","","","","","","","","","","","","","","","","","","","","","","","","","","","","","","","","","",""
"500","<p style=""color:rgb(150, 250, 100); font-size: 35px;"">别人</p>","i","categorize-html","84","206254","0.0-6.0-1.0-6.0-1.12","4","4","4","3","4","4","4","3","3","4","5","5","4","4","5","5","4","5","4","5","1","2","2","1","2","1","4","5","2","1","0","1","1","0","0","0","1","1","1","1","0","1","0","1","2","4","1","2","4","1","2","4","5","2","634029991171981312","胡","425","","","","","","","","","","","","","","","","","","","true","13","3","moral","500","other","别人","","","","","","","","","","","","","","",""
"null","","null","html-keyboard-response","85","206505","0.0-6.0-1.0-6.0-0.13","4","4","4","3","4","4","4","3","3","4","5","5","4","4","5","5","4","5","4","5","1","2","2","1","2","1","4","5","2","1","0","1","1","0","0","0","1","1","1","1","0","1","0","1","2","4","1","2","4","1","2","4","5","2","634029991171981312","胡","425","","","","","","","","","","","","","","","","","","","","","","","","","","","","","","","","","","","","","","","",""
"626","<p style=""color:white; font-size: 35px;"">卑鄙</p>","i","categorize-html","86","207132","0.0-6.0-1.0-6.0-1.13","4","4","4","3","4","4","4","3","3","4","5","5","4","4","5","5","4","5","4","5","1","2","2","1","2","1","4","5","2","1","0","1","1","0","0","0","1","1","1","1","0","1","0","1","2","4","1","2","4","1","2","4","5","2","634029991171981312","胡","425","","","","","","","","","","","","","","","","","","","true","13","3","moral","626","negative","卑鄙","","","","","","","","","","","","","","",""
"null","","null","html-keyboard-response","87","207384","0.0-6.0-1.0-6.0-0.14","4","4","4","3","4","4","4","3","3","4","5","5","4","4","5","5","4","5","4","5","1","2","2","1","2","1","4","5","2","1","0","1","1","0","0","0","1","1","1","1","0","1","0","1","2","4","1","2","4","1","2","4","5","2","634029991171981312","胡","425","","","","","","","","","","","","","","","","","","","","","","","","","","","","","","","","","","","","","","","",""
"737","<p style=""color:rgb(150, 250, 100); font-size: 35px;"">自己</p>","e","categorize-html","88","208123","0.0-6.0-1.0-6.0-1.14","4","4","4","3","4","4","4","3","3","4","5","5","4","4","5","5","4","5","4","5","1","2","2","1","2","1","4","5","2","1","0","1","1","0","0","0","1","1","1","1","0","1","0","1","2","4","1","2","4","1","2","4","5","2","634029991171981312","胡","425","","","","","","","","","","","","","","","","","","","true","13","3","moral","737","self","自己","","","","","","","","","","","","","","",""
"null","","null","html-keyboard-response","89","208374","0.0-6.0-1.0-6.0-0.15","4","4","4","3","4","4","4","3","3","4","5","5","4","4","5","5","4","5","4","5","1","2","2","1","2","1","4","5","2","1","0","1","1","0","0","0","1","1","1","1","0","1","0","1","2","4","1","2","4","1","2","4","5","2","634029991171981312","胡","425","","","","","","","","","","","","","","","","","","","","","","","","","","","","","","","","","","","","","","","",""
"624","<p style=""color:white; font-size: 35px;"">善良</p>","e","categorize-html","90","209000","0.0-6.0-1.0-6.0-1.15","4","4","4","3","4","4","4","3","3","4","5","5","4","4","5","5","4","5","4","5","1","2","2","1","2","1","4","5","2","1","0","1","1","0","0","0","1","1","1","1","0","1","0","1","2","4","1","2","4","1","2","4","5","2","634029991171981312","胡","425","","","","","","","","","","","","","","","","","","","true","13","3","moral","624","positive","善良","","","","","","","","","","","","","","",""
"null","","null","html-keyboard-response","91","209250","0.0-6.0-1.0-6.0-0.16","4","4","4","3","4","4","4","3","3","4","5","5","4","4","5","5","4","5","4","5","1","2","2","1","2","1","4","5","2","1","0","1","1","0","0","0","1","1","1","1","0","1","0","1","2","4","1","2","4","1","2","4","5","2","634029991171981312","胡","425","","","","","","","","","","","","","","","","","","","","","","","","","","","","","","","","","","","","","","","",""
"554","<p style=""color:rgb(150, 250, 100); font-size: 35px;"">本人的</p>","e","categorize-html","92","209807","0.0-6.0-1.0-6.0-1.16","4","4","4","3","4","4","4","3","3","4","5","5","4","4","5","5","4","5","4","5","1","2","2","1","2","1","4","5","2","1","0","1","1","0","0","0","1","1","1","1","0","1","0","1","2","4","1","2","4","1","2","4","5","2","634029991171981312","胡","425","","","","","","","","","","","","","","","","","","","true","13","3","moral","554","self","本人的","","","","","","","","","","","","","","",""
"null","","null","html-keyboard-response","93","210057","0.0-6.0-1.0-6.0-0.17","4","4","4","3","4","4","4","3","3","4","5","5","4","4","5","5","4","5","4","5","1","2","2","1","2","1","4","5","2","1","0","1","1","0","0","0","1","1","1","1","0","1","0","1","2","4","1","2","4","1","2","4","5","2","634029991171981312","胡","425","","","","","","","","","","","","","","","","","","","","","","","","","","","","","","","","","","","","","","","",""
"756","<p style=""color:white; font-size: 35px;"">高尚</p>","e","categorize-html","94","210815","0.0-6.0-1.0-6.0-1.17","4","4","4","3","4","4","4","3","3","4","5","5","4","4","5","5","4","5","4","5","1","2","2","1","2","1","4","5","2","1","0","1","1","0","0","0","1","1","1","1","0","1","0","1","2","4","1","2","4","1","2","4","5","2","634029991171981312","胡","425","","","","","","","","","","","","","","","","","","","true","13","3","moral","756","positive","高尚","","","","","","","","","","","","","","",""
"null","","null","html-keyboard-response","95","211066","0.0-6.0-1.0-6.0-0.18","4","4","4","3","4","4","4","3","3","4","5","5","4","4","5","5","4","5","4","5","1","2","2","1","2","1","4","5","2","1","0","1","1","0","0","0","1","1","1","1","0","1","0","1","2","4","1","2","4","1","2","4","5","2","634029991171981312","胡","425","","","","","","","","","","","","","","","","","","","","","","","","","","","","","","","","","","","","","","","",""
"737","<p style=""color:rgb(150, 250, 100); font-size: 35px;"">他</p>","i","categorize-html","96","211805","0.0-6.0-1.0-6.0-1.18","4","4","4","3","4","4","4","3","3","4","5","5","4","4","5","5","4","5","4","5","1","2","2","1","2","1","4","5","2","1","0","1","1","0","0","0","1","1","1","1","0","1","0","1","2","4","1","2","4","1","2","4","5","2","634029991171981312","胡","425","","","","","","","","","","","","","","","","","","","true","13","3","moral","737","other","他","","","","","","","","","","","","","","",""
"null","","null","html-keyboard-response","97","212057","0.0-6.0-1.0-6.0-0.19","4","4","4","3","4","4","4","3","3","4","5","5","4","4","5","5","4","5","4","5","1","2","2","1","2","1","4","5","2","1","0","1","1","0","0","0","1","1","1","1","0","1","0","1","2","4","1","2","4","1","2","4","5","2","634029991171981312","胡","425","","","","","","","","","","","","","","","","","","","","","","","","","","","","","","","","","","","","","","","",""
"1013","<p style=""color:white; font-size: 35px;"">缺德</p>","i","categorize-html","98","213072","0.0-6.0-1.0-6.0-1.19","4","4","4","3","4","4","4","3","3","4","5","5","4","4","5","5","4","5","4","5","1","2","2","1","2","1","4","5","2","1","0","1","1","0","0","0","1","1","1","1","0","1","0","1","2","4","1","2","4","1","2","4","5","2","634029991171981312","胡","425","","","","","","","","","","","","","","","","","","","true","13","3","moral","1013","negative","缺德","","","","","","","","","","","","","","",""
"null","","null","html-keyboard-response","99","213323","0.0-6.0-1.0-6.0-0.20","4","4","4","3","4","4","4","3","3","4","5","5","4","4","5","5","4","5","4","5","1","2","2","1","2","1","4","5","2","1","0","1","1","0","0","0","1","1","1","1","0","1","0","1","2","4","1","2","4","1","2","4","5","2","634029991171981312","胡","425","","","","","","","","","","","","","","","","","","","","","","","","","","","","","","","","","","","","","","","",""
"926","<p style=""color:rgb(150, 250, 100); font-size: 35px;"">自己的</p>","e","categorize-html","100","214252","0.0-6.0-1.0-6.0-1.20","4","4","4","3","4","4","4","3","3","4","5","5","4","4","5","5","4","5","4","5","1","2","2","1","2","1","4","5","2","1","0","1","1","0","0","0","1","1","1","1","0","1","0","1","2","4","1","2","4","1","2","4","5","2","634029991171981312","胡","425","","","","","","","","","","","","","","","","","","","true","13","3","moral","926","self","自己的","","","","","","","","","","","","","","",""
"null","","null","html-keyboard-response","101","214503","0.0-6.0-1.0-6.0-0.21","4","4","4","3","4","4","4","3","3","4","5","5","4","4","5","5","4","5","4","5","1","2","2","1","2","1","4","5","2","1","0","1","1","0","0","0","1","1","1","1","0","1","0","1","2","4","1","2","4","1","2","4","5","2","634029991171981312","胡","425","","","","","","","","","","","","","","","","","","","","","","","","","","","","","","","","","","","","","","","",""
"553","<p style=""color:white; font-size: 35px;"">廉正</p>","e","categorize-html","102","215059","0.0-6.0-1.0-6.0-1.21","4","4","4","3","4","4","4","3","3","4","5","5","4","4","5","5","4","5","4","5","1","2","2","1","2","1","4","5","2","1","0","1","1","0","0","0","1","1","1","1","0","1","0","1","2","4","1","2","4","1","2","4","5","2","634029991171981312","胡","425","","","","","","","","","","","","","","","","","","","true","13","3","moral","553","positive","廉正","","","","","","","","","","","","","","",""
"null","","null","html-keyboard-response","103","215310","0.0-6.0-1.0-6.0-0.22","4","4","4","3","4","4","4","3","3","4","5","5","4","4","5","5","4","5","4","5","1","2","2","1","2","1","4","5","2","1","0","1","1","0","0","0","1","1","1","1","0","1","0","1","2","4","1","2","4","1","2","4","5","2","634029991171981312","胡","425","","","","","","","","","","","","","","","","","","","","","","","","","","","","","","","","","","","","","","","",""
"702","<p style=""color:rgb(150, 250, 100); font-size: 35px;"">他的</p>","i","categorize-html","104","216014","0.0-6.0-1.0-6.0-1.22","4","4","4","3","4","4","4","3","3","4","5","5","4","4","5","5","4","5","4","5","1","2","2","1","2","1","4","5","2","1","0","1","1","0","0","0","1","1","1","1","0","1","0","1","2","4","1","2","4","1","2","4","5","2","634029991171981312","胡","425","","","","","","","","","","","","","","","","","","","true","13","3","moral","702","other","他的","","","","","","","","","","","","","","",""
"null","","null","html-keyboard-response","105","216266","0.0-6.0-1.0-6.0-0.23","4","4","4","3","4","4","4","3","3","4","5","5","4","4","5","5","4","5","4","5","1","2","2","1","2","1","4","5","2","1","0","1","1","0","0","0","1","1","1","1","0","1","0","1","2","4","1","2","4","1","2","4","5","2","634029991171981312","胡","425","","","","","","","","","","","","","","","","","","","","","","","","","","","","","","","","","","","","","","","",""
"592","<p style=""color:white; font-size: 35px;"">不仁</p>","i","categorize-html","106","216860","0.0-6.0-1.0-6.0-1.23","4","4","4","3","4","4","4","3","3","4","5","5","4","4","5","5","4","5","4","5","1","2","2","1","2","1","4","5","2","1","0","1","1","0","0","0","1","1","1","1","0","1","0","1","2","4","1","2","4","1","2","4","5","2","634029991171981312","胡","425","","","","","","","","","","","","","","","","","","","true","13","3","moral","592","negative","不仁","","","","","","","","","","","","","","",""
"640","
    <div class=""tag-bottom""><p>
    —— 任务4：对“自我/积极”词和“他人/消极”词分类 ——<p/>
    <span style=""color:#78DCE8""><b>与刚才的任务完全相同，请再次对这四类词语分类</b></span><p/>
    <span style=""color:#FFD866""><b>请根据上方标签的提示，尽可能正确并且快速地做出按键反应</b></span><p/>
    当按键错误时屏幕中会出现<span style=""color:red""> X </span>，需要按另一个键纠正才能继续<br/><p/>
    请把双手食指分别放在键盘的“E”键和“I”键上<p/>
    按<空格键>开始
    </p></div>"," ","html-keyboard-response","107","217501","0.0-6.0-1.0-7.0","4","4","4","3","4","4","4","3","3","4","5","5","4","4","5","5","4","5","4","5","1","2","2","1","2","1","4","5","2","1","0","1","1","0","0","0","1","1","1","1","0","1","0","1","2","4","1","2","4","1","2","4","5","2","634029991171981312","胡","425","","","","","","","","","","","","","","","","","","","","","","","","","","","","","","","","","","","","","","","",""
"null","","null","html-keyboard-response","108","217752","0.0-6.0-1.0-8.0-0.0","4","4","4","3","4","4","4","3","3","4","5","5","4","4","5","5","4","5","4","5","1","2","2","1","2","1","4","5","2","1","0","1","1","0","0","0","1","1","1","1","0","1","0","1","2","4","1","2","4","1","2","4","5","2","634029991171981312","胡","425","","","","","","","","","","","","","","","","","","","","","","","","","","","","","","","","","","","","","","","",""
"885","<p style=""color:rgb(150, 250, 100); font-size: 35px;"">本人的</p>","e","categorize-html","109","218640","0.0-6.0-1.0-8.0-1.0","4","4","4","3","4","4","4","3","3","4","5","5","4","4","5","5","4","5","4","5","1","2","2","1","2","1","4","5","2","1","0","1","1","0","0","0","1","1","1","1","0","1","0","1","2","4","1","2","4","1","2","4","5","2","634029991171981312","胡","425","","","","","","","","","","","","","","","","","","","true","14","4","moral","885","self","本人的","","","","","","","","","","","","","","",""
"null","","null","html-keyboard-response","110","218892","0.0-6.0-1.0-8.0-0.1","4","4","4","3","4","4","4","3","3","4","5","5","4","4","5","5","4","5","4","5","1","2","2","1","2","1","4","5","2","1","0","1","1","0","0","0","1","1","1","1","0","1","0","1","2","4","1","2","4","1","2","4","5","2","634029991171981312","胡","425","","","","","","","","","","","","","","","","","","","","","","","","","","","","","","","","","","","","","","","",""
"758","<p style=""color:white; font-size: 35px;"">缺德</p>","i","categorize-html","111","219652","0.0-6.0-1.0-8.0-1.1","4","4","4","3","4","4","4","3","3","4","5","5","4","4","5","5","4","5","4","5","1","2","2","1","2","1","4","5","2","1","0","1","1","0","0","0","1","1","1","1","0","1","0","1","2","4","1","2","4","1","2","4","5","2","634029991171981312","胡","425","","","","","","","","","","","","","","","","","","","true","14","4","moral","758","negative","缺德","","","","","","","","","","","","","","",""
"null","","null","html-keyboard-response","112","219905","0.0-6.0-1.0-8.0-0.2","4","4","4","3","4","4","4","3","3","4","5","5","4","4","5","5","4","5","4","5","1","2","2","1","2","1","4","5","2","1","0","1","1","0","0","0","1","1","1","1","0","1","0","1","2","4","1","2","4","1","2","4","5","2","634029991171981312","胡","425","","","","","","","","","","","","","","","","","","","","","","","","","","","","","","","","","","","","","","","",""
"601","<p style=""color:rgb(150, 250, 100); font-size: 35px;"">他</p>","i","categorize-html","113","220509","0.0-6.0-1.0-8.0-1.2","4","4","4","3","4","4","4","3","3","4","5","5","4","4","5","5","4","5","4","5","1","2","2","1","2","1","4","5","2","1","0","1","1","0","0","0","1","1","1","1","0","1","0","1","2","4","1","2","4","1","2","4","5","2","634029991171981312","胡","425","","","","","","","","","","","","","","","","","","","true","14","4","moral","601","other","他","","","","","","","","","","","","","","",""
"null","","null","html-keyboard-response","114","220760","0.0-6.0-1.0-8.0-0.3","4","4","4","3","4","4","4","3","3","4","5","5","4","4","5","5","4","5","4","5","1","2","2","1","2","1","4","5","2","1","0","1","1","0","0","0","1","1","1","1","0","1","0","1","2","4","1","2","4","1","2","4","5","2","634029991171981312","胡","425","","","","","","","","","","","","","","","","","","","","","","","","","","","","","","","","","","","","","","","",""
"671","<p style=""color:white; font-size: 35px;"">君子</p>","e","categorize-html","115","221433","0.0-6.0-1.0-8.0-1.3","4","4","4","3","4","4","4","3","3","4","5","5","4","4","5","5","4","5","4","5","1","2","2","1","2","1","4","5","2","1","0","1","1","0","0","0","1","1","1","1","0","1","0","1","2","4","1","2","4","1","2","4","5","2","634029991171981312","胡","425","","","","","","","","","","","","","","","","","","","true","14","4","moral","671","positive","君子","","","","","","","","","","","","","","",""
"null","","null","html-keyboard-response","116","221685","0.0-6.0-1.0-8.0-0.4","4","4","4","3","4","4","4","3","3","4","5","5","4","4","5","5","4","5","4","5","1","2","2","1","2","1","4","5","2","1","0","1","1","0","0","0","1","1","1","1","0","1","0","1","2","4","1","2","4","1","2","4","5","2","634029991171981312","胡","425","","","","","","","","","","","","","","","","","","","","","","","","","","","","","","","","","","","","","","","",""
"1139","<p style=""color:rgb(150, 250, 100); font-size: 35px;"">他的</p>","i","categorize-html","117","222827","0.0-6.0-1.0-8.0-1.4","4","4","4","3","4","4","4","3","3","4","5","5","4","4","5","5","4","5","4","5","1","2","2","1","2","1","4","5","2","1","0","1","1","0","0","0","1","1","1","1","0","1","0","1","2","4","1","2","4","1","2","4","5","2","634029991171981312","胡","425","","","","","","","","","","","","","","","","","","","true","14","4","moral","1139","other","他的","","","","","","","","","","","","","","",""
"null","","null","html-keyboard-response","118","223079","0.0-6.0-1.0-8.0-0.5","4","4","4","3","4","4","4","3","3","4","5","5","4","4","5","5","4","5","4","5","1","2","2","1","2","1","4","5","2","1","0","1","1","0","0","0","1","1","1","1","0","1","0","1","2","4","1","2","4","1","2","4","5","2","634029991171981312","胡","425","","","","","","","","","","","","","","","","","","","","","","","","","","","","","","","","","","","","","","","",""
"627","<p style=""color:white; font-size: 35px;"">廉正</p>","e","categorize-html","119","223708","0.0-6.0-1.0-8.0-1.5","4","4","4","3","4","4","4","3","3","4","5","5","4","4","5","5","4","5","4","5","1","2","2","1","2","1","4","5","2","1","0","1","1","0","0","0","1","1","1","1","0","1","0","1","2","4","1","2","4","1","2","4","5","2","634029991171981312","胡","425","","","","","","","","","","","","","","","","","","","true","14","4","moral","627","positive","廉正","","","","","","","","","","","","","","",""
"null","","null","html-keyboard-response","120","223959","0.0-6.0-1.0-8.0-0.6","4","4","4","3","4","4","4","3","3","4","5","5","4","4","5","5","4","5","4","5","1","2","2","1","2","1","4","5","2","1","0","1","1","0","0","0","1","1","1","1","0","1","0","1","2","4","1","2","4","1","2","4","5","2","634029991171981312","胡","425","","","","","","","","","","","","","","","","","","","","","","","","","","","","","","","","","","","","","","","",""
"822","<p style=""color:rgb(150, 250, 100); font-size: 35px;"">本人</p>","e","categorize-html","121","224783","0.0-6.0-1.0-8.0-1.6","4","4","4","3","4","4","4","3","3","4","5","5","4","4","5","5","4","5","4","5","1","2","2","1","2","1","4","5","2","1","0","1","1","0","0","0","1","1","1","1","0","1","0","1","2","4","1","2","4","1","2","4","5","2","634029991171981312","胡","425","","","","","","","","","","","","","","","","","","","true","14","4","moral","822","self","本人","","","","","","","","","","","","","","",""
"null","","null","html-keyboard-response","122","225034","0.0-6.0-1.0-8.0-0.7","4","4","4","3","4","4","4","3","3","4","5","5","4","4","5","5","4","5","4","5","1","2","2","1","2","1","4","5","2","1","0","1","1","0","0","0","1","1","1","1","0","1","0","1","2","4","1","2","4","1","2","4","5","2","634029991171981312","胡","425","","","","","","","","","","","","","","","","","","","","","","","","","","","","","","","","","","","","","","","",""
"857","<p style=""color:white; font-size: 35px;"">黑心</p>","i","categorize-html","123","225893","0.0-6.0-1.0-8.0-1.7","4","4","4","3","4","4","4","3","3","4","5","5","4","4","5","5","4","5","4","5","1","2","2","1","2","1","4","5","2","1","0","1","1","0","0","0","1","1","1","1","0","1","0","1","2","4","1","2","4","1","2","4","5","2","634029991171981312","胡","425","","","","","","","","","","","","","","","","","","","true","14","4","moral","857","negative","黑心","","","","","","","","","","","","","","",""
"null","","null","html-keyboard-response","124","226144","0.0-6.0-1.0-8.0-0.8","4","4","4","3","4","4","4","3","3","4","5","5","4","4","5","5","4","5","4","5","1","2","2","1","2","1","4","5","2","1","0","1","1","0","0","0","1","1","1","1","0","1","0","1","2","4","1","2","4","1","2","4","5","2","634029991171981312","胡","425","","","","","","","","","","","","","","","","","","","","","","","","","","","","","","","","","","","","","","","",""
"476","<p style=""color:rgb(150, 250, 100); font-size: 35px;"">他</p>","i","categorize-html","125","226622","0.0-6.0-1.0-8.0-1.8","4","4","4","3","4","4","4","3","3","4","5","5","4","4","5","5","4","5","4","5","1","2","2","1","2","1","4","5","2","1","0","1","1","0","0","0","1","1","1","1","0","1","0","1","2","4","1","2","4","1","2","4","5","2","634029991171981312","胡","425","","","","","","","","","","","","","","","","","","","true","14","4","moral","476","other","他","","","","","","","","","","","","","","",""
"null","","null","html-keyboard-response","126","226873","0.0-6.0-1.0-8.0-0.9","4","4","4","3","4","4","4","3","3","4","5","5","4","4","5","5","4","5","4","5","1","2","2","1","2","1","4","5","2","1","0","1","1","0","0","0","1","1","1","1","0","1","0","1","2","4","1","2","4","1","2","4","5","2","634029991171981312","胡","425","","","","","","","","","","","","","","","","","","","","","","","","","","","","","","","","","","","","","","","",""
"998","<p style=""color:white; font-size: 35px;"">廉正</p>","e","categorize-html","127","227873","0.0-6.0-1.0-8.0-1.9","4","4","4","3","4","4","4","3","3","4","5","5","4","4","5","5","4","5","4","5","1","2","2","1","2","1","4","5","2","1","0","1","1","0","0","0","1","1","1","1","0","1","0","1","2","4","1","2","4","1","2","4","5","2","634029991171981312","胡","425","","","","","","","","","","","","","","","","","","","true","14","4","moral","998","positive","廉正","","","","","","","","","","","","","","",""
"null","","null","html-keyboard-response","128","228123","0.0-6.0-1.0-8.0-0.10","4","4","4","3","4","4","4","3","3","4","5","5","4","4","5","5","4","5","4","5","1","2","2","1","2","1","4","5","2","1","0","1","1","0","0","0","1","1","1","1","0","1","0","1","2","4","1","2","4","1","2","4","5","2","634029991171981312","胡","425","","","","","","","","","","","","","","","","","","","","","","","","","","","","","","","","","","","","","","","",""
"831","<p style=""color:rgb(150, 250, 100); font-size: 35px;"">我的</p>","e","categorize-html","129","228956","0.0-6.0-1.0-8.0-1.10","4","4","4","3","4","4","4","3","3","4","5","5","4","4","5","5","4","5","4","5","1","2","2","1","2","1","4","5","2","1","0","1","1","0","0","0","1","1","1","1","0","1","0","1","2","4","1","2","4","1","2","4","5","2","634029991171981312","胡","425","","","","","","","","","","","","","","","","","","","true","14","4","moral","831","self","我的","","","","","","","","","","","","","","",""
"null","","null","html-keyboard-response","130","229207","0.0-6.0-1.0-8.0-0.11","4","4","4","3","4","4","4","3","3","4","5","5","4","4","5","5","4","5","4","5","1","2","2","1","2","1","4","5","2","1","0","1","1","0","0","0","1","1","1","1","0","1","0","1","2","4","1","2","4","1","2","4","5","2","634029991171981312","胡","425","","","","","","","","","","","","","","","","","","","","","","","","","","","","","","","","","","","","","","","",""
"1303","<p style=""color:white; font-size: 35px;"">不仁</p>","i","categorize-html","131","230513","0.0-6.0-1.0-8.0-1.11","4","4","4","3","4","4","4","3","3","4","5","5","4","4","5","5","4","5","4","5","1","2","2","1","2","1","4","5","2","1","0","1","1","0","0","0","1","1","1","1","0","1","0","1","2","4","1","2","4","1","2","4","5","2","634029991171981312","胡","425","","","","","","","","","","","","","","","","","","","true","14","4","moral","1303","negative","不仁","","","","","","","","","","","","","","",""
"null","","null","html-keyboard-response","132","230764","0.0-6.0-1.0-8.0-0.12","4","4","4","3","4","4","4","3","3","4","5","5","4","4","5","5","4","5","4","5","1","2","2","1","2","1","4","5","2","1","0","1","1","0","0","0","1","1","1","1","0","1","0","1","2","4","1","2","4","1","2","4","5","2","634029991171981312","胡","425","","","","","","","","","","","","","","","","","","","","","","","","","","","","","","","","","","","","","","","",""
"760","<p style=""color:rgb(150, 250, 100); font-size: 35px;"">他人的</p>","i","categorize-html","133","231526","0.0-6.0-1.0-8.0-1.12","4","4","4","3","4","4","4","3","3","4","5","5","4","4","5","5","4","5","4","5","1","2","2","1","2","1","4","5","2","1","0","1","1","0","0","0","1","1","1","1","0","1","0","1","2","4","1","2","4","1","2","4","5","2","634029991171981312","胡","425","","","","","","","","","","","","","","","","","","","true","14","4","moral","760","other","他人的","","","","","","","","","","","","","","",""
"null","","null","html-keyboard-response","134","231776","0.0-6.0-1.0-8.0-0.13","4","4","4","3","4","4","4","3","3","4","5","5","4","4","5","5","4","5","4","5","1","2","2","1","2","1","4","5","2","1","0","1","1","0","0","0","1","1","1","1","0","1","0","1","2","4","1","2","4","1","2","4","5","2","634029991171981312","胡","425","","","","","","","","","","","","","","","","","","","","","","","","","","","","","","","","","","","","","","","",""
"803","<p style=""color:white; font-size: 35px;"">不孝</p>","i","categorize-html","135","232581","0.0-6.0-1.0-8.0-1.13","4","4","4","3","4","4","4","3","3","4","5","5","4","4","5","5","4","5","4","5","1","2","2","1","2","1","4","5","2","1","0","1","1","0","0","0","1","1","1","1","0","1","0","1","2","4","1","2","4","1","2","4","5","2","634029991171981312","胡","425","","","","","","","","","","","","","","","","","","","true","14","4","moral","803","negative","不孝","","","","","","","","","","","","","","",""
"null","","null","html-keyboard-response","136","232832","0.0-6.0-1.0-8.0-0.14","4","4","4","3","4","4","4","3","3","4","5","5","4","4","5","5","4","5","4","5","1","2","2","1","2","1","4","5","2","1","0","1","1","0","0","0","1","1","1","1","0","1","0","1","2","4","1","2","4","1","2","4","5","2","634029991171981312","胡","425","","","","","","","","","","","","","","","","","","","","","","","","","","","","","","","","","","","","","","","",""
"706","<p style=""color:rgb(150, 250, 100); font-size: 35px;"">自己</p>","i","categorize-html","137","234081","0.0-6.0-1.0-8.0-1.14","4","4","4","3","4","4","4","3","3","4","5","5","4","4","5","5","4","5","4","5","1","2","2","1","2","1","4","5","2","1","0","1","1","0","0","0","1","1","1","1","0","1","0","1","2","4","1","2","4","1","2","4","5","2","634029991171981312","胡","425","","","","","","","","","","","","","","","","","","","false","14","4","moral","1413.1136363636365","self","自己","","","","","","","","","","","","","","",""
"null","","null","html-keyboard-response","138","234332","0.0-6.0-1.0-8.0-0.15","4","4","4","3","4","4","4","3","3","4","5","5","4","4","5","5","4","5","4","5","1","2","2","1","2","1","4","5","2","1","0","1","1","0","0","0","1","1","1","1","0","1","0","1","2","4","1","2","4","1","2","4","5","2","634029991171981312","胡","425","","","","","","","","","","","","","","","","","","","","","","","","","","","","","","","","","","","","","","","",""
"768","<p style=""color:white; font-size: 35px;"">正直</p>","e","categorize-html","139","235102","0.0-6.0-1.0-8.0-1.15","4","4","4","3","4","4","4","3","3","4","5","5","4","4","5","5","4","5","4","5","1","2","2","1","2","1","4","5","2","1","0","1","1","0","0","0","1","1","1","1","0","1","0","1","2","4","1","2","4","1","2","4","5","2","634029991171981312","胡","425","","","","","","","","","","","","","","","","","","","true","14","4","moral","768","positive","正直","","","","","","","","","","","","","","",""
"null","","null","html-keyboard-response","140","235353","0.0-6.0-1.0-8.0-0.16","4","4","4","3","4","4","4","3","3","4","5","5","4","4","5","5","4","5","4","5","1","2","2","1","2","1","4","5","2","1","0","1","1","0","0","0","1","1","1","1","0","1","0","1","2","4","1","2","4","1","2","4","5","2","634029991171981312","胡","425","","","","","","","","","","","","","","","","","","","","","","","","","","","","","","","","","","","","","","","",""
"534","<p style=""color:rgb(150, 250, 100); font-size: 35px;"">我</p>","e","categorize-html","141","235890","0.0-6.0-1.0-8.0-1.16","4","4","4","3","4","4","4","3","3","4","5","5","4","4","5","5","4","5","4","5","1","2","2","1","2","1","4","5","2","1","0","1","1","0","0","0","1","1","1","1","0","1","0","1","2","4","1","2","4","1","2","4","5","2","634029991171981312","胡","425","","","","","","","","","","","","","","","","","","","true","14","4","moral","534","self","我","","","","","","","","","","","","","","",""
"null","","null","html-keyboard-response","142","236141","0.0-6.0-1.0-8.0-0.17","4","4","4","3","4","4","4","3","3","4","5","5","4","4","5","5","4","5","4","5","1","2","2","1","2","1","4","5","2","1","0","1","1","0","0","0","1","1","1","1","0","1","0","1","2","4","1","2","4","1","2","4","5","2","634029991171981312","胡","425","","","","","","","","","","","","","","","","","","","","","","","","","","","","","","","","","","","","","","","",""
"1245","<p style=""color:white; font-size: 35px;"">善良</p>","e","categorize-html","143","237388","0.0-6.0-1.0-8.0-1.17","4","4","4","3","4","4","4","3","3","4","5","5","4","4","5","5","4","5","4","5","1","2","2","1","2","1","4","5","2","1","0","1","1","0","0","0","1","1","1","1","0","1","0","1","2","4","1","2","4","1","2","4","5","2","634029991171981312","胡","425","","","","","","","","","","","","","","","","","","","true","14","4","moral","1245","positive","善良","","","","","","","","","","","","","","",""
"null","","null","html-keyboard-response","144","237640","0.0-6.0-1.0-8.0-0.18","4","4","4","3","4","4","4","3","3","4","5","5","4","4","5","5","4","5","4","5","1","2","2","1","2","1","4","5","2","1","0","1","1","0","0","0","1","1","1","1","0","1","0","1","2","4","1","2","4","1","2","4","5","2","634029991171981312","胡","425","","","","","","","","","","","","","","","","","","","","","","","","","","","","","","","","","","","","","","","",""
"809","<p style=""color:rgb(150, 250, 100); font-size: 35px;"">别人的</p>","i","categorize-html","145","238451","0.0-6.0-1.0-8.0-1.18","4","4","4","3","4","4","4","3","3","4","5","5","4","4","5","5","4","5","4","5","1","2","2","1","2","1","4","5","2","1","0","1","1","0","0","0","1","1","1","1","0","1","0","1","2","4","1","2","4","1","2","4","5","2","634029991171981312","胡","425","","","","","","","","","","","","","","","","","","","true","14","4","moral","809","other","别人的","","","","","","","","","","","","","","",""
"null","","null","html-keyboard-response","146","238702","0.0-6.0-1.0-8.0-0.19","4","4","4","3","4","4","4","3","3","4","5","5","4","4","5","5","4","5","4","5","1","2","2","1","2","1","4","5","2","1","0","1","1","0","0","0","1","1","1","1","0","1","0","1","2","4","1","2","4","1","2","4","5","2","634029991171981312","胡","425","","","","","","","","","","","","","","","","","","","","","","","","","","","","","","","","","","","","","","","",""
"673","<p style=""color:white; font-size: 35px;"">小人</p>","i","categorize-html","147","239377","0.0-6.0-1.0-8.0-1.19","4","4","4","3","4","4","4","3","3","4","5","5","4","4","5","5","4","5","4","5","1","2","2","1","2","1","4","5","2","1","0","1","1","0","0","0","1","1","1","1","0","1","0","1","2","4","1","2","4","1","2","4","5","2","634029991171981312","胡","425","","","","","","","","","","","","","","","","","","","true","14","4","moral","673","negative","小人","","","","","","","","","","","","","","",""
"null","","null","html-keyboard-response","148","239628","0.0-6.0-1.0-8.0-0.20","4","4","4","3","4","4","4","3","3","4","5","5","4","4","5","5","4","5","4","5","1","2","2","1","2","1","4","5","2","1","0","1","1","0","0","0","1","1","1","1","0","1","0","1","2","4","1","2","4","1","2","4","5","2","634029991171981312","胡","425","","","","","","","","","","","","","","","","","","","","","","","","","","","","","","","","","","","","","","","",""
"1327","<p style=""color:rgb(150, 250, 100); font-size: 35px;"">自己的</p>","e","categorize-html","149","240957","0.0-6.0-1.0-8.0-1.20","4","4","4","3","4","4","4","3","3","4","5","5","4","4","5","5","4","5","4","5","1","2","2","1","2","1","4","5","2","1","0","1","1","0","0","0","1","1","1","1","0","1","0","1","2","4","1","2","4","1","2","4","5","2","634029991171981312","胡","425","","","","","","","","","","","","","","","","","","","true","14","4","moral","1327","self","自己的","","","","","","","","","","","","","","",""
"null","","null","html-keyboard-response","150","241208","0.0-6.0-1.0-8.0-0.21","4","4","4","3","4","4","4","3","3","4","5","5","4","4","5","5","4","5","4","5","1","2","2","1","2","1","4","5","2","1","0","1","1","0","0","0","1","1","1","1","0","1","0","1","2","4","1","2","4","1","2","4","5","2","634029991171981312","胡","425","","","","","","","","","","","","","","","","","","","","","","","","","","","","","","","","","","","","","","","",""
"794","<p style=""color:white; font-size: 35px;"">缺德</p>","e","categorize-html","151","242464","0.0-6.0-1.0-8.0-1.21","4","4","4","3","4","4","4","3","3","4","5","5","4","4","5","5","4","5","4","5","1","2","2","1","2","1","4","5","2","1","0","1","1","0","0","0","1","1","1","1","0","1","0","1","2","4","1","2","4","1","2","4","5","2","634029991171981312","胡","425","","","","","","","","","","","","","","","","","","","false","14","4","moral","1413.1136363636365","negative","缺德","","","","","","","","","","","","","","",""
"null","","null","html-keyboard-response","152","242715","0.0-6.0-1.0-8.0-0.22","4","4","4","3","4","4","4","3","3","4","5","5","4","4","5","5","4","5","4","5","1","2","2","1","2","1","4","5","2","1","0","1","1","0","0","0","1","1","1","1","0","1","0","1","2","4","1","2","4","1","2","4","5","2","634029991171981312","胡","425","","","","","","","","","","","","","","","","","","","","","","","","","","","","","","","","","","","","","","","",""
"883","<p style=""color:rgb(150, 250, 100); font-size: 35px;"">别人</p>","i","categorize-html","153","243601","0.0-6.0-1.0-8.0-1.22","4","4","4","3","4","4","4","3","3","4","5","5","4","4","5","5","4","5","4","5","1","2","2","1","2","1","4","5","2","1","0","1","1","0","0","0","1","1","1","1","0","1","0","1","2","4","1","2","4","1","2","4","5","2","634029991171981312","胡","425","","","","","","","","","","","","","","","","","","","true","14","4","moral","883","other","别人","","","","","","","","","","","","","","",""
"null","","null","html-keyboard-response","154","243853","0.0-6.0-1.0-8.0-0.23","4","4","4","3","4","4","4","3","3","4","5","5","4","4","5","5","4","5","4","5","1","2","2","1","2","1","4","5","2","1","0","1","1","0","0","0","1","1","1","1","0","1","0","1","2","4","1","2","4","1","2","4","5","2","634029991171981312","胡","425","","","","","","","","","","","","","","","","","","","","","","","","","","","","","","","","","","","","","","","",""
"920","<p style=""color:white; font-size: 35px;"">君子</p>","e","categorize-html","155","244775","0.0-6.0-1.0-8.0-1.23","4","4","4","3","4","4","4","3","3","4","5","5","4","4","5","5","4","5","4","5","1","2","2","1","2","1","4","5","2","1","0","1","1","0","0","0","1","1","1","1","0","1","0","1","2","4","1","2","4","1","2","4","5","2","634029991171981312","胡","425","","","","","","","","","","","","","","","","","","","true","14","4","moral","920","positive","君子","","","","","","","","","","","","","","",""
"null","","null","html-keyboard-response","156","245026","0.0-6.0-1.0-8.0-0.24","4","4","4","3","4","4","4","3","3","4","5","5","4","4","5","5","4","5","4","5","1","2","2","1","2","1","4","5","2","1","0","1","1","0","0","0","1","1","1","1","0","1","0","1","2","4","1","2","4","1","2","4","5","2","634029991171981312","胡","425","","","","","","","","","","","","","","","","","","","","","","","","","","","","","","","","","","","","","","","",""
"937","<p style=""color:rgb(150, 250, 100); font-size: 35px;"">他人的</p>","i","categorize-html","157","245965","0.0-6.0-1.0-8.0-1.24","4","4","4","3","4","4","4","3","3","4","5","5","4","4","5","5","4","5","4","5","1","2","2","1","2","1","4","5","2","1","0","1","1","0","0","0","1","1","1","1","0","1","0","1","2","4","1","2","4","1","2","4","5","2","634029991171981312","胡","425","","","","","","","","","","","","","","","","","","","true","14","4","moral","937","other","他人的","","","","","","","","","","","","","","",""
"null","","null","html-keyboard-response","158","246216","0.0-6.0-1.0-8.0-0.25","4","4","4","3","4","4","4","3","3","4","5","5","4","4","5","5","4","5","4","5","1","2","2","1","2","1","4","5","2","1","0","1","1","0","0","0","1","1","1","1","0","1","0","1","2","4","1","2","4","1","2","4","5","2","634029991171981312","胡","425","","","","","","","","","","","","","","","","","","","","","","","","","","","","","","","","","","","","","","","",""
"766","<p style=""color:white; font-size: 35px;"">黑心</p>","e","categorize-html","159","247431","0.0-6.0-1.0-8.0-1.25","4","4","4","3","4","4","4","3","3","4","5","5","4","4","5","5","4","5","4","5","1","2","2","1","2","1","4","5","2","1","0","1","1","0","0","0","1","1","1","1","0","1","0","1","2","4","1","2","4","1","2","4","5","2","634029991171981312","胡","425","","","","","","","","","","","","","","","","","","","false","14","4","moral","1413.1136363636365","negative","黑心","","","","","","","","","","","","","","",""
"null","","null","html-keyboard-response","160","247682","0.0-6.0-1.0-8.0-0.26","4","4","4","3","4","4","4","3","3","4","5","5","4","4","5","5","4","5","4","5","1","2","2","1","2","1","4","5","2","1","0","1","1","0","0","0","1","1","1","1","0","1","0","1","2","4","1","2","4","1","2","4","5","2","634029991171981312","胡","425","","","","","","","","","","","","","","","","","","","","","","","","","","","","","","","","","","","","","","","",""
"720","<p style=""color:rgb(150, 250, 100); font-size: 35px;"">自己的</p>","e","categorize-html","161","248404","0.0-6.0-1.0-8.0-1.26","4","4","4","3","4","4","4","3","3","4","5","5","4","4","5","5","4","5","4","5","1","2","2","1","2","1","4","5","2","1","0","1","1","0","0","0","1","1","1","1","0","1","0","1","2","4","1","2","4","1","2","4","5","2","634029991171981312","胡","425","","","","","","","","","","","","","","","","","","","true","14","4","moral","720","self","自己的","","","","","","","","","","","","","","",""
"null","","null","html-keyboard-response","162","248656","0.0-6.0-1.0-8.0-0.27","4","4","4","3","4","4","4","3","3","4","5","5","4","4","5","5","4","5","4","5","1","2","2","1","2","1","4","5","2","1","0","1","1","0","0","0","1","1","1","1","0","1","0","1","2","4","1","2","4","1","2","4","5","2","634029991171981312","胡","425","","","","","","","","","","","","","","","","","","","","","","","","","","","","","","","","","","","","","","","",""
"1043","<p style=""color:white; font-size: 35px;"">诚信</p>","e","categorize-html","163","249701","0.0-6.0-1.0-8.0-1.27","4","4","4","3","4","4","4","3","3","4","5","5","4","4","5","5","4","5","4","5","1","2","2","1","2","1","4","5","2","1","0","1","1","0","0","0","1","1","1","1","0","1","0","1","2","4","1","2","4","1","2","4","5","2","634029991171981312","胡","425","","","","","","","","","","","","","","","","","","","true","14","4","moral","1043","positive","诚信","","","","","","","","","","","","","","",""
"null","","null","html-keyboard-response","164","249952","0.0-6.0-1.0-8.0-0.28","4","4","4","3","4","4","4","3","3","4","5","5","4","4","5","5","4","5","4","5","1","2","2","1","2","1","4","5","2","1","0","1","1","0","0","0","1","1","1","1","0","1","0","1","2","4","1","2","4","1","2","4","5","2","634029991171981312","胡","425","","","","","","","","","","","","","","","","","","","","","","","","","","","","","","","","","","","","","","","",""
"662","<p style=""color:rgb(150, 250, 100); font-size: 35px;"">我的</p>","e","categorize-html","165","250616","0.0-6.0-1.0-8.0-1.28","4","4","4","3","4","4","4","3","3","4","5","5","4","4","5","5","4","5","4","5","1","2","2","1","2","1","4","5","2","1","0","1","1","0","0","0","1","1","1","1","0","1","0","1","2","4","1","2","4","1","2","4","5","2","634029991171981312","胡","425","","","","","","","","","","","","","","","","","","","true","14","4","moral","662","self","我的","","","","","","","","","","","","","","",""
"null","","null","html-keyboard-response","166","250868","0.0-6.0-1.0-8.0-0.29","4","4","4","3","4","4","4","3","3","4","5","5","4","4","5","5","4","5","4","5","1","2","2","1","2","1","4","5","2","1","0","1","1","0","0","0","1","1","1","1","0","1","0","1","2","4","1","2","4","1","2","4","5","2","634029991171981312","胡","425","","","","","","","","","","","","","","","","","","","","","","","","","","","","","","","","","","","","","","","",""
"659","<p style=""color:white; font-size: 35px;"">高尚</p>","e","categorize-html","167","251529","0.0-6.0-1.0-8.0-1.29","4","4","4","3","4","4","4","3","3","4","5","5","4","4","5","5","4","5","4","5","1","2","2","1","2","1","4","5","2","1","0","1","1","0","0","0","1","1","1","1","0","1","0","1","2","4","1","2","4","1","2","4","5","2","634029991171981312","胡","425","","","","","","","","","","","","","","","","","","","true","14","4","moral","659","positive","高尚","","","","","","","","","","","","","","",""
"null","","null","html-keyboard-response","168","251781","0.0-6.0-1.0-8.0-0.30","4","4","4","3","4","4","4","3","3","4","5","5","4","4","5","5","4","5","4","5","1","2","2","1","2","1","4","5","2","1","0","1","1","0","0","0","1","1","1","1","0","1","0","1","2","4","1","2","4","1","2","4","5","2","634029991171981312","胡","425","","","","","","","","","","","","","","","","","","","","","","","","","","","","","","","","","","","","","","","",""
"692","<p style=""color:rgb(150, 250, 100); font-size: 35px;"">他人</p>","i","categorize-html","169","252475","0.0-6.0-1.0-8.0-1.30","4","4","4","3","4","4","4","3","3","4","5","5","4","4","5","5","4","5","4","5","1","2","2","1","2","1","4","5","2","1","0","1","1","0","0","0","1","1","1","1","0","1","0","1","2","4","1","2","4","1","2","4","5","2","634029991171981312","胡","425","","","","","","","","","","","","","","","","","","","true","14","4","moral","692","other","他人","","","","","","","","","","","","","","",""
"null","","null","html-keyboard-response","170","252726","0.0-6.0-1.0-8.0-0.31","4","4","4","3","4","4","4","3","3","4","5","5","4","4","5","5","4","5","4","5","1","2","2","1","2","1","4","5","2","1","0","1","1","0","0","0","1","1","1","1","0","1","0","1","2","4","1","2","4","1","2","4","5","2","634029991171981312","胡","425","","","","","","","","","","","","","","","","","","","","","","","","","","","","","","","","","","","","","","","",""
"728","<p style=""color:white; font-size: 35px;"">卑鄙</p>","i","categorize-html","171","253456","0.0-6.0-1.0-8.0-1.31","4","4","4","3","4","4","4","3","3","4","5","5","4","4","5","5","4","5","4","5","1","2","2","1","2","1","4","5","2","1","0","1","1","0","0","0","1","1","1","1","0","1","0","1","2","4","1","2","4","1","2","4","5","2","634029991171981312","胡","425","","","","","","","","","","","","","","","","","","","true","14","4","moral","728","negative","卑鄙","","","","","","","","","","","","","","",""
"null","","null","html-keyboard-response","172","253707","0.0-6.0-1.0-8.0-0.32","4","4","4","3","4","4","4","3","3","4","5","5","4","4","5","5","4","5","4","5","1","2","2","1","2","1","4","5","2","1","0","1","1","0","0","0","1","1","1","1","0","1","0","1","2","4","1","2","4","1","2","4","5","2","634029991171981312","胡","425","","","","","","","","","","","","","","","","","","","","","","","","","","","","","","","","","","","","","","","",""
"527","<p style=""color:rgb(150, 250, 100); font-size: 35px;"">他人</p>","i","categorize-html","173","254236","0.0-6.0-1.0-8.0-1.32","4","4","4","3","4","4","4","3","3","4","5","5","4","4","5","5","4","5","4","5","1","2","2","1","2","1","4","5","2","1","0","1","1","0","0","0","1","1","1","1","0","1","0","1","2","4","1","2","4","1","2","4","5","2","634029991171981312","胡","425","","","","","","","","","","","","","","","","","","","true","14","4","moral","527","other","他人","","","","","","","","","","","","","","",""
"null","","null","html-keyboard-response","174","254501","0.0-6.0-1.0-8.0-0.33","4","4","4","3","4","4","4","3","3","4","5","5","4","4","5","5","4","5","4","5","1","2","2","1","2","1","4","5","2","1","0","1","1","0","0","0","1","1","1","1","0","1","0","1","2","4","1","2","4","1","2","4","5","2","634029991171981312","胡","425","","","","","","","","","","","","","","","","","","","","","","","","","","","","","","","","","","","","","","","",""
"772","<p style=""color:white; font-size: 35px;"">不仁</p>","i","categorize-html","175","255275","0.0-6.0-1.0-8.0-1.33","4","4","4","3","4","4","4","3","3","4","5","5","4","4","5","5","4","5","4","5","1","2","2","1","2","1","4","5","2","1","0","1","1","0","0","0","1","1","1","1","0","1","0","1","2","4","1","2","4","1","2","4","5","2","634029991171981312","胡","425","","","","","","","","","","","","","","","","","","","true","14","4","moral","772","negative","不仁","","","","","","","","","","","","","","",""
"null","","null","html-keyboard-response","176","255526","0.0-6.0-1.0-8.0-0.34","4","4","4","3","4","4","4","3","3","4","5","5","4","4","5","5","4","5","4","5","1","2","2","1","2","1","4","5","2","1","0","1","1","0","0","0","1","1","1","1","0","1","0","1","2","4","1","2","4","1","2","4","5","2","634029991171981312","胡","425","","","","","","","","","","","","","","","","","","","","","","","","","","","","","","","","","","","","","","","",""
"989","<p style=""color:rgb(150, 250, 100); font-size: 35px;"">我</p>","e","categorize-html","177","256517","0.0-6.0-1.0-8.0-1.34","4","4","4","3","4","4","4","3","3","4","5","5","4","4","5","5","4","5","4","5","1","2","2","1","2","1","4","5","2","1","0","1","1","0","0","0","1","1","1","1","0","1","0","1","2","4","1","2","4","1","2","4","5","2","634029991171981312","胡","425","","","","","","","","","","","","","","","","","","","true","14","4","moral","989","self","我","","","","","","","","","","","","","","",""
"null","","null","html-keyboard-response","178","256768","0.0-6.0-1.0-8.0-0.35","4","4","4","3","4","4","4","3","3","4","5","5","4","4","5","5","4","5","4","5","1","2","2","1","2","1","4","5","2","1","0","1","1","0","0","0","1","1","1","1","0","1","0","1","2","4","1","2","4","1","2","4","5","2","634029991171981312","胡","425","","","","","","","","","","","","","","","","","","","","","","","","","","","","","","","","","","","","","","","",""
"700","<p style=""color:white; font-size: 35px;"">善良</p>","e","categorize-html","179","257470","0.0-6.0-1.0-8.0-1.35","4","4","4","3","4","4","4","3","3","4","5","5","4","4","5","5","4","5","4","5","1","2","2","1","2","1","4","5","2","1","0","1","1","0","0","0","1","1","1","1","0","1","0","1","2","4","1","2","4","1","2","4","5","2","634029991171981312","胡","425","","","","","","","","","","","","","","","","","","","true","14","4","moral","700","positive","善良","","","","","","","","","","","","","","",""
"null","","null","html-keyboard-response","180","257721","0.0-6.0-1.0-8.0-0.36","4","4","4","3","4","4","4","3","3","4","5","5","4","4","5","5","4","5","4","5","1","2","2","1","2","1","4","5","2","1","0","1","1","0","0","0","1","1","1","1","0","1","0","1","2","4","1","2","4","1","2","4","5","2","634029991171981312","胡","425","","","","","","","","","","","","","","","","","","","","","","","","","","","","","","","","","","","","","","","",""
"778","<p style=""color:rgb(150, 250, 100); font-size: 35px;"">他的</p>","e","categorize-html","181","259437","0.0-6.0-1.0-8.0-1.36","4","4","4","3","4","4","4","3","3","4","5","5","4","4","5","5","4","5","4","5","1","2","2","1","2","1","4","5","2","1","0","1","1","0","0","0","1","1","1","1","0","1","0","1","2","4","1","2","4","1","2","4","5","2","634029991171981312","胡","425","","","","","","","","","","","","","","","","","","","false","14","4","moral","1413.1136363636365","other","他的","","","","","","","","","","","","","","",""
"null","","null","html-keyboard-response","182","259689","0.0-6.0-1.0-8.0-0.37","4","4","4","3","4","4","4","3","3","4","5","5","4","4","5","5","4","5","4","5","1","2","2","1","2","1","4","5","2","1","0","1","1","0","0","0","1","1","1","1","0","1","0","1","2","4","1","2","4","1","2","4","5","2","634029991171981312","胡","425","","","","","","","","","","","","","","","","","","","","","","","","","","","","","","","","","","","","","","","",""
"665","<p style=""color:white; font-size: 35px;"">卑鄙</p>","i","categorize-html","183","260356","0.0-6.0-1.0-8.0-1.37","4","4","4","3","4","4","4","3","3","4","5","5","4","4","5","5","4","5","4","5","1","2","2","1","2","1","4","5","2","1","0","1","1","0","0","0","1","1","1","1","0","1","0","1","2","4","1","2","4","1","2","4","5","2","634029991171981312","胡","425","","","","","","","","","","","","","","","","","","","true","14","4","moral","665","negative","卑鄙","","","","","","","","","","","","","","",""
"null","","null","html-keyboard-response","184","260608","0.0-6.0-1.0-8.0-0.38","4","4","4","3","4","4","4","3","3","4","5","5","4","4","5","5","4","5","4","5","1","2","2","1","2","1","4","5","2","1","0","1","1","0","0","0","1","1","1","1","0","1","0","1","2","4","1","2","4","1","2","4","5","2","634029991171981312","胡","425","","","","","","","","","","","","","","","","","","","","","","","","","","","","","","","","","","","","","","","",""
"1401","<p style=""color:rgb(150, 250, 100); font-size: 35px;"">本人的</p>","e","categorize-html","185","262010","0.0-6.0-1.0-8.0-1.38","4","4","4","3","4","4","4","3","3","4","5","5","4","4","5","5","4","5","4","5","1","2","2","1","2","1","4","5","2","1","0","1","1","0","0","0","1","1","1","1","0","1","0","1","2","4","1","2","4","1","2","4","5","2","634029991171981312","胡","425","","","","","","","","","","","","","","","","","","","true","14","4","moral","1401","self","本人的","","","","","","","","","","","","","","",""
"null","","null","html-keyboard-response","186","262262","0.0-6.0-1.0-8.0-0.39","4","4","4","3","4","4","4","3","3","4","5","5","4","4","5","5","4","5","4","5","1","2","2","1","2","1","4","5","2","1","0","1","1","0","0","0","1","1","1","1","0","1","0","1","2","4","1","2","4","1","2","4","5","2","634029991171981312","胡","425","","","","","","","","","","","","","","","","","","","","","","","","","","","","","","","","","","","","","","","",""
"684","<p style=""color:white; font-size: 35px;"">高尚</p>","e","categorize-html","187","262948","0.0-6.0-1.0-8.0-1.39","4","4","4","3","4","4","4","3","3","4","5","5","4","4","5","5","4","5","4","5","1","2","2","1","2","1","4","5","2","1","0","1","1","0","0","0","1","1","1","1","0","1","0","1","2","4","1","2","4","1","2","4","5","2","634029991171981312","胡","425","","","","","","","","","","","","","","","","","","","true","14","4","moral","684","positive","高尚","","","","","","","","","","","","","","",""
"null","","null","html-keyboard-response","188","263201","0.0-6.0-1.0-8.0-0.40","4","4","4","3","4","4","4","3","3","4","5","5","4","4","5","5","4","5","4","5","1","2","2","1","2","1","4","5","2","1","0","1","1","0","0","0","1","1","1","1","0","1","0","1","2","4","1","2","4","1","2","4","5","2","634029991171981312","胡","425","","","","","","","","","","","","","","","","","","","","","","","","","","","","","","","","","","","","","","","",""
"839","<p style=""color:rgb(150, 250, 100); font-size: 35px;"">别人</p>","i","categorize-html","189","264041","0.0-6.0-1.0-8.0-1.40","4","4","4","3","4","4","4","3","3","4","5","5","4","4","5","5","4","5","4","5","1","2","2","1","2","1","4","5","2","1","0","1","1","0","0","0","1","1","1","1","0","1","0","1","2","4","1","2","4","1","2","4","5","2","634029991171981312","胡","425","","","","","","","","","","","","","","","","","","","true","14","4","moral","839","other","别人","","","","","","","","","","","","","","",""
"null","","null","html-keyboard-response","190","264298","0.0-6.0-1.0-8.0-0.41","4","4","4","3","4","4","4","3","3","4","5","5","4","4","5","5","4","5","4","5","1","2","2","1","2","1","4","5","2","1","0","1","1","0","0","0","1","1","1","1","0","1","0","1","2","4","1","2","4","1","2","4","5","2","634029991171981312","胡","425","","","","","","","","","","","","","","","","","","","","","","","","","","","","","","","","","","","","","","","",""
"528","<p style=""color:white; font-size: 35px;"">不孝</p>","i","categorize-html","191","264828","0.0-6.0-1.0-8.0-1.41","4","4","4","3","4","4","4","3","3","4","5","5","4","4","5","5","4","5","4","5","1","2","2","1","2","1","4","5","2","1","0","1","1","0","0","0","1","1","1","1","0","1","0","1","2","4","1","2","4","1","2","4","5","2","634029991171981312","胡","425","","","","","","","","","","","","","","","","","","","true","14","4","moral","528","negative","不孝","","","","","","","","","","","","","","",""
"null","","null","html-keyboard-response","192","265080","0.0-6.0-1.0-8.0-0.42","4","4","4","3","4","4","4","3","3","4","5","5","4","4","5","5","4","5","4","5","1","2","2","1","2","1","4","5","2","1","0","1","1","0","0","0","1","1","1","1","0","1","0","1","2","4","1","2","4","1","2","4","5","2","634029991171981312","胡","425","","","","","","","","","","","","","","","","","","","","","","","","","","","","","","","","","","","","","","","",""
"897","<p style=""color:rgb(150, 250, 100); font-size: 35px;"">本人</p>","e","categorize-html","193","265979","0.0-6.0-1.0-8.0-1.42","4","4","4","3","4","4","4","3","3","4","5","5","4","4","5","5","4","5","4","5","1","2","2","1","2","1","4","5","2","1","0","1","1","0","0","0","1","1","1","1","0","1","0","1","2","4","1","2","4","1","2","4","5","2","634029991171981312","胡","425","","","","","","","","","","","","","","","","","","","true","14","4","moral","897","self","本人","","","","","","","","","","","","","","",""
"null","","null","html-keyboard-response","194","266230","0.0-6.0-1.0-8.0-0.43","4","4","4","3","4","4","4","3","3","4","5","5","4","4","5","5","4","5","4","5","1","2","2","1","2","1","4","5","2","1","0","1","1","0","0","0","1","1","1","1","0","1","0","1","2","4","1","2","4","1","2","4","5","2","634029991171981312","胡","425","","","","","","","","","","","","","","","","","","","","","","","","","","","","","","","","","","","","","","","",""
"760","<p style=""color:white; font-size: 35px;"">诚信</p>","e","categorize-html","195","266993","0.0-6.0-1.0-8.0-1.43","4","4","4","3","4","4","4","3","3","4","5","5","4","4","5","5","4","5","4","5","1","2","2","1","2","1","4","5","2","1","0","1","1","0","0","0","1","1","1","1","0","1","0","1","2","4","1","2","4","1","2","4","5","2","634029991171981312","胡","425","","","","","","","","","","","","","","","","","","","true","14","4","moral","760","positive","诚信","","","","","","","","","","","","","","",""
"null","","null","html-keyboard-response","196","267246","0.0-6.0-1.0-8.0-0.44","4","4","4","3","4","4","4","3","3","4","5","5","4","4","5","5","4","5","4","5","1","2","2","1","2","1","4","5","2","1","0","1","1","0","0","0","1","1","1","1","0","1","0","1","2","4","1","2","4","1","2","4","5","2","634029991171981312","胡","425","","","","","","","","","","","","","","","","","","","","","","","","","","","","","","","","","","","","","","","",""
"762","<p style=""color:rgb(150, 250, 100); font-size: 35px;"">自己</p>","e","categorize-html","197","268010","0.0-6.0-1.0-8.0-1.44","4","4","4","3","4","4","4","3","3","4","5","5","4","4","5","5","4","5","4","5","1","2","2","1","2","1","4","5","2","1","0","1","1","0","0","0","1","1","1","1","0","1","0","1","2","4","1","2","4","1","2","4","5","2","634029991171981312","胡","425","","","","","","","","","","","","","","","","","","","true","14","4","moral","762","self","自己","","","","","","","","","","","","","","",""
