"rt","stimulus","response","trial_type","trial_index","time_elapsed","internal_node_id","ses_1","ses_2","ses_3","ses_4","ses_5","ses_6","ses_7","ses_8","ses_9","ses_10","coreself_1","coreself_2","coreself_3","coreself_4","coreself_5","coreself_6","coreself_7","coreself_8","coreself_9","coreself_10","SGPS_1","SGPS_2","SGPS_3","SGPS_4","SGPS_5","SGPS_6","SGPS_7","SGPS_8","SGPS_9","NPI1","NPI2","NPI3","NPI4","NPI5","NPI6","NPI7","NPI8","NPI9","NPI10","NPI11","NPI12","NPI13","NPI14","NPI15","hsns_1","hsns_2","hsns_3","hsns_4","hsns_5","hsns_6","hsns_7","hsns_8","hsns_9","hsns_10","subj_idx","friend_name","ParticipantID","value","success","user_agent","responses","item_order","radio_event_ids","radio_event_times","key_event_times","mouse_event_times","straightlining","zigzagging","honeypot","timeout","failed_images","failed_audio","failed_video","view_history","response_type","key_press","avg_frame_time","center_x","center_y","correct_response","correct","identity","Image","word","condition","task_id","screen_id","time_stamp","version_attrib","version_target","IAT","RT","varname","summary","version_attrib2","version_target2","question_order"
"11416","
   <p><div style = ""color: white;font-size:25px;"">您好，欢迎参加本次实验。</div> </p>
   <p><div style = ""color: white;font-size:25px;"">为充分保障您的权利，请确保您已经知晓并同意《参与实验同意书》以及《数据公开知情同意书》。</div></p>
   <p><div style = ""color: white;font-size:25px;"">如果您未见过上述内容，请咨询实验员。</div></p>
   <p><div style = ""color: white;font-size:25px;"">如果您选择继续实验，则表示您已经清楚两份知情同意书的内容并同意。</div></p>
   <p><div style = ""color: red;font-size:30px;"">请确保您记得day0的实验编号，您将在本次实验输入该编号，若您忘记，请咨询实验员后作答。</div></p>
   <p> <div style = ""color: green;font-size:25px;""><按空格键至下页></div> </p>
   "," ","html-keyboard-response","0","11418","0.0-0.0","3","3","3","3","3","3","4","3","3","3","4","3","2","4","3","4","3","2","4","4","3","4","4","3","3","4","2","2","1","1","0","0","1","0","0","1","1","0","1","1","0","1","0","1","3","4","3","2","2","3","2","2","2","3","766337469301133313","祁","272","","","","","","","","","","","","","","","","","","","","","","","","","","","","","","","","","","","","","","","",""
"","","","call-function","1","11420","0.0-1.0-0.0","3","3","3","3","3","3","4","3","3","3","4","3","2","4","3","4","3","2","4","4","3","4","4","3","3","4","2","2","1","1","0","0","1","0","0","1","1","0","1","1","0","1","0","1","3","4","3","2","2","3","2","2","2","3","766337469301133313","祁","272","","","","","","","","","","","","","","","","","","","","","","","","","","","","","","","","","","","","","","","",""
"24739","","{""friend_name"":""祁"",""ParticipantID"":""272""}","survey-html-form","2","36160","0.0-1.0-1.0","3","3","3","3","3","3","4","3","3","3","4","3","2","4","3","4","3","2","4","4","3","4","4","3","3","4","2","2","1","1","0","0","1","0","0","1","1","0","1","1","0","1","0","1","3","4","3","2","2","3","2","2","2","3","766337469301133313","祁","272","","","","","","","","","","","","","","","","","","","","","","","","","","","","","","","","","","","","","","","",""
"","","","fullscreen","3","46878","0.0-2.0","3","3","3","3","3","3","4","3","3","3","4","3","2","4","3","4","3","2","4","4","3","4","4","3","3","4","2","2","1","1","0","0","1","0","0","1","1","0","1","1","0","1","0","1","3","4","3","2","2","3","2","2","2","3","766337469301133313","祁","272","","true","{}","","","","","","","","","","","","","","","","","","","","","","","","","","","","","","","","","","","","",""
"25889.299999999814","","{""Q01"":""3"",""Q02"":""3"",""Q03"":""3"",""Q04"":""3"",""Q05"":""3"",""Q06"":""3"",""Q07"":""4"",""Q08"":""3"",""Q09"":""3"",""Q10"":""3""}","survey-template","4","72769","0.0-3.0","3","3","3","3","3","3","4","3","3","3","4","3","2","4","3","4","3","2","4","4","3","4","4","3","3","4","2","2","1","1","0","0","1","0","0","1","1","0","1","1","0","1","0","1","3","4","3","2","2","3","2","2","2","3","766337469301133313","祁","272","","","","{""Q01"":""3"",""Q02"":""3"",""Q03"":""3"",""Q04"":""3"",""Q05"":""3"",""Q06"":""3"",""Q07"":""4"",""Q08"":""3"",""Q09"":""3"",""Q10"":""3""}","[0,1,2,3,4,5,6,7,8,9]","[""Q01"",""Q02"",""Q03"",""Q04"",""Q05"",""Q06"",""Q07"",""Q08"",""Q09"",""Q10""]","[3376.5,5555.899999999907,7439.799999999814,10144.09999999986,12118.199999999953,13412.199999999953,15550.399999999907,17782,19650,23874.299999999814]","[]","[3376.5,5555.899999999907,7439.799999999814,10144.09999999986,12118.199999999953,13412.199999999953,15550.399999999907,17782,19650,23874.299999999814,25888.09999999986]","0.5","0.5555555555555556","0","","","","","","","","","","","","","","","","","","","","","","","","","","","",""
"36635.19999999995","","{""Q01"":""4"",""Q02"":""3"",""Q03"":""2"",""Q04"":""4"",""Q05"":""3"",""Q06"":""4"",""Q07"":""3"",""Q08"":""2"",""Q09"":""4"",""Q10"":""4""}","survey-template","5","109410","0.0-4.0","3","3","3","3","3","3","4","3","3","3","4","3","2","4","3","4","3","2","4","4","3","4","4","3","3","4","2","2","1","1","0","0","1","0","0","1","1","0","1","1","0","1","0","1","3","4","3","2","2","3","2","2","2","3","766337469301133313","祁","272","","","","{""Q01"":""4"",""Q02"":""3"",""Q03"":""2"",""Q04"":""4"",""Q05"":""3"",""Q06"":""4"",""Q07"":""3"",""Q08"":""2"",""Q09"":""4"",""Q10"":""4""}","[0,1,2,3,4,5,6,7,8,9]","[""Q01"",""Q02"",""Q03"",""Q04"",""Q05"",""Q02"",""Q06"",""Q07"",""Q08"",""Q09"",""Q10"",""Q10""]","[2738.7999999998137,5727.399999999907,8915.899999999907,10397.59999999986,12331,17811.899999999907,20519.5,24189.799999999814,25455.299999999814,27099.799999999814,29743.799999999814,33460.39999999991]","[]","[2738.7999999998137,5727.399999999907,8915.899999999907,10397.59999999986,12331,15345.299999999814,17811.899999999907,20519.5,22475.299999999814,24189.799999999814,25455.299999999814,27099.799999999814,29743.799999999814,33460.39999999991,36633.89999999991]","0.6","0.6666666666666666","0","","","","","","","","","","","","","","","","","","","","","","","","","","","",""
"","","","preload","6","109638","0.0-5.0","3","3","3","3","3","3","4","3","3","3","4","3","2","4","3","4","3","2","4","4","3","4","4","3","3","4","2","2","1","1","0","0","1","0","0","1","1","0","1","1","0","1","0","1","3","4","3","2","2","3","2","2","2","3","766337469301133313","祁","272","","true","","","","","","","","","","","false","[]","[]","[]","","","","","","","","","","","","","","","","","","","","","","","",""
"23561","","","instructions","7","133200","0.0-6.0","3","3","3","3","3","3","4","3","3","3","4","3","2","4","3","4","3","2","4","4","3","4","4","3","3","4","2","2","1","1","0","0","1","0","0","1","1","0","1","1","0","1","0","1","3","4","3","2","2","3","2","2","2","3","766337469301133313","祁","272","","","","","","","","","","","","","","","","","[{""page_index"":0,""viewing_time"":23561}]","","","","","","","","","","","","","","","","","","","","","","",""
"27126","","","instructions","8","160327","0.0-7.0-0.0-0.0","3","3","3","3","3","3","4","3","3","3","4","3","2","4","3","4","3","2","4","4","3","4","4","3","3","4","2","2","1","1","0","0","1","0","0","1","1","0","1","1","0","1","0","1","3","4","3","2","2","3","2","2","2","3","766337469301133313","祁","272","","","","","","","","","","","","","","","","","[{""page_index"":0,""viewing_time"":13978},{""page_index"":1,""viewing_time"":10491},{""page_index"":2,""viewing_time"":2657}]","","","","","","","","","","","","","","","","","","","","","","",""
"null","","null","psychophysics","9","162533","0.0-7.0-0.0-1.0-0.0-0.0","3","3","3","3","3","3","4","3","3","3","4","3","2","4","3","4","3","2","4","4","3","4","4","3","3","4","2","2","1","1","0","0","1","0","0","1","1","0","1","1","0","1","0","1","3","4","3","2","2","3","2","2","2","3","766337469301133313","祁","272","","","","null","","","","","","","","","","","","","","key","null","16.666315384615267","640","356","j","false","nonmatch","img/hexagon.png","梯形","六边","ALT1_1","prac_ALT1_1","","","","","","","","","",""
"null","<span class='add_' style='color:yellow; font-size: 70px;'> 太慢! </span>","null","html-keyboard-response","10","163034","0.0-7.0-0.0-1.0-0.0-1.0","3","3","3","3","3","3","4","3","3","3","4","3","2","4","3","4","3","2","4","4","3","4","4","3","3","4","2","2","1","1","0","0","1","0","0","1","1","0","1","1","0","1","0","1","3","4","3","2","2","3","2","2","2","3","766337469301133313","祁","272","","","","","","","","","","","","","","","","","","","","","","","","","","","","","","feedback_test","","","","","","","","","",""
"412","","f","psychophysics","11","164449","0.0-7.0-0.0-1.0-0.0-0.1","3","3","3","3","3","3","4","3","3","3","4","3","2","4","3","4","3","2","4","4","3","4","4","3","3","4","2","2","1","1","0","0","1","0","0","1","1","0","1","1","0","1","0","1","3","4","3","2","2","3","2","2","2","3","766337469301133313","祁","272","","","","match","","","","","","","","","","","","","","key","f","16.666857142857182","640","356","j","false","nonmatch","img/trapezoid.png","六边","梯形","ALT1_1","prac_ALT1_1","","","","","","","","","",""
"null","<span style='color:red; font-size: 70px;'>错误! </span>","null","html-keyboard-response","12","164950","0.0-7.0-0.0-1.0-0.0-1.1","3","3","3","3","3","3","4","3","3","3","4","3","2","4","3","4","3","2","4","4","3","4","4","3","3","4","2","2","1","1","0","0","1","0","0","1","1","0","1","1","0","1","0","1","3","4","3","2","2","3","2","2","2","3","766337469301133313","祁","272","","","","","","","","","","","","","","","","","","","","","","","","","","","","","","feedback_test","","","","","","","","","",""
"717","","j","psychophysics","13","166669","0.0-7.0-0.0-1.0-0.0-0.2","3","3","3","3","3","3","4","3","3","3","4","3","2","4","3","4","3","2","4","4","3","4","4","3","3","4","2","2","1","1","0","0","1","0","0","1","1","0","1","1","0","1","0","1","3","4","3","2","2","3","2","2","2","3","766337469301133313","祁","272","","","","nonmatch","","","","","","","","","","","","","","key","j","16.667490196078457","640","356","j","true","nonmatch","img/circle.png","六边","圆形","ALT1_1","prac_ALT1_1","","","","","","","","","",""
"null","<span style='color:GreenYellow; font-size: 70px;'>正确! </span>","null","html-keyboard-response","14","167172","0.0-7.0-0.0-1.0-0.0-1.2","3","3","3","3","3","3","4","3","3","3","4","3","2","4","3","4","3","2","4","4","3","4","4","3","3","4","2","2","1","1","0","0","1","0","0","1","1","0","1","1","0","1","0","1","3","4","3","2","2","3","2","2","2","3","766337469301133313","祁","272","","","","","","","","","","","","","","","","","","","","","","","","","","","","","","feedback_test","","","","","","","","","",""
"776","","j","psychophysics","15","168949","0.0-7.0-0.0-1.0-0.0-0.3","3","3","3","3","3","3","4","3","3","3","4","3","2","4","3","4","3","2","4","4","3","4","4","3","3","4","2","2","1","1","0","0","1","0","0","1","1","0","1","1","0","1","0","1","3","4","3","2","2","3","2","2","2","3","766337469301133313","祁","272","","","","nonmatch","","","","","","","","","","","","","","key","j","16.66749056603788","640","356","j","true","nonmatch","img/hexagon.png","圆形","六边","ALT1_1","prac_ALT1_1","","","","","","","","","",""
"null","<span style='color:GreenYellow; font-size: 70px;'>正确! </span>","null","html-keyboard-response","16","169451","0.0-7.0-0.0-1.0-0.0-1.3","3","3","3","3","3","3","4","3","3","3","4","3","2","4","3","4","3","2","4","4","3","4","4","3","3","4","2","2","1","1","0","0","1","0","0","1","1","0","1","1","0","1","0","1","3","4","3","2","2","3","2","2","2","3","766337469301133313","祁","272","","","","","","","","","","","","","","","","","","","","","","","","","","","","","","feedback_test","","","","","","","","","",""
"847","","j","psychophysics","17","171300","0.0-7.0-0.0-1.0-0.0-0.4","3","3","3","3","3","3","4","3","3","3","4","3","2","4","3","4","3","2","4","4","3","4","4","3","3","4","2","2","1","1","0","0","1","0","0","1","1","0","1","1","0","1","0","1","3","4","3","2","2","3","2","2","2","3","766337469301133313","祁","272","","","","nonmatch","","","","","","","","","","","","","","key","j","16.66723636363617","640","356","j","true","nonmatch","img/diamond.png","圆形","菱形","ALT1_1","prac_ALT1_1","","","","","","","","","",""
"null","<span style='color:GreenYellow; font-size: 70px;'>正确! </span>","null","html-keyboard-response","18","171801","0.0-7.0-0.0-1.0-0.0-1.4","3","3","3","3","3","3","4","3","3","3","4","3","2","4","3","4","3","2","4","4","3","4","4","3","3","4","2","2","1","1","0","0","1","0","0","1","1","0","1","1","0","1","0","1","3","4","3","2","2","3","2","2","2","3","766337469301133313","祁","272","","","","","","","","","","","","","","","","","","","","","","","","","","","","","","feedback_test","","","","","","","","","",""
"917","","f","psychophysics","19","173720","0.0-7.0-0.0-1.0-0.0-0.5","3","3","3","3","3","3","4","3","3","3","4","3","2","4","3","4","3","2","4","4","3","4","4","3","3","4","2","2","1","1","0","0","1","0","0","1","1","0","1","1","0","1","0","1","3","4","3","2","2","3","2","2","2","3","766337469301133313","祁","272","","","","match","","","","","","","","","","","","","","key","f","16.66857017543863","640","356","f","true","match","img/hexagon.png","六边","六边","ALT1_1","prac_ALT1_1","","","","","","","","","",""
"null","<span style='color:GreenYellow; font-size: 70px;'>正确! </span>","null","html-keyboard-response","20","174222","0.0-7.0-0.0-1.0-0.0-1.5","3","3","3","3","3","3","4","3","3","3","4","3","2","4","3","4","3","2","4","4","3","4","4","3","3","4","2","2","1","1","0","0","1","0","0","1","1","0","1","1","0","1","0","1","3","4","3","2","2","3","2","2","2","3","766337469301133313","祁","272","","","","","","","","","","","","","","","","","","","","","","","","","","","","","","feedback_test","","","","","","","","","",""
"815","","j","psychophysics","21","176039","0.0-7.0-0.0-1.0-0.0-0.6","3","3","3","3","3","3","4","3","3","3","4","3","2","4","3","4","3","2","4","4","3","4","4","3","3","4","2","2","1","1","0","0","1","0","0","1","1","0","1","1","0","1","0","1","3","4","3","2","2","3","2","2","2","3","766337469301133313","祁","272","","","","nonmatch","","","","","","","","","","","","","","key","j","16.6700648148148","640","356","j","true","nonmatch","img/circle.png","梯形","圆形","ALT1_1","prac_ALT1_1","","","","","","","","","",""
"null","<span style='color:GreenYellow; font-size: 70px;'>正确! </span>","null","html-keyboard-response","22","176541","0.0-7.0-0.0-1.0-0.0-1.6","3","3","3","3","3","3","4","3","3","3","4","3","2","4","3","4","3","2","4","4","3","4","4","3","3","4","2","2","1","1","0","0","1","0","0","1","1","0","1","1","0","1","0","1","3","4","3","2","2","3","2","2","2","3","766337469301133313","祁","272","","","","","","","","","","","","","","","","","","","","","","","","","","","","","","feedback_test","","","","","","","","","",""
"727","","f","psychophysics","23","178270","0.0-7.0-0.0-1.0-0.0-0.7","3","3","3","3","3","3","4","3","3","3","4","3","2","4","3","4","3","2","4","4","3","4","4","3","3","4","2","2","1","1","0","0","1","0","0","1","1","0","1","1","0","1","0","1","3","4","3","2","2","3","2","2","2","3","766337469301133313","祁","272","","","","match","","","","","","","","","","","","","","key","f","16.667252427184316","640","356","f","true","match","img/circle.png","圆形","圆形","ALT1_1","prac_ALT1_1","","","","","","","","","",""
"null","<span style='color:GreenYellow; font-size: 70px;'>正确! </span>","null","html-keyboard-response","24","178770","0.0-7.0-0.0-1.0-0.0-1.7","3","3","3","3","3","3","4","3","3","3","4","3","2","4","3","4","3","2","4","4","3","4","4","3","3","4","2","2","1","1","0","0","1","0","0","1","1","0","1","1","0","1","0","1","3","4","3","2","2","3","2","2","2","3","766337469301133313","祁","272","","","","","","","","","","","","","","","","","","","","","","","","","","","","","","feedback_test","","","","","","","","","",""
"970","","j","psychophysics","25","180741","0.0-7.0-0.0-1.0-0.0-0.8","3","3","3","3","3","3","4","3","3","3","4","3","2","4","3","4","3","2","4","4","3","4","4","3","3","4","2","2","1","1","0","0","1","0","0","1","1","0","1","1","0","1","0","1","3","4","3","2","2","3","2","2","2","3","766337469301133313","祁","272","","","","nonmatch","","","","","","","","","","","","","","key","j","16.666623931623892","640","356","j","true","nonmatch","img/trapezoid.png","菱形","梯形","ALT1_1","prac_ALT1_1","","","","","","","","","",""
"null","<span style='color:GreenYellow; font-size: 70px;'>正确! </span>","null","html-keyboard-response","26","181243","0.0-7.0-0.0-1.0-0.0-1.8","3","3","3","3","3","3","4","3","3","3","4","3","2","4","3","4","3","2","4","4","3","4","4","3","3","4","2","2","1","1","0","0","1","0","0","1","1","0","1","1","0","1","0","1","3","4","3","2","2","3","2","2","2","3","766337469301133313","祁","272","","","","","","","","","","","","","","","","","","","","","","","","","","","","","","feedback_test","","","","","","","","","",""
"779","","j","psychophysics","27","183024","0.0-7.0-0.0-1.0-0.0-0.9","3","3","3","3","3","3","4","3","3","3","4","3","2","4","3","4","3","2","4","4","3","4","4","3","3","4","2","2","1","1","0","0","1","0","0","1","1","0","1","1","0","1","0","1","3","4","3","2","2","3","2","2","2","3","766337469301133313","祁","272","","","","nonmatch","","","","","","","","","","","","","","key","j","16.669122641509396","640","356","j","true","nonmatch","img/diamond.png","梯形","菱形","ALT1_1","prac_ALT1_1","","","","","","","","","",""
"null","<span style='color:GreenYellow; font-size: 70px;'>正确! </span>","null","html-keyboard-response","28","183525","0.0-7.0-0.0-1.0-0.0-1.9","3","3","3","3","3","3","4","3","3","3","4","3","2","4","3","4","3","2","4","4","3","4","4","3","3","4","2","2","1","1","0","0","1","0","0","1","1","0","1","1","0","1","0","1","3","4","3","2","2","3","2","2","2","3","766337469301133313","祁","272","","","","","","","","","","","","","","","","","","","","","","","","","","","","","","feedback_test","","","","","","","","","",""
"808","","j","psychophysics","29","185335","0.0-7.0-0.0-1.0-0.0-0.10","3","3","3","3","3","3","4","3","3","3","4","3","2","4","3","4","3","2","4","4","3","4","4","3","3","4","2","2","1","1","0","0","1","0","0","1","1","0","1","1","0","1","0","1","3","4","3","2","2","3","2","2","2","3","766337469301133313","祁","272","","","","nonmatch","","","","","","","","","","","","","","key","j","16.668296296296358","640","356","j","true","nonmatch","img/hexagon.png","菱形","六边","ALT1_1","prac_ALT1_1","","","","","","","","","",""
"null","<span style='color:GreenYellow; font-size: 70px;'>正确! </span>","null","html-keyboard-response","30","185837","0.0-7.0-0.0-1.0-0.0-1.10","3","3","3","3","3","3","4","3","3","3","4","3","2","4","3","4","3","2","4","4","3","4","4","3","3","4","2","2","1","1","0","0","1","0","0","1","1","0","1","1","0","1","0","1","3","4","3","2","2","3","2","2","2","3","766337469301133313","祁","272","","","","","","","","","","","","","","","","","","","","","","","","","","","","","","feedback_test","","","","","","","","","",""
"829","","f","psychophysics","31","187668","0.0-7.0-0.0-1.0-0.0-0.11","3","3","3","3","3","3","4","3","3","3","4","3","2","4","3","4","3","2","4","4","3","4","4","3","3","4","2","2","1","1","0","0","1","0","0","1","1","0","1","1","0","1","0","1","3","4","3","2","2","3","2","2","2","3","766337469301133313","祁","272","","","","match","","","","","","","","","","","","","","key","f","16.66925688073415","640","356","f","true","match","img/hexagon.png","六边","六边","ALT1_1","prac_ALT1_1","","","","","","","","","",""
"null","<span style='color:GreenYellow; font-size: 70px;'>正确! </span>","null","html-keyboard-response","32","188170","0.0-7.0-0.0-1.0-0.0-1.11","3","3","3","3","3","3","4","3","3","3","4","3","2","4","3","4","3","2","4","4","3","4","4","3","3","4","2","2","1","1","0","0","1","0","0","1","1","0","1","1","0","1","0","1","3","4","3","2","2","3","2","2","2","3","766337469301133313","祁","272","","","","","","","","","","","","","","","","","","","","","","","","","","","","","","feedback_test","","","","","","","","","",""
"897","","f","psychophysics","33","190069","0.0-7.0-0.0-1.0-0.0-0.12","3","3","3","3","3","3","4","3","3","3","4","3","2","4","3","4","3","2","4","4","3","4","4","3","3","4","2","2","1","1","0","0","1","0","0","1","1","0","1","1","0","1","0","1","3","4","3","2","2","3","2","2","2","3","766337469301133313","祁","272","","","","match","","","","","","","","","","","","","","key","f","16.66924778761062","640","356","f","true","match","img/trapezoid.png","梯形","梯形","ALT1_1","prac_ALT1_1","","","","","","","","","",""
"null","<span style='color:GreenYellow; font-size: 70px;'>正确! </span>","null","html-keyboard-response","34","190571","0.0-7.0-0.0-1.0-0.0-1.12","3","3","3","3","3","3","4","3","3","3","4","3","2","4","3","4","3","2","4","4","3","4","4","3","3","4","2","2","1","1","0","0","1","0","0","1","1","0","1","1","0","1","0","1","3","4","3","2","2","3","2","2","2","3","766337469301133313","祁","272","","","","","","","","","","","","","","","","","","","","","","","","","","","","","","feedback_test","","","","","","","","","",""
"648","","f","psychophysics","35","192220","0.0-7.0-0.0-1.0-0.0-0.13","3","3","3","3","3","3","4","3","3","3","4","3","2","4","3","4","3","2","4","4","3","4","4","3","3","4","2","2","1","1","0","0","1","0","0","1","1","0","1","1","0","1","0","1","3","4","3","2","2","3","2","2","2","3","766337469301133313","祁","272","","","","match","","","","","","","","","","","","","","key","f","16.66684693877546","640","356","f","true","match","img/circle.png","圆形","圆形","ALT1_1","prac_ALT1_1","","","","","","","","","",""
"null","<span style='color:GreenYellow; font-size: 70px;'>正确! </span>","null","html-keyboard-response","36","192721","0.0-7.0-0.0-1.0-0.0-1.13","3","3","3","3","3","3","4","3","3","3","4","3","2","4","3","4","3","2","4","4","3","4","4","3","3","4","2","2","1","1","0","0","1","0","0","1","1","0","1","1","0","1","0","1","3","4","3","2","2","3","2","2","2","3","766337469301133313","祁","272","","","","","","","","","","","","","","","","","","","","","","","","","","","","","","feedback_test","","","","","","","","","",""
"769","","f","psychophysics","37","194491","0.0-7.0-0.0-1.0-0.0-0.14","3","3","3","3","3","3","4","3","3","3","4","3","2","4","3","4","3","2","4","4","3","4","4","3","3","4","2","2","1","1","0","0","1","0","0","1","1","0","1","1","0","1","0","1","3","4","3","2","2","3","2","2","2","3","766337469301133313","祁","272","","","","match","","","","","","","","","","","","","","key","f","16.668342857142644","640","356","f","true","match","img/hexagon.png","六边","六边","ALT1_1","prac_ALT1_1","","","","","","","","","",""
"null","<span style='color:GreenYellow; font-size: 70px;'>正确! </span>","null","html-keyboard-response","38","194997","0.0-7.0-0.0-1.0-0.0-1.14","3","3","3","3","3","3","4","3","3","3","4","3","2","4","3","4","3","2","4","4","3","4","4","3","3","4","2","2","1","1","0","0","1","0","0","1","1","0","1","1","0","1","0","1","3","4","3","2","2","3","2","2","2","3","766337469301133313","祁","272","","","","","","","","","","","","","","","","","","","","","","","","","","","","","","feedback_test","","","","","","","","","",""
"646","","f","psychophysics","39","196645","0.0-7.0-0.0-1.0-0.0-0.15","3","3","3","3","3","3","4","3","3","3","4","3","2","4","3","4","3","2","4","4","3","4","4","3","3","4","2","2","1","1","0","0","1","0","0","1","1","0","1","1","0","1","0","1","3","4","3","2","2","3","2","2","2","3","766337469301133313","祁","272","","","","match","","","","","","","","","","","","","","key","f","16.66870103092785","640","356","f","true","match","img/trapezoid.png","梯形","梯形","ALT1_1","prac_ALT1_1","","","","","","","","","",""
"null","<span style='color:GreenYellow; font-size: 70px;'>正确! </span>","null","html-keyboard-response","40","197146","0.0-7.0-0.0-1.0-0.0-1.15","3","3","3","3","3","3","4","3","3","3","4","3","2","4","3","4","3","2","4","4","3","4","4","3","3","4","2","2","1","1","0","0","1","0","0","1","1","0","1","1","0","1","0","1","3","4","3","2","2","3","2","2","2","3","766337469301133313","祁","272","","","","","","","","","","","","","","","","","","","","","","","","","","","","","","feedback_test","","","","","","","","","",""
"872","","f","psychophysics","41","199020","0.0-7.0-0.0-1.0-0.0-0.16","3","3","3","3","3","3","4","3","3","3","4","3","2","4","3","4","3","2","4","4","3","4","4","3","3","4","2","2","1","1","0","0","1","0","0","1","1","0","1","1","0","1","0","1","3","4","3","2","2","3","2","2","2","3","766337469301133313","祁","272","","","","match","","","","","","","","","","","","","","key","f","16.67233333333321","640","356","f","true","match","img/diamond.png","菱形","菱形","ALT1_1","prac_ALT1_1","","","","","","","","","",""
"null","<span style='color:GreenYellow; font-size: 70px;'>正确! </span>","null","html-keyboard-response","42","199522","0.0-7.0-0.0-1.0-0.0-1.16","3","3","3","3","3","3","4","3","3","3","4","3","2","4","3","4","3","2","4","4","3","4","4","3","3","4","2","2","1","1","0","0","1","0","0","1","1","0","1","1","0","1","0","1","3","4","3","2","2","3","2","2","2","3","766337469301133313","祁","272","","","","","","","","","","","","","","","","","","","","","","","","","","","","","","feedback_test","","","","","","","","","",""
"745","","j","psychophysics","43","201269","0.0-7.0-0.0-1.0-0.0-0.17","3","3","3","3","3","3","4","3","3","3","4","3","2","4","3","4","3","2","4","4","3","4","4","3","3","4","2","2","1","1","0","0","1","0","0","1","1","0","1","1","0","1","0","1","3","4","3","2","2","3","2","2","2","3","766337469301133313","祁","272","","","","nonmatch","","","","","","","","","","","","","","key","j","16.669317307692275","640","356","j","true","nonmatch","img/circle.png","菱形","圆形","ALT1_1","prac_ALT1_1","","","","","","","","","",""
"null","<span style='color:GreenYellow; font-size: 70px;'>正确! </span>","null","html-keyboard-response","44","201771","0.0-7.0-0.0-1.0-0.0-1.17","3","3","3","3","3","3","4","3","3","3","4","3","2","4","3","4","3","2","4","4","3","4","4","3","3","4","2","2","1","1","0","0","1","0","0","1","1","0","1","1","0","1","0","1","3","4","3","2","2","3","2","2","2","3","766337469301133313","祁","272","","","","","","","","","","","","","","","","","","","","","","","","","","","","","","feedback_test","","","","","","","","","",""
"764","","j","psychophysics","45","203537","0.0-7.0-0.0-1.0-0.0-0.18","3","3","3","3","3","3","4","3","3","3","4","3","2","4","3","4","3","2","4","4","3","4","4","3","3","4","2","2","1","1","0","0","1","0","0","1","1","0","1","1","0","1","0","1","3","4","3","2","2","3","2","2","2","3","766337469301133313","祁","272","","","","nonmatch","","","","","","","","","","","","","","key","j","16.667295238095157","640","356","j","true","nonmatch","img/trapezoid.png","圆形","梯形","ALT1_1","prac_ALT1_1","","","","","","","","","",""
"null","<span style='color:GreenYellow; font-size: 70px;'>正确! </span>","null","html-keyboard-response","46","204038","0.0-7.0-0.0-1.0-0.0-1.18","3","3","3","3","3","3","4","3","3","3","4","3","2","4","3","4","3","2","4","4","3","4","4","3","3","4","2","2","1","1","0","0","1","0","0","1","1","0","1","1","0","1","0","1","3","4","3","2","2","3","2","2","2","3","766337469301133313","祁","272","","","","","","","","","","","","","","","","","","","","","","","","","","","","","","feedback_test","","","","","","","","","",""
"819","","j","psychophysics","47","205859","0.0-7.0-0.0-1.0-0.0-0.19","3","3","3","3","3","3","4","3","3","3","4","3","2","4","3","4","3","2","4","4","3","4","4","3","3","4","2","2","1","1","0","0","1","0","0","1","1","0","1","1","0","1","0","1","3","4","3","2","2","3","2","2","2","3","766337469301133313","祁","272","","","","nonmatch","","","","","","","","","","","","","","key","j","16.668481481481717","640","356","f","false","match","img/diamond.png","菱形","菱形","ALT1_1","prac_ALT1_1","","","","","","","","","",""
"null","<span style='color:red; font-size: 70px;'>错误! </span>","null","html-keyboard-response","48","206359","0.0-7.0-0.0-1.0-0.0-1.19","3","3","3","3","3","3","4","3","3","3","4","3","2","4","3","4","3","2","4","4","3","4","4","3","3","4","2","2","1","1","0","0","1","0","0","1","1","0","1","1","0","1","0","1","3","4","3","2","2","3","2","2","2","3","766337469301133313","祁","272","","","","","","","","","","","","","","","","","","","","","","","","","","","","","","feedback_test","","","","","","","","","",""
"658","","f","psychophysics","49","208021","0.0-7.0-0.0-1.0-0.0-0.20","3","3","3","3","3","3","4","3","3","3","4","3","2","4","3","4","3","2","4","4","3","4","4","3","3","4","2","2","1","1","0","0","1","0","0","1","1","0","1","1","0","1","0","1","3","4","3","2","2","3","2","2","2","3","766337469301133313","祁","272","","","","match","","","","","","","","","","","","","","key","f","16.669242424242473","640","356","f","true","match","img/trapezoid.png","梯形","梯形","ALT1_1","prac_ALT1_1","","","","","","","","","",""
"null","<span style='color:GreenYellow; font-size: 70px;'>正确! </span>","null","html-keyboard-response","50","208522","0.0-7.0-0.0-1.0-0.0-1.20","3","3","3","3","3","3","4","3","3","3","4","3","2","4","3","4","3","2","4","4","3","4","4","3","3","4","2","2","1","1","0","0","1","0","0","1","1","0","1","1","0","1","0","1","3","4","3","2","2","3","2","2","2","3","766337469301133313","祁","272","","","","","","","","","","","","","","","","","","","","","","","","","","","","","","feedback_test","","","","","","","","","",""
"633","","j","psychophysics","51","210158","0.0-7.0-0.0-1.0-0.0-0.21","3","3","3","3","3","3","4","3","3","3","4","3","2","4","3","4","3","2","4","4","3","4","4","3","3","4","2","2","1","1","0","0","1","0","0","1","1","0","1","1","0","1","0","1","3","4","3","2","2","3","2","2","2","3","766337469301133313","祁","272","","","","nonmatch","","","","","","","","","","","","","","key","j","16.669762886597983","640","356","j","true","nonmatch","img/diamond.png","六边","菱形","ALT1_1","prac_ALT1_1","","","","","","","","","",""
"null","<span style='color:GreenYellow; font-size: 70px;'>正确! </span>","null","html-keyboard-response","52","210658","0.0-7.0-0.0-1.0-0.0-1.21","3","3","3","3","3","3","4","3","3","3","4","3","2","4","3","4","3","2","4","4","3","4","4","3","3","4","2","2","1","1","0","0","1","0","0","1","1","0","1","1","0","1","0","1","3","4","3","2","2","3","2","2","2","3","766337469301133313","祁","272","","","","","","","","","","","","","","","","","","","","","","","","","","","","","","feedback_test","","","","","","","","","",""
"795","","f","psychophysics","53","212455","0.0-7.0-0.0-1.0-0.0-0.22","3","3","3","3","3","3","4","3","3","3","4","3","2","4","3","4","3","2","4","4","3","4","4","3","3","4","2","2","1","1","0","0","1","0","0","1","1","0","1","1","0","1","0","1","3","4","3","2","2","3","2","2","2","3","766337469301133313","祁","272","","","","match","","","","","","","","","","","","","","key","f","16.668018691588813","640","356","f","true","match","img/diamond.png","菱形","菱形","ALT1_1","prac_ALT1_1","","","","","","","","","",""
"null","<span style='color:GreenYellow; font-size: 70px;'>正确! </span>","null","html-keyboard-response","54","212957","0.0-7.0-0.0-1.0-0.0-1.22","3","3","3","3","3","3","4","3","3","3","4","3","2","4","3","4","3","2","4","4","3","4","4","3","3","4","2","2","1","1","0","0","1","0","0","1","1","0","1","1","0","1","0","1","3","4","3","2","2","3","2","2","2","3","766337469301133313","祁","272","","","","","","","","","","","","","","","","","","","","","","","","","","","","","","feedback_test","","","","","","","","","",""
"597","","f","psychophysics","55","214556","0.0-7.0-0.0-1.0-0.0-0.23","3","3","3","3","3","3","4","3","3","3","4","3","2","4","3","4","3","2","4","4","3","4","4","3","3","4","2","2","1","1","0","0","1","0","0","1","1","0","1","1","0","1","0","1","3","4","3","2","2","3","2","2","2","3","766337469301133313","祁","272","","","","match","","","","","","","","","","","","","","key","f","16.669884210526575","640","356","f","true","match","img/circle.png","圆形","圆形","ALT1_1","prac_ALT1_1","","","","","","","","","",""
"null","<span style='color:GreenYellow; font-size: 70px;'>正确! </span>","null","html-keyboard-response","56","215057","0.0-7.0-0.0-1.0-0.0-1.23","3","3","3","3","3","3","4","3","3","3","4","3","2","4","3","4","3","2","4","4","3","4","4","3","3","4","2","2","1","1","0","0","1","0","0","1","1","0","1","1","0","1","0","1","3","4","3","2","2","3","2","2","2","3","766337469301133313","祁","272","","","","","","","","","","","","","","","","","","","","","","","","","","","","","","feedback_test","","","","","","","","","",""
"629","","f","psychophysics","57","216689","0.0-7.0-0.0-1.0-0.0-0.24","3","3","3","3","3","3","4","3","3","3","4","3","2","4","3","4","3","2","4","4","3","4","4","3","3","4","2","2","1","1","0","0","1","0","0","1","1","0","1","1","0","1","0","1","3","4","3","2","2","3","2","2","2","3","766337469301133313","祁","272","","","","match","","","","","","","","","","","","","","key","f","16.669824742268023","640","356","f","true","match","img/trapezoid.png","梯形","梯形","ALT1_1","prac_ALT1_1","","","","","","","","","",""
"null","<span style='color:GreenYellow; font-size: 70px;'>正确! </span>","null","html-keyboard-response","58","217190","0.0-7.0-0.0-1.0-0.0-1.24","3","3","3","3","3","3","4","3","3","3","4","3","2","4","3","4","3","2","4","4","3","4","4","3","3","4","2","2","1","1","0","0","1","0","0","1","1","0","1","1","0","1","0","1","3","4","3","2","2","3","2","2","2","3","766337469301133313","祁","272","","","","","","","","","","","","","","","","","","","","","","","","","","","","","","feedback_test","","","","","","","","","",""
"726","","j","psychophysics","59","218917","0.0-7.0-0.0-1.0-0.0-0.25","3","3","3","3","3","3","4","3","3","3","4","3","2","4","3","4","3","2","4","4","3","4","4","3","3","4","2","2","1","1","0","0","1","0","0","1","1","0","1","1","0","1","0","1","3","4","3","2","2","3","2","2","2","3","766337469301133313","祁","272","","","","nonmatch","","","","","","","","","","","","","","key","j","16.668553398058297","640","356","j","true","nonmatch","img/diamond.png","圆形","菱形","ALT1_1","prac_ALT1_1","","","","","","","","","",""
"null","<span style='color:GreenYellow; font-size: 70px;'>正确! </span>","null","html-keyboard-response","60","219418","0.0-7.0-0.0-1.0-0.0-1.25","3","3","3","3","3","3","4","3","3","3","4","3","2","4","3","4","3","2","4","4","3","4","4","3","3","4","2","2","1","1","0","0","1","0","0","1","1","0","1","1","0","1","0","1","3","4","3","2","2","3","2","2","2","3","766337469301133313","祁","272","","","","","","","","","","","","","","","","","","","","","","","","","","","","","","feedback_test","","","","","","","","","",""
"640","","f","psychophysics","61","221061","0.0-7.0-0.0-1.0-0.0-0.26","3","3","3","3","3","3","4","3","3","3","4","3","2","4","3","4","3","2","4","4","3","4","4","3","3","4","2","2","1","1","0","0","1","0","0","1","1","0","1","1","0","1","0","1","3","4","3","2","2","3","2","2","2","3","766337469301133313","祁","272","","","","match","","","","","","","","","","","","","","key","f","16.66886597938119","640","356","f","true","match","img/hexagon.png","六边","六边","ALT1_1","prac_ALT1_1","","","","","","","","","",""
"null","<span style='color:GreenYellow; font-size: 70px;'>正确! </span>","null","html-keyboard-response","62","221562","0.0-7.0-0.0-1.0-0.0-1.26","3","3","3","3","3","3","4","3","3","3","4","3","2","4","3","4","3","2","4","4","3","4","4","3","3","4","2","2","1","1","0","0","1","0","0","1","1","0","1","1","0","1","0","1","3","4","3","2","2","3","2","2","2","3","766337469301133313","祁","272","","","","","","","","","","","","","","","","","","","","","","","","","","","","","","feedback_test","","","","","","","","","",""
"758","","f","psychophysics","63","223322","0.0-7.0-0.0-1.0-0.0-0.27","3","3","3","3","3","3","4","3","3","3","4","3","2","4","3","4","3","2","4","4","3","4","4","3","3","4","2","2","1","1","0","0","1","0","0","1","1","0","1","1","0","1","0","1","3","4","3","2","2","3","2","2","2","3","766337469301133313","祁","272","","","","match","","","","","","","","","","","","","","key","f","16.667451923077003","640","356","f","true","match","img/diamond.png","菱形","菱形","ALT1_1","prac_ALT1_1","","","","","","","","","",""
"null","<span style='color:GreenYellow; font-size: 70px;'>正确! </span>","null","html-keyboard-response","64","223823","0.0-7.0-0.0-1.0-0.0-1.27","3","3","3","3","3","3","4","3","3","3","4","3","2","4","3","4","3","2","4","4","3","4","4","3","3","4","2","2","1","1","0","0","1","0","0","1","1","0","1","1","0","1","0","1","3","4","3","2","2","3","2","2","2","3","766337469301133313","祁","272","","","","","","","","","","","","","","","","","","","","","","","","","","","","","","feedback_test","","","","","","","","","",""
"542","","f","psychophysics","65","225367","0.0-7.0-0.0-1.0-0.0-0.28","3","3","3","3","3","3","4","3","3","3","4","3","2","4","3","4","3","2","4","4","3","4","4","3","3","4","2","2","1","1","0","0","1","0","0","1","1","0","1","1","0","1","0","1","3","4","3","2","2","3","2","2","2","3","766337469301133313","祁","272","","","","match","","","","","","","","","","","","","","key","f","16.66778260869551","640","356","f","true","match","img/circle.png","圆形","圆形","ALT1_1","prac_ALT1_1","","","","","","","","","",""
"null","<span style='color:GreenYellow; font-size: 70px;'>正确! </span>","null","html-keyboard-response","66","225869","0.0-7.0-0.0-1.0-0.0-1.28","3","3","3","3","3","3","4","3","3","3","4","3","2","4","3","4","3","2","4","4","3","4","4","3","3","4","2","2","1","1","0","0","1","0","0","1","1","0","1","1","0","1","0","1","3","4","3","2","2","3","2","2","2","3","766337469301133313","祁","272","","","","","","","","","","","","","","","","","","","","","","","","","","","","","","feedback_test","","","","","","","","","",""
"631","","f","psychophysics","67","227502","0.0-7.0-0.0-1.0-0.0-0.29","3","3","3","3","3","3","4","3","3","3","4","3","2","4","3","4","3","2","4","4","3","4","4","3","3","4","2","2","1","1","0","0","1","0","0","1","1","0","1","1","0","1","0","1","3","4","3","2","2","3","2","2","2","3","766337469301133313","祁","272","","","","match","","","","","","","","","","","","","","key","f","16.6694845360825","640","356","f","true","match","img/hexagon.png","六边","六边","ALT1_1","prac_ALT1_1","","","","","","","","","",""
"null","<span style='color:GreenYellow; font-size: 70px;'>正确! </span>","null","html-keyboard-response","68","228004","0.0-7.0-0.0-1.0-0.0-1.29","3","3","3","3","3","3","4","3","3","3","4","3","2","4","3","4","3","2","4","4","3","4","4","3","3","4","2","2","1","1","0","0","1","0","0","1","1","0","1","1","0","1","0","1","3","4","3","2","2","3","2","2","2","3","766337469301133313","祁","272","","","","","","","","","","","","","","","","","","","","","","","","","","","","","","feedback_test","","","","","","","","","",""
"788","","j","psychophysics","69","229793","0.0-7.0-0.0-1.0-0.0-0.30","3","3","3","3","3","3","4","3","3","3","4","3","2","4","3","4","3","2","4","4","3","4","4","3","3","4","2","2","1","1","0","0","1","0","0","1","1","0","1","1","0","1","0","1","3","4","3","2","2","3","2","2","2","3","766337469301133313","祁","272","","","","nonmatch","","","","","","","","","","","","","","key","j","16.66931132075458","640","356","j","true","nonmatch","img/hexagon.png","梯形","六边","ALT1_1","prac_ALT1_1","","","","","","","","","",""
"null","<span style='color:GreenYellow; font-size: 70px;'>正确! </span>","null","html-keyboard-response","70","230294","0.0-7.0-0.0-1.0-0.0-1.30","3","3","3","3","3","3","4","3","3","3","4","3","2","4","3","4","3","2","4","4","3","4","4","3","3","4","2","2","1","1","0","0","1","0","0","1","1","0","1","1","0","1","0","1","3","4","3","2","2","3","2","2","2","3","766337469301133313","祁","272","","","","","","","","","","","","","","","","","","","","","","","","","","","","","","feedback_test","","","","","","","","","",""
"781","","j","psychophysics","71","232078","0.0-7.0-0.0-1.0-0.0-0.31","3","3","3","3","3","3","4","3","3","3","4","3","2","4","3","4","3","2","4","4","3","4","4","3","3","4","2","2","1","1","0","0","1","0","0","1","1","0","1","1","0","1","0","1","3","4","3","2","2","3","2","2","2","3","766337469301133313","祁","272","","","","nonmatch","","","","","","","","","","","","","","key","j","16.6586666666667","640","356","j","true","nonmatch","img/circle.png","梯形","圆形","ALT1_1","prac_ALT1_1","","","","","","","","","",""
"null","<span style='color:GreenYellow; font-size: 70px;'>正确! </span>","null","html-keyboard-response","72","232579","0.0-7.0-0.0-1.0-0.0-1.31","3","3","3","3","3","3","4","3","3","3","4","3","2","4","3","4","3","2","4","4","3","4","4","3","3","4","2","2","1","1","0","0","1","0","0","1","1","0","1","1","0","1","0","1","3","4","3","2","2","3","2","2","2","3","766337469301133313","祁","272","","","","","","","","","","","","","","","","","","","","","","","","","","","","","","feedback_test","","","","","","","","","",""
"652","","f","psychophysics","73","234232","0.0-7.0-0.0-1.0-0.0-0.32","3","3","3","3","3","3","4","3","3","3","4","3","2","4","3","4","3","2","4","4","3","4","4","3","3","4","2","2","1","1","0","0","1","0","0","1","1","0","1","1","0","1","0","1","3","4","3","2","2","3","2","2","2","3","766337469301133313","祁","272","","","","match","","","","","","","","","","","","","","key","f","16.668826530612375","640","356","j","false","nonmatch","img/trapezoid.png","六边","梯形","ALT1_1","prac_ALT1_1","","","","","","","","","",""
"null","<span style='color:red; font-size: 70px;'>错误! </span>","null","html-keyboard-response","74","234733","0.0-7.0-0.0-1.0-0.0-1.32","3","3","3","3","3","3","4","3","3","3","4","3","2","4","3","4","3","2","4","4","3","4","4","3","3","4","2","2","1","1","0","0","1","0","0","1","1","0","1","1","0","1","0","1","3","4","3","2","2","3","2","2","2","3","766337469301133313","祁","272","","","","","","","","","","","","","","","","","","","","","","","","","","","","","","feedback_test","","","","","","","","","",""
"643","","f","psychophysics","75","236379","0.0-7.0-0.0-1.0-0.0-0.33","3","3","3","3","3","3","4","3","3","3","4","3","2","4","3","4","3","2","4","4","3","4","4","3","3","4","2","2","1","1","0","0","1","0","0","1","1","0","1","1","0","1","0","1","3","4","3","2","2","3","2","2","2","3","766337469301133313","祁","272","","","","match","","","","","","","","","","","","","","key","f","16.669082474226634","640","356","f","true","match","img/diamond.png","菱形","菱形","ALT1_1","prac_ALT1_1","","","","","","","","","",""
"null","<span style='color:GreenYellow; font-size: 70px;'>正确! </span>","null","html-keyboard-response","76","236881","0.0-7.0-0.0-1.0-0.0-1.33","3","3","3","3","3","3","4","3","3","3","4","3","2","4","3","4","3","2","4","4","3","4","4","3","3","4","2","2","1","1","0","0","1","0","0","1","1","0","1","1","0","1","0","1","3","4","3","2","2","3","2","2","2","3","766337469301133313","祁","272","","","","","","","","","","","","","","","","","","","","","","","","","","","","","","feedback_test","","","","","","","","","",""
"655","","f","psychophysics","77","238538","0.0-7.0-0.0-1.0-0.0-0.34","3","3","3","3","3","3","4","3","3","3","4","3","2","4","3","4","3","2","4","4","3","4","4","3","3","4","2","2","1","1","0","0","1","0","0","1","1","0","1","1","0","1","0","1","3","4","3","2","2","3","2","2","2","3","766337469301133313","祁","272","","","","match","","","","","","","","","","","","","","key","f","16.667102040816218","640","356","f","true","match","img/trapezoid.png","梯形","梯形","ALT1_1","prac_ALT1_1","","","","","","","","","",""
"null","<span style='color:GreenYellow; font-size: 70px;'>正确! </span>","null","html-keyboard-response","78","239039","0.0-7.0-0.0-1.0-0.0-1.34","3","3","3","3","3","3","4","3","3","3","4","3","2","4","3","4","3","2","4","4","3","4","4","3","3","4","2","2","1","1","0","0","1","0","0","1","1","0","1","1","0","1","0","1","3","4","3","2","2","3","2","2","2","3","766337469301133313","祁","272","","","","","","","","","","","","","","","","","","","","","","","","","","","","","","feedback_test","","","","","","","","","",""
"845","","f","psychophysics","79","240885","0.0-7.0-0.0-1.0-0.0-0.35","3","3","3","3","3","3","4","3","3","3","4","3","2","4","3","4","3","2","4","4","3","4","4","3","3","4","2","2","1","1","0","0","1","0","0","1","1","0","1","1","0","1","0","1","3","4","3","2","2","3","2","2","2","3","766337469301133313","祁","272","","","","match","","","","","","","","","","","","","","key","f","16.664990909090953","640","356","f","true","match","img/diamond.png","菱形","菱形","ALT1_1","prac_ALT1_1","","","","","","","","","",""
"null","<span style='color:GreenYellow; font-size: 70px;'>正确! </span>","null","html-keyboard-response","80","241386","0.0-7.0-0.0-1.0-0.0-1.35","3","3","3","3","3","3","4","3","3","3","4","3","2","4","3","4","3","2","4","4","3","4","4","3","3","4","2","2","1","1","0","0","1","0","0","1","1","0","1","1","0","1","0","1","3","4","3","2","2","3","2","2","2","3","766337469301133313","祁","272","","","","","","","","","","","","","","","","","","","","","","","","","","","","","","feedback_test","","","","","","","","","",""
"874","","j","psychophysics","81","243261","0.0-7.0-0.0-1.0-0.0-0.36","3","3","3","3","3","3","4","3","3","3","4","3","2","4","3","4","3","2","4","4","3","4","4","3","3","4","2","2","1","1","0","0","1","0","0","1","1","0","1","1","0","1","0","1","3","4","3","2","2","3","2","2","2","3","766337469301133313","祁","272","","","","nonmatch","","","","","","","","","","","","","","key","j","16.669261261261266","640","356","j","true","nonmatch","img/diamond.png","六边","菱形","ALT1_1","prac_ALT1_1","","","","","","","","","",""
"null","<span style='color:GreenYellow; font-size: 70px;'>正确! </span>","null","html-keyboard-response","82","243762","0.0-7.0-0.0-1.0-0.0-1.36","3","3","3","3","3","3","4","3","3","3","4","3","2","4","3","4","3","2","4","4","3","4","4","3","3","4","2","2","1","1","0","0","1","0","0","1","1","0","1","1","0","1","0","1","3","4","3","2","2","3","2","2","2","3","766337469301133313","祁","272","","","","","","","","","","","","","","","","","","","","","","","","","","","","","","feedback_test","","","","","","","","","",""
"661","","f","psychophysics","83","245425","0.0-7.0-0.0-1.0-0.0-0.37","3","3","3","3","3","3","4","3","3","3","4","3","2","4","3","4","3","2","4","4","3","4","4","3","3","4","2","2","1","1","0","0","1","0","0","1","1","0","1","1","0","1","0","1","3","4","3","2","2","3","2","2","2","3","766337469301133313","祁","272","","","","match","","","","","","","","","","","","","","key","f","16.664826530612153","640","356","f","true","match","img/circle.png","圆形","圆形","ALT1_1","prac_ALT1_1","","","","","","","","","",""
"null","<span style='color:GreenYellow; font-size: 70px;'>正确! </span>","null","html-keyboard-response","84","245926","0.0-7.0-0.0-1.0-0.0-1.37","3","3","3","3","3","3","4","3","3","3","4","3","2","4","3","4","3","2","4","4","3","4","4","3","3","4","2","2","1","1","0","0","1","0","0","1","1","0","1","1","0","1","0","1","3","4","3","2","2","3","2","2","2","3","766337469301133313","祁","272","","","","","","","","","","","","","","","","","","","","","","","","","","","","","","feedback_test","","","","","","","","","",""
"653","","f","psychophysics","85","247582","0.0-7.0-0.0-1.0-0.0-0.38","3","3","3","3","3","3","4","3","3","3","4","3","2","4","3","4","3","2","4","4","3","4","4","3","3","4","2","2","1","1","0","0","1","0","0","1","1","0","1","1","0","1","0","1","3","4","3","2","2","3","2","2","2","3","766337469301133313","祁","272","","","","match","","","","","","","","","","","","","","key","f","16.662795918367326","640","356","f","true","match","img/hexagon.png","六边","六边","ALT1_1","prac_ALT1_1","","","","","","","","","",""
"null","<span style='color:GreenYellow; font-size: 70px;'>正确! </span>","null","html-keyboard-response","86","248083","0.0-7.0-0.0-1.0-0.0-1.38","3","3","3","3","3","3","4","3","3","3","4","3","2","4","3","4","3","2","4","4","3","4","4","3","3","4","2","2","1","1","0","0","1","0","0","1","1","0","1","1","0","1","0","1","3","4","3","2","2","3","2","2","2","3","766337469301133313","祁","272","","","","","","","","","","","","","","","","","","","","","","","","","","","","","","feedback_test","","","","","","","","","",""
"1034","","j","psychophysics","87","250119","0.0-7.0-0.0-1.0-0.0-0.39","3","3","3","3","3","3","4","3","3","3","4","3","2","4","3","4","3","2","4","4","3","4","4","3","3","4","2","2","1","1","0","0","1","0","0","1","1","0","1","1","0","1","0","1","3","4","3","2","2","3","2","2","2","3","766337469301133313","祁","272","","","","nonmatch","","","","","","","","","","","","","","key","j","16.66800826446279","640","356","j","true","nonmatch","img/diamond.png","梯形","菱形","ALT1_1","prac_ALT1_1","","","","","","","","","",""
"null","<span style='color:GreenYellow; font-size: 70px;'>正确! </span>","null","html-keyboard-response","88","250620","0.0-7.0-0.0-1.0-0.0-1.39","3","3","3","3","3","3","4","3","3","3","4","3","2","4","3","4","3","2","4","4","3","4","4","3","3","4","2","2","1","1","0","0","1","0","0","1","1","0","1","1","0","1","0","1","3","4","3","2","2","3","2","2","2","3","766337469301133313","祁","272","","","","","","","","","","","","","","","","","","","","","","","","","","","","","","feedback_test","","","","","","","","","",""
"714","","j","psychophysics","89","252337","0.0-7.0-0.0-1.0-0.0-0.40","3","3","3","3","3","3","4","3","3","3","4","3","2","4","3","4","3","2","4","4","3","4","4","3","3","4","2","2","1","1","0","0","1","0","0","1","1","0","1","1","0","1","0","1","3","4","3","2","2","3","2","2","2","3","766337469301133313","祁","272","","","","nonmatch","","","","","","","","","","","","","","key","j","16.666519607843","640","356","j","true","nonmatch","img/hexagon.png","圆形","六边","ALT1_1","prac_ALT1_1","","","","","","","","","",""
"null","<span style='color:GreenYellow; font-size: 70px;'>正确! </span>","null","html-keyboard-response","90","252837","0.0-7.0-0.0-1.0-0.0-1.40","3","3","3","3","3","3","4","3","3","3","4","3","2","4","3","4","3","2","4","4","3","4","4","3","3","4","2","2","1","1","0","0","1","0","0","1","1","0","1","1","0","1","0","1","3","4","3","2","2","3","2","2","2","3","766337469301133313","祁","272","","","","","","","","","","","","","","","","","","","","","","","","","","","","","","feedback_test","","","","","","","","","",""
"788","","f","psychophysics","91","254628","0.0-7.0-0.0-1.0-0.0-0.41","3","3","3","3","3","3","4","3","3","3","4","3","2","4","3","4","3","2","4","4","3","4","4","3","3","4","2","2","1","1","0","0","1","0","0","1","1","0","1","1","0","1","0","1","3","4","3","2","2","3","2","2","2","3","766337469301133313","祁","272","","","","match","","","","","","","","","","","","","","key","f","16.668801886792558","640","356","f","true","match","img/trapezoid.png","梯形","梯形","ALT1_1","prac_ALT1_1","","","","","","","","","",""
"null","<span style='color:GreenYellow; font-size: 70px;'>正确! </span>","null","html-keyboard-response","92","255133","0.0-7.0-0.0-1.0-0.0-1.41","3","3","3","3","3","3","4","3","3","3","4","3","2","4","3","4","3","2","4","4","3","4","4","3","3","4","2","2","1","1","0","0","1","0","0","1","1","0","1","1","0","1","0","1","3","4","3","2","2","3","2","2","2","3","766337469301133313","祁","272","","","","","","","","","","","","","","","","","","","","","","","","","","","","","","feedback_test","","","","","","","","","",""
"661","","j","psychophysics","93","256797","0.0-7.0-0.0-1.0-0.0-0.42","3","3","3","3","3","3","4","3","3","3","4","3","2","4","3","4","3","2","4","4","3","4","4","3","3","4","2","2","1","1","0","0","1","0","0","1","1","0","1","1","0","1","0","1","3","4","3","2","2","3","2","2","2","3","766337469301133313","祁","272","","","","nonmatch","","","","","","","","","","","","","","key","j","16.6684693877552","640","356","j","true","nonmatch","img/trapezoid.png","圆形","梯形","ALT1_1","prac_ALT1_1","","","","","","","","","",""
"null","<span style='color:GreenYellow; font-size: 70px;'>正确! </span>","null","html-keyboard-response","94","257297","0.0-7.0-0.0-1.0-0.0-1.42","3","3","3","3","3","3","4","3","3","3","4","3","2","4","3","4","3","2","4","4","3","4","4","3","3","4","2","2","1","1","0","0","1","0","0","1","1","0","1","1","0","1","0","1","3","4","3","2","2","3","2","2","2","3","766337469301133313","祁","272","","","","","","","","","","","","","","","","","","","","","","","","","","","","","","feedback_test","","","","","","","","","",""
"625","","j","psychophysics","95","258924","0.0-7.0-0.0-1.0-0.0-0.43","3","3","3","3","3","3","4","3","3","3","4","3","2","4","3","4","3","2","4","4","3","4","4","3","3","4","2","2","1","1","0","0","1","0","0","1","1","0","1","1","0","1","0","1","3","4","3","2","2","3","2","2","2","3","766337469301133313","祁","272","","","","nonmatch","","","","","","","","","","","","","","key","j","16.669302083333303","640","356","j","true","nonmatch","img/circle.png","菱形","圆形","ALT1_1","prac_ALT1_1","","","","","","","","","",""
"null","<span style='color:GreenYellow; font-size: 70px;'>正确! </span>","null","html-keyboard-response","96","259425","0.0-7.0-0.0-1.0-0.0-1.43","3","3","3","3","3","3","4","3","3","3","4","3","2","4","3","4","3","2","4","4","3","4","4","3","3","4","2","2","1","1","0","0","1","0","0","1","1","0","1","1","0","1","0","1","3","4","3","2","2","3","2","2","2","3","766337469301133313","祁","272","","","","","","","","","","","","","","","","","","","","","","","","","","","","","","feedback_test","","","","","","","","","",""
"589","","j","psychophysics","97","261016","0.0-7.0-0.0-1.0-0.0-0.44","3","3","3","3","3","3","4","3","3","3","4","3","2","4","3","4","3","2","4","4","3","4","4","3","3","4","2","2","1","1","0","0","1","0","0","1","1","0","1","1","0","1","0","1","3","4","3","2","2","3","2","2","2","3","766337469301133313","祁","272","","","","nonmatch","","","","","","","","","","","","","","key","j","16.66702105263156","640","356","f","false","match","img/circle.png","圆形","圆形","ALT1_1","prac_ALT1_1","","","","","","","","","",""
"null","<span style='color:red; font-size: 70px;'>错误! </span>","null","html-keyboard-response","98","261518","0.0-7.0-0.0-1.0-0.0-1.44","3","3","3","3","3","3","4","3","3","3","4","3","2","4","3","4","3","2","4","4","3","4","4","3","3","4","2","2","1","1","0","0","1","0","0","1","1","0","1","1","0","1","0","1","3","4","3","2","2","3","2","2","2","3","766337469301133313","祁","272","","","","","","","","","","","","","","","","","","","","","","","","","","","","","","feedback_test","","","","","","","","","",""
"795","","j","psychophysics","99","263316","0.0-7.0-0.0-1.0-0.0-0.45","3","3","3","3","3","3","4","3","3","3","4","3","2","4","3","4","3","2","4","4","3","4","4","3","3","4","2","2","1","1","0","0","1","0","0","1","1","0","1","1","0","1","0","1","3","4","3","2","2","3","2","2","2","3","766337469301133313","祁","272","","","","nonmatch","","","","","","","","","","","","","","key","j","16.66742990654186","640","356","j","true","nonmatch","img/circle.png","六边","圆形","ALT1_1","prac_ALT1_1","","","","","","","","","",""
"null","<span style='color:GreenYellow; font-size: 70px;'>正确! </span>","null","html-keyboard-response","100","263819","0.0-7.0-0.0-1.0-0.0-1.45","3","3","3","3","3","3","4","3","3","3","4","3","2","4","3","4","3","2","4","4","3","4","4","3","3","4","2","2","1","1","0","0","1","0","0","1","1","0","1","1","0","1","0","1","3","4","3","2","2","3","2","2","2","3","766337469301133313","祁","272","","","","","","","","","","","","","","","","","","","","","","","","","","","","","","feedback_test","","","","","","","","","",""
"800","","j","psychophysics","101","265621","0.0-7.0-0.0-1.0-0.0-0.46","3","3","3","3","3","3","4","3","3","3","4","3","2","4","3","4","3","2","4","4","3","4","4","3","3","4","2","2","1","1","0","0","1","0","0","1","1","0","1","1","0","1","0","1","3","4","3","2","2","3","2","2","2","3","766337469301133313","祁","272","","","","nonmatch","","","","","","","","","","","","","","key","j","16.667383177569853","640","356","j","true","nonmatch","img/hexagon.png","菱形","六边","ALT1_1","prac_ALT1_1","","","","","","","","","",""
"null","<span style='color:GreenYellow; font-size: 70px;'>正确! </span>","null","html-keyboard-response","102","266122","0.0-7.0-0.0-1.0-0.0-1.46","3","3","3","3","3","3","4","3","3","3","4","3","2","4","3","4","3","2","4","4","3","4","4","3","3","4","2","2","1","1","0","0","1","0","0","1","1","0","1","1","0","1","0","1","3","4","3","2","2","3","2","2","2","3","766337469301133313","祁","272","","","","","","","","","","","","","","","","","","","","","","","","","","","","","","feedback_test","","","","","","","","","",""
"925","","j","psychophysics","103","268049","0.0-7.0-0.0-1.0-0.0-0.47","3","3","3","3","3","3","4","3","3","3","4","3","2","4","3","4","3","2","4","4","3","4","4","3","3","4","2","2","1","1","0","0","1","0","0","1","1","0","1","1","0","1","0","1","3","4","3","2","2","3","2","2","2","3","766337469301133313","祁","272","","","","nonmatch","","","","","","","","","","","","","","key","j","16.66919999999986","640","356","j","true","nonmatch","img/trapezoid.png","菱形","梯形","ALT1_1","prac_ALT1_1","","","","","","","","","",""
"null","<span style='color:GreenYellow; font-size: 70px;'>正确! </span>","null","html-keyboard-response","104","268552","0.0-7.0-0.0-1.0-0.0-1.47","3","3","3","3","3","3","4","3","3","3","4","3","2","4","3","4","3","2","4","4","3","4","4","3","3","4","2","2","1","1","0","0","1","0","0","1","1","0","1","1","0","1","0","1","3","4","3","2","2","3","2","2","2","3","766337469301133313","祁","272","","","","","","","","","","","","","","","","","","","","","","","","","","","","","","feedback_test","","","","","","","","","",""
"15158","<style>.context{color:white; font-size: 35px; line-height:40px}</style>                            <div><p class='context'>您正确回答了90% 的试次。</p><p class='context'>您的平均反应时为753毫秒。</p><p class='context'>恭喜您完成练习。按空格键进入正式实验。</p><p class='footer' style='font-size: 35px; line-height:40px;'>请在进入正式实验之前将您的<span style='color: lightgreen;'>食指</span>放在电脑键盘的相应键位上进行按键。</p>"," ","html-keyboard-response","105","283713","0.0-7.0-0.0-2.0","3","3","3","3","3","3","4","3","3","3","4","3","2","4","3","4","3","2","4","4","3","4","4","3","3","4","2","2","1","1","0","0","1","0","0","1","1","0","1","1","0","1","0","1","3","4","3","2","2","3","2","2","2","3","766337469301133313","祁","272","","","","","","","","","","","","","","","","","","","","","","","","","","","","","","","","","","","","","","","",""
"2075","
    <p style='color: white; font-size: 22px'>请您将手指放在按键上，准备进入正式的匹配任务。</p>
    <p> <div style = ""color: green""><按空格键进入下一阶段的匹配任务></div></p>
    "," ","html-keyboard-response","106","285791","0.0-7.0-0.0-3.0","3","3","3","3","3","3","4","3","3","3","4","3","2","4","3","4","3","2","4","4","3","4","4","3","3","4","2","2","1","1","0","0","1","0","0","1","1","0","1","1","0","1","0","1","3","4","3","2","2","3","2","2","2","3","766337469301133313","祁","272","","","","","","","","","","","","","","","","","","","","","","","","","","","","","","","","","","","","","","","",""
"698","","f","psychophysics","107","287491","0.0-7.0-0.0-4.0-0.0-0.0","3","3","3","3","3","3","4","3","3","3","4","3","2","4","3","4","3","2","4","4","3","4","4","3","3","4","2","2","1","1","0","0","1","0","0","1","1","0","1","1","0","1","0","1","3","4","3","2","2","3","2","2","2","3","766337469301133313","祁","272","","","","match","","","","","","","","","","","","","","key","f","16.668544554455313","640","356","f","true","match","img/circle.png","圆形","圆形","ALT1","formal_ALT1_1","","","","","","","","","",""
"null","<span style='color:GreenYellow; font-size: 70px;'>正确! </span>","null","html-keyboard-response","108","287992","0.0-7.0-0.0-4.0-0.0-1.0","3","3","3","3","3","3","4","3","3","3","4","3","2","4","3","4","3","2","4","4","3","4","4","3","3","4","2","2","1","1","0","0","1","0","0","1","1","0","1","1","0","1","0","1","3","4","3","2","2","3","2","2","2","3","766337469301133313","祁","272","","","","","","","","","","","","","","","","","","","","","","","","","","","","","","feedback_test","","","","","","","","","",""
"649","","f","psychophysics","109","289643","0.0-7.0-0.0-4.0-0.0-0.1","3","3","3","3","3","3","4","3","3","3","4","3","2","4","3","4","3","2","4","4","3","4","4","3","3","4","2","2","1","1","0","0","1","0","0","1","1","0","1","1","0","1","0","1","3","4","3","2","2","3","2","2","2","3","766337469301133313","祁","272","","","","match","","","","","","","","","","","","","","key","f","16.66827551020447","640","356","f","true","match","img/circle.png","圆形","圆形","ALT1","formal_ALT1_1","","","","","","","","","",""
"null","<span style='color:GreenYellow; font-size: 70px;'>正确! </span>","null","html-keyboard-response","110","290144","0.0-7.0-0.0-4.0-0.0-1.1","3","3","3","3","3","3","4","3","3","3","4","3","2","4","3","4","3","2","4","4","3","4","4","3","3","4","2","2","1","1","0","0","1","0","0","1","1","0","1","1","0","1","0","1","3","4","3","2","2","3","2","2","2","3","766337469301133313","祁","272","","","","","","","","","","","","","","","","","","","","","","","","","","","","","","feedback_test","","","","","","","","","",""
"739","","j","psychophysics","111","291885","0.0-7.0-0.0-4.0-0.0-0.2","3","3","3","3","3","3","4","3","3","3","4","3","2","4","3","4","3","2","4","4","3","4","4","3","3","4","2","2","1","1","0","0","1","0","0","1","1","0","1","1","0","1","0","1","3","4","3","2","2","3","2","2","2","3","766337469301133313","祁","272","","","","nonmatch","","","","","","","","","","","","","","key","j","16.666378640776582","640","356","j","true","nonmatch","img/diamond.png","圆形","菱形","ALT1","formal_ALT1_1","","","","","","","","","",""
"null","<span style='color:GreenYellow; font-size: 70px;'>正确! </span>","null","html-keyboard-response","112","292387","0.0-7.0-0.0-4.0-0.0-1.2","3","3","3","3","3","3","4","3","3","3","4","3","2","4","3","4","3","2","4","4","3","4","4","3","3","4","2","2","1","1","0","0","1","0","0","1","1","0","1","1","0","1","0","1","3","4","3","2","2","3","2","2","2","3","766337469301133313","祁","272","","","","","","","","","","","","","","","","","","","","","","","","","","","","","","feedback_test","","","","","","","","","",""
"676","","j","psychophysics","113","294065","0.0-7.0-0.0-4.0-0.0-0.3","3","3","3","3","3","3","4","3","3","3","4","3","2","4","3","4","3","2","4","4","3","4","4","3","3","4","2","2","1","1","0","0","1","0","0","1","1","0","1","1","0","1","0","1","3","4","3","2","2","3","2","2","2","3","766337469301133313","祁","272","","","","nonmatch","","","","","","","","","","","","","","key","j","16.66746999999974","640","356","j","true","nonmatch","img/trapezoid.png","六边","梯形","ALT1","formal_ALT1_1","","","","","","","","","",""
"null","<span style='color:GreenYellow; font-size: 70px;'>正确! </span>","null","html-keyboard-response","114","294566","0.0-7.0-0.0-4.0-0.0-1.3","3","3","3","3","3","3","4","3","3","3","4","3","2","4","3","4","3","2","4","4","3","4","4","3","3","4","2","2","1","1","0","0","1","0","0","1","1","0","1","1","0","1","0","1","3","4","3","2","2","3","2","2","2","3","766337469301133313","祁","272","","","","","","","","","","","","","","","","","","","","","","","","","","","","","","feedback_test","","","","","","","","","",""
"889","","j","psychophysics","115","296458","0.0-7.0-0.0-4.0-0.0-0.4","3","3","3","3","3","3","4","3","3","3","4","3","2","4","3","4","3","2","4","4","3","4","4","3","3","4","2","2","1","1","0","0","1","0","0","1","1","0","1","1","0","1","0","1","3","4","3","2","2","3","2","2","2","3","766337469301133313","祁","272","","","","nonmatch","","","","","","","","","","","","","","key","j","16.666982142857055","640","356","j","true","nonmatch","img/hexagon.png","梯形","六边","ALT1","formal_ALT1_1","","","","","","","","","",""
"null","<span style='color:GreenYellow; font-size: 70px;'>正确! </span>","null","html-keyboard-response","116","296959","0.0-7.0-0.0-4.0-0.0-1.4","3","3","3","3","3","3","4","3","3","3","4","3","2","4","3","4","3","2","4","4","3","4","4","3","3","4","2","2","1","1","0","0","1","0","0","1","1","0","1","1","0","1","0","1","3","4","3","2","2","3","2","2","2","3","766337469301133313","祁","272","","","","","","","","","","","","","","","","","","","","","","","","","","","","","","feedback_test","","","","","","","","","",""
"705","","f","psychophysics","117","298665","0.0-7.0-0.0-4.0-0.0-0.5","3","3","3","3","3","3","4","3","3","3","4","3","2","4","3","4","3","2","4","4","3","4","4","3","3","4","2","2","1","1","0","0","1","0","0","1","1","0","1","1","0","1","0","1","3","4","3","2","2","3","2","2","2","3","766337469301133313","祁","272","","","","match","","","","","","","","","","","","","","key","f","16.66777450980404","640","356","f","true","match","img/trapezoid.png","梯形","梯形","ALT1","formal_ALT1_1","","","","","","","","","",""
"null","<span style='color:GreenYellow; font-size: 70px;'>正确! </span>","null","html-keyboard-response","118","299167","0.0-7.0-0.0-4.0-0.0-1.5","3","3","3","3","3","3","4","3","3","3","4","3","2","4","3","4","3","2","4","4","3","4","4","3","3","4","2","2","1","1","0","0","1","0","0","1","1","0","1","1","0","1","0","1","3","4","3","2","2","3","2","2","2","3","766337469301133313","祁","272","","","","","","","","","","","","","","","","","","","","","","","","","","","","","","feedback_test","","","","","","","","","",""
"613","","f","psychophysics","119","300781","0.0-7.0-0.0-4.0-0.0-0.6","3","3","3","3","3","3","4","3","3","3","4","3","2","4","3","4","3","2","4","4","3","4","4","3","3","4","2","2","1","1","0","0","1","0","0","1","1","0","1","1","0","1","0","1","3","4","3","2","2","3","2","2","2","3","766337469301133313","祁","272","","","","match","","","","","","","","","","","","","","key","f","16.667041666666893","640","356","f","true","match","img/circle.png","圆形","圆形","ALT1","formal_ALT1_1","","","","","","","","","",""
"null","<span style='color:GreenYellow; font-size: 70px;'>正确! </span>","null","html-keyboard-response","120","301282","0.0-7.0-0.0-4.0-0.0-1.6","3","3","3","3","3","3","4","3","3","3","4","3","2","4","3","4","3","2","4","4","3","4","4","3","3","4","2","2","1","1","0","0","1","0","0","1","1","0","1","1","0","1","0","1","3","4","3","2","2","3","2","2","2","3","766337469301133313","祁","272","","","","","","","","","","","","","","","","","","","","","","","","","","","","","","feedback_test","","","","","","","","","",""
"720","","j","psychophysics","121","303004","0.0-7.0-0.0-4.0-0.0-0.7","3","3","3","3","3","3","4","3","3","3","4","3","2","4","3","4","3","2","4","4","3","4","4","3","3","4","2","2","1","1","0","0","1","0","0","1","1","0","1","1","0","1","0","1","3","4","3","2","2","3","2","2","2","3","766337469301133313","祁","272","","","","nonmatch","","","","","","","","","","","","","","key","j","16.66957843137275","640","356","j","true","nonmatch","img/trapezoid.png","菱形","梯形","ALT1","formal_ALT1_1","","","","","","","","","",""
"null","<span style='color:GreenYellow; font-size: 70px;'>正确! </span>","null","html-keyboard-response","122","303505","0.0-7.0-0.0-4.0-0.0-1.7","3","3","3","3","3","3","4","3","3","3","4","3","2","4","3","4","3","2","4","4","3","4","4","3","3","4","2","2","1","1","0","0","1","0","0","1","1","0","1","1","0","1","0","1","3","4","3","2","2","3","2","2","2","3","766337469301133313","祁","272","","","","","","","","","","","","","","","","","","","","","","","","","","","","","","feedback_test","","","","","","","","","",""
"994","","j","psychophysics","123","305501","0.0-7.0-0.0-4.0-0.0-0.8","3","3","3","3","3","3","4","3","3","3","4","3","2","4","3","4","3","2","4","4","3","4","4","3","3","4","2","2","1","1","0","0","1","0","0","1","1","0","1","1","0","1","0","1","3","4","3","2","2","3","2","2","2","3","766337469301133313","祁","272","","","","nonmatch","","","","","","","","","","","","","","key","j","16.669117647058822","640","356","j","true","nonmatch","img/hexagon.png","菱形","六边","ALT1","formal_ALT1_1","","","","","","","","","",""
"null","<span style='color:GreenYellow; font-size: 70px;'>正确! </span>","null","html-keyboard-response","124","306010","0.0-7.0-0.0-4.0-0.0-1.8","3","3","3","3","3","3","4","3","3","3","4","3","2","4","3","4","3","2","4","4","3","4","4","3","3","4","2","2","1","1","0","0","1","0","0","1","1","0","1","1","0","1","0","1","3","4","3","2","2","3","2","2","2","3","766337469301133313","祁","272","","","","","","","","","","","","","","","","","","","","","","","","","","","","","","feedback_test","","","","","","","","","",""
"595","","j","psychophysics","125","307606","0.0-7.0-0.0-4.0-0.0-0.9","3","3","3","3","3","3","4","3","3","3","4","3","2","4","3","4","3","2","4","4","3","4","4","3","3","4","2","2","1","1","0","0","1","0","0","1","1","0","1","1","0","1","0","1","3","4","3","2","2","3","2","2","2","3","766337469301133313","祁","272","","","","nonmatch","","","","","","","","","","","","","","key","j","16.667595744681016","640","356","j","true","nonmatch","img/circle.png","六边","圆形","ALT1","formal_ALT1_1","","","","","","","","","",""
"null","<span style='color:GreenYellow; font-size: 70px;'>正确! </span>","null","html-keyboard-response","126","308109","0.0-7.0-0.0-4.0-0.0-1.9","3","3","3","3","3","3","4","3","3","3","4","3","2","4","3","4","3","2","4","4","3","4","4","3","3","4","2","2","1","1","0","0","1","0","0","1","1","0","1","1","0","1","0","1","3","4","3","2","2","3","2","2","2","3","766337469301133313","祁","272","","","","","","","","","","","","","","","","","","","","","","","","","","","","","","feedback_test","","","","","","","","","",""
"690","","f","psychophysics","127","309800","0.0-7.0-0.0-4.0-0.0-0.10","3","3","3","3","3","3","4","3","3","3","4","3","2","4","3","4","3","2","4","4","3","4","4","3","3","4","2","2","1","1","0","0","1","0","0","1","1","0","1","1","0","1","0","1","3","4","3","2","2","3","2","2","2","3","766337469301133313","祁","272","","","","match","","","","","","","","","","","","","","key","f","16.66266000000003","640","356","f","true","match","img/trapezoid.png","梯形","梯形","ALT1","formal_ALT1_1","","","","","","","","","",""
"null","<span style='color:GreenYellow; font-size: 70px;'>正确! </span>","null","html-keyboard-response","128","310301","0.0-7.0-0.0-4.0-0.0-1.10","3","3","3","3","3","3","4","3","3","3","4","3","2","4","3","4","3","2","4","4","3","4","4","3","3","4","2","2","1","1","0","0","1","0","0","1","1","0","1","1","0","1","0","1","3","4","3","2","2","3","2","2","2","3","766337469301133313","祁","272","","","","","","","","","","","","","","","","","","","","","","","","","","","","","","feedback_test","","","","","","","","","",""
"595","","j","psychophysics","129","311898","0.0-7.0-0.0-4.0-0.0-0.11","3","3","3","3","3","3","4","3","3","3","4","3","2","4","3","4","3","2","4","4","3","4","4","3","3","4","2","2","1","1","0","0","1","0","0","1","1","0","1","1","0","1","0","1","3","4","3","2","2","3","2","2","2","3","766337469301133313","祁","272","","","","nonmatch","","","","","","","","","","","","","","key","j","16.66967368421059","640","356","j","true","nonmatch","img/circle.png","梯形","圆形","ALT1","formal_ALT1_1","","","","","","","","","",""
"null","<span style='color:GreenYellow; font-size: 70px;'>正确! </span>","null","html-keyboard-response","130","312400","0.0-7.0-0.0-4.0-0.0-1.11","3","3","3","3","3","3","4","3","3","3","4","3","2","4","3","4","3","2","4","4","3","4","4","3","3","4","2","2","1","1","0","0","1","0","0","1","1","0","1","1","0","1","0","1","3","4","3","2","2","3","2","2","2","3","766337469301133313","祁","272","","","","","","","","","","","","","","","","","","","","","","","","","","","","","","feedback_test","","","","","","","","","",""
"595","","j","psychophysics","131","313997","0.0-7.0-0.0-4.0-0.0-0.12","3","3","3","3","3","3","4","3","3","3","4","3","2","4","3","4","3","2","4","4","3","4","4","3","3","4","2","2","1","1","0","0","1","0","0","1","1","0","1","1","0","1","0","1","3","4","3","2","2","3","2","2","2","3","766337469301133313","祁","272","","","","nonmatch","","","","","","","","","","","","","","key","j","16.664126315789517","640","356","j","true","nonmatch","img/circle.png","菱形","圆形","ALT1","formal_ALT1_1","","","","","","","","","",""
"null","<span style='color:GreenYellow; font-size: 70px;'>正确! </span>","null","html-keyboard-response","132","314499","0.0-7.0-0.0-4.0-0.0-1.12","3","3","3","3","3","3","4","3","3","3","4","3","2","4","3","4","3","2","4","4","3","4","4","3","3","4","2","2","1","1","0","0","1","0","0","1","1","0","1","1","0","1","0","1","3","4","3","2","2","3","2","2","2","3","766337469301133313","祁","272","","","","","","","","","","","","","","","","","","","","","","","","","","","","","","feedback_test","","","","","","","","","",""
"654","","f","psychophysics","133","316155","0.0-7.0-0.0-4.0-0.0-0.13","3","3","3","3","3","3","4","3","3","3","4","3","2","4","3","4","3","2","4","4","3","4","4","3","3","4","2","2","1","1","0","0","1","0","0","1","1","0","1","1","0","1","0","1","3","4","3","2","2","3","2","2","2","3","766337469301133313","祁","272","","","","match","","","","","","","","","","","","","","key","f","16.666469387755235","640","356","f","true","match","img/hexagon.png","六边","六边","ALT1","formal_ALT1_1","","","","","","","","","",""
"null","<span style='color:GreenYellow; font-size: 70px;'>正确! </span>","null","html-keyboard-response","134","316663","0.0-7.0-0.0-4.0-0.0-1.13","3","3","3","3","3","3","4","3","3","3","4","3","2","4","3","4","3","2","4","4","3","4","4","3","3","4","2","2","1","1","0","0","1","0","0","1","1","0","1","1","0","1","0","1","3","4","3","2","2","3","2","2","2","3","766337469301133313","祁","272","","","","","","","","","","","","","","","","","","","","","","","","","","","","","","feedback_test","","","","","","","","","",""
"566","","f","psychophysics","135","318230","0.0-7.0-0.0-4.0-0.0-0.14","3","3","3","3","3","3","4","3","3","3","4","3","2","4","3","4","3","2","4","4","3","4","4","3","3","4","2","2","1","1","0","0","1","0","0","1","1","0","1","1","0","1","0","1","3","4","3","2","2","3","2","2","2","3","766337469301133313","祁","272","","","","match","","","","","","","","","","","","","","key","f","16.666849462365512","640","356","f","true","match","img/trapezoid.png","梯形","梯形","ALT1","formal_ALT1_1","","","","","","","","","",""
"null","<span style='color:GreenYellow; font-size: 70px;'>正确! </span>","null","html-keyboard-response","136","318731","0.0-7.0-0.0-4.0-0.0-1.14","3","3","3","3","3","3","4","3","3","3","4","3","2","4","3","4","3","2","4","4","3","4","4","3","3","4","2","2","1","1","0","0","1","0","0","1","1","0","1","1","0","1","0","1","3","4","3","2","2","3","2","2","2","3","766337469301133313","祁","272","","","","","","","","","","","","","","","","","","","","","","","","","","","","","","feedback_test","","","","","","","","","",""
"664","","f","psychophysics","137","320396","0.0-7.0-0.0-4.0-0.0-0.15","3","3","3","3","3","3","4","3","3","3","4","3","2","4","3","4","3","2","4","4","3","4","4","3","3","4","2","2","1","1","0","0","1","0","0","1","1","0","1","1","0","1","0","1","3","4","3","2","2","3","2","2","2","3","766337469301133313","祁","272","","","","match","","","","","","","","","","","","","","key","f","16.66646464646446","640","356","f","true","match","img/hexagon.png","六边","六边","ALT1","formal_ALT1_1","","","","","","","","","",""
"null","<span style='color:GreenYellow; font-size: 70px;'>正确! </span>","null","html-keyboard-response","138","320897","0.0-7.0-0.0-4.0-0.0-1.15","3","3","3","3","3","3","4","3","3","3","4","3","2","4","3","4","3","2","4","4","3","4","4","3","3","4","2","2","1","1","0","0","1","0","0","1","1","0","1","1","0","1","0","1","3","4","3","2","2","3","2","2","2","3","766337469301133313","祁","272","","","","","","","","","","","","","","","","","","","","","","","","","","","","","","feedback_test","","","","","","","","","",""
"618","","j","psychophysics","139","322516","0.0-7.0-0.0-4.0-0.0-0.16","3","3","3","3","3","3","4","3","3","3","4","3","2","4","3","4","3","2","4","4","3","4","4","3","3","4","2","2","1","1","0","0","1","0","0","1","1","0","1","1","0","1","0","1","3","4","3","2","2","3","2","2","2","3","766337469301133313","祁","272","","","","nonmatch","","","","","","","","","","","","","","key","j","16.66836458333334","640","356","j","true","nonmatch","img/diamond.png","六边","菱形","ALT1","formal_ALT1_1","","","","","","","","","",""
"null","<span style='color:GreenYellow; font-size: 70px;'>正确! </span>","null","html-keyboard-response","140","323020","0.0-7.0-0.0-4.0-0.0-1.16","3","3","3","3","3","3","4","3","3","3","4","3","2","4","3","4","3","2","4","4","3","4","4","3","3","4","2","2","1","1","0","0","1","0","0","1","1","0","1","1","0","1","0","1","3","4","3","2","2","3","2","2","2","3","766337469301133313","祁","272","","","","","","","","","","","","","","","","","","","","","","","","","","","","","","feedback_test","","","","","","","","","",""
"626","","j","psychophysics","141","324647","0.0-7.0-0.0-4.0-0.0-0.17","3","3","3","3","3","3","4","3","3","3","4","3","2","4","3","4","3","2","4","4","3","4","4","3","3","4","2","2","1","1","0","0","1","0","0","1","1","0","1","1","0","1","0","1","3","4","3","2","2","3","2","2","2","3","766337469301133313","祁","272","","","","nonmatch","","","","","","","","","","","","","","key","j","16.66524742268021","640","356","f","false","match","img/diamond.png","菱形","菱形","ALT1","formal_ALT1_1","","","","","","","","","",""
"null","<span style='color:red; font-size: 70px;'>错误! </span>","null","html-keyboard-response","142","325148","0.0-7.0-0.0-4.0-0.0-1.17","3","3","3","3","3","3","4","3","3","3","4","3","2","4","3","4","3","2","4","4","3","4","4","3","3","4","2","2","1","1","0","0","1","0","0","1","1","0","1","1","0","1","0","1","3","4","3","2","2","3","2","2","2","3","766337469301133313","祁","272","","","","","","","","","","","","","","","","","","","","","","","","","","","","","","feedback_test","","","","","","","","","",""
"672","","f","psychophysics","143","326820","0.0-7.0-0.0-4.0-0.0-0.18","3","3","3","3","3","3","4","3","3","3","4","3","2","4","3","4","3","2","4","4","3","4","4","3","3","4","2","2","1","1","0","0","1","0","0","1","1","0","1","1","0","1","0","1","3","4","3","2","2","3","2","2","2","3","766337469301133313","祁","272","","","","match","","","","","","","","","","","","","","key","f","16.66701010101054","640","356","f","true","match","img/diamond.png","菱形","菱形","ALT1","formal_ALT1_1","","","","","","","","","",""
"null","<span style='color:GreenYellow; font-size: 70px;'>正确! </span>","null","html-keyboard-response","144","327321","0.0-7.0-0.0-4.0-0.0-1.18","3","3","3","3","3","3","4","3","3","3","4","3","2","4","3","4","3","2","4","4","3","4","4","3","3","4","2","2","1","1","0","0","1","0","0","1","1","0","1","1","0","1","0","1","3","4","3","2","2","3","2","2","2","3","766337469301133313","祁","272","","","","","","","","","","","","","","","","","","","","","","","","","","","","","","feedback_test","","","","","","","","","",""
"584","","f","psychophysics","145","328906","0.0-7.0-0.0-4.0-0.0-0.19","3","3","3","3","3","3","4","3","3","3","4","3","2","4","3","4","3","2","4","4","3","4","4","3","3","4","2","2","1","1","0","0","1","0","0","1","1","0","1","1","0","1","0","1","3","4","3","2","2","3","2","2","2","3","766337469301133313","祁","272","","","","match","","","","","","","","","","","","","","key","f","16.66981914893605","640","356","f","true","match","img/hexagon.png","六边","六边","ALT1","formal_ALT1_1","","","","","","","","","",""
"null","<span style='color:GreenYellow; font-size: 70px;'>正确! </span>","null","html-keyboard-response","146","329407","0.0-7.0-0.0-4.0-0.0-1.19","3","3","3","3","3","3","4","3","3","3","4","3","2","4","3","4","3","2","4","4","3","4","4","3","3","4","2","2","1","1","0","0","1","0","0","1","1","0","1","1","0","1","0","1","3","4","3","2","2","3","2","2","2","3","766337469301133313","祁","272","","","","","","","","","","","","","","","","","","","","","","","","","","","","","","feedback_test","","","","","","","","","",""
"552","","j","psychophysics","147","330961","0.0-7.0-0.0-4.0-0.0-0.20","3","3","3","3","3","3","4","3","3","3","4","3","2","4","3","4","3","2","4","4","3","4","4","3","3","4","2","2","1","1","0","0","1","0","0","1","1","0","1","1","0","1","0","1","3","4","3","2","2","3","2","2","2","3","766337469301133313","祁","272","","","","nonmatch","","","","","","","","","","","","","","key","j","16.66719565217373","640","356","j","true","nonmatch","img/hexagon.png","圆形","六边","ALT1","formal_ALT1_1","","","","","","","","","",""
"null","<span style='color:GreenYellow; font-size: 70px;'>正确! </span>","null","html-keyboard-response","148","331463","0.0-7.0-0.0-4.0-0.0-1.20","3","3","3","3","3","3","4","3","3","3","4","3","2","4","3","4","3","2","4","4","3","4","4","3","3","4","2","2","1","1","0","0","1","0","0","1","1","0","1","1","0","1","0","1","3","4","3","2","2","3","2","2","2","3","766337469301133313","祁","272","","","","","","","","","","","","","","","","","","","","","","","","","","","","","","feedback_test","","","","","","","","","",""
"577","","f","psychophysics","149","333041","0.0-7.0-0.0-4.0-0.0-0.21","3","3","3","3","3","3","4","3","3","3","4","3","2","4","3","4","3","2","4","4","3","4","4","3","3","4","2","2","1","1","0","0","1","0","0","1","1","0","1","1","0","1","0","1","3","4","3","2","2","3","2","2","2","3","766337469301133313","祁","272","","","","match","","","","","","","","","","","","","","key","f","16.66630107526835","640","356","f","true","match","img/diamond.png","菱形","菱形","ALT1","formal_ALT1_1","","","","","","","","","",""
"null","<span style='color:GreenYellow; font-size: 70px;'>正确! </span>","null","html-keyboard-response","150","333543","0.0-7.0-0.0-4.0-0.0-1.21","3","3","3","3","3","3","4","3","3","3","4","3","2","4","3","4","3","2","4","4","3","4","4","3","3","4","2","2","1","1","0","0","1","0","0","1","1","0","1","1","0","1","0","1","3","4","3","2","2","3","2","2","2","3","766337469301133313","祁","272","","","","","","","","","","","","","","","","","","","","","","","","","","","","","","feedback_test","","","","","","","","","",""
"602","","j","psychophysics","151","335147","0.0-7.0-0.0-4.0-0.0-0.22","3","3","3","3","3","3","4","3","3","3","4","3","2","4","3","4","3","2","4","4","3","4","4","3","3","4","2","2","1","1","0","0","1","0","0","1","1","0","1","1","0","1","0","1","3","4","3","2","2","3","2","2","2","3","766337469301133313","祁","272","","","","nonmatch","","","","","","","","","","","","","","key","j","16.6643894736845","640","356","j","true","nonmatch","img/trapezoid.png","圆形","梯形","ALT1","formal_ALT1_1","","","","","","","","","",""
"null","<span style='color:GreenYellow; font-size: 70px;'>正确! </span>","null","html-keyboard-response","152","335649","0.0-7.0-0.0-4.0-0.0-1.22","3","3","3","3","3","3","4","3","3","3","4","3","2","4","3","4","3","2","4","4","3","4","4","3","3","4","2","2","1","1","0","0","1","0","0","1","1","0","1","1","0","1","0","1","3","4","3","2","2","3","2","2","2","3","766337469301133313","祁","272","","","","","","","","","","","","","","","","","","","","","","","","","","","","","","feedback_test","","","","","","","","","",""
"801","","j","psychophysics","153","337451","0.0-7.0-0.0-4.0-0.0-0.23","3","3","3","3","3","3","4","3","3","3","4","3","2","4","3","4","3","2","4","4","3","4","4","3","3","4","2","2","1","1","0","0","1","0","0","1","1","0","1","1","0","1","0","1","3","4","3","2","2","3","2","2","2","3","766337469301133313","祁","272","","","","nonmatch","","","","","","","","","","","","","","key","j","16.66558878504667","640","356","j","true","nonmatch","img/diamond.png","梯形","菱形","ALT1","formal_ALT1_1","","","","","","","","","",""
"null","<span style='color:GreenYellow; font-size: 70px;'>正确! </span>","null","html-keyboard-response","154","337953","0.0-7.0-0.0-4.0-0.0-1.23","3","3","3","3","3","3","4","3","3","3","4","3","2","4","3","4","3","2","4","4","3","4","4","3","3","4","2","2","1","1","0","0","1","0","0","1","1","0","1","1","0","1","0","1","3","4","3","2","2","3","2","2","2","3","766337469301133313","祁","272","","","","","","","","","","","","","","","","","","","","","","","","","","","","","","feedback_test","","","","","","","","","",""
"604","","f","psychophysics","155","339559","0.0-7.0-0.0-4.0-0.0-0.24","3","3","3","3","3","3","4","3","3","3","4","3","2","4","3","4","3","2","4","4","3","4","4","3","3","4","2","2","1","1","0","0","1","0","0","1","1","0","1","1","0","1","0","1","3","4","3","2","2","3","2","2","2","3","766337469301133313","祁","272","","","","match","","","","","","","","","","","","","","key","f","16.668252631578913","640","356","f","true","match","img/circle.png","圆形","圆形","ALT1","formal_ALT1_1","","","","","","","","","",""
"null","<span style='color:GreenYellow; font-size: 70px;'>正确! </span>","null","html-keyboard-response","156","340060","0.0-7.0-0.0-4.0-0.0-1.24","3","3","3","3","3","3","4","3","3","3","4","3","2","4","3","4","3","2","4","4","3","4","4","3","3","4","2","2","1","1","0","0","1","0","0","1","1","0","1","1","0","1","0","1","3","4","3","2","2","3","2","2","2","3","766337469301133313","祁","272","","","","","","","","","","","","","","","","","","","","","","","","","","","","","","feedback_test","","","","","","","","","",""
"702","","f","psychophysics","157","341764","0.0-7.0-0.0-4.0-0.0-0.25","3","3","3","3","3","3","4","3","3","3","4","3","2","4","3","4","3","2","4","4","3","4","4","3","3","4","2","2","1","1","0","0","1","0","0","1","1","0","1","1","0","1","0","1","3","4","3","2","2","3","2","2","2","3","766337469301133313","祁","272","","","","match","","","","","","","","","","","","","","key","f","16.666970297029717","640","356","j","false","nonmatch","img/diamond.png","梯形","菱形","ALT1","formal_ALT1_1","","","","","","","","","",""
"null","<span style='color:red; font-size: 70px;'>错误! </span>","null","html-keyboard-response","158","342265","0.0-7.0-0.0-4.0-0.0-1.25","3","3","3","3","3","3","4","3","3","3","4","3","2","4","3","4","3","2","4","4","3","4","4","3","3","4","2","2","1","1","0","0","1","0","0","1","1","0","1","1","0","1","0","1","3","4","3","2","2","3","2","2","2","3","766337469301133313","祁","272","","","","","","","","","","","","","","","","","","","","","","","","","","","","","","feedback_test","","","","","","","","","",""
"750","","f","psychophysics","159","344017","0.0-7.0-0.0-4.0-0.0-0.26","3","3","3","3","3","3","4","3","3","3","4","3","2","4","3","4","3","2","4","4","3","4","4","3","3","4","2","2","1","1","0","0","1","0","0","1","1","0","1","1","0","1","0","1","3","4","3","2","2","3","2","2","2","3","766337469301133313","祁","272","","","","match","","","","","","","","","","","","","","key","f","16.669067307692156","640","356","j","false","nonmatch","img/trapezoid.png","菱形","梯形","ALT1","formal_ALT1_1","","","","","","","","","",""
"null","<span style='color:red; font-size: 70px;'>错误! </span>","null","html-keyboard-response","160","344519","0.0-7.0-0.0-4.0-0.0-1.26","3","3","3","3","3","3","4","3","3","3","4","3","2","4","3","4","3","2","4","4","3","4","4","3","3","4","2","2","1","1","0","0","1","0","0","1","1","0","1","1","0","1","0","1","3","4","3","2","2","3","2","2","2","3","766337469301133313","祁","272","","","","","","","","","","","","","","","","","","","","","","","","","","","","","","feedback_test","","","","","","","","","",""
"667","","f","psychophysics","161","346188","0.0-7.0-0.0-4.0-0.0-0.27","3","3","3","3","3","3","4","3","3","3","4","3","2","4","3","4","3","2","4","4","3","4","4","3","3","4","2","2","1","1","0","0","1","0","0","1","1","0","1","1","0","1","0","1","3","4","3","2","2","3","2","2","2","3","766337469301133313","祁","272","","","","match","","","","","","","","","","","","","","key","f","16.668777777778097","640","356","f","true","match","img/hexagon.png","六边","六边","ALT1","formal_ALT1_1","","","","","","","","","",""
"null","<span style='color:GreenYellow; font-size: 70px;'>正确! </span>","null","html-keyboard-response","162","346691","0.0-7.0-0.0-4.0-0.0-1.27","3","3","3","3","3","3","4","3","3","3","4","3","2","4","3","4","3","2","4","4","3","4","4","3","3","4","2","2","1","1","0","0","1","0","0","1","1","0","1","1","0","1","0","1","3","4","3","2","2","3","2","2","2","3","766337469301133313","祁","272","","","","","","","","","","","","","","","","","","","","","","","","","","","","","","feedback_test","","","","","","","","","",""
"670","","f","psychophysics","163","348363","0.0-7.0-0.0-4.0-0.0-0.28","3","3","3","3","3","3","4","3","3","3","4","3","2","4","3","4","3","2","4","4","3","4","4","3","3","4","2","2","1","1","0","0","1","0","0","1","1","0","1","1","0","1","0","1","3","4","3","2","2","3","2","2","2","3","766337469301133313","祁","272","","","","match","","","","","","","","","","","","","","key","f","16.663191919191505","640","356","f","true","match","img/trapezoid.png","梯形","梯形","ALT1","formal_ALT1_1","","","","","","","","","",""
"null","<span style='color:GreenYellow; font-size: 70px;'>正确! </span>","null","html-keyboard-response","164","348864","0.0-7.0-0.0-4.0-0.0-1.28","3","3","3","3","3","3","4","3","3","3","4","3","2","4","3","4","3","2","4","4","3","4","4","3","3","4","2","2","1","1","0","0","1","0","0","1","1","0","1","1","0","1","0","1","3","4","3","2","2","3","2","2","2","3","766337469301133313","祁","272","","","","","","","","","","","","","","","","","","","","","","","","","","","","","","feedback_test","","","","","","","","","",""
"658","","j","psychophysics","165","350524","0.0-7.0-0.0-4.0-0.0-0.29","3","3","3","3","3","3","4","3","3","3","4","3","2","4","3","4","3","2","4","4","3","4","4","3","3","4","2","2","1","1","0","0","1","0","0","1","1","0","1","1","0","1","0","1","3","4","3","2","2","3","2","2","2","3","766337469301133313","祁","272","","","","nonmatch","","","","","","","","","","","","","","key","j","16.66513265306142","640","356","j","true","nonmatch","img/hexagon.png","圆形","六边","ALT1","formal_ALT1_1","","","","","","","","","",""
"null","<span style='color:GreenYellow; font-size: 70px;'>正确! </span>","null","html-keyboard-response","166","351025","0.0-7.0-0.0-4.0-0.0-1.29","3","3","3","3","3","3","4","3","3","3","4","3","2","4","3","4","3","2","4","4","3","4","4","3","3","4","2","2","1","1","0","0","1","0","0","1","1","0","1","1","0","1","0","1","3","4","3","2","2","3","2","2","2","3","766337469301133313","祁","272","","","","","","","","","","","","","","","","","","","","","","","","","","","","","","feedback_test","","","","","","","","","",""
"620","","j","psychophysics","167","352647","0.0-7.0-0.0-4.0-0.0-0.30","3","3","3","3","3","3","4","3","3","3","4","3","2","4","3","4","3","2","4","4","3","4","4","3","3","4","2","2","1","1","0","0","1","0","0","1","1","0","1","1","0","1","0","1","3","4","3","2","2","3","2","2","2","3","766337469301133313","祁","272","","","","nonmatch","","","","","","","","","","","","","","key","j","16.667463917525836","640","356","j","true","nonmatch","img/circle.png","梯形","圆形","ALT1","formal_ALT1_1","","","","","","","","","",""
"null","<span style='color:GreenYellow; font-size: 70px;'>正确! </span>","null","html-keyboard-response","168","353149","0.0-7.0-0.0-4.0-0.0-1.30","3","3","3","3","3","3","4","3","3","3","4","3","2","4","3","4","3","2","4","4","3","4","4","3","3","4","2","2","1","1","0","0","1","0","0","1","1","0","1","1","0","1","0","1","3","4","3","2","2","3","2","2","2","3","766337469301133313","祁","272","","","","","","","","","","","","","","","","","","","","","","","","","","","","","","feedback_test","","","","","","","","","",""
"788","","f","psychophysics","169","354938","0.0-7.0-0.0-4.0-0.0-0.31","3","3","3","3","3","3","4","3","3","3","4","3","2","4","3","4","3","2","4","4","3","4","4","3","3","4","2","2","1","1","0","0","1","0","0","1","1","0","1","1","0","1","0","1","3","4","3","2","2","3","2","2","2","3","766337469301133313","祁","272","","","","match","","","","","","","","","","","","","","key","f","16.66699999999991","640","356","f","true","match","img/diamond.png","菱形","菱形","ALT1","formal_ALT1_1","","","","","","","","","",""
"null","<span style='color:GreenYellow; font-size: 70px;'>正确! </span>","null","html-keyboard-response","170","355439","0.0-7.0-0.0-4.0-0.0-1.31","3","3","3","3","3","3","4","3","3","3","4","3","2","4","3","4","3","2","4","4","3","4","4","3","3","4","2","2","1","1","0","0","1","0","0","1","1","0","1","1","0","1","0","1","3","4","3","2","2","3","2","2","2","3","766337469301133313","祁","272","","","","","","","","","","","","","","","","","","","","","","","","","","","","","","feedback_test","","","","","","","","","",""
"732","","j","psychophysics","171","357173","0.0-7.0-0.0-4.0-0.0-0.32","3","3","3","3","3","3","4","3","3","3","4","3","2","4","3","4","3","2","4","4","3","4","4","3","3","4","2","2","1","1","0","0","1","0","0","1","1","0","1","1","0","1","0","1","3","4","3","2","2","3","2","2","2","3","766337469301133313","祁","272","","","","nonmatch","","","","","","","","","","","","","","key","j","16.66928155339793","640","356","j","true","nonmatch","img/hexagon.png","梯形","六边","ALT1","formal_ALT1_1","","","","","","","","","",""
"null","<span style='color:GreenYellow; font-size: 70px;'>正确! </span>","null","html-keyboard-response","172","357674","0.0-7.0-0.0-4.0-0.0-1.32","3","3","3","3","3","3","4","3","3","3","4","3","2","4","3","4","3","2","4","4","3","4","4","3","3","4","2","2","1","1","0","0","1","0","0","1","1","0","1","1","0","1","0","1","3","4","3","2","2","3","2","2","2","3","766337469301133313","祁","272","","","","","","","","","","","","","","","","","","","","","","","","","","","","","","feedback_test","","","","","","","","","",""
"584","","j","psychophysics","173","359260","0.0-7.0-0.0-4.0-0.0-0.33","3","3","3","3","3","3","4","3","3","3","4","3","2","4","3","4","3","2","4","4","3","4","4","3","3","4","2","2","1","1","0","0","1","0","0","1","1","0","1","1","0","1","0","1","3","4","3","2","2","3","2","2","2","3","766337469301133313","祁","272","","","","nonmatch","","","","","","","","","","","","","","key","j","16.668404255319324","640","356","j","true","nonmatch","img/trapezoid.png","圆形","梯形","ALT1","formal_ALT1_1","","","","","","","","","",""
"null","<span style='color:GreenYellow; font-size: 70px;'>正确! </span>","null","html-keyboard-response","174","359761","0.0-7.0-0.0-4.0-0.0-1.33","3","3","3","3","3","3","4","3","3","3","4","3","2","4","3","4","3","2","4","4","3","4","4","3","3","4","2","2","1","1","0","0","1","0","0","1","1","0","1","1","0","1","0","1","3","4","3","2","2","3","2","2","2","3","766337469301133313","祁","272","","","","","","","","","","","","","","","","","","","","","","","","","","","","","","feedback_test","","","","","","","","","",""
"611","","j","psychophysics","175","361374","0.0-7.0-0.0-4.0-0.0-0.34","3","3","3","3","3","3","4","3","3","3","4","3","2","4","3","4","3","2","4","4","3","4","4","3","3","4","2","2","1","1","0","0","1","0","0","1","1","0","1","1","0","1","0","1","3","4","3","2","2","3","2","2","2","3","766337469301133313","祁","272","","","","nonmatch","","","","","","","","","","","","","","key","j","16.664452631579174","640","356","j","true","nonmatch","img/circle.png","六边","圆形","ALT1","formal_ALT1_1","","","","","","","","","",""
"null","<span style='color:GreenYellow; font-size: 70px;'>正确! </span>","null","html-keyboard-response","176","361888","0.0-7.0-0.0-4.0-0.0-1.34","3","3","3","3","3","3","4","3","3","3","4","3","2","4","3","4","3","2","4","4","3","4","4","3","3","4","2","2","1","1","0","0","1","0","0","1","1","0","1","1","0","1","0","1","3","4","3","2","2","3","2","2","2","3","766337469301133313","祁","272","","","","","","","","","","","","","","","","","","","","","","","","","","","","","","feedback_test","","","","","","","","","",""
"623","","f","psychophysics","177","363513","0.0-7.0-0.0-4.0-0.0-0.35","3","3","3","3","3","3","4","3","3","3","4","3","2","4","3","4","3","2","4","4","3","4","4","3","3","4","2","2","1","1","0","0","1","0","0","1","1","0","1","1","0","1","0","1","3","4","3","2","2","3","2","2","2","3","766337469301133313","祁","272","","","","match","","","","","","","","","","","","","","key","f","16.666587628866427","640","356","f","true","match","img/circle.png","圆形","圆形","ALT1","formal_ALT1_1","","","","","","","","","",""
"null","<span style='color:GreenYellow; font-size: 70px;'>正确! </span>","null","html-keyboard-response","178","364014","0.0-7.0-0.0-4.0-0.0-1.35","3","3","3","3","3","3","4","3","3","3","4","3","2","4","3","4","3","2","4","4","3","4","4","3","3","4","2","2","1","1","0","0","1","0","0","1","1","0","1","1","0","1","0","1","3","4","3","2","2","3","2","2","2","3","766337469301133313","祁","272","","","","","","","","","","","","","","","","","","","","","","","","","","","","","","feedback_test","","","","","","","","","",""
"757","","f","psychophysics","179","365773","0.0-7.0-0.0-4.0-0.0-0.36","3","3","3","3","3","3","4","3","3","3","4","3","2","4","3","4","3","2","4","4","3","4","4","3","3","4","2","2","1","1","0","0","1","0","0","1","1","0","1","1","0","1","0","1","3","4","3","2","2","3","2","2","2","3","766337469301133313","祁","272","","","","match","","","","","","","","","","","","","","key","f","16.667057692307235","640","356","f","true","match","img/diamond.png","菱形","菱形","ALT1","formal_ALT1_1","","","","","","","","","",""
"null","<span style='color:GreenYellow; font-size: 70px;'>正确! </span>","null","html-keyboard-response","180","366274","0.0-7.0-0.0-4.0-0.0-1.36","3","3","3","3","3","3","4","3","3","3","4","3","2","4","3","4","3","2","4","4","3","4","4","3","3","4","2","2","1","1","0","0","1","0","0","1","1","0","1","1","0","1","0","1","3","4","3","2","2","3","2","2","2","3","766337469301133313","祁","272","","","","","","","","","","","","","","","","","","","","","","","","","","","","","","feedback_test","","","","","","","","","",""
"604","","f","psychophysics","181","367880","0.0-7.0-0.0-4.0-0.0-0.37","3","3","3","3","3","3","4","3","3","3","4","3","2","4","3","4","3","2","4","4","3","4","4","3","3","4","2","2","1","1","0","0","1","0","0","1","1","0","1","1","0","1","0","1","3","4","3","2","2","3","2","2","2","3","766337469301133313","祁","272","","","","match","","","","","","","","","","","","","","key","f","16.667916666666617","640","356","f","true","match","img/circle.png","圆形","圆形","ALT1","formal_ALT1_1","","","","","","","","","",""
"null","<span style='color:GreenYellow; font-size: 70px;'>正确! </span>","null","html-keyboard-response","182","368381","0.0-7.0-0.0-4.0-0.0-1.37","3","3","3","3","3","3","4","3","3","3","4","3","2","4","3","4","3","2","4","4","3","4","4","3","3","4","2","2","1","1","0","0","1","0","0","1","1","0","1","1","0","1","0","1","3","4","3","2","2","3","2","2","2","3","766337469301133313","祁","272","","","","","","","","","","","","","","","","","","","","","","","","","","","","","","feedback_test","","","","","","","","","",""
"619","","f","psychophysics","183","370002","0.0-7.0-0.0-4.0-0.0-0.38","3","3","3","3","3","3","4","3","3","3","4","3","2","4","3","4","3","2","4","4","3","4","4","3","3","4","2","2","1","1","0","0","1","0","0","1","1","0","1","1","0","1","0","1","3","4","3","2","2","3","2","2","2","3","766337469301133313","祁","272","","","","match","","","","","","","","","","","","","","key","f","16.669343750000433","640","356","f","true","match","img/hexagon.png","六边","六边","ALT1","formal_ALT1_1","","","","","","","","","",""
"null","<span style='color:GreenYellow; font-size: 70px;'>正确! </span>","null","html-keyboard-response","184","370503","0.0-7.0-0.0-4.0-0.0-1.38","3","3","3","3","3","3","4","3","3","3","4","3","2","4","3","4","3","2","4","4","3","4","4","3","3","4","2","2","1","1","0","0","1","0","0","1","1","0","1","1","0","1","0","1","3","4","3","2","2","3","2","2","2","3","766337469301133313","祁","272","","","","","","","","","","","","","","","","","","","","","","","","","","","","","","feedback_test","","","","","","","","","",""
"659","","j","psychophysics","185","372164","0.0-7.0-0.0-4.0-0.0-0.39","3","3","3","3","3","3","4","3","3","3","4","3","2","4","3","4","3","2","4","4","3","4","4","3","3","4","2","2","1","1","0","0","1","0","0","1","1","0","1","1","0","1","0","1","3","4","3","2","2","3","2","2","2","3","766337469301133313","祁","272","","","","nonmatch","","","","","","","","","","","","","","key","j","16.668393939394253","640","356","j","true","nonmatch","img/trapezoid.png","六边","梯形","ALT1","formal_ALT1_1","","","","","","","","","",""
