"rt","stimulus","response","trial_type","trial_index","time_elapsed","internal_node_id","ses_1","ses_2","ses_3","ses_4","ses_5","ses_6","ses_7","ses_8","ses_9","ses_10","coreself_1","coreself_2","coreself_3","coreself_4","coreself_5","coreself_6","coreself_7","coreself_8","coreself_9","coreself_10","SGPS_1","SGPS_2","SGPS_3","SGPS_4","SGPS_5","SGPS_6","SGPS_7","SGPS_8","SGPS_9","NPI1","NPI2","NPI3","NPI4","NPI5","NPI6","NPI7","NPI8","NPI9","NPI10","NPI11","NPI12","NPI13","NPI14","NPI15","hsns_1","hsns_2","hsns_3","hsns_4","hsns_5","hsns_6","hsns_7","hsns_8","hsns_9","hsns_10","subj_idx","friend_name","ParticipantID","value","success","user_agent","responses","item_order","radio_event_ids","radio_event_times","key_event_times","mouse_event_times","straightlining","zigzagging","honeypot","timeout","failed_images","failed_audio","failed_video","version_attrib2","version_target2","correct","IAT","screen_id","task_id","RT","condition","word","varname","summary","version_attrib","version_target","time_stamp","view_history","response_type","key_press","avg_frame_time","center_x","center_y","correct_response","identity","Image","question_order"
"13731","
   <p><div style = ""color: white;font-size:25px;"">您好，欢迎参加本次实验。</div> </p>
   <p><div style = ""color: white;font-size:25px;"">为充分保障您的权利，请确保您已经知晓并同意《参与实验同意书》以及《数据公开知情同意书》。</div></p>
   <p><div style = ""color: white;font-size:25px;"">如果您未见过上述内容，请咨询实验员。</div></p>
   <p><div style = ""color: white;font-size:25px;"">如果您选择继续实验，则表示您已经清楚两份知情同意书的内容并同意。</div></p>
   <p><div style = ""color: red;font-size:30px;"">请确保您记得day0的实验编号，您将在本次实验输入该编号，若您忘记，请咨询实验员后作答。</div></p>
   <p> <div style = ""color: green;font-size:25px;""><按空格键至下页></div> </p>
   "," ","html-keyboard-response","0","13734","0.0-0.0","3","3","4","3","4","4","4","4","4","4","5","4","5","4","4","4","4","3","4","5","1","1","2","1","3","3","1","1","1","1","0","1","1","0","0","0","1","0","1","1","0","1","0","1","4","1","1","1","2","3","3","1","2","1","758958446577192962","练","446","","","","","","","","","","","","","","","","","","","","","","","","","","","","","","","","","","","","","","","",""
"","","","call-function","1","13737","0.0-1.0-0.0","3","3","4","3","4","4","4","4","4","4","5","4","5","4","4","4","4","3","4","5","1","1","2","1","3","3","1","1","1","1","0","1","1","0","0","0","1","0","1","1","0","1","0","1","4","1","1","1","2","3","3","1","2","1","758958446577192962","练","446","","","","","","","","","","","","","","","","","","","","","","","","","","","","","","","","","","","","","","","",""
"13615","","{""friend_name"":""练"",""ParticipantID"":""446""}","survey-html-form","2","27354","0.0-1.0-1.0","3","3","4","3","4","4","4","4","4","4","5","4","5","4","4","4","4","3","4","5","1","1","2","1","3","3","1","1","1","1","0","1","1","0","0","0","1","0","1","1","0","1","0","1","4","1","1","1","2","3","3","1","2","1","758958446577192962","练","446","","","","","","","","","","","","","","","","","","","","","","","","","","","","","","","","","","","","","","","",""
"","","","fullscreen","3","35334","0.0-2.0","3","3","4","3","4","4","4","4","4","4","5","4","5","4","4","4","4","3","4","5","1","1","2","1","3","3","1","1","1","1","0","1","1","0","0","0","1","0","1","1","0","1","0","1","4","1","1","1","2","3","3","1","2","1","758958446577192962","练","446","","true","{}","","","","","","","","","","","","","","","","","","","","","","","","","","","","","","","","","","","","",""
"30997.800000071526","","{""Q01"":""3"",""Q02"":""3"",""Q03"":""4"",""Q04"":""3"",""Q05"":""4"",""Q06"":""4"",""Q07"":""4"",""Q08"":""4"",""Q09"":""4"",""Q10"":""4""}","survey-template","4","66335","0.0-3.0","3","3","4","3","4","4","4","4","4","4","5","4","5","4","4","4","4","3","4","5","1","1","2","1","3","3","1","1","1","1","0","1","1","0","0","0","1","0","1","1","0","1","0","1","4","1","1","1","2","3","3","1","2","1","758958446577192962","练","446","","","","{""Q01"":""3"",""Q02"":""3"",""Q03"":""4"",""Q04"":""3"",""Q05"":""4"",""Q06"":""4"",""Q07"":""4"",""Q08"":""4"",""Q09"":""4"",""Q10"":""4""}","[0,1,2,3,4,5,6,7,8,9]","[""Q01"",""Q02"",""Q03"",""Q04"",""Q05"",""Q06"",""Q07"",""Q08"",""Q09"",""Q10""]","[5005,7580.700000047684,9974.600000023842,12552.399999976158,18112.300000071526,20573.100000023842,23750.5,26869.200000047684,28197.399999976158,29252.899999976158]","[]","[5005,7580.700000047684,9974.600000023842,12552.399999976158,16829.600000023842,18112.300000071526,20573.100000023842,22685.600000023842,23750.5,26869.200000047684,28197.399999976158,29252.899999976158,30996.700000047684]","0.5","0.2222222222222222","0","","","","","","","","","","","","","","","","","","","","","","","","","","","",""
"24370.899999976158","","{""Q01"":""5"",""Q02"":""4"",""Q03"":""5"",""Q04"":""4"",""Q05"":""4"",""Q06"":""4"",""Q07"":""4"",""Q08"":""3"",""Q09"":""4"",""Q10"":""5""}","survey-template","5","90713","0.0-4.0","3","3","4","3","4","4","4","4","4","4","5","4","5","4","4","4","4","3","4","5","1","1","2","1","3","3","1","1","1","1","0","1","1","0","0","0","1","0","1","1","0","1","0","1","4","1","1","1","2","3","3","1","2","1","758958446577192962","练","446","","","","{""Q01"":""5"",""Q02"":""4"",""Q03"":""5"",""Q04"":""4"",""Q05"":""4"",""Q06"":""4"",""Q07"":""4"",""Q08"":""3"",""Q09"":""4"",""Q10"":""5""}","[0,1,2,3,4,5,6,7,8,9]","[""Q01"",""Q02"",""Q03"",""Q04"",""Q05"",""Q06"",""Q07"",""Q08"",""Q09"",""Q10""]","[3648.3000000715256,5056.600000023842,6360.5,8840.100000023842,10783.800000071526,13096.200000047684,15112.200000047684,18264.399999976158,20807.800000071526,22143.899999976158]","[]","[3648.3000000715256,5056.600000023842,6360.5,8840.100000023842,10783.800000071526,13096.200000047684,15112.200000047684,18264.399999976158,20807.800000071526,22143.899999976158,24369.899999976158]","0.3","0.3333333333333333","0","","","","","","","","","","","","","","","","","","","","","","","","","","","",""
"","","","preload","6","90972","0.0-5.0","3","3","4","3","4","4","4","4","4","4","5","4","5","4","4","4","4","3","4","5","1","1","2","1","3","3","1","1","1","1","0","1","1","0","0","0","1","0","1","1","0","1","0","1","4","1","1","1","2","3","3","1","2","1","758958446577192962","练","446","","true","","","","","","","","","","","false","[]","[]","[]","","","","","","","","","","","","","","","","","","","","","","","",""
"16344","
    <h3>词语分类任务</h3>
    <p>在接下来的任务中，你需要对一系列词语进行分类。<p/>
    请先熟悉这些词语，这有利于你完成接下来的任务。</p>
    <table align=""center"" border=1 cellpadding=3 cellspacing=0>
    <tr> <th>类别</th> <th>词语</th> </tr>
    <tr> <td>&emsp;积极&emsp;</td> <td>&emsp;高尚、诚信、善良、君子、廉正、正直&emsp;</td> </tr>
    <tr> <td>&emsp;消极&emsp;</td> <td>&emsp;缺德、卑鄙、不孝、不仁、小人、黑心&emsp;</td> </tr>
    <tr> <td>&emsp;自我&emsp;</td> <td>&emsp;我、我的、自己、自己的、本人、本人的&emsp;</td> </tr>
    <tr> <td>&emsp;他人&emsp;</td> <td>&emsp;他、他的、别人、别人的、他人、他人的&emsp;</td> </tr>
    </table><br/>","0","html-button-response","7","107318","0.0-6.0-1.0-0.0","3","3","4","3","4","4","4","4","4","4","5","4","5","4","4","4","4","3","4","5","1","1","2","1","3","3","1","1","1","1","0","1","1","0","0","0","1","0","1","1","0","1","0","1","4","1","1","1","2","3","3","1","2","1","758958446577192962","练","446","","","","","","","","","","","","","","","","","1","1","","","","","","","","","","","","","","","","","","","","","",""
"11151","
    <div class=""tag-bottom""><p>
    —— 任务1：对“自我”词和“他人”词分类 ——<p/>
    不同词语会出现在屏幕中央，类别标签将始终显示在屏幕上方<p/>   
    <span style=""color:#FFD866""><b>请根据上方标签的提示，尽可能正确并且快速地做出按键反应</b></span><p/>
    当按键错误时屏幕中会出现<span style=""color:red""> X </span>，需要按另一个键纠正才能继续<br/><p/>
    请把双手食指分别放在键盘的“E”键和“I”键上<p/>
    按<空格键>开始
    </p></div>"," ","html-keyboard-response","8","118473","0.0-6.0-1.0-1.0","3","3","4","3","4","4","4","4","4","4","5","4","5","4","4","4","4","3","4","5","1","1","2","1","3","3","1","1","1","1","0","1","1","0","0","0","1","0","1","1","0","1","0","1","4","1","1","1","2","3","3","1","2","1","758958446577192962","练","446","","","","","","","","","","","","","","","","","","","","","","","","","","","","","","","","","","","","","","","",""
"null","","null","html-keyboard-response","9","118725","0.0-6.0-1.0-2.0-0.0","3","3","4","3","4","4","4","4","4","4","5","4","5","4","4","4","4","3","4","5","1","1","2","1","3","3","1","1","1","1","0","1","1","0","0","0","1","0","1","1","0","1","0","1","4","1","1","1","2","3","3","1","2","1","758958446577192962","练","446","","","","","","","","","","","","","","","","","","","","","","","","","","","","","","","","","","","","","","","",""
"2103","<p style=""color:rgb(150, 250, 100); font-size: 35px;"">别人的</p>","i","categorize-html","10","120831","0.0-6.0-1.0-2.0-1.0","3","3","4","3","4","4","4","4","4","4","5","4","5","4","4","4","4","3","4","5","1","1","2","1","3","3","1","1","1","1","0","1","1","0","0","0","1","0","1","1","0","1","0","1","4","1","1","1","2","3","3","1","2","1","758958446577192962","练","446","","","","","","","","","","","","","","","","","","","true","11","1","moral","2103","other","别人的","","","","","","","","","","","","","","",""
"null","","null","html-keyboard-response","11","121083","0.0-6.0-1.0-2.0-0.1","3","3","4","3","4","4","4","4","4","4","5","4","5","4","4","4","4","3","4","5","1","1","2","1","3","3","1","1","1","1","0","1","1","0","0","0","1","0","1","1","0","1","0","1","4","1","1","1","2","3","3","1","2","1","758958446577192962","练","446","","","","","","","","","","","","","","","","","","","","","","","","","","","","","","","","","","","","","","","",""
"723","<p style=""color:rgb(150, 250, 100); font-size: 35px;"">自己</p>","e","categorize-html","12","121809","0.0-6.0-1.0-2.0-1.1","3","3","4","3","4","4","4","4","4","4","5","4","5","4","4","4","4","3","4","5","1","1","2","1","3","3","1","1","1","1","0","1","1","0","0","0","1","0","1","1","0","1","0","1","4","1","1","1","2","3","3","1","2","1","758958446577192962","练","446","","","","","","","","","","","","","","","","","","","true","11","1","moral","723","self","自己","","","","","","","","","","","","","","",""
"null","","null","html-keyboard-response","13","122061","0.0-6.0-1.0-2.0-0.2","3","3","4","3","4","4","4","4","4","4","5","4","5","4","4","4","4","3","4","5","1","1","2","1","3","3","1","1","1","1","0","1","1","0","0","0","1","0","1","1","0","1","0","1","4","1","1","1","2","3","3","1","2","1","758958446577192962","练","446","","","","","","","","","","","","","","","","","","","","","","","","","","","","","","","","","","","","","","","",""
"640","<p style=""color:rgb(150, 250, 100); font-size: 35px;"">自己的</p>","e","categorize-html","14","122704","0.0-6.0-1.0-2.0-1.2","3","3","4","3","4","4","4","4","4","4","5","4","5","4","4","4","4","3","4","5","1","1","2","1","3","3","1","1","1","1","0","1","1","0","0","0","1","0","1","1","0","1","0","1","4","1","1","1","2","3","3","1","2","1","758958446577192962","练","446","","","","","","","","","","","","","","","","","","","true","11","1","moral","640","self","自己的","","","","","","","","","","","","","","",""
"null","","null","html-keyboard-response","15","122956","0.0-6.0-1.0-2.0-0.3","3","3","4","3","4","4","4","4","4","4","5","4","5","4","4","4","4","3","4","5","1","1","2","1","3","3","1","1","1","1","0","1","1","0","0","0","1","0","1","1","0","1","0","1","4","1","1","1","2","3","3","1","2","1","758958446577192962","练","446","","","","","","","","","","","","","","","","","","","","","","","","","","","","","","","","","","","","","","","",""
"779","<p style=""color:rgb(150, 250, 100); font-size: 35px;"">本人</p>","e","categorize-html","16","123737","0.0-6.0-1.0-2.0-1.3","3","3","4","3","4","4","4","4","4","4","5","4","5","4","4","4","4","3","4","5","1","1","2","1","3","3","1","1","1","1","0","1","1","0","0","0","1","0","1","1","0","1","0","1","4","1","1","1","2","3","3","1","2","1","758958446577192962","练","446","","","","","","","","","","","","","","","","","","","true","11","1","moral","779","self","本人","","","","","","","","","","","","","","",""
"null","","null","html-keyboard-response","17","123989","0.0-6.0-1.0-2.0-0.4","3","3","4","3","4","4","4","4","4","4","5","4","5","4","4","4","4","3","4","5","1","1","2","1","3","3","1","1","1","1","0","1","1","0","0","0","1","0","1","1","0","1","0","1","4","1","1","1","2","3","3","1","2","1","758958446577192962","练","446","","","","","","","","","","","","","","","","","","","","","","","","","","","","","","","","","","","","","","","",""
"736","<p style=""color:rgb(150, 250, 100); font-size: 35px;"">他人的</p>","i","categorize-html","18","124729","0.0-6.0-1.0-2.0-1.4","3","3","4","3","4","4","4","4","4","4","5","4","5","4","4","4","4","3","4","5","1","1","2","1","3","3","1","1","1","1","0","1","1","0","0","0","1","0","1","1","0","1","0","1","4","1","1","1","2","3","3","1","2","1","758958446577192962","练","446","","","","","","","","","","","","","","","","","","","true","11","1","moral","736","other","他人的","","","","","","","","","","","","","","",""
"null","","null","html-keyboard-response","19","124981","0.0-6.0-1.0-2.0-0.5","3","3","4","3","4","4","4","4","4","4","5","4","5","4","4","4","4","3","4","5","1","1","2","1","3","3","1","1","1","1","0","1","1","0","0","0","1","0","1","1","0","1","0","1","4","1","1","1","2","3","3","1","2","1","758958446577192962","练","446","","","","","","","","","","","","","","","","","","","","","","","","","","","","","","","","","","","","","","","",""
"527","<p style=""color:rgb(150, 250, 100); font-size: 35px;"">他人</p>","i","categorize-html","20","125511","0.0-6.0-1.0-2.0-1.5","3","3","4","3","4","4","4","4","4","4","5","4","5","4","4","4","4","3","4","5","1","1","2","1","3","3","1","1","1","1","0","1","1","0","0","0","1","0","1","1","0","1","0","1","4","1","1","1","2","3","3","1","2","1","758958446577192962","练","446","","","","","","","","","","","","","","","","","","","true","11","1","moral","527","other","他人","","","","","","","","","","","","","","",""
"null","","null","html-keyboard-response","21","125762","0.0-6.0-1.0-2.0-0.6","3","3","4","3","4","4","4","4","4","4","5","4","5","4","4","4","4","3","4","5","1","1","2","1","3","3","1","1","1","1","0","1","1","0","0","0","1","0","1","1","0","1","0","1","4","1","1","1","2","3","3","1","2","1","758958446577192962","练","446","","","","","","","","","","","","","","","","","","","","","","","","","","","","","","","","","","","","","","","",""
"572","<p style=""color:rgb(150, 250, 100); font-size: 35px;"">他</p>","i","categorize-html","22","126337","0.0-6.0-1.0-2.0-1.6","3","3","4","3","4","4","4","4","4","4","5","4","5","4","4","4","4","3","4","5","1","1","2","1","3","3","1","1","1","1","0","1","1","0","0","0","1","0","1","1","0","1","0","1","4","1","1","1","2","3","3","1","2","1","758958446577192962","练","446","","","","","","","","","","","","","","","","","","","true","11","1","moral","572","other","他","","","","","","","","","","","","","","",""
"null","","null","html-keyboard-response","23","126596","0.0-6.0-1.0-2.0-0.7","3","3","4","3","4","4","4","4","4","4","5","4","5","4","4","4","4","3","4","5","1","1","2","1","3","3","1","1","1","1","0","1","1","0","0","0","1","0","1","1","0","1","0","1","4","1","1","1","2","3","3","1","2","1","758958446577192962","练","446","","","","","","","","","","","","","","","","","","","","","","","","","","","","","","","","","","","","","","","",""
"564","<p style=""color:rgb(150, 250, 100); font-size: 35px;"">我的</p>","e","categorize-html","24","127163","0.0-6.0-1.0-2.0-1.7","3","3","4","3","4","4","4","4","4","4","5","4","5","4","4","4","4","3","4","5","1","1","2","1","3","3","1","1","1","1","0","1","1","0","0","0","1","0","1","1","0","1","0","1","4","1","1","1","2","3","3","1","2","1","758958446577192962","练","446","","","","","","","","","","","","","","","","","","","true","11","1","moral","564","self","我的","","","","","","","","","","","","","","",""
"null","","null","html-keyboard-response","25","127415","0.0-6.0-1.0-2.0-0.8","3","3","4","3","4","4","4","4","4","4","5","4","5","4","4","4","4","3","4","5","1","1","2","1","3","3","1","1","1","1","0","1","1","0","0","0","1","0","1","1","0","1","0","1","4","1","1","1","2","3","3","1","2","1","758958446577192962","练","446","","","","","","","","","","","","","","","","","","","","","","","","","","","","","","","","","","","","","","","",""
"654","<p style=""color:rgb(150, 250, 100); font-size: 35px;"">别人</p>","i","categorize-html","26","128072","0.0-6.0-1.0-2.0-1.8","3","3","4","3","4","4","4","4","4","4","5","4","5","4","4","4","4","3","4","5","1","1","2","1","3","3","1","1","1","1","0","1","1","0","0","0","1","0","1","1","0","1","0","1","4","1","1","1","2","3","3","1","2","1","758958446577192962","练","446","","","","","","","","","","","","","","","","","","","true","11","1","moral","654","other","别人","","","","","","","","","","","","","","",""
"null","","null","html-keyboard-response","27","128324","0.0-6.0-1.0-2.0-0.9","3","3","4","3","4","4","4","4","4","4","5","4","5","4","4","4","4","3","4","5","1","1","2","1","3","3","1","1","1","1","0","1","1","0","0","0","1","0","1","1","0","1","0","1","4","1","1","1","2","3","3","1","2","1","758958446577192962","练","446","","","","","","","","","","","","","","","","","","","","","","","","","","","","","","","","","","","","","","","",""
"729","<p style=""color:rgb(150, 250, 100); font-size: 35px;"">本人的</p>","e","categorize-html","28","129054","0.0-6.0-1.0-2.0-1.9","3","3","4","3","4","4","4","4","4","4","5","4","5","4","4","4","4","3","4","5","1","1","2","1","3","3","1","1","1","1","0","1","1","0","0","0","1","0","1","1","0","1","0","1","4","1","1","1","2","3","3","1","2","1","758958446577192962","练","446","","","","","","","","","","","","","","","","","","","true","11","1","moral","729","self","本人的","","","","","","","","","","","","","","",""
"null","","null","html-keyboard-response","29","129306","0.0-6.0-1.0-2.0-0.10","3","3","4","3","4","4","4","4","4","4","5","4","5","4","4","4","4","3","4","5","1","1","2","1","3","3","1","1","1","1","0","1","1","0","0","0","1","0","1","1","0","1","0","1","4","1","1","1","2","3","3","1","2","1","758958446577192962","练","446","","","","","","","","","","","","","","","","","","","","","","","","","","","","","","","","","","","","","","","",""
"611","<p style=""color:rgb(150, 250, 100); font-size: 35px;"">他的</p>","i","categorize-html","30","129919","0.0-6.0-1.0-2.0-1.10","3","3","4","3","4","4","4","4","4","4","5","4","5","4","4","4","4","3","4","5","1","1","2","1","3","3","1","1","1","1","0","1","1","0","0","0","1","0","1","1","0","1","0","1","4","1","1","1","2","3","3","1","2","1","758958446577192962","练","446","","","","","","","","","","","","","","","","","","","true","11","1","moral","611","other","他的","","","","","","","","","","","","","","",""
"null","","null","html-keyboard-response","31","130171","0.0-6.0-1.0-2.0-0.11","3","3","4","3","4","4","4","4","4","4","5","4","5","4","4","4","4","3","4","5","1","1","2","1","3","3","1","1","1","1","0","1","1","0","0","0","1","0","1","1","0","1","0","1","4","1","1","1","2","3","3","1","2","1","758958446577192962","练","446","","","","","","","","","","","","","","","","","","","","","","","","","","","","","","","","","","","","","","","",""
"634","<p style=""color:rgb(150, 250, 100); font-size: 35px;"">我</p>","e","categorize-html","32","130808","0.0-6.0-1.0-2.0-1.11","3","3","4","3","4","4","4","4","4","4","5","4","5","4","4","4","4","3","4","5","1","1","2","1","3","3","1","1","1","1","0","1","1","0","0","0","1","0","1","1","0","1","0","1","4","1","1","1","2","3","3","1","2","1","758958446577192962","练","446","","","","","","","","","","","","","","","","","","","true","11","1","moral","634","self","我","","","","","","","","","","","","","","",""
"8485","
    <div class=""tag-bottom""><p>
    —— 任务2：对“积极”词和“消极”词分类 ——<p/>   
    <span style=""color:#78DCE8""><b>注意上方，类别标签和需要分类的词语都已经改变</b></span><p/>
    <span style=""color:#FFD866""><b>请根据上方标签的提示，尽可能正确并且快速地做出按键反应</b></span><p/>
    当按键错误时屏幕中会出现<span style=""color:red""> X </span>，需要按另一个键纠正才能继续<br/><p/>
    请把双手食指分别放在键盘的“E”键和“I”键上<p/>
    按<空格键>开始
    </p></div>"," ","html-keyboard-response","33","139295","0.0-6.0-1.0-3.0","3","3","4","3","4","4","4","4","4","4","5","4","5","4","4","4","4","3","4","5","1","1","2","1","3","3","1","1","1","1","0","1","1","0","0","0","1","0","1","1","0","1","0","1","4","1","1","1","2","3","3","1","2","1","758958446577192962","练","446","","","","","","","","","","","","","","","","","","","","","","","","","","","","","","","","","","","","","","","",""
"null","","null","html-keyboard-response","34","139547","0.0-6.0-1.0-4.0-0.0","3","3","4","3","4","4","4","4","4","4","5","4","5","4","4","4","4","3","4","5","1","1","2","1","3","3","1","1","1","1","0","1","1","0","0","0","1","0","1","1","0","1","0","1","4","1","1","1","2","3","3","1","2","1","758958446577192962","练","446","","","","","","","","","","","","","","","","","","","","","","","","","","","","","","","","","","","","","","","",""
"822","<p style=""color:white; font-size: 35px;"">不孝</p>","i","categorize-html","35","140376","0.0-6.0-1.0-4.0-1.0","3","3","4","3","4","4","4","4","4","4","5","4","5","4","4","4","4","3","4","5","1","1","2","1","3","3","1","1","1","1","0","1","1","0","0","0","1","0","1","1","0","1","0","1","4","1","1","1","2","3","3","1","2","1","758958446577192962","练","446","","","","","","","","","","","","","","","","","","","true","12","2","moral","822","negative","不孝","","","","","","","","","","","","","","",""
"null","","null","html-keyboard-response","36","140628","0.0-6.0-1.0-4.0-0.1","3","3","4","3","4","4","4","4","4","4","5","4","5","4","4","4","4","3","4","5","1","1","2","1","3","3","1","1","1","1","0","1","1","0","0","0","1","0","1","1","0","1","0","1","4","1","1","1","2","3","3","1","2","1","758958446577192962","练","446","","","","","","","","","","","","","","","","","","","","","","","","","","","","","","","","","","","","","","","",""
"622","<p style=""color:white; font-size: 35px;"">诚信</p>","e","categorize-html","37","141253","0.0-6.0-1.0-4.0-1.1","3","3","4","3","4","4","4","4","4","4","5","4","5","4","4","4","4","3","4","5","1","1","2","1","3","3","1","1","1","1","0","1","1","0","0","0","1","0","1","1","0","1","0","1","4","1","1","1","2","3","3","1","2","1","758958446577192962","练","446","","","","","","","","","","","","","","","","","","","true","12","2","moral","622","positive","诚信","","","","","","","","","","","","","","",""
"null","","null","html-keyboard-response","38","141504","0.0-6.0-1.0-4.0-0.2","3","3","4","3","4","4","4","4","4","4","5","4","5","4","4","4","4","3","4","5","1","1","2","1","3","3","1","1","1","1","0","1","1","0","0","0","1","0","1","1","0","1","0","1","4","1","1","1","2","3","3","1","2","1","758958446577192962","练","446","","","","","","","","","","","","","","","","","","","","","","","","","","","","","","","","","","","","","","","",""
"615","<p style=""color:white; font-size: 35px;"">卑鄙</p>","i","categorize-html","39","142121","0.0-6.0-1.0-4.0-1.2","3","3","4","3","4","4","4","4","4","4","5","4","5","4","4","4","4","3","4","5","1","1","2","1","3","3","1","1","1","1","0","1","1","0","0","0","1","0","1","1","0","1","0","1","4","1","1","1","2","3","3","1","2","1","758958446577192962","练","446","","","","","","","","","","","","","","","","","","","true","12","2","moral","615","negative","卑鄙","","","","","","","","","","","","","","",""
"null","","null","html-keyboard-response","40","142373","0.0-6.0-1.0-4.0-0.3","3","3","4","3","4","4","4","4","4","4","5","4","5","4","4","4","4","3","4","5","1","1","2","1","3","3","1","1","1","1","0","1","1","0","0","0","1","0","1","1","0","1","0","1","4","1","1","1","2","3","3","1","2","1","758958446577192962","练","446","","","","","","","","","","","","","","","","","","","","","","","","","","","","","","","","","","","","","","","",""
"808","<p style=""color:white; font-size: 35px;"">善良</p>","e","categorize-html","41","143183","0.0-6.0-1.0-4.0-1.3","3","3","4","3","4","4","4","4","4","4","5","4","5","4","4","4","4","3","4","5","1","1","2","1","3","3","1","1","1","1","0","1","1","0","0","0","1","0","1","1","0","1","0","1","4","1","1","1","2","3","3","1","2","1","758958446577192962","练","446","","","","","","","","","","","","","","","","","","","true","12","2","moral","808","positive","善良","","","","","","","","","","","","","","",""
"null","","null","html-keyboard-response","42","143435","0.0-6.0-1.0-4.0-0.4","3","3","4","3","4","4","4","4","4","4","5","4","5","4","4","4","4","3","4","5","1","1","2","1","3","3","1","1","1","1","0","1","1","0","0","0","1","0","1","1","0","1","0","1","4","1","1","1","2","3","3","1","2","1","758958446577192962","练","446","","","","","","","","","","","","","","","","","","","","","","","","","","","","","","","","","","","","","","","",""
"650","<p style=""color:white; font-size: 35px;"">黑心</p>","i","categorize-html","43","144086","0.0-6.0-1.0-4.0-1.4","3","3","4","3","4","4","4","4","4","4","5","4","5","4","4","4","4","3","4","5","1","1","2","1","3","3","1","1","1","1","0","1","1","0","0","0","1","0","1","1","0","1","0","1","4","1","1","1","2","3","3","1","2","1","758958446577192962","练","446","","","","","","","","","","","","","","","","","","","true","12","2","moral","650","negative","黑心","","","","","","","","","","","","","","",""
"null","","null","html-keyboard-response","44","144337","0.0-6.0-1.0-4.0-0.5","3","3","4","3","4","4","4","4","4","4","5","4","5","4","4","4","4","3","4","5","1","1","2","1","3","3","1","1","1","1","0","1","1","0","0","0","1","0","1","1","0","1","0","1","4","1","1","1","2","3","3","1","2","1","758958446577192962","练","446","","","","","","","","","","","","","","","","","","","","","","","","","","","","","","","","","","","","","","","",""
"668","<p style=""color:white; font-size: 35px;"">不仁</p>","i","categorize-html","45","145008","0.0-6.0-1.0-4.0-1.5","3","3","4","3","4","4","4","4","4","4","5","4","5","4","4","4","4","3","4","5","1","1","2","1","3","3","1","1","1","1","0","1","1","0","0","0","1","0","1","1","0","1","0","1","4","1","1","1","2","3","3","1","2","1","758958446577192962","练","446","","","","","","","","","","","","","","","","","","","true","12","2","moral","668","negative","不仁","","","","","","","","","","","","","","",""
"null","","null","html-keyboard-response","46","145263","0.0-6.0-1.0-4.0-0.6","3","3","4","3","4","4","4","4","4","4","5","4","5","4","4","4","4","3","4","5","1","1","2","1","3","3","1","1","1","1","0","1","1","0","0","0","1","0","1","1","0","1","0","1","4","1","1","1","2","3","3","1","2","1","758958446577192962","练","446","","","","","","","","","","","","","","","","","","","","","","","","","","","","","","","","","","","","","","","",""
"638","<p style=""color:white; font-size: 35px;"">小人</p>","i","categorize-html","47","145903","0.0-6.0-1.0-4.0-1.6","3","3","4","3","4","4","4","4","4","4","5","4","5","4","4","4","4","3","4","5","1","1","2","1","3","3","1","1","1","1","0","1","1","0","0","0","1","0","1","1","0","1","0","1","4","1","1","1","2","3","3","1","2","1","758958446577192962","练","446","","","","","","","","","","","","","","","","","","","true","12","2","moral","638","negative","小人","","","","","","","","","","","","","","",""
"null","","null","html-keyboard-response","48","146155","0.0-6.0-1.0-4.0-0.7","3","3","4","3","4","4","4","4","4","4","5","4","5","4","4","4","4","3","4","5","1","1","2","1","3","3","1","1","1","1","0","1","1","0","0","0","1","0","1","1","0","1","0","1","4","1","1","1","2","3","3","1","2","1","758958446577192962","练","446","","","","","","","","","","","","","","","","","","","","","","","","","","","","","","","","","","","","","","","",""
"1009","<p style=""color:white; font-size: 35px;"">君子</p>","e","categorize-html","49","147168","0.0-6.0-1.0-4.0-1.7","3","3","4","3","4","4","4","4","4","4","5","4","5","4","4","4","4","3","4","5","1","1","2","1","3","3","1","1","1","1","0","1","1","0","0","0","1","0","1","1","0","1","0","1","4","1","1","1","2","3","3","1","2","1","758958446577192962","练","446","","","","","","","","","","","","","","","","","","","true","12","2","moral","1009","positive","君子","","","","","","","","","","","","","","",""
"null","","null","html-keyboard-response","50","147419","0.0-6.0-1.0-4.0-0.8","3","3","4","3","4","4","4","4","4","4","5","4","5","4","4","4","4","3","4","5","1","1","2","1","3","3","1","1","1","1","0","1","1","0","0","0","1","0","1","1","0","1","0","1","4","1","1","1","2","3","3","1","2","1","758958446577192962","练","446","","","","","","","","","","","","","","","","","","","","","","","","","","","","","","","","","","","","","","","",""
"842","<p style=""color:white; font-size: 35px;"">高尚</p>","e","categorize-html","51","148262","0.0-6.0-1.0-4.0-1.8","3","3","4","3","4","4","4","4","4","4","5","4","5","4","4","4","4","3","4","5","1","1","2","1","3","3","1","1","1","1","0","1","1","0","0","0","1","0","1","1","0","1","0","1","4","1","1","1","2","3","3","1","2","1","758958446577192962","练","446","","","","","","","","","","","","","","","","","","","true","12","2","moral","842","positive","高尚","","","","","","","","","","","","","","",""
"null","","null","html-keyboard-response","52","148516","0.0-6.0-1.0-4.0-0.9","3","3","4","3","4","4","4","4","4","4","5","4","5","4","4","4","4","3","4","5","1","1","2","1","3","3","1","1","1","1","0","1","1","0","0","0","1","0","1","1","0","1","0","1","4","1","1","1","2","3","3","1","2","1","758958446577192962","练","446","","","","","","","","","","","","","","","","","","","","","","","","","","","","","","","","","","","","","","","",""
"576","<p style=""color:white; font-size: 35px;"">正直</p>","e","categorize-html","53","149094","0.0-6.0-1.0-4.0-1.9","3","3","4","3","4","4","4","4","4","4","5","4","5","4","4","4","4","3","4","5","1","1","2","1","3","3","1","1","1","1","0","1","1","0","0","0","1","0","1","1","0","1","0","1","4","1","1","1","2","3","3","1","2","1","758958446577192962","练","446","","","","","","","","","","","","","","","","","","","true","12","2","moral","576","positive","正直","","","","","","","","","","","","","","",""
"null","","null","html-keyboard-response","54","149348","0.0-6.0-1.0-4.0-0.10","3","3","4","3","4","4","4","4","4","4","5","4","5","4","4","4","4","3","4","5","1","1","2","1","3","3","1","1","1","1","0","1","1","0","0","0","1","0","1","1","0","1","0","1","4","1","1","1","2","3","3","1","2","1","758958446577192962","练","446","","","","","","","","","","","","","","","","","","","","","","","","","","","","","","","","","","","","","","","",""
"612","<p style=""color:white; font-size: 35px;"">缺德</p>","i","categorize-html","55","149961","0.0-6.0-1.0-4.0-1.10","3","3","4","3","4","4","4","4","4","4","5","4","5","4","4","4","4","3","4","5","1","1","2","1","3","3","1","1","1","1","0","1","1","0","0","0","1","0","1","1","0","1","0","1","4","1","1","1","2","3","3","1","2","1","758958446577192962","练","446","","","","","","","","","","","","","","","","","","","true","12","2","moral","612","negative","缺德","","","","","","","","","","","","","","",""
"null","","null","html-keyboard-response","56","150213","0.0-6.0-1.0-4.0-0.11","3","3","4","3","4","4","4","4","4","4","5","4","5","4","4","4","4","3","4","5","1","1","2","1","3","3","1","1","1","1","0","1","1","0","0","0","1","0","1","1","0","1","0","1","4","1","1","1","2","3","3","1","2","1","758958446577192962","练","446","","","","","","","","","","","","","","","","","","","","","","","","","","","","","","","","","","","","","","","",""
"759","<p style=""color:white; font-size: 35px;"">廉正</p>","e","categorize-html","57","150975","0.0-6.0-1.0-4.0-1.11","3","3","4","3","4","4","4","4","4","4","5","4","5","4","4","4","4","3","4","5","1","1","2","1","3","3","1","1","1","1","0","1","1","0","0","0","1","0","1","1","0","1","0","1","4","1","1","1","2","3","3","1","2","1","758958446577192962","练","446","","","","","","","","","","","","","","","","","","","true","12","2","moral","759","positive","廉正","","","","","","","","","","","","","","",""
"7125","
    <div class=""tag-bottom""><p>
    —— 任务3：对“自我/积极”词和“他人/消极”词分类 ——<p/>
    <span style=""color:#78DCE8""><b>注意上方，之前的四类词语将混合在一起交替呈现</b></span><p/>
    <span style=""color:#FFD866""><b>请根据上方标签的提示，尽可能正确并且快速地做出按键反应</b></span><p/>
    当按键错误时屏幕中会出现<span style=""color:red""> X </span>，需要按另一个键纠正才能继续<br/><p/>
    请把双手食指分别放在键盘的“E”键和“I”键上<p/>
    按<空格键>开始
    </p></div>"," ","html-keyboard-response","58","158101","0.0-6.0-1.0-5.0","3","3","4","3","4","4","4","4","4","4","5","4","5","4","4","4","4","3","4","5","1","1","2","1","3","3","1","1","1","1","0","1","1","0","0","0","1","0","1","1","0","1","0","1","4","1","1","1","2","3","3","1","2","1","758958446577192962","练","446","","","","","","","","","","","","","","","","","","","","","","","","","","","","","","","","","","","","","","","",""
"null","","null","html-keyboard-response","59","158352","0.0-6.0-1.0-6.0-0.0","3","3","4","3","4","4","4","4","4","4","5","4","5","4","4","4","4","3","4","5","1","1","2","1","3","3","1","1","1","1","0","1","1","0","0","0","1","0","1","1","0","1","0","1","4","1","1","1","2","3","3","1","2","1","758958446577192962","练","446","","","","","","","","","","","","","","","","","","","","","","","","","","","","","","","","","","","","","","","",""
"699","<p style=""color:rgb(150, 250, 100); font-size: 35px;"">我的</p>","e","categorize-html","60","159054","0.0-6.0-1.0-6.0-1.0","3","3","4","3","4","4","4","4","4","4","5","4","5","4","4","4","4","3","4","5","1","1","2","1","3","3","1","1","1","1","0","1","1","0","0","0","1","0","1","1","0","1","0","1","4","1","1","1","2","3","3","1","2","1","758958446577192962","练","446","","","","","","","","","","","","","","","","","","","true","13","3","moral","699","self","我的","","","","","","","","","","","","","","",""
"null","","null","html-keyboard-response","61","159305","0.0-6.0-1.0-6.0-0.1","3","3","4","3","4","4","4","4","4","4","5","4","5","4","4","4","4","3","4","5","1","1","2","1","3","3","1","1","1","1","0","1","1","0","0","0","1","0","1","1","0","1","0","1","4","1","1","1","2","3","3","1","2","1","758958446577192962","练","446","","","","","","","","","","","","","","","","","","","","","","","","","","","","","","","","","","","","","","","",""
"611","<p style=""color:white; font-size: 35px;"">不孝</p>","i","categorize-html","62","159918","0.0-6.0-1.0-6.0-1.1","3","3","4","3","4","4","4","4","4","4","5","4","5","4","4","4","4","3","4","5","1","1","2","1","3","3","1","1","1","1","0","1","1","0","0","0","1","0","1","1","0","1","0","1","4","1","1","1","2","3","3","1","2","1","758958446577192962","练","446","","","","","","","","","","","","","","","","","","","true","13","3","moral","611","negative","不孝","","","","","","","","","","","","","","",""
"null","","null","html-keyboard-response","63","160170","0.0-6.0-1.0-6.0-0.2","3","3","4","3","4","4","4","4","4","4","5","4","5","4","4","4","4","3","4","5","1","1","2","1","3","3","1","1","1","1","0","1","1","0","0","0","1","0","1","1","0","1","0","1","4","1","1","1","2","3","3","1","2","1","758958446577192962","练","446","","","","","","","","","","","","","","","","","","","","","","","","","","","","","","","","","","","","","","","",""
"670","<p style=""color:rgb(150, 250, 100); font-size: 35px;"">别人</p>","i","categorize-html","64","160844","0.0-6.0-1.0-6.0-1.2","3","3","4","3","4","4","4","4","4","4","5","4","5","4","4","4","4","3","4","5","1","1","2","1","3","3","1","1","1","1","0","1","1","0","0","0","1","0","1","1","0","1","0","1","4","1","1","1","2","3","3","1","2","1","758958446577192962","练","446","","","","","","","","","","","","","","","","","","","true","13","3","moral","670","other","别人","","","","","","","","","","","","","","",""
"null","","null","html-keyboard-response","65","161096","0.0-6.0-1.0-6.0-0.3","3","3","4","3","4","4","4","4","4","4","5","4","5","4","4","4","4","3","4","5","1","1","2","1","3","3","1","1","1","1","0","1","1","0","0","0","1","0","1","1","0","1","0","1","4","1","1","1","2","3","3","1","2","1","758958446577192962","练","446","","","","","","","","","","","","","","","","","","","","","","","","","","","","","","","","","","","","","","","",""
"584","<p style=""color:white; font-size: 35px;"">诚信</p>","e","categorize-html","66","161682","0.0-6.0-1.0-6.0-1.3","3","3","4","3","4","4","4","4","4","4","5","4","5","4","4","4","4","3","4","5","1","1","2","1","3","3","1","1","1","1","0","1","1","0","0","0","1","0","1","1","0","1","0","1","4","1","1","1","2","3","3","1","2","1","758958446577192962","练","446","","","","","","","","","","","","","","","","","","","true","13","3","moral","584","positive","诚信","","","","","","","","","","","","","","",""
"null","","null","html-keyboard-response","67","161934","0.0-6.0-1.0-6.0-0.4","3","3","4","3","4","4","4","4","4","4","5","4","5","4","4","4","4","3","4","5","1","1","2","1","3","3","1","1","1","1","0","1","1","0","0","0","1","0","1","1","0","1","0","1","4","1","1","1","2","3","3","1","2","1","758958446577192962","练","446","","","","","","","","","","","","","","","","","","","","","","","","","","","","","","","","","","","","","","","",""
"605","<p style=""color:rgb(150, 250, 100); font-size: 35px;"">自己的</p>","e","categorize-html","68","162542","0.0-6.0-1.0-6.0-1.4","3","3","4","3","4","4","4","4","4","4","5","4","5","4","4","4","4","3","4","5","1","1","2","1","3","3","1","1","1","1","0","1","1","0","0","0","1","0","1","1","0","1","0","1","4","1","1","1","2","3","3","1","2","1","758958446577192962","练","446","","","","","","","","","","","","","","","","","","","true","13","3","moral","605","self","自己的","","","","","","","","","","","","","","",""
"null","","null","html-keyboard-response","69","162794","0.0-6.0-1.0-6.0-0.5","3","3","4","3","4","4","4","4","4","4","5","4","5","4","4","4","4","3","4","5","1","1","2","1","3","3","1","1","1","1","0","1","1","0","0","0","1","0","1","1","0","1","0","1","4","1","1","1","2","3","3","1","2","1","758958446577192962","练","446","","","","","","","","","","","","","","","","","","","","","","","","","","","","","","","","","","","","","","","",""
"607","<p style=""color:white; font-size: 35px;"">善良</p>","e","categorize-html","70","163402","0.0-6.0-1.0-6.0-1.5","3","3","4","3","4","4","4","4","4","4","5","4","5","4","4","4","4","3","4","5","1","1","2","1","3","3","1","1","1","1","0","1","1","0","0","0","1","0","1","1","0","1","0","1","4","1","1","1","2","3","3","1","2","1","758958446577192962","练","446","","","","","","","","","","","","","","","","","","","true","13","3","moral","607","positive","善良","","","","","","","","","","","","","","",""
"null","","null","html-keyboard-response","71","163653","0.0-6.0-1.0-6.0-0.6","3","3","4","3","4","4","4","4","4","4","5","4","5","4","4","4","4","3","4","5","1","1","2","1","3","3","1","1","1","1","0","1","1","0","0","0","1","0","1","1","0","1","0","1","4","1","1","1","2","3","3","1","2","1","758958446577192962","练","446","","","","","","","","","","","","","","","","","","","","","","","","","","","","","","","","","","","","","","","",""
"913","<p style=""color:rgb(150, 250, 100); font-size: 35px;"">他人的</p>","i","categorize-html","72","164569","0.0-6.0-1.0-6.0-1.6","3","3","4","3","4","4","4","4","4","4","5","4","5","4","4","4","4","3","4","5","1","1","2","1","3","3","1","1","1","1","0","1","1","0","0","0","1","0","1","1","0","1","0","1","4","1","1","1","2","3","3","1","2","1","758958446577192962","练","446","","","","","","","","","","","","","","","","","","","true","13","3","moral","913","other","他人的","","","","","","","","","","","","","","",""
"null","","null","html-keyboard-response","73","164821","0.0-6.0-1.0-6.0-0.7","3","3","4","3","4","4","4","4","4","4","5","4","5","4","4","4","4","3","4","5","1","1","2","1","3","3","1","1","1","1","0","1","1","0","0","0","1","0","1","1","0","1","0","1","4","1","1","1","2","3","3","1","2","1","758958446577192962","练","446","","","","","","","","","","","","","","","","","","","","","","","","","","","","","","","","","","","","","","","",""
"720","<p style=""color:white; font-size: 35px;"">不仁</p>","i","categorize-html","74","165544","0.0-6.0-1.0-6.0-1.7","3","3","4","3","4","4","4","4","4","4","5","4","5","4","4","4","4","3","4","5","1","1","2","1","3","3","1","1","1","1","0","1","1","0","0","0","1","0","1","1","0","1","0","1","4","1","1","1","2","3","3","1","2","1","758958446577192962","练","446","","","","","","","","","","","","","","","","","","","true","13","3","moral","720","negative","不仁","","","","","","","","","","","","","","",""
"null","","null","html-keyboard-response","75","165796","0.0-6.0-1.0-6.0-0.8","3","3","4","3","4","4","4","4","4","4","5","4","5","4","4","4","4","3","4","5","1","1","2","1","3","3","1","1","1","1","0","1","1","0","0","0","1","0","1","1","0","1","0","1","4","1","1","1","2","3","3","1","2","1","758958446577192962","练","446","","","","","","","","","","","","","","","","","","","","","","","","","","","","","","","","","","","","","","","",""
"712","<p style=""color:rgb(150, 250, 100); font-size: 35px;"">我</p>","e","categorize-html","76","166511","0.0-6.0-1.0-6.0-1.8","3","3","4","3","4","4","4","4","4","4","5","4","5","4","4","4","4","3","4","5","1","1","2","1","3","3","1","1","1","1","0","1","1","0","0","0","1","0","1","1","0","1","0","1","4","1","1","1","2","3","3","1","2","1","758958446577192962","练","446","","","","","","","","","","","","","","","","","","","true","13","3","moral","712","self","我","","","","","","","","","","","","","","",""
"null","","null","html-keyboard-response","77","166762","0.0-6.0-1.0-6.0-0.9","3","3","4","3","4","4","4","4","4","4","5","4","5","4","4","4","4","3","4","5","1","1","2","1","3","3","1","1","1","1","0","1","1","0","0","0","1","0","1","1","0","1","0","1","4","1","1","1","2","3","3","1","2","1","758958446577192962","练","446","","","","","","","","","","","","","","","","","","","","","","","","","","","","","","","","","","","","","","","",""
"683","<p style=""color:white; font-size: 35px;"">卑鄙</p>","i","categorize-html","78","167447","0.0-6.0-1.0-6.0-1.9","3","3","4","3","4","4","4","4","4","4","5","4","5","4","4","4","4","3","4","5","1","1","2","1","3","3","1","1","1","1","0","1","1","0","0","0","1","0","1","1","0","1","0","1","4","1","1","1","2","3","3","1","2","1","758958446577192962","练","446","","","","","","","","","","","","","","","","","","","true","13","3","moral","683","negative","卑鄙","","","","","","","","","","","","","","",""
"null","","null","html-keyboard-response","79","167698","0.0-6.0-1.0-6.0-0.10","3","3","4","3","4","4","4","4","4","4","5","4","5","4","4","4","4","3","4","5","1","1","2","1","3","3","1","1","1","1","0","1","1","0","0","0","1","0","1","1","0","1","0","1","4","1","1","1","2","3","3","1","2","1","758958446577192962","练","446","","","","","","","","","","","","","","","","","","","","","","","","","","","","","","","","","","","","","","","",""
"666","<p style=""color:rgb(150, 250, 100); font-size: 35px;"">他</p>","i","categorize-html","80","168367","0.0-6.0-1.0-6.0-1.10","3","3","4","3","4","4","4","4","4","4","5","4","5","4","4","4","4","3","4","5","1","1","2","1","3","3","1","1","1","1","0","1","1","0","0","0","1","0","1","1","0","1","0","1","4","1","1","1","2","3","3","1","2","1","758958446577192962","练","446","","","","","","","","","","","","","","","","","","","true","13","3","moral","666","other","他","","","","","","","","","","","","","","",""
"null","","null","html-keyboard-response","81","168619","0.0-6.0-1.0-6.0-0.11","3","3","4","3","4","4","4","4","4","4","5","4","5","4","4","4","4","3","4","5","1","1","2","1","3","3","1","1","1","1","0","1","1","0","0","0","1","0","1","1","0","1","0","1","4","1","1","1","2","3","3","1","2","1","758958446577192962","练","446","","","","","","","","","","","","","","","","","","","","","","","","","","","","","","","","","","","","","","","",""
"658","<p style=""color:white; font-size: 35px;"">君子</p>","e","categorize-html","82","169280","0.0-6.0-1.0-6.0-1.11","3","3","4","3","4","4","4","4","4","4","5","4","5","4","4","4","4","3","4","5","1","1","2","1","3","3","1","1","1","1","0","1","1","0","0","0","1","0","1","1","0","1","0","1","4","1","1","1","2","3","3","1","2","1","758958446577192962","练","446","","","","","","","","","","","","","","","","","","","true","13","3","moral","658","positive","君子","","","","","","","","","","","","","","",""
"null","","null","html-keyboard-response","83","169532","0.0-6.0-1.0-6.0-0.12","3","3","4","3","4","4","4","4","4","4","5","4","5","4","4","4","4","3","4","5","1","1","2","1","3","3","1","1","1","1","0","1","1","0","0","0","1","0","1","1","0","1","0","1","4","1","1","1","2","3","3","1","2","1","758958446577192962","练","446","","","","","","","","","","","","","","","","","","","","","","","","","","","","","","","","","","","","","","","",""
"672","<p style=""color:rgb(150, 250, 100); font-size: 35px;"">他的</p>","i","categorize-html","84","170206","0.0-6.0-1.0-6.0-1.12","3","3","4","3","4","4","4","4","4","4","5","4","5","4","4","4","4","3","4","5","1","1","2","1","3","3","1","1","1","1","0","1","1","0","0","0","1","0","1","1","0","1","0","1","4","1","1","1","2","3","3","1","2","1","758958446577192962","练","446","","","","","","","","","","","","","","","","","","","true","13","3","moral","672","other","他的","","","","","","","","","","","","","","",""
"null","","null","html-keyboard-response","85","170458","0.0-6.0-1.0-6.0-0.13","3","3","4","3","4","4","4","4","4","4","5","4","5","4","4","4","4","3","4","5","1","1","2","1","3","3","1","1","1","1","0","1","1","0","0","0","1","0","1","1","0","1","0","1","4","1","1","1","2","3","3","1","2","1","758958446577192962","练","446","","","","","","","","","","","","","","","","","","","","","","","","","","","","","","","","","","","","","","","",""
"570","<p style=""color:white; font-size: 35px;"">高尚</p>","e","categorize-html","86","171030","0.0-6.0-1.0-6.0-1.13","3","3","4","3","4","4","4","4","4","4","5","4","5","4","4","4","4","3","4","5","1","1","2","1","3","3","1","1","1","1","0","1","1","0","0","0","1","0","1","1","0","1","0","1","4","1","1","1","2","3","3","1","2","1","758958446577192962","练","446","","","","","","","","","","","","","","","","","","","true","13","3","moral","570","positive","高尚","","","","","","","","","","","","","","",""
"null","","null","html-keyboard-response","87","171281","0.0-6.0-1.0-6.0-0.14","3","3","4","3","4","4","4","4","4","4","5","4","5","4","4","4","4","3","4","5","1","1","2","1","3","3","1","1","1","1","0","1","1","0","0","0","1","0","1","1","0","1","0","1","4","1","1","1","2","3","3","1","2","1","758958446577192962","练","446","","","","","","","","","","","","","","","","","","","","","","","","","","","","","","","","","","","","","","","",""
"546","<p style=""color:rgb(150, 250, 100); font-size: 35px;"">本人的</p>","e","categorize-html","88","171830","0.0-6.0-1.0-6.0-1.14","3","3","4","3","4","4","4","4","4","4","5","4","5","4","4","4","4","3","4","5","1","1","2","1","3","3","1","1","1","1","0","1","1","0","0","0","1","0","1","1","0","1","0","1","4","1","1","1","2","3","3","1","2","1","758958446577192962","练","446","","","","","","","","","","","","","","","","","","","true","13","3","moral","546","self","本人的","","","","","","","","","","","","","","",""
"null","","null","html-keyboard-response","89","172082","0.0-6.0-1.0-6.0-0.15","3","3","4","3","4","4","4","4","4","4","5","4","5","4","4","4","4","3","4","5","1","1","2","1","3","3","1","1","1","1","0","1","1","0","0","0","1","0","1","1","0","1","0","1","4","1","1","1","2","3","3","1","2","1","758958446577192962","练","446","","","","","","","","","","","","","","","","","","","","","","","","","","","","","","","","","","","","","","","",""
"603","<p style=""color:white; font-size: 35px;"">小人</p>","i","categorize-html","90","172688","0.0-6.0-1.0-6.0-1.15","3","3","4","3","4","4","4","4","4","4","5","4","5","4","4","4","4","3","4","5","1","1","2","1","3","3","1","1","1","1","0","1","1","0","0","0","1","0","1","1","0","1","0","1","4","1","1","1","2","3","3","1","2","1","758958446577192962","练","446","","","","","","","","","","","","","","","","","","","true","13","3","moral","603","negative","小人","","","","","","","","","","","","","","",""
"null","","null","html-keyboard-response","91","172942","0.0-6.0-1.0-6.0-0.16","3","3","4","3","4","4","4","4","4","4","5","4","5","4","4","4","4","3","4","5","1","1","2","1","3","3","1","1","1","1","0","1","1","0","0","0","1","0","1","1","0","1","0","1","4","1","1","1","2","3","3","1","2","1","758958446577192962","练","446","","","","","","","","","","","","","","","","","","","","","","","","","","","","","","","","","","","","","","","",""
"630","<p style=""color:rgb(150, 250, 100); font-size: 35px;"">别人的</p>","i","categorize-html","92","173573","0.0-6.0-1.0-6.0-1.16","3","3","4","3","4","4","4","4","4","4","5","4","5","4","4","4","4","3","4","5","1","1","2","1","3","3","1","1","1","1","0","1","1","0","0","0","1","0","1","1","0","1","0","1","4","1","1","1","2","3","3","1","2","1","758958446577192962","练","446","","","","","","","","","","","","","","","","","","","true","13","3","moral","630","other","别人的","","","","","","","","","","","","","","",""
"null","","null","html-keyboard-response","93","173824","0.0-6.0-1.0-6.0-0.17","3","3","4","3","4","4","4","4","4","4","5","4","5","4","4","4","4","3","4","5","1","1","2","1","3","3","1","1","1","1","0","1","1","0","0","0","1","0","1","1","0","1","0","1","4","1","1","1","2","3","3","1","2","1","758958446577192962","练","446","","","","","","","","","","","","","","","","","","","","","","","","","","","","","","","","","","","","","","","",""
"601","<p style=""color:white; font-size: 35px;"">廉正</p>","e","categorize-html","94","174428","0.0-6.0-1.0-6.0-1.17","3","3","4","3","4","4","4","4","4","4","5","4","5","4","4","4","4","3","4","5","1","1","2","1","3","3","1","1","1","1","0","1","1","0","0","0","1","0","1","1","0","1","0","1","4","1","1","1","2","3","3","1","2","1","758958446577192962","练","446","","","","","","","","","","","","","","","","","","","true","13","3","moral","601","positive","廉正","","","","","","","","","","","","","","",""
"null","","null","html-keyboard-response","95","174679","0.0-6.0-1.0-6.0-0.18","3","3","4","3","4","4","4","4","4","4","5","4","5","4","4","4","4","3","4","5","1","1","2","1","3","3","1","1","1","1","0","1","1","0","0","0","1","0","1","1","0","1","0","1","4","1","1","1","2","3","3","1","2","1","758958446577192962","练","446","","","","","","","","","","","","","","","","","","","","","","","","","","","","","","","","","","","","","","","",""
"598","<p style=""color:rgb(150, 250, 100); font-size: 35px;"">自己</p>","e","categorize-html","96","175279","0.0-6.0-1.0-6.0-1.18","3","3","4","3","4","4","4","4","4","4","5","4","5","4","4","4","4","3","4","5","1","1","2","1","3","3","1","1","1","1","0","1","1","0","0","0","1","0","1","1","0","1","0","1","4","1","1","1","2","3","3","1","2","1","758958446577192962","练","446","","","","","","","","","","","","","","","","","","","true","13","3","moral","598","self","自己","","","","","","","","","","","","","","",""
"null","","null","html-keyboard-response","97","175530","0.0-6.0-1.0-6.0-0.19","3","3","4","3","4","4","4","4","4","4","5","4","5","4","4","4","4","3","4","5","1","1","2","1","3","3","1","1","1","1","0","1","1","0","0","0","1","0","1","1","0","1","0","1","4","1","1","1","2","3","3","1","2","1","758958446577192962","练","446","","","","","","","","","","","","","","","","","","","","","","","","","","","","","","","","","","","","","","","",""
"555","<p style=""color:white; font-size: 35px;"">黑心</p>","i","categorize-html","98","176088","0.0-6.0-1.0-6.0-1.19","3","3","4","3","4","4","4","4","4","4","5","4","5","4","4","4","4","3","4","5","1","1","2","1","3","3","1","1","1","1","0","1","1","0","0","0","1","0","1","1","0","1","0","1","4","1","1","1","2","3","3","1","2","1","758958446577192962","练","446","","","","","","","","","","","","","","","","","","","true","13","3","moral","555","negative","黑心","","","","","","","","","","","","","","",""
"null","","null","html-keyboard-response","99","176340","0.0-6.0-1.0-6.0-0.20","3","3","4","3","4","4","4","4","4","4","5","4","5","4","4","4","4","3","4","5","1","1","2","1","3","3","1","1","1","1","0","1","1","0","0","0","1","0","1","1","0","1","0","1","4","1","1","1","2","3","3","1","2","1","758958446577192962","练","446","","","","","","","","","","","","","","","","","","","","","","","","","","","","","","","","","","","","","","","",""
"561","<p style=""color:rgb(150, 250, 100); font-size: 35px;"">本人</p>","e","categorize-html","100","176904","0.0-6.0-1.0-6.0-1.20","3","3","4","3","4","4","4","4","4","4","5","4","5","4","4","4","4","3","4","5","1","1","2","1","3","3","1","1","1","1","0","1","1","0","0","0","1","0","1","1","0","1","0","1","4","1","1","1","2","3","3","1","2","1","758958446577192962","练","446","","","","","","","","","","","","","","","","","","","true","13","3","moral","561","self","本人","","","","","","","","","","","","","","",""
"null","","null","html-keyboard-response","101","177155","0.0-6.0-1.0-6.0-0.21","3","3","4","3","4","4","4","4","4","4","5","4","5","4","4","4","4","3","4","5","1","1","2","1","3","3","1","1","1","1","0","1","1","0","0","0","1","0","1","1","0","1","0","1","4","1","1","1","2","3","3","1","2","1","758958446577192962","练","446","","","","","","","","","","","","","","","","","","","","","","","","","","","","","","","","","","","","","","","",""
"629","<p style=""color:white; font-size: 35px;"">正直</p>","e","categorize-html","102","177786","0.0-6.0-1.0-6.0-1.21","3","3","4","3","4","4","4","4","4","4","5","4","5","4","4","4","4","3","4","5","1","1","2","1","3","3","1","1","1","1","0","1","1","0","0","0","1","0","1","1","0","1","0","1","4","1","1","1","2","3","3","1","2","1","758958446577192962","练","446","","","","","","","","","","","","","","","","","","","true","13","3","moral","629","positive","正直","","","","","","","","","","","","","","",""
"null","","null","html-keyboard-response","103","178037","0.0-6.0-1.0-6.0-0.22","3","3","4","3","4","4","4","4","4","4","5","4","5","4","4","4","4","3","4","5","1","1","2","1","3","3","1","1","1","1","0","1","1","0","0","0","1","0","1","1","0","1","0","1","4","1","1","1","2","3","3","1","2","1","758958446577192962","练","446","","","","","","","","","","","","","","","","","","","","","","","","","","","","","","","","","","","","","","","",""
"627","<p style=""color:rgb(150, 250, 100); font-size: 35px;"">他人</p>","i","categorize-html","104","178666","0.0-6.0-1.0-6.0-1.22","3","3","4","3","4","4","4","4","4","4","5","4","5","4","4","4","4","3","4","5","1","1","2","1","3","3","1","1","1","1","0","1","1","0","0","0","1","0","1","1","0","1","0","1","4","1","1","1","2","3","3","1","2","1","758958446577192962","练","446","","","","","","","","","","","","","","","","","","","true","13","3","moral","627","other","他人","","","","","","","","","","","","","","",""
"null","","null","html-keyboard-response","105","178917","0.0-6.0-1.0-6.0-0.23","3","3","4","3","4","4","4","4","4","4","5","4","5","4","4","4","4","3","4","5","1","1","2","1","3","3","1","1","1","1","0","1","1","0","0","0","1","0","1","1","0","1","0","1","4","1","1","1","2","3","3","1","2","1","758958446577192962","练","446","","","","","","","","","","","","","","","","","","","","","","","","","","","","","","","","","","","","","","","",""
"651","<p style=""color:white; font-size: 35px;"">缺德</p>","i","categorize-html","106","179570","0.0-6.0-1.0-6.0-1.23","3","3","4","3","4","4","4","4","4","4","5","4","5","4","4","4","4","3","4","5","1","1","2","1","3","3","1","1","1","1","0","1","1","0","0","0","1","0","1","1","0","1","0","1","4","1","1","1","2","3","3","1","2","1","758958446577192962","练","446","","","","","","","","","","","","","","","","","","","true","13","3","moral","651","negative","缺德","","","","","","","","","","","","","","",""
"7314","
    <div class=""tag-bottom""><p>
    —— 任务4：对“自我/积极”词和“他人/消极”词分类 ——<p/>
    <span style=""color:#78DCE8""><b>与刚才的任务完全相同，请再次对这四类词语分类</b></span><p/>
    <span style=""color:#FFD866""><b>请根据上方标签的提示，尽可能正确并且快速地做出按键反应</b></span><p/>
    当按键错误时屏幕中会出现<span style=""color:red""> X </span>，需要按另一个键纠正才能继续<br/><p/>
    请把双手食指分别放在键盘的“E”键和“I”键上<p/>
    按<空格键>开始
    </p></div>"," ","html-keyboard-response","107","186885","0.0-6.0-1.0-7.0","3","3","4","3","4","4","4","4","4","4","5","4","5","4","4","4","4","3","4","5","1","1","2","1","3","3","1","1","1","1","0","1","1","0","0","0","1","0","1","1","0","1","0","1","4","1","1","1","2","3","3","1","2","1","758958446577192962","练","446","","","","","","","","","","","","","","","","","","","","","","","","","","","","","","","","","","","","","","","",""
"null","","null","html-keyboard-response","108","187136","0.0-6.0-1.0-8.0-0.0","3","3","4","3","4","4","4","4","4","4","5","4","5","4","4","4","4","3","4","5","1","1","2","1","3","3","1","1","1","1","0","1","1","0","0","0","1","0","1","1","0","1","0","1","4","1","1","1","2","3","3","1","2","1","758958446577192962","练","446","","","","","","","","","","","","","","","","","","","","","","","","","","","","","","","","","","","","","","","",""
"628","<p style=""color:rgb(150, 250, 100); font-size: 35px;"">我</p>","e","categorize-html","109","187768","0.0-6.0-1.0-8.0-1.0","3","3","4","3","4","4","4","4","4","4","5","4","5","4","4","4","4","3","4","5","1","1","2","1","3","3","1","1","1","1","0","1","1","0","0","0","1","0","1","1","0","1","0","1","4","1","1","1","2","3","3","1","2","1","758958446577192962","练","446","","","","","","","","","","","","","","","","","","","true","14","4","moral","628","self","我","","","","","","","","","","","","","","",""
"null","","null","html-keyboard-response","110","188021","0.0-6.0-1.0-8.0-0.1","3","3","4","3","4","4","4","4","4","4","5","4","5","4","4","4","4","3","4","5","1","1","2","1","3","3","1","1","1","1","0","1","1","0","0","0","1","0","1","1","0","1","0","1","4","1","1","1","2","3","3","1","2","1","758958446577192962","练","446","","","","","","","","","","","","","","","","","","","","","","","","","","","","","","","","","","","","","","","",""
"579","<p style=""color:white; font-size: 35px;"">卑鄙</p>","i","categorize-html","111","188603","0.0-6.0-1.0-8.0-1.1","3","3","4","3","4","4","4","4","4","4","5","4","5","4","4","4","4","3","4","5","1","1","2","1","3","3","1","1","1","1","0","1","1","0","0","0","1","0","1","1","0","1","0","1","4","1","1","1","2","3","3","1","2","1","758958446577192962","练","446","","","","","","","","","","","","","","","","","","","true","14","4","moral","579","negative","卑鄙","","","","","","","","","","","","","","",""
"null","","null","html-keyboard-response","112","188855","0.0-6.0-1.0-8.0-0.2","3","3","4","3","4","4","4","4","4","4","5","4","5","4","4","4","4","3","4","5","1","1","2","1","3","3","1","1","1","1","0","1","1","0","0","0","1","0","1","1","0","1","0","1","4","1","1","1","2","3","3","1","2","1","758958446577192962","练","446","","","","","","","","","","","","","","","","","","","","","","","","","","","","","","","","","","","","","","","",""
"621","<p style=""color:rgb(150, 250, 100); font-size: 35px;"">他人的</p>","i","categorize-html","113","189479","0.0-6.0-1.0-8.0-1.2","3","3","4","3","4","4","4","4","4","4","5","4","5","4","4","4","4","3","4","5","1","1","2","1","3","3","1","1","1","1","0","1","1","0","0","0","1","0","1","1","0","1","0","1","4","1","1","1","2","3","3","1","2","1","758958446577192962","练","446","","","","","","","","","","","","","","","","","","","true","14","4","moral","621","other","他人的","","","","","","","","","","","","","","",""
"null","","null","html-keyboard-response","114","189730","0.0-6.0-1.0-8.0-0.3","3","3","4","3","4","4","4","4","4","4","5","4","5","4","4","4","4","3","4","5","1","1","2","1","3","3","1","1","1","1","0","1","1","0","0","0","1","0","1","1","0","1","0","1","4","1","1","1","2","3","3","1","2","1","758958446577192962","练","446","","","","","","","","","","","","","","","","","","","","","","","","","","","","","","","","","","","","","","","",""
"563","<p style=""color:white; font-size: 35px;"">诚信</p>","e","categorize-html","115","190296","0.0-6.0-1.0-8.0-1.3","3","3","4","3","4","4","4","4","4","4","5","4","5","4","4","4","4","3","4","5","1","1","2","1","3","3","1","1","1","1","0","1","1","0","0","0","1","0","1","1","0","1","0","1","4","1","1","1","2","3","3","1","2","1","758958446577192962","练","446","","","","","","","","","","","","","","","","","","","true","14","4","moral","563","positive","诚信","","","","","","","","","","","","","","",""
"null","","null","html-keyboard-response","116","190548","0.0-6.0-1.0-8.0-0.4","3","3","4","3","4","4","4","4","4","4","5","4","5","4","4","4","4","3","4","5","1","1","2","1","3","3","1","1","1","1","0","1","1","0","0","0","1","0","1","1","0","1","0","1","4","1","1","1","2","3","3","1","2","1","758958446577192962","练","446","","","","","","","","","","","","","","","","","","","","","","","","","","","","","","","","","","","","","","","",""
"608","<p style=""color:rgb(150, 250, 100); font-size: 35px;"">别人</p>","i","categorize-html","117","191158","0.0-6.0-1.0-8.0-1.4","3","3","4","3","4","4","4","4","4","4","5","4","5","4","4","4","4","3","4","5","1","1","2","1","3","3","1","1","1","1","0","1","1","0","0","0","1","0","1","1","0","1","0","1","4","1","1","1","2","3","3","1","2","1","758958446577192962","练","446","","","","","","","","","","","","","","","","","","","true","14","4","moral","608","other","别人","","","","","","","","","","","","","","",""
"null","","null","html-keyboard-response","118","191409","0.0-6.0-1.0-8.0-0.5","3","3","4","3","4","4","4","4","4","4","5","4","5","4","4","4","4","3","4","5","1","1","2","1","3","3","1","1","1","1","0","1","1","0","0","0","1","0","1","1","0","1","0","1","4","1","1","1","2","3","3","1","2","1","758958446577192962","练","446","","","","","","","","","","","","","","","","","","","","","","","","","","","","","","","","","","","","","","","",""
"573","<p style=""color:white; font-size: 35px;"">小人</p>","i","categorize-html","119","191984","0.0-6.0-1.0-8.0-1.5","3","3","4","3","4","4","4","4","4","4","5","4","5","4","4","4","4","3","4","5","1","1","2","1","3","3","1","1","1","1","0","1","1","0","0","0","1","0","1","1","0","1","0","1","4","1","1","1","2","3","3","1","2","1","758958446577192962","练","446","","","","","","","","","","","","","","","","","","","true","14","4","moral","573","negative","小人","","","","","","","","","","","","","","",""
"null","","null","html-keyboard-response","120","192236","0.0-6.0-1.0-8.0-0.6","3","3","4","3","4","4","4","4","4","4","5","4","5","4","4","4","4","3","4","5","1","1","2","1","3","3","1","1","1","1","0","1","1","0","0","0","1","0","1","1","0","1","0","1","4","1","1","1","2","3","3","1","2","1","758958446577192962","练","446","","","","","","","","","","","","","","","","","","","","","","","","","","","","","","","","","","","","","","","",""
"487","<p style=""color:rgb(150, 250, 100); font-size: 35px;"">我</p>","e","categorize-html","121","192726","0.0-6.0-1.0-8.0-1.6","3","3","4","3","4","4","4","4","4","4","5","4","5","4","4","4","4","3","4","5","1","1","2","1","3","3","1","1","1","1","0","1","1","0","0","0","1","0","1","1","0","1","0","1","4","1","1","1","2","3","3","1","2","1","758958446577192962","练","446","","","","","","","","","","","","","","","","","","","true","14","4","moral","487","self","我","","","","","","","","","","","","","","",""
"null","","null","html-keyboard-response","122","192977","0.0-6.0-1.0-8.0-0.7","3","3","4","3","4","4","4","4","4","4","5","4","5","4","4","4","4","3","4","5","1","1","2","1","3","3","1","1","1","1","0","1","1","0","0","0","1","0","1","1","0","1","0","1","4","1","1","1","2","3","3","1","2","1","758958446577192962","练","446","","","","","","","","","","","","","","","","","","","","","","","","","","","","","","","","","","","","","","","",""
"624","<p style=""color:white; font-size: 35px;"">善良</p>","e","categorize-html","123","193604","0.0-6.0-1.0-8.0-1.7","3","3","4","3","4","4","4","4","4","4","5","4","5","4","4","4","4","3","4","5","1","1","2","1","3","3","1","1","1","1","0","1","1","0","0","0","1","0","1","1","0","1","0","1","4","1","1","1","2","3","3","1","2","1","758958446577192962","练","446","","","","","","","","","","","","","","","","","","","true","14","4","moral","624","positive","善良","","","","","","","","","","","","","","",""
"null","","null","html-keyboard-response","124","193856","0.0-6.0-1.0-8.0-0.8","3","3","4","3","4","4","4","4","4","4","5","4","5","4","4","4","4","3","4","5","1","1","2","1","3","3","1","1","1","1","0","1","1","0","0","0","1","0","1","1","0","1","0","1","4","1","1","1","2","3","3","1","2","1","758958446577192962","练","446","","","","","","","","","","","","","","","","","","","","","","","","","","","","","","","","","","","","","","","",""
"541","<p style=""color:rgb(150, 250, 100); font-size: 35px;"">他的</p>","i","categorize-html","125","194400","0.0-6.0-1.0-8.0-1.8","3","3","4","3","4","4","4","4","4","4","5","4","5","4","4","4","4","3","4","5","1","1","2","1","3","3","1","1","1","1","0","1","1","0","0","0","1","0","1","1","0","1","0","1","4","1","1","1","2","3","3","1","2","1","758958446577192962","练","446","","","","","","","","","","","","","","","","","","","true","14","4","moral","541","other","他的","","","","","","","","","","","","","","",""
"null","","null","html-keyboard-response","126","194652","0.0-6.0-1.0-8.0-0.9","3","3","4","3","4","4","4","4","4","4","5","4","5","4","4","4","4","3","4","5","1","1","2","1","3","3","1","1","1","1","0","1","1","0","0","0","1","0","1","1","0","1","0","1","4","1","1","1","2","3","3","1","2","1","758958446577192962","练","446","","","","","","","","","","","","","","","","","","","","","","","","","","","","","","","","","","","","","","","",""
"607","<p style=""color:white; font-size: 35px;"">小人</p>","i","categorize-html","127","195262","0.0-6.0-1.0-8.0-1.9","3","3","4","3","4","4","4","4","4","4","5","4","5","4","4","4","4","3","4","5","1","1","2","1","3","3","1","1","1","1","0","1","1","0","0","0","1","0","1","1","0","1","0","1","4","1","1","1","2","3","3","1","2","1","758958446577192962","练","446","","","","","","","","","","","","","","","","","","","true","14","4","moral","607","negative","小人","","","","","","","","","","","","","","",""
"null","","null","html-keyboard-response","128","195513","0.0-6.0-1.0-8.0-0.10","3","3","4","3","4","4","4","4","4","4","5","4","5","4","4","4","4","3","4","5","1","1","2","1","3","3","1","1","1","1","0","1","1","0","0","0","1","0","1","1","0","1","0","1","4","1","1","1","2","3","3","1","2","1","758958446577192962","练","446","","","","","","","","","","","","","","","","","","","","","","","","","","","","","","","","","","","","","","","",""
"790","<p style=""color:rgb(150, 250, 100); font-size: 35px;"">自己的</p>","e","categorize-html","129","196305","0.0-6.0-1.0-8.0-1.10","3","3","4","3","4","4","4","4","4","4","5","4","5","4","4","4","4","3","4","5","1","1","2","1","3","3","1","1","1","1","0","1","1","0","0","0","1","0","1","1","0","1","0","1","4","1","1","1","2","3","3","1","2","1","758958446577192962","练","446","","","","","","","","","","","","","","","","","","","true","14","4","moral","790","self","自己的","","","","","","","","","","","","","","",""
"null","","null","html-keyboard-response","130","196557","0.0-6.0-1.0-8.0-0.11","3","3","4","3","4","4","4","4","4","4","5","4","5","4","4","4","4","3","4","5","1","1","2","1","3","3","1","1","1","1","0","1","1","0","0","0","1","0","1","1","0","1","0","1","4","1","1","1","2","3","3","1","2","1","758958446577192962","练","446","","","","","","","","","","","","","","","","","","","","","","","","","","","","","","","","","","","","","","","",""
"791","<p style=""color:white; font-size: 35px;"">正直</p>","e","categorize-html","131","197350","0.0-6.0-1.0-8.0-1.11","3","3","4","3","4","4","4","4","4","4","5","4","5","4","4","4","4","3","4","5","1","1","2","1","3","3","1","1","1","1","0","1","1","0","0","0","1","0","1","1","0","1","0","1","4","1","1","1","2","3","3","1","2","1","758958446577192962","练","446","","","","","","","","","","","","","","","","","","","true","14","4","moral","791","positive","正直","","","","","","","","","","","","","","",""
"null","","null","html-keyboard-response","132","197601","0.0-6.0-1.0-8.0-0.12","3","3","4","3","4","4","4","4","4","4","5","4","5","4","4","4","4","3","4","5","1","1","2","1","3","3","1","1","1","1","0","1","1","0","0","0","1","0","1","1","0","1","0","1","4","1","1","1","2","3","3","1","2","1","758958446577192962","练","446","","","","","","","","","","","","","","","","","","","","","","","","","","","","","","","","","","","","","","","",""
"787","<p style=""color:rgb(150, 250, 100); font-size: 35px;"">本人的</p>","e","categorize-html","133","198390","0.0-6.0-1.0-8.0-1.12","3","3","4","3","4","4","4","4","4","4","5","4","5","4","4","4","4","3","4","5","1","1","2","1","3","3","1","1","1","1","0","1","1","0","0","0","1","0","1","1","0","1","0","1","4","1","1","1","2","3","3","1","2","1","758958446577192962","练","446","","","","","","","","","","","","","","","","","","","true","14","4","moral","787","self","本人的","","","","","","","","","","","","","","",""
"null","","null","html-keyboard-response","134","198641","0.0-6.0-1.0-8.0-0.13","3","3","4","3","4","4","4","4","4","4","5","4","5","4","4","4","4","3","4","5","1","1","2","1","3","3","1","1","1","1","0","1","1","0","0","0","1","0","1","1","0","1","0","1","4","1","1","1","2","3","3","1","2","1","758958446577192962","练","446","","","","","","","","","","","","","","","","","","","","","","","","","","","","","","","","","","","","","","","",""
"635","<p style=""color:white; font-size: 35px;"">高尚</p>","e","categorize-html","135","199278","0.0-6.0-1.0-8.0-1.13","3","3","4","3","4","4","4","4","4","4","5","4","5","4","4","4","4","3","4","5","1","1","2","1","3","3","1","1","1","1","0","1","1","0","0","0","1","0","1","1","0","1","0","1","4","1","1","1","2","3","3","1","2","1","758958446577192962","练","446","","","","","","","","","","","","","","","","","","","true","14","4","moral","635","positive","高尚","","","","","","","","","","","","","","",""
"null","","null","html-keyboard-response","136","199535","0.0-6.0-1.0-8.0-0.14","3","3","4","3","4","4","4","4","4","4","5","4","5","4","4","4","4","3","4","5","1","1","2","1","3","3","1","1","1","1","0","1","1","0","0","0","1","0","1","1","0","1","0","1","4","1","1","1","2","3","3","1","2","1","758958446577192962","练","446","","","","","","","","","","","","","","","","","","","","","","","","","","","","","","","","","","","","","","","",""
"942","<p style=""color:rgb(150, 250, 100); font-size: 35px;"">别人</p>","e","categorize-html","137","201780","0.0-6.0-1.0-8.0-1.14","3","3","4","3","4","4","4","4","4","4","5","4","5","4","4","4","4","3","4","5","1","1","2","1","3","3","1","1","1","1","0","1","1","0","0","0","1","0","1","1","0","1","0","1","4","1","1","1","2","3","3","1","2","1","758958446577192962","练","446","","","","","","","","","","","","","","","","","","","false","14","4","moral","1324.217391304348","other","别人","","","","","","","","","","","","","","",""
"null","","null","html-keyboard-response","138","202032","0.0-6.0-1.0-8.0-0.15","3","3","4","3","4","4","4","4","4","4","5","4","5","4","4","4","4","3","4","5","1","1","2","1","3","3","1","1","1","1","0","1","1","0","0","0","1","0","1","1","0","1","0","1","4","1","1","1","2","3","3","1","2","1","758958446577192962","练","446","","","","","","","","","","","","","","","","","","","","","","","","","","","","","","","","","","","","","","","",""
"556","<p style=""color:white; font-size: 35px;"">黑心</p>","i","categorize-html","139","202591","0.0-6.0-1.0-8.0-1.15","3","3","4","3","4","4","4","4","4","4","5","4","5","4","4","4","4","3","4","5","1","1","2","1","3","3","1","1","1","1","0","1","1","0","0","0","1","0","1","1","0","1","0","1","4","1","1","1","2","3","3","1","2","1","758958446577192962","练","446","","","","","","","","","","","","","","","","","","","true","14","4","moral","556","negative","黑心","","","","","","","","","","","","","","",""
"null","","null","html-keyboard-response","140","202842","0.0-6.0-1.0-8.0-0.16","3","3","4","3","4","4","4","4","4","4","5","4","5","4","4","4","4","3","4","5","1","1","2","1","3","3","1","1","1","1","0","1","1","0","0","0","1","0","1","1","0","1","0","1","4","1","1","1","2","3","3","1","2","1","758958446577192962","练","446","","","","","","","","","","","","","","","","","","","","","","","","","","","","","","","","","","","","","","","",""
"1012","<p style=""color:rgb(150, 250, 100); font-size: 35px;"">本人的</p>","e","categorize-html","141","203856","0.0-6.0-1.0-8.0-1.16","3","3","4","3","4","4","4","4","4","4","5","4","5","4","4","4","4","3","4","5","1","1","2","1","3","3","1","1","1","1","0","1","1","0","0","0","1","0","1","1","0","1","0","1","4","1","1","1","2","3","3","1","2","1","758958446577192962","练","446","","","","","","","","","","","","","","","","","","","true","14","4","moral","1012","self","本人的","","","","","","","","","","","","","","",""
"null","","null","html-keyboard-response","142","204107","0.0-6.0-1.0-8.0-0.17","3","3","4","3","4","4","4","4","4","4","5","4","5","4","4","4","4","3","4","5","1","1","2","1","3","3","1","1","1","1","0","1","1","0","0","0","1","0","1","1","0","1","0","1","4","1","1","1","2","3","3","1","2","1","758958446577192962","练","446","","","","","","","","","","","","","","","","","","","","","","","","","","","","","","","","","","","","","","","",""
"923","<p style=""color:white; font-size: 35px;"">君子</p>","e","categorize-html","143","205032","0.0-6.0-1.0-8.0-1.17","3","3","4","3","4","4","4","4","4","4","5","4","5","4","4","4","4","3","4","5","1","1","2","1","3","3","1","1","1","1","0","1","1","0","0","0","1","0","1","1","0","1","0","1","4","1","1","1","2","3","3","1","2","1","758958446577192962","练","446","","","","","","","","","","","","","","","","","","","true","14","4","moral","923","positive","君子","","","","","","","","","","","","","","",""
"null","","null","html-keyboard-response","144","205283","0.0-6.0-1.0-8.0-0.18","3","3","4","3","4","4","4","4","4","4","5","4","5","4","4","4","4","3","4","5","1","1","2","1","3","3","1","1","1","1","0","1","1","0","0","0","1","0","1","1","0","1","0","1","4","1","1","1","2","3","3","1","2","1","758958446577192962","练","446","","","","","","","","","","","","","","","","","","","","","","","","","","","","","","","","","","","","","","","",""
"672","<p style=""color:rgb(150, 250, 100); font-size: 35px;"">别人的</p>","i","categorize-html","145","205958","0.0-6.0-1.0-8.0-1.18","3","3","4","3","4","4","4","4","4","4","5","4","5","4","4","4","4","3","4","5","1","1","2","1","3","3","1","1","1","1","0","1","1","0","0","0","1","0","1","1","0","1","0","1","4","1","1","1","2","3","3","1","2","1","758958446577192962","练","446","","","","","","","","","","","","","","","","","","","true","14","4","moral","672","other","别人的","","","","","","","","","","","","","","",""
"null","","null","html-keyboard-response","146","206209","0.0-6.0-1.0-8.0-0.19","3","3","4","3","4","4","4","4","4","4","5","4","5","4","4","4","4","3","4","5","1","1","2","1","3","3","1","1","1","1","0","1","1","0","0","0","1","0","1","1","0","1","0","1","4","1","1","1","2","3","3","1","2","1","758958446577192962","练","446","","","","","","","","","","","","","","","","","","","","","","","","","","","","","","","","","","","","","","","",""
"1267","<p style=""color:white; font-size: 35px;"">不孝</p>","i","categorize-html","147","207479","0.0-6.0-1.0-8.0-1.19","3","3","4","3","4","4","4","4","4","4","5","4","5","4","4","4","4","3","4","5","1","1","2","1","3","3","1","1","1","1","0","1","1","0","0","0","1","0","1","1","0","1","0","1","4","1","1","1","2","3","3","1","2","1","758958446577192962","练","446","","","","","","","","","","","","","","","","","","","true","14","4","moral","1267","negative","不孝","","","","","","","","","","","","","","",""
"null","","null","html-keyboard-response","148","207731","0.0-6.0-1.0-8.0-0.20","3","3","4","3","4","4","4","4","4","4","5","4","5","4","4","4","4","3","4","5","1","1","2","1","3","3","1","1","1","1","0","1","1","0","0","0","1","0","1","1","0","1","0","1","4","1","1","1","2","3","3","1","2","1","758958446577192962","练","446","","","","","","","","","","","","","","","","","","","","","","","","","","","","","","","","","","","","","","","",""
"969","<p style=""color:rgb(150, 250, 100); font-size: 35px;"">自己的</p>","e","categorize-html","149","208702","0.0-6.0-1.0-8.0-1.20","3","3","4","3","4","4","4","4","4","4","5","4","5","4","4","4","4","3","4","5","1","1","2","1","3","3","1","1","1","1","0","1","1","0","0","0","1","0","1","1","0","1","0","1","4","1","1","1","2","3","3","1","2","1","758958446577192962","练","446","","","","","","","","","","","","","","","","","","","true","14","4","moral","969","self","自己的","","","","","","","","","","","","","","",""
"null","","null","html-keyboard-response","150","208953","0.0-6.0-1.0-8.0-0.21","3","3","4","3","4","4","4","4","4","4","5","4","5","4","4","4","4","3","4","5","1","1","2","1","3","3","1","1","1","1","0","1","1","0","0","0","1","0","1","1","0","1","0","1","4","1","1","1","2","3","3","1","2","1","758958446577192962","练","446","","","","","","","","","","","","","","","","","","","","","","","","","","","","","","","","","","","","","","","",""
"524","<p style=""color:white; font-size: 35px;"">廉正</p>","e","categorize-html","151","209479","0.0-6.0-1.0-8.0-1.21","3","3","4","3","4","4","4","4","4","4","5","4","5","4","4","4","4","3","4","5","1","1","2","1","3","3","1","1","1","1","0","1","1","0","0","0","1","0","1","1","0","1","0","1","4","1","1","1","2","3","3","1","2","1","758958446577192962","练","446","","","","","","","","","","","","","","","","","","","true","14","4","moral","524","positive","廉正","","","","","","","","","","","","","","",""
"null","","null","html-keyboard-response","152","209731","0.0-6.0-1.0-8.0-0.22","3","3","4","3","4","4","4","4","4","4","5","4","5","4","4","4","4","3","4","5","1","1","2","1","3","3","1","1","1","1","0","1","1","0","0","0","1","0","1","1","0","1","0","1","4","1","1","1","2","3","3","1","2","1","758958446577192962","练","446","","","","","","","","","","","","","","","","","","","","","","","","","","","","","","","","","","","","","","","",""
"577","<p style=""color:rgb(150, 250, 100); font-size: 35px;"">他的</p>","i","categorize-html","153","210311","0.0-6.0-1.0-8.0-1.22","3","3","4","3","4","4","4","4","4","4","5","4","5","4","4","4","4","3","4","5","1","1","2","1","3","3","1","1","1","1","0","1","1","0","0","0","1","0","1","1","0","1","0","1","4","1","1","1","2","3","3","1","2","1","758958446577192962","练","446","","","","","","","","","","","","","","","","","","","true","14","4","moral","577","other","他的","","","","","","","","","","","","","","",""
"null","","null","html-keyboard-response","154","210562","0.0-6.0-1.0-8.0-0.23","3","3","4","3","4","4","4","4","4","4","5","4","5","4","4","4","4","3","4","5","1","1","2","1","3","3","1","1","1","1","0","1","1","0","0","0","1","0","1","1","0","1","0","1","4","1","1","1","2","3","3","1","2","1","758958446577192962","练","446","","","","","","","","","","","","","","","","","","","","","","","","","","","","","","","","","","","","","","","",""
"1427","<p style=""color:white; font-size: 35px;"">不仁</p>","i","categorize-html","155","211990","0.0-6.0-1.0-8.0-1.23","3","3","4","3","4","4","4","4","4","4","5","4","5","4","4","4","4","3","4","5","1","1","2","1","3","3","1","1","1","1","0","1","1","0","0","0","1","0","1","1","0","1","0","1","4","1","1","1","2","3","3","1","2","1","758958446577192962","练","446","","","","","","","","","","","","","","","","","","","true","14","4","moral","1427","negative","不仁","","","","","","","","","","","","","","",""
"null","","null","html-keyboard-response","156","212241","0.0-6.0-1.0-8.0-0.24","3","3","4","3","4","4","4","4","4","4","5","4","5","4","4","4","4","3","4","5","1","1","2","1","3","3","1","1","1","1","0","1","1","0","0","0","1","0","1","1","0","1","0","1","4","1","1","1","2","3","3","1","2","1","758958446577192962","练","446","","","","","","","","","","","","","","","","","","","","","","","","","","","","","","","","","","","","","","","",""
"986","<p style=""color:rgb(150, 250, 100); font-size: 35px;"">别人的</p>","i","categorize-html","157","213230","0.0-6.0-1.0-8.0-1.24","3","3","4","3","4","4","4","4","4","4","5","4","5","4","4","4","4","3","4","5","1","1","2","1","3","3","1","1","1","1","0","1","1","0","0","0","1","0","1","1","0","1","0","1","4","1","1","1","2","3","3","1","2","1","758958446577192962","练","446","","","","","","","","","","","","","","","","","","","true","14","4","moral","986","other","别人的","","","","","","","","","","","","","","",""
"null","","null","html-keyboard-response","158","213481","0.0-6.0-1.0-8.0-0.25","3","3","4","3","4","4","4","4","4","4","5","4","5","4","4","4","4","3","4","5","1","1","2","1","3","3","1","1","1","1","0","1","1","0","0","0","1","0","1","1","0","1","0","1","4","1","1","1","2","3","3","1","2","1","758958446577192962","练","446","","","","","","","","","","","","","","","","","","","","","","","","","","","","","","","","","","","","","","","",""
"691","<p style=""color:white; font-size: 35px;"">不孝</p>","i","categorize-html","159","214174","0.0-6.0-1.0-8.0-1.25","3","3","4","3","4","4","4","4","4","4","5","4","5","4","4","4","4","3","4","5","1","1","2","1","3","3","1","1","1","1","0","1","1","0","0","0","1","0","1","1","0","1","0","1","4","1","1","1","2","3","3","1","2","1","758958446577192962","练","446","","","","","","","","","","","","","","","","","","","true","14","4","moral","691","negative","不孝","","","","","","","","","","","","","","",""
"null","","null","html-keyboard-response","160","214429","0.0-6.0-1.0-8.0-0.26","3","3","4","3","4","4","4","4","4","4","5","4","5","4","4","4","4","3","4","5","1","1","2","1","3","3","1","1","1","1","0","1","1","0","0","0","1","0","1","1","0","1","0","1","4","1","1","1","2","3","3","1","2","1","758958446577192962","练","446","","","","","","","","","","","","","","","","","","","","","","","","","","","","","","","","","","","","","","","",""
"554","<p style=""color:rgb(150, 250, 100); font-size: 35px;"">自己</p>","e","categorize-html","161","214985","0.0-6.0-1.0-8.0-1.26","3","3","4","3","4","4","4","4","4","4","5","4","5","4","4","4","4","3","4","5","1","1","2","1","3","3","1","1","1","1","0","1","1","0","0","0","1","0","1","1","0","1","0","1","4","1","1","1","2","3","3","1","2","1","758958446577192962","练","446","","","","","","","","","","","","","","","","","","","true","14","4","moral","554","self","自己","","","","","","","","","","","","","","",""
"null","","null","html-keyboard-response","162","215235","0.0-6.0-1.0-8.0-0.27","3","3","4","3","4","4","4","4","4","4","5","4","5","4","4","4","4","3","4","5","1","1","2","1","3","3","1","1","1","1","0","1","1","0","0","0","1","0","1","1","0","1","0","1","4","1","1","1","2","3","3","1","2","1","758958446577192962","练","446","","","","","","","","","","","","","","","","","","","","","","","","","","","","","","","","","","","","","","","",""
"595","<p style=""color:white; font-size: 35px;"">诚信</p>","e","categorize-html","163","215833","0.0-6.0-1.0-8.0-1.27","3","3","4","3","4","4","4","4","4","4","5","4","5","4","4","4","4","3","4","5","1","1","2","1","3","3","1","1","1","1","0","1","1","0","0","0","1","0","1","1","0","1","0","1","4","1","1","1","2","3","3","1","2","1","758958446577192962","练","446","","","","","","","","","","","","","","","","","","","true","14","4","moral","595","positive","诚信","","","","","","","","","","","","","","",""
"null","","null","html-keyboard-response","164","216084","0.0-6.0-1.0-8.0-0.28","3","3","4","3","4","4","4","4","4","4","5","4","5","4","4","4","4","3","4","5","1","1","2","1","3","3","1","1","1","1","0","1","1","0","0","0","1","0","1","1","0","1","0","1","4","1","1","1","2","3","3","1","2","1","758958446577192962","练","446","","","","","","","","","","","","","","","","","","","","","","","","","","","","","","","","","","","","","","","",""
"1185","<p style=""color:rgb(150, 250, 100); font-size: 35px;"">他人的</p>","i","categorize-html","165","217271","0.0-6.0-1.0-8.0-1.28","3","3","4","3","4","4","4","4","4","4","5","4","5","4","4","4","4","3","4","5","1","1","2","1","3","3","1","1","1","1","0","1","1","0","0","0","1","0","1","1","0","1","0","1","4","1","1","1","2","3","3","1","2","1","758958446577192962","练","446","","","","","","","","","","","","","","","","","","","true","14","4","moral","1185","other","他人的","","","","","","","","","","","","","","",""
"null","","null","html-keyboard-response","166","217524","0.0-6.0-1.0-8.0-0.29","3","3","4","3","4","4","4","4","4","4","5","4","5","4","4","4","4","3","4","5","1","1","2","1","3","3","1","1","1","1","0","1","1","0","0","0","1","0","1","1","0","1","0","1","4","1","1","1","2","3","3","1","2","1","758958446577192962","练","446","","","","","","","","","","","","","","","","","","","","","","","","","","","","","","","","","","","","","","","",""
"1065","<p style=""color:white; font-size: 35px;"">不仁</p>","i","categorize-html","167","218591","0.0-6.0-1.0-8.0-1.29","3","3","4","3","4","4","4","4","4","4","5","4","5","4","4","4","4","3","4","5","1","1","2","1","3","3","1","1","1","1","0","1","1","0","0","0","1","0","1","1","0","1","0","1","4","1","1","1","2","3","3","1","2","1","758958446577192962","练","446","","","","","","","","","","","","","","","","","","","true","14","4","moral","1065","negative","不仁","","","","","","","","","","","","","","",""
"null","","null","html-keyboard-response","168","218842","0.0-6.0-1.0-8.0-0.30","3","3","4","3","4","4","4","4","4","4","5","4","5","4","4","4","4","3","4","5","1","1","2","1","3","3","1","1","1","1","0","1","1","0","0","0","1","0","1","1","0","1","0","1","4","1","1","1","2","3","3","1","2","1","758958446577192962","练","446","","","","","","","","","","","","","","","","","","","","","","","","","","","","","","","","","","","","","","","",""
"604","<p style=""color:rgb(150, 250, 100); font-size: 35px;"">我的</p>","e","categorize-html","169","219448","0.0-6.0-1.0-8.0-1.30","3","3","4","3","4","4","4","4","4","4","5","4","5","4","4","4","4","3","4","5","1","1","2","1","3","3","1","1","1","1","0","1","1","0","0","0","1","0","1","1","0","1","0","1","4","1","1","1","2","3","3","1","2","1","758958446577192962","练","446","","","","","","","","","","","","","","","","","","","true","14","4","moral","604","self","我的","","","","","","","","","","","","","","",""
"null","","null","html-keyboard-response","170","219699","0.0-6.0-1.0-8.0-0.31","3","3","4","3","4","4","4","4","4","4","5","4","5","4","4","4","4","3","4","5","1","1","2","1","3","3","1","1","1","1","0","1","1","0","0","0","1","0","1","1","0","1","0","1","4","1","1","1","2","3","3","1","2","1","758958446577192962","练","446","","","","","","","","","","","","","","","","","","","","","","","","","","","","","","","","","","","","","","","",""
"562","<p style=""color:white; font-size: 35px;"">正直</p>","e","categorize-html","171","220264","0.0-6.0-1.0-8.0-1.31","3","3","4","3","4","4","4","4","4","4","5","4","5","4","4","4","4","3","4","5","1","1","2","1","3","3","1","1","1","1","0","1","1","0","0","0","1","0","1","1","0","1","0","1","4","1","1","1","2","3","3","1","2","1","758958446577192962","练","446","","","","","","","","","","","","","","","","","","","true","14","4","moral","562","positive","正直","","","","","","","","","","","","","","",""
"null","","null","html-keyboard-response","172","220515","0.0-6.0-1.0-8.0-0.32","3","3","4","3","4","4","4","4","4","4","5","4","5","4","4","4","4","3","4","5","1","1","2","1","3","3","1","1","1","1","0","1","1","0","0","0","1","0","1","1","0","1","0","1","4","1","1","1","2","3","3","1","2","1","758958446577192962","练","446","","","","","","","","","","","","","","","","","","","","","","","","","","","","","","","","","","","","","","","",""
"675","<p style=""color:rgb(150, 250, 100); font-size: 35px;"">他人</p>","i","categorize-html","173","221192","0.0-6.0-1.0-8.0-1.32","3","3","4","3","4","4","4","4","4","4","5","4","5","4","4","4","4","3","4","5","1","1","2","1","3","3","1","1","1","1","0","1","1","0","0","0","1","0","1","1","0","1","0","1","4","1","1","1","2","3","3","1","2","1","758958446577192962","练","446","","","","","","","","","","","","","","","","","","","true","14","4","moral","675","other","他人","","","","","","","","","","","","","","",""
"null","","null","html-keyboard-response","174","221443","0.0-6.0-1.0-8.0-0.33","3","3","4","3","4","4","4","4","4","4","5","4","5","4","4","4","4","3","4","5","1","1","2","1","3","3","1","1","1","1","0","1","1","0","0","0","1","0","1","1","0","1","0","1","4","1","1","1","2","3","3","1","2","1","758958446577192962","练","446","","","","","","","","","","","","","","","","","","","","","","","","","","","","","","","","","","","","","","","",""
"561","<p style=""color:white; font-size: 35px;"">卑鄙</p>","i","categorize-html","175","222008","0.0-6.0-1.0-8.0-1.33","3","3","4","3","4","4","4","4","4","4","5","4","5","4","4","4","4","3","4","5","1","1","2","1","3","3","1","1","1","1","0","1","1","0","0","0","1","0","1","1","0","1","0","1","4","1","1","1","2","3","3","1","2","1","758958446577192962","练","446","","","","","","","","","","","","","","","","","","","true","14","4","moral","561","negative","卑鄙","","","","","","","","","","","","","","",""
"null","","null","html-keyboard-response","176","222260","0.0-6.0-1.0-8.0-0.34","3","3","4","3","4","4","4","4","4","4","5","4","5","4","4","4","4","3","4","5","1","1","2","1","3","3","1","1","1","1","0","1","1","0","0","0","1","0","1","1","0","1","0","1","4","1","1","1","2","3","3","1","2","1","758958446577192962","练","446","","","","","","","","","","","","","","","","","","","","","","","","","","","","","","","","","","","","","","","",""
"584","<p style=""color:rgb(150, 250, 100); font-size: 35px;"">自己</p>","e","categorize-html","177","222846","0.0-6.0-1.0-8.0-1.34","3","3","4","3","4","4","4","4","4","4","5","4","5","4","4","4","4","3","4","5","1","1","2","1","3","3","1","1","1","1","0","1","1","0","0","0","1","0","1","1","0","1","0","1","4","1","1","1","2","3","3","1","2","1","758958446577192962","练","446","","","","","","","","","","","","","","","","","","","true","14","4","moral","584","self","自己","","","","","","","","","","","","","","",""
"null","","null","html-keyboard-response","178","223098","0.0-6.0-1.0-8.0-0.35","3","3","4","3","4","4","4","4","4","4","5","4","5","4","4","4","4","3","4","5","1","1","2","1","3","3","1","1","1","1","0","1","1","0","0","0","1","0","1","1","0","1","0","1","4","1","1","1","2","3","3","1","2","1","758958446577192962","练","446","","","","","","","","","","","","","","","","","","","","","","","","","","","","","","","","","","","","","","","",""
"915","<p style=""color:white; font-size: 35px;"">善良</p>","e","categorize-html","179","224014","0.0-6.0-1.0-8.0-1.35","3","3","4","3","4","4","4","4","4","4","5","4","5","4","4","4","4","3","4","5","1","1","2","1","3","3","1","1","1","1","0","1","1","0","0","0","1","0","1","1","0","1","0","1","4","1","1","1","2","3","3","1","2","1","758958446577192962","练","446","","","","","","","","","","","","","","","","","","","true","14","4","moral","915","positive","善良","","","","","","","","","","","","","","",""
"null","","null","html-keyboard-response","180","224266","0.0-6.0-1.0-8.0-0.36","3","3","4","3","4","4","4","4","4","4","5","4","5","4","4","4","4","3","4","5","1","1","2","1","3","3","1","1","1","1","0","1","1","0","0","0","1","0","1","1","0","1","0","1","4","1","1","1","2","3","3","1","2","1","758958446577192962","练","446","","","","","","","","","","","","","","","","","","","","","","","","","","","","","","","","","","","","","","","",""
"618","<p style=""color:rgb(150, 250, 100); font-size: 35px;"">我的</p>","e","categorize-html","181","224887","0.0-6.0-1.0-8.0-1.36","3","3","4","3","4","4","4","4","4","4","5","4","5","4","4","4","4","3","4","5","1","1","2","1","3","3","1","1","1","1","0","1","1","0","0","0","1","0","1","1","0","1","0","1","4","1","1","1","2","3","3","1","2","1","758958446577192962","练","446","","","","","","","","","","","","","","","","","","","true","14","4","moral","618","self","我的","","","","","","","","","","","","","","",""
"null","","null","html-keyboard-response","182","225138","0.0-6.0-1.0-8.0-0.37","3","3","4","3","4","4","4","4","4","4","5","4","5","4","4","4","4","3","4","5","1","1","2","1","3","3","1","1","1","1","0","1","1","0","0","0","1","0","1","1","0","1","0","1","4","1","1","1","2","3","3","1","2","1","758958446577192962","练","446","","","","","","","","","","","","","","","","","","","","","","","","","","","","","","","","","","","","","","","",""
"839","<p style=""color:white; font-size: 35px;"">缺德</p>","i","categorize-html","183","225979","0.0-6.0-1.0-8.0-1.37","3","3","4","3","4","4","4","4","4","4","5","4","5","4","4","4","4","3","4","5","1","1","2","1","3","3","1","1","1","1","0","1","1","0","0","0","1","0","1","1","0","1","0","1","4","1","1","1","2","3","3","1","2","1","758958446577192962","练","446","","","","","","","","","","","","","","","","","","","true","14","4","moral","839","negative","缺德","","","","","","","","","","","","","","",""
"null","","null","html-keyboard-response","184","226231","0.0-6.0-1.0-8.0-0.38","3","3","4","3","4","4","4","4","4","4","5","4","5","4","4","4","4","3","4","5","1","1","2","1","3","3","1","1","1","1","0","1","1","0","0","0","1","0","1","1","0","1","0","1","4","1","1","1","2","3","3","1","2","1","758958446577192962","练","446","","","","","","","","","","","","","","","","","","","","","","","","","","","","","","","","","","","","","","","",""
"565","<p style=""color:rgb(150, 250, 100); font-size: 35px;"">他</p>","i","categorize-html","185","226798","0.0-6.0-1.0-8.0-1.38","3","3","4","3","4","4","4","4","4","4","5","4","5","4","4","4","4","3","4","5","1","1","2","1","3","3","1","1","1","1","0","1","1","0","0","0","1","0","1","1","0","1","0","1","4","1","1","1","2","3","3","1","2","1","758958446577192962","练","446","","","","","","","","","","","","","","","","","","","true","14","4","moral","565","other","他","","","","","","","","","","","","","","",""
"null","","null","html-keyboard-response","186","227049","0.0-6.0-1.0-8.0-0.39","3","3","4","3","4","4","4","4","4","4","5","4","5","4","4","4","4","3","4","5","1","1","2","1","3","3","1","1","1","1","0","1","1","0","0","0","1","0","1","1","0","1","0","1","4","1","1","1","2","3","3","1","2","1","758958446577192962","练","446","","","","","","","","","","","","","","","","","","","","","","","","","","","","","","","","","","","","","","","",""
"779","<p style=""color:white; font-size: 35px;"">君子</p>","i","categorize-html","187","228373","0.0-6.0-1.0-8.0-1.39","3","3","4","3","4","4","4","4","4","4","5","4","5","4","4","4","4","3","4","5","1","1","2","1","3","3","1","1","1","1","0","1","1","0","0","0","1","0","1","1","0","1","0","1","4","1","1","1","2","3","3","1","2","1","758958446577192962","练","446","","","","","","","","","","","","","","","","","","","false","14","4","moral","1324.217391304348","positive","君子","","","","","","","","","","","","","","",""
"null","","null","html-keyboard-response","188","228624","0.0-6.0-1.0-8.0-0.40","3","3","4","3","4","4","4","4","4","4","5","4","5","4","4","4","4","3","4","5","1","1","2","1","3","3","1","1","1","1","0","1","1","0","0","0","1","0","1","1","0","1","0","1","4","1","1","1","2","3","3","1","2","1","758958446577192962","练","446","","","","","","","","","","","","","","","","","","","","","","","","","","","","","","","","","","","","","","","",""
"661","<p style=""color:rgb(150, 250, 100); font-size: 35px;"">本人</p>","e","categorize-html","189","229290","0.0-6.0-1.0-8.0-1.40","3","3","4","3","4","4","4","4","4","4","5","4","5","4","4","4","4","3","4","5","1","1","2","1","3","3","1","1","1","1","0","1","1","0","0","0","1","0","1","1","0","1","0","1","4","1","1","1","2","3","3","1","2","1","758958446577192962","练","446","","","","","","","","","","","","","","","","","","","true","14","4","moral","661","self","本人","","","","","","","","","","","","","","",""
"null","","null","html-keyboard-response","190","229541","0.0-6.0-1.0-8.0-0.41","3","3","4","3","4","4","4","4","4","4","5","4","5","4","4","4","4","3","4","5","1","1","2","1","3","3","1","1","1","1","0","1","1","0","0","0","1","0","1","1","0","1","0","1","4","1","1","1","2","3","3","1","2","1","758958446577192962","练","446","","","","","","","","","","","","","","","","","","","","","","","","","","","","","","","","","","","","","","","",""
"592","<p style=""color:white; font-size: 35px;"">黑心</p>","i","categorize-html","191","230135","0.0-6.0-1.0-8.0-1.41","3","3","4","3","4","4","4","4","4","4","5","4","5","4","4","4","4","3","4","5","1","1","2","1","3","3","1","1","1","1","0","1","1","0","0","0","1","0","1","1","0","1","0","1","4","1","1","1","2","3","3","1","2","1","758958446577192962","练","446","","","","","","","","","","","","","","","","","","","true","14","4","moral","592","negative","黑心","","","","","","","","","","","","","","",""
"null","","null","html-keyboard-response","192","230386","0.0-6.0-1.0-8.0-0.42","3","3","4","3","4","4","4","4","4","4","5","4","5","4","4","4","4","3","4","5","1","1","2","1","3","3","1","1","1","1","0","1","1","0","0","0","1","0","1","1","0","1","0","1","4","1","1","1","2","3","3","1","2","1","758958446577192962","练","446","","","","","","","","","","","","","","","","","","","","","","","","","","","","","","","","","","","","","","","",""
"978","<p style=""color:rgb(150, 250, 100); font-size: 35px;"">他</p>","i","categorize-html","193","231366","0.0-6.0-1.0-8.0-1.42","3","3","4","3","4","4","4","4","4","4","5","4","5","4","4","4","4","3","4","5","1","1","2","1","3","3","1","1","1","1","0","1","1","0","0","0","1","0","1","1","0","1","0","1","4","1","1","1","2","3","3","1","2","1","758958446577192962","练","446","","","","","","","","","","","","","","","","","","","true","14","4","moral","978","other","他","","","","","","","","","","","","","","",""
"null","","null","html-keyboard-response","194","231618","0.0-6.0-1.0-8.0-0.43","3","3","4","3","4","4","4","4","4","4","5","4","5","4","4","4","4","3","4","5","1","1","2","1","3","3","1","1","1","1","0","1","1","0","0","0","1","0","1","1","0","1","0","1","4","1","1","1","2","3","3","1","2","1","758958446577192962","练","446","","","","","","","","","","","","","","","","","","","","","","","","","","","","","","","","","","","","","","","",""
"554","<p style=""color:white; font-size: 35px;"">廉正</p>","e","categorize-html","195","232175","0.0-6.0-1.0-8.0-1.43","3","3","4","3","4","4","4","4","4","4","5","4","5","4","4","4","4","3","4","5","1","1","2","1","3","3","1","1","1","1","0","1","1","0","0","0","1","0","1","1","0","1","0","1","4","1","1","1","2","3","3","1","2","1","758958446577192962","练","446","","","","","","","","","","","","","","","","","","","true","14","4","moral","554","positive","廉正","","","","","","","","","","","","","","",""
"null","","null","html-keyboard-response","196","232427","0.0-6.0-1.0-8.0-0.44","3","3","4","3","4","4","4","4","4","4","5","4","5","4","4","4","4","3","4","5","1","1","2","1","3","3","1","1","1","1","0","1","1","0","0","0","1","0","1","1","0","1","0","1","4","1","1","1","2","3","3","1","2","1","758958446577192962","练","446","","","","","","","","","","","","","","","","","","","","","","","","","","","","","","","","","","","","","","","",""
"842","<p style=""color:rgb(150, 250, 100); font-size: 35px;"">他人</p>","i","categorize-html","197","233272","0.0-6.0-1.0-8.0-1.44","3","3","4","3","4","4","4","4","4","4","5","4","5","4","4","4","4","3","4","5","1","1","2","1","3","3","1","1","1","1","0","1","1","0","0","0","1","0","1","1","0","1","0","1","4","1","1","1","2","3","3","1","2","1","758958446577192962","练","446","","","","","","","","","","","","","","","","","","","true","14","4","moral","842","other","他人","","","","","","","","","","","","","","",""
