"rt","stimulus","response","trial_type","trial_index","time_elapsed","internal_node_id","ses_1","ses_2","ses_3","ses_4","ses_5","ses_6","ses_7","ses_8","ses_9","ses_10","coreself_1","coreself_2","coreself_3","coreself_4","coreself_5","coreself_6","coreself_7","coreself_8","coreself_9","coreself_10","SGPS_1","SGPS_2","SGPS_3","SGPS_4","SGPS_5","SGPS_6","SGPS_7","SGPS_8","SGPS_9","NPI1","NPI2","NPI3","NPI4","NPI5","NPI6","NPI7","NPI8","NPI9","NPI10","NPI11","NPI12","NPI13","NPI14","NPI15","hsns_1","hsns_2","hsns_3","hsns_4","hsns_5","hsns_6","hsns_7","hsns_8","hsns_9","hsns_10","subj_idx","friend_name","ParticipantID","value","success","user_agent","responses","item_order","radio_event_ids","radio_event_times","key_event_times","mouse_event_times","straightlining","zigzagging","honeypot","timeout","failed_images","failed_audio","failed_video","version_attrib","version_target","correct","IAT","screen_id","task_id","RT","condition","word","varname","summary","version_attrib2","version_target2","time_stamp","view_history","response_type","key_press","avg_frame_time","center_x","center_y","correct_response","identity","Image","question_order"
"7556","
   <p><div style = ""color: white;font-size:25px;"">您好，欢迎参加本次实验。</div> </p>
   <p><div style = ""color: white;font-size:25px;"">为充分保障您的权利，请确保您已经知晓并同意《参与实验同意书》以及《数据公开知情同意书》。</div></p>
   <p><div style = ""color: white;font-size:25px;"">如果您未见过上述内容，请咨询实验员。</div></p>
   <p><div style = ""color: white;font-size:25px;"">如果您选择继续实验，则表示您已经清楚两份知情同意书的内容并同意。</div></p>
   <p><div style = ""color: red;font-size:30px;"">请确保您记得day0的实验编号，您将在本次实验输入该编号，若您忘记，请咨询实验员后作答。</div></p>
   <p> <div style = ""color: green;font-size:25px;""><按空格键至下页></div> </p>
   "," ","html-keyboard-response","0","7558","0.0-0.0","4","3","4","3","3","4","3","4","4","3","5","4","4","4","4","5","4","4","4","4","4","5","4","4","5","4","4","4","5","1","0","0","1","0","0","1","1","0","1","1","0","1","0","1","4","2","4","4","4","2","2","1","2","2","715186425389121536","郭","312","","","","","","","","","","","","","","","","","","","","","","","","","","","","","","","","","","","","","","","",""
"","","","call-function","1","7559","0.0-1.0-0.0","4","3","4","3","3","4","3","4","4","3","5","4","4","4","4","5","4","4","4","4","4","5","4","4","5","4","4","4","5","1","0","0","1","0","0","1","1","0","1","1","0","1","0","1","4","2","4","4","4","2","2","1","2","2","715186425389121536","郭","312","","","","","","","","","","","","","","","","","","","","","","","","","","","","","","","","","","","","","","","",""
"56996","","{""friend_name"":""郭"",""ParticipantID"":""312""}","survey-html-form","2","64556","0.0-1.0-1.0","4","3","4","3","3","4","3","4","4","3","5","4","4","4","4","5","4","4","4","4","4","5","4","4","5","4","4","4","5","1","0","0","1","0","0","1","1","0","1","1","0","1","0","1","4","2","4","4","4","2","2","1","2","2","715186425389121536","郭","312","","","","","","","","","","","","","","","","","","","","","","","","","","","","","","","","","","","","","","","",""
"","","","fullscreen","3","74793","0.0-2.0","4","3","4","3","3","4","3","4","4","3","5","4","4","4","4","5","4","4","4","4","4","5","4","4","5","4","4","4","5","1","0","0","1","0","0","1","1","0","1","1","0","1","0","1","4","2","4","4","4","2","2","1","2","2","715186425389121536","郭","312","","true","{}","","","","","","","","","","","","","","","","","","","","","","","","","","","","","","","","","","","","",""
"19093","","{""Q01"":""4"",""Q02"":""3"",""Q03"":""4"",""Q04"":""3"",""Q05"":""3"",""Q06"":""4"",""Q07"":""3"",""Q08"":""4"",""Q09"":""4"",""Q10"":""3""}","survey-template","4","93890","0.0-3.0","4","3","4","3","3","4","3","4","4","3","5","4","4","4","4","5","4","4","4","4","4","5","4","4","5","4","4","4","5","1","0","0","1","0","0","1","1","0","1","1","0","1","0","1","4","2","4","4","4","2","2","1","2","2","715186425389121536","郭","312","","","","{""Q01"":""4"",""Q02"":""3"",""Q03"":""4"",""Q04"":""3"",""Q05"":""3"",""Q06"":""4"",""Q07"":""3"",""Q08"":""4"",""Q09"":""4"",""Q10"":""3""}","[0,1,2,3,4,5,6,7,8,9]","[""Q01"",""Q02"",""Q03"",""Q04"",""Q05"",""Q06"",""Q07"",""Q08"",""Q08"",""Q09"",""Q10""]","[3100.0999999046326,4191.699999928474,6184.199999928474,7696.399999976158,8802,10314.699999928474,11494.099999904633,13554,16536.099999904633,17352.199999928474,18227.799999952316]","[]","[3100.0999999046326,4191.699999928474,6184.199999928474,7696.399999976158,8802,10314.699999928474,11494.099999904633,13554,16536.099999904633,17352.199999928474,18227.799999952316,19092.099999904633]","0.3","0.4444444444444444","0","","","","","","","","","","","","","","","","","","","","","","","","","","","",""
"18972.699999928474","","{""Q01"":""5"",""Q02"":""4"",""Q03"":""4"",""Q04"":""4"",""Q05"":""4"",""Q06"":""5"",""Q07"":""4"",""Q08"":""4"",""Q09"":""4"",""Q10"":""4""}","survey-template","5","112868","0.0-4.0","4","3","4","3","3","4","3","4","4","3","5","4","4","4","4","5","4","4","4","4","4","5","4","4","5","4","4","4","5","1","0","0","1","0","0","1","1","0","1","1","0","1","0","1","4","2","4","4","4","2","2","1","2","2","715186425389121536","郭","312","","","","{""Q01"":""5"",""Q02"":""4"",""Q03"":""4"",""Q04"":""4"",""Q05"":""4"",""Q06"":""5"",""Q07"":""4"",""Q08"":""4"",""Q09"":""4"",""Q10"":""4""}","[0,1,2,3,4,5,6,7,8,9]","[""Q01"",""Q02"",""Q03"",""Q04"",""Q05"",""Q06"",""Q07"",""Q08"",""Q09"",""Q10""]","[2845.6999999284744,4879.799999952316,5688.099999904633,6963.699999928474,8947.399999976158,10699.399999976158,12333.299999952316,14053.399999976158,15197.5,16417.5]","[]","[1589.5999999046326,2845.6999999284744,3711.6999999284744,4879.799999952316,5688.099999904633,6963.699999928474,8947.399999976158,10699.399999976158,12333.299999952316,14053.399999976158,15197.5,16417.5,18971.799999952316]","0.6","0","0","","","","","","","","","","","","","","","","","","","","","","","","","","","",""
"","","","preload","6","113475","0.0-5.0","4","3","4","3","3","4","3","4","4","3","5","4","4","4","4","5","4","4","4","4","4","5","4","4","5","4","4","4","5","1","0","0","1","0","0","1","1","0","1","1","0","1","0","1","4","2","4","4","4","2","2","1","2","2","715186425389121536","郭","312","","true","","","","","","","","","","","false","[]","[]","[]","","","","","","","","","","","","","","","","","","","","","","","",""
"24124","
    <h3>词语分类任务</h3>
    <p>在接下来的任务中，你需要对一系列词语进行分类。</p>
    <p>请先熟悉这些词语，这有利于你完成接下来的任务。</p>
    <table align=""center"" border=1 cellpadding=3 cellspacing=0>
    <tr> <th>类别</th> <th>词语</th> </tr>
    <tr> <td>&emsp;积极&emsp;</td> <td>&emsp;能干、全能、全才、高效、精干、天才&emsp;</td> </tr>
    <tr> <td>&emsp;消极&emsp;</td> <td>&emsp;无能、低能、废物、拙笨、愚钝、蠢笨&emsp;</td> </tr>
    <tr> <td>&emsp;自我&emsp;</td> <td>&emsp;我、我的、自己、自己的、本人、本人的&emsp;</td> </tr>
    <tr> <td>&emsp;他人&emsp;</td> <td>&emsp;他、他的、别人、别人的、他人、他人的&emsp;</td> </tr>
    </table><br/>","0","html-button-response","7","137601","0.0-6.0-0.0-0.0","4","3","4","3","3","4","3","4","4","3","5","4","4","4","4","5","4","4","4","4","4","5","4","4","5","4","4","4","5","1","0","0","1","0","0","1","1","0","1","1","0","1","0","1","4","2","4","4","4","2","2","1","2","2","715186425389121536","郭","312","","","","","","","","","","","","","","","","","1","2","","","","","","","","","","","","","","","","","","","","","",""
"18629","
    <div class=""tag-bottom"">
    <p> —— 任务1：对“他人”词和“自我”词分类 ——<p/>
    不同词语会出现在屏幕中央，类别标签将始终显示在屏幕上方<p/>   
    <span style=""color:#FFD866""><b>请根据上方标签的提示，尽可能正确并且快速地做出按键反应</b></span><p/>
    当按键错误时屏幕中会出现<span style=""color:red""> X </span>，需要按另一个键纠正才能继续<br/><p/>
    请把双手食指分别放在键盘的“E”键和“I”键上<p/>
    按<空格键>开始
    </p></div>"," ","html-keyboard-response","8","156233","0.0-6.0-0.0-1.0","4","3","4","3","3","4","3","4","4","3","5","4","4","4","4","5","4","4","4","4","4","5","4","4","5","4","4","4","5","1","0","0","1","0","0","1","1","0","1","1","0","1","0","1","4","2","4","4","4","2","2","1","2","2","715186425389121536","郭","312","","","","","","","","","","","","","","","","","","","","","","","","","","","","","","","","","","","","","","","",""
"null","","null","html-keyboard-response","9","156489","0.0-6.0-0.0-2.0-0.0","4","3","4","3","3","4","3","4","4","3","5","4","4","4","4","5","4","4","4","4","4","5","4","4","5","4","4","4","5","1","0","0","1","0","0","1","1","0","1","1","0","1","0","1","4","2","4","4","4","2","2","1","2","2","715186425389121536","郭","312","","","","","","","","","","","","","","","","","","","","","","","","","","","","","","","","","","","","","","","",""
"1195","<p style=""color:rgb(150, 250, 100); font-size: 35px;"">我的</p>","i","categorize-html","10","157687","0.0-6.0-0.0-2.0-1.0","4","3","4","3","3","4","3","4","4","3","5","4","4","4","4","5","4","4","4","4","4","5","4","4","5","4","4","4","5","1","0","0","1","0","0","1","1","0","1","1","0","1","0","1","4","2","4","4","4","2","2","1","2","2","715186425389121536","郭","312","","","","","","","","","","","","","","","","","","","true","1","1","ability","1195","self","我的","","","","","","","","","","","","","","",""
"null","","null","html-keyboard-response","11","157945","0.0-6.0-0.0-2.0-0.1","4","3","4","3","3","4","3","4","4","3","5","4","4","4","4","5","4","4","4","4","4","5","4","4","5","4","4","4","5","1","0","0","1","0","0","1","1","0","1","1","0","1","0","1","4","2","4","4","4","2","2","1","2","2","715186425389121536","郭","312","","","","","","","","","","","","","","","","","","","","","","","","","","","","","","","","","","","","","","","",""
"594","<p style=""color:rgb(150, 250, 100); font-size: 35px;"">别人</p>","e","categorize-html","12","158540","0.0-6.0-0.0-2.0-1.1","4","3","4","3","3","4","3","4","4","3","5","4","4","4","4","5","4","4","4","4","4","5","4","4","5","4","4","4","5","1","0","0","1","0","0","1","1","0","1","1","0","1","0","1","4","2","4","4","4","2","2","1","2","2","715186425389121536","郭","312","","","","","","","","","","","","","","","","","","","true","1","1","ability","594","other","别人","","","","","","","","","","","","","","",""
"null","","null","html-keyboard-response","13","158793","0.0-6.0-0.0-2.0-0.2","4","3","4","3","3","4","3","4","4","3","5","4","4","4","4","5","4","4","4","4","4","5","4","4","5","4","4","4","5","1","0","0","1","0","0","1","1","0","1","1","0","1","0","1","4","2","4","4","4","2","2","1","2","2","715186425389121536","郭","312","","","","","","","","","","","","","","","","","","","","","","","","","","","","","","","","","","","","","","","",""
"501","<p style=""color:rgb(150, 250, 100); font-size: 35px;"">他人</p>","e","categorize-html","14","159296","0.0-6.0-0.0-2.0-1.2","4","3","4","3","3","4","3","4","4","3","5","4","4","4","4","5","4","4","4","4","4","5","4","4","5","4","4","4","5","1","0","0","1","0","0","1","1","0","1","1","0","1","0","1","4","2","4","4","4","2","2","1","2","2","715186425389121536","郭","312","","","","","","","","","","","","","","","","","","","true","1","1","ability","501","other","他人","","","","","","","","","","","","","","",""
"null","","null","html-keyboard-response","15","159554","0.0-6.0-0.0-2.0-0.3","4","3","4","3","3","4","3","4","4","3","5","4","4","4","4","5","4","4","4","4","4","5","4","4","5","4","4","4","5","1","0","0","1","0","0","1","1","0","1","1","0","1","0","1","4","2","4","4","4","2","2","1","2","2","715186425389121536","郭","312","","","","","","","","","","","","","","","","","","","","","","","","","","","","","","","","","","","","","","","",""
"487","<p style=""color:rgb(150, 250, 100); font-size: 35px;"">别人的</p>","e","categorize-html","16","160042","0.0-6.0-0.0-2.0-1.3","4","3","4","3","3","4","3","4","4","3","5","4","4","4","4","5","4","4","4","4","4","5","4","4","5","4","4","4","5","1","0","0","1","0","0","1","1","0","1","1","0","1","0","1","4","2","4","4","4","2","2","1","2","2","715186425389121536","郭","312","","","","","","","","","","","","","","","","","","","true","1","1","ability","487","other","别人的","","","","","","","","","","","","","","",""
"null","","null","html-keyboard-response","17","160298","0.0-6.0-0.0-2.0-0.4","4","3","4","3","3","4","3","4","4","3","5","4","4","4","4","5","4","4","4","4","4","5","4","4","5","4","4","4","5","1","0","0","1","0","0","1","1","0","1","1","0","1","0","1","4","2","4","4","4","2","2","1","2","2","715186425389121536","郭","312","","","","","","","","","","","","","","","","","","","","","","","","","","","","","","","","","","","","","","","",""
"523","<p style=""color:rgb(150, 250, 100); font-size: 35px;"">自己的</p>","i","categorize-html","18","160822","0.0-6.0-0.0-2.0-1.4","4","3","4","3","3","4","3","4","4","3","5","4","4","4","4","5","4","4","4","4","4","5","4","4","5","4","4","4","5","1","0","0","1","0","0","1","1","0","1","1","0","1","0","1","4","2","4","4","4","2","2","1","2","2","715186425389121536","郭","312","","","","","","","","","","","","","","","","","","","true","1","1","ability","523","self","自己的","","","","","","","","","","","","","","",""
"null","","null","html-keyboard-response","19","161073","0.0-6.0-0.0-2.0-0.5","4","3","4","3","3","4","3","4","4","3","5","4","4","4","4","5","4","4","4","4","4","5","4","4","5","4","4","4","5","1","0","0","1","0","0","1","1","0","1","1","0","1","0","1","4","2","4","4","4","2","2","1","2","2","715186425389121536","郭","312","","","","","","","","","","","","","","","","","","","","","","","","","","","","","","","","","","","","","","","",""
"499","<p style=""color:rgb(150, 250, 100); font-size: 35px;"">本人的</p>","i","categorize-html","20","161573","0.0-6.0-0.0-2.0-1.5","4","3","4","3","3","4","3","4","4","3","5","4","4","4","4","5","4","4","4","4","4","5","4","4","5","4","4","4","5","1","0","0","1","0","0","1","1","0","1","1","0","1","0","1","4","2","4","4","4","2","2","1","2","2","715186425389121536","郭","312","","","","","","","","","","","","","","","","","","","true","1","1","ability","499","self","本人的","","","","","","","","","","","","","","",""
"null","","null","html-keyboard-response","21","161826","0.0-6.0-0.0-2.0-0.6","4","3","4","3","3","4","3","4","4","3","5","4","4","4","4","5","4","4","4","4","4","5","4","4","5","4","4","4","5","1","0","0","1","0","0","1","1","0","1","1","0","1","0","1","4","2","4","4","4","2","2","1","2","2","715186425389121536","郭","312","","","","","","","","","","","","","","","","","","","","","","","","","","","","","","","","","","","","","","","",""
"432","<p style=""color:rgb(150, 250, 100); font-size: 35px;"">本人</p>","i","categorize-html","22","162260","0.0-6.0-0.0-2.0-1.6","4","3","4","3","3","4","3","4","4","3","5","4","4","4","4","5","4","4","4","4","4","5","4","4","5","4","4","4","5","1","0","0","1","0","0","1","1","0","1","1","0","1","0","1","4","2","4","4","4","2","2","1","2","2","715186425389121536","郭","312","","","","","","","","","","","","","","","","","","","true","1","1","ability","432","self","本人","","","","","","","","","","","","","","",""
"null","","null","html-keyboard-response","23","162514","0.0-6.0-0.0-2.0-0.7","4","3","4","3","3","4","3","4","4","3","5","4","4","4","4","5","4","4","4","4","4","5","4","4","5","4","4","4","5","1","0","0","1","0","0","1","1","0","1","1","0","1","0","1","4","2","4","4","4","2","2","1","2","2","715186425389121536","郭","312","","","","","","","","","","","","","","","","","","","","","","","","","","","","","","","","","","","","","","","",""
"419","<p style=""color:rgb(150, 250, 100); font-size: 35px;"">自己</p>","i","categorize-html","24","162934","0.0-6.0-0.0-2.0-1.7","4","3","4","3","3","4","3","4","4","3","5","4","4","4","4","5","4","4","4","4","4","5","4","4","5","4","4","4","5","1","0","0","1","0","0","1","1","0","1","1","0","1","0","1","4","2","4","4","4","2","2","1","2","2","715186425389121536","郭","312","","","","","","","","","","","","","","","","","","","true","1","1","ability","419","self","自己","","","","","","","","","","","","","","",""
"null","","null","html-keyboard-response","25","163191","0.0-6.0-0.0-2.0-0.8","4","3","4","3","3","4","3","4","4","3","5","4","4","4","4","5","4","4","4","4","4","5","4","4","5","4","4","4","5","1","0","0","1","0","0","1","1","0","1","1","0","1","0","1","4","2","4","4","4","2","2","1","2","2","715186425389121536","郭","312","","","","","","","","","","","","","","","","","","","","","","","","","","","","","","","","","","","","","","","",""
"521","<p style=""color:rgb(150, 250, 100); font-size: 35px;"">他</p>","e","categorize-html","26","163714","0.0-6.0-0.0-2.0-1.8","4","3","4","3","3","4","3","4","4","3","5","4","4","4","4","5","4","4","4","4","4","5","4","4","5","4","4","4","5","1","0","0","1","0","0","1","1","0","1","1","0","1","0","1","4","2","4","4","4","2","2","1","2","2","715186425389121536","郭","312","","","","","","","","","","","","","","","","","","","true","1","1","ability","521","other","他","","","","","","","","","","","","","","",""
"null","","null","html-keyboard-response","27","163970","0.0-6.0-0.0-2.0-0.9","4","3","4","3","3","4","3","4","4","3","5","4","4","4","4","5","4","4","4","4","4","5","4","4","5","4","4","4","5","1","0","0","1","0","0","1","1","0","1","1","0","1","0","1","4","2","4","4","4","2","2","1","2","2","715186425389121536","郭","312","","","","","","","","","","","","","","","","","","","","","","","","","","","","","","","","","","","","","","","",""
"393","<p style=""color:rgb(150, 250, 100); font-size: 35px;"">他人的</p>","e","categorize-html","28","164363","0.0-6.0-0.0-2.0-1.9","4","3","4","3","3","4","3","4","4","3","5","4","4","4","4","5","4","4","4","4","4","5","4","4","5","4","4","4","5","1","0","0","1","0","0","1","1","0","1","1","0","1","0","1","4","2","4","4","4","2","2","1","2","2","715186425389121536","郭","312","","","","","","","","","","","","","","","","","","","true","1","1","ability","393","other","他人的","","","","","","","","","","","","","","",""
"null","","null","html-keyboard-response","29","164618","0.0-6.0-0.0-2.0-0.10","4","3","4","3","3","4","3","4","4","3","5","4","4","4","4","5","4","4","4","4","4","5","4","4","5","4","4","4","5","1","0","0","1","0","0","1","1","0","1","1","0","1","0","1","4","2","4","4","4","2","2","1","2","2","715186425389121536","郭","312","","","","","","","","","","","","","","","","","","","","","","","","","","","","","","","","","","","","","","","",""
"379","<p style=""color:rgb(150, 250, 100); font-size: 35px;"">他的</p>","e","categorize-html","30","164998","0.0-6.0-0.0-2.0-1.10","4","3","4","3","3","4","3","4","4","3","5","4","4","4","4","5","4","4","4","4","4","5","4","4","5","4","4","4","5","1","0","0","1","0","0","1","1","0","1","1","0","1","0","1","4","2","4","4","4","2","2","1","2","2","715186425389121536","郭","312","","","","","","","","","","","","","","","","","","","true","1","1","ability","379","other","他的","","","","","","","","","","","","","","",""
"null","","null","html-keyboard-response","31","165249","0.0-6.0-0.0-2.0-0.11","4","3","4","3","3","4","3","4","4","3","5","4","4","4","4","5","4","4","4","4","4","5","4","4","5","4","4","4","5","1","0","0","1","0","0","1","1","0","1","1","0","1","0","1","4","2","4","4","4","2","2","1","2","2","715186425389121536","郭","312","","","","","","","","","","","","","","","","","","","","","","","","","","","","","","","","","","","","","","","",""
"327","<p style=""color:rgb(150, 250, 100); font-size: 35px;"">我</p>","e","categorize-html","32","166059","0.0-6.0-0.0-2.0-1.11","4","3","4","3","3","4","3","4","4","3","5","4","4","4","4","5","4","4","4","4","4","5","4","4","5","4","4","4","5","1","0","0","1","0","0","1","1","0","1","1","0","1","0","1","4","2","4","4","4","2","2","1","2","2","715186425389121536","郭","312","","","","","","","","","","","","","","","","","","","false","1","1","ability","327","self","我","","","","","","","","","","","","","","",""
"6308","
    <div class=""tag-bottom""><p>
    —— 任务2：对“积极”词和“消极”词分类 ——<p/>   
    <span style=""color:#78DCE8""><b>注意上方，类别标签和需要分类的词语都已经改变</b></span><p/>
    <span style=""color:#FFD866""><b>请根据上方标签的提示，尽可能正确并且快速地做出按键反应</b></span><p/>
    当按键错误时屏幕中会出现<span style=""color:red""> X </span>，需要按另一个键纠正才能继续<br/><p/>
    请把双手食指分别放在键盘的“E”键和“I”键上<p/>
    按<空格键>开始
    </p></div>"," ","html-keyboard-response","33","172367","0.0-6.0-0.0-3.0","4","3","4","3","3","4","3","4","4","3","5","4","4","4","4","5","4","4","4","4","4","5","4","4","5","4","4","4","5","1","0","0","1","0","0","1","1","0","1","1","0","1","0","1","4","2","4","4","4","2","2","1","2","2","715186425389121536","郭","312","","","","","","","","","","","","","","","","","","","","","","","","","","","","","","","","","","","","","","","",""
"null","","null","html-keyboard-response","34","172625","0.0-6.0-0.0-4.0-0.0","4","3","4","3","3","4","3","4","4","3","5","4","4","4","4","5","4","4","4","4","4","5","4","4","5","4","4","4","5","1","0","0","1","0","0","1","1","0","1","1","0","1","0","1","4","2","4","4","4","2","2","1","2","2","715186425389121536","郭","312","","","","","","","","","","","","","","","","","","","","","","","","","","","","","","","","","","","","","","","",""
"1007","<p style=""color:white; font-size: 35px;"">精干</p>","e","categorize-html","35","173634","0.0-6.0-0.0-4.0-1.0","4","3","4","3","3","4","3","4","4","3","5","4","4","4","4","5","4","4","4","4","4","5","4","4","5","4","4","4","5","1","0","0","1","0","0","1","1","0","1","1","0","1","0","1","4","2","4","4","4","2","2","1","2","2","715186425389121536","郭","312","","","","","","","","","","","","","","","","","","","true","2","2","ability","1007","positive","精干","","","","","","","","","","","","","","",""
"null","","null","html-keyboard-response","36","173890","0.0-6.0-0.0-4.0-0.1","4","3","4","3","3","4","3","4","4","3","5","4","4","4","4","5","4","4","4","4","4","5","4","4","5","4","4","4","5","1","0","0","1","0","0","1","1","0","1","1","0","1","0","1","4","2","4","4","4","2","2","1","2","2","715186425389121536","郭","312","","","","","","","","","","","","","","","","","","","","","","","","","","","","","","","","","","","","","","","",""
"574","<p style=""color:white; font-size: 35px;"">蠢笨</p>","i","categorize-html","37","174465","0.0-6.0-0.0-4.0-1.1","4","3","4","3","3","4","3","4","4","3","5","4","4","4","4","5","4","4","4","4","4","5","4","4","5","4","4","4","5","1","0","0","1","0","0","1","1","0","1","1","0","1","0","1","4","2","4","4","4","2","2","1","2","2","715186425389121536","郭","312","","","","","","","","","","","","","","","","","","","true","2","2","ability","574","negative","蠢笨","","","","","","","","","","","","","","",""
"null","","null","html-keyboard-response","38","174721","0.0-6.0-0.0-4.0-0.2","4","3","4","3","3","4","3","4","4","3","5","4","4","4","4","5","4","4","4","4","4","5","4","4","5","4","4","4","5","1","0","0","1","0","0","1","1","0","1","1","0","1","0","1","4","2","4","4","4","2","2","1","2","2","715186425389121536","郭","312","","","","","","","","","","","","","","","","","","","","","","","","","","","","","","","","","","","","","","","",""
"838","<p style=""color:white; font-size: 35px;"">全才</p>","e","categorize-html","39","175560","0.0-6.0-0.0-4.0-1.2","4","3","4","3","3","4","3","4","4","3","5","4","4","4","4","5","4","4","4","4","4","5","4","4","5","4","4","4","5","1","0","0","1","0","0","1","1","0","1","1","0","1","0","1","4","2","4","4","4","2","2","1","2","2","715186425389121536","郭","312","","","","","","","","","","","","","","","","","","","true","2","2","ability","838","positive","全才","","","","","","","","","","","","","","",""
"null","","null","html-keyboard-response","40","175819","0.0-6.0-0.0-4.0-0.3","4","3","4","3","3","4","3","4","4","3","5","4","4","4","4","5","4","4","4","4","4","5","4","4","5","4","4","4","5","1","0","0","1","0","0","1","1","0","1","1","0","1","0","1","4","2","4","4","4","2","2","1","2","2","715186425389121536","郭","312","","","","","","","","","","","","","","","","","","","","","","","","","","","","","","","","","","","","","","","",""
"607","<p style=""color:white; font-size: 35px;"">无能</p>","i","categorize-html","41","176426","0.0-6.0-0.0-4.0-1.3","4","3","4","3","3","4","3","4","4","3","5","4","4","4","4","5","4","4","4","4","4","5","4","4","5","4","4","4","5","1","0","0","1","0","0","1","1","0","1","1","0","1","0","1","4","2","4","4","4","2","2","1","2","2","715186425389121536","郭","312","","","","","","","","","","","","","","","","","","","true","2","2","ability","607","negative","无能","","","","","","","","","","","","","","",""
"null","","null","html-keyboard-response","42","176682","0.0-6.0-0.0-4.0-0.4","4","3","4","3","3","4","3","4","4","3","5","4","4","4","4","5","4","4","4","4","4","5","4","4","5","4","4","4","5","1","0","0","1","0","0","1","1","0","1","1","0","1","0","1","4","2","4","4","4","2","2","1","2","2","715186425389121536","郭","312","","","","","","","","","","","","","","","","","","","","","","","","","","","","","","","","","","","","","","","",""
"1299","<p style=""color:white; font-size: 35px;"">废物</p>","i","categorize-html","43","177981","0.0-6.0-0.0-4.0-1.4","4","3","4","3","3","4","3","4","4","3","5","4","4","4","4","5","4","4","4","4","4","5","4","4","5","4","4","4","5","1","0","0","1","0","0","1","1","0","1","1","0","1","0","1","4","2","4","4","4","2","2","1","2","2","715186425389121536","郭","312","","","","","","","","","","","","","","","","","","","true","2","2","ability","1299","negative","废物","","","","","","","","","","","","","","",""
"null","","null","html-keyboard-response","44","178245","0.0-6.0-0.0-4.0-0.5","4","3","4","3","3","4","3","4","4","3","5","4","4","4","4","5","4","4","4","4","4","5","4","4","5","4","4","4","5","1","0","0","1","0","0","1","1","0","1","1","0","1","0","1","4","2","4","4","4","2","2","1","2","2","715186425389121536","郭","312","","","","","","","","","","","","","","","","","","","","","","","","","","","","","","","","","","","","","","","",""
"497","<p style=""color:white; font-size: 35px;"">全能</p>","e","categorize-html","45","178744","0.0-6.0-0.0-4.0-1.5","4","3","4","3","3","4","3","4","4","3","5","4","4","4","4","5","4","4","4","4","4","5","4","4","5","4","4","4","5","1","0","0","1","0","0","1","1","0","1","1","0","1","0","1","4","2","4","4","4","2","2","1","2","2","715186425389121536","郭","312","","","","","","","","","","","","","","","","","","","true","2","2","ability","497","positive","全能","","","","","","","","","","","","","","",""
"null","","null","html-keyboard-response","46","179001","0.0-6.0-0.0-4.0-0.6","4","3","4","3","3","4","3","4","4","3","5","4","4","4","4","5","4","4","4","4","4","5","4","4","5","4","4","4","5","1","0","0","1","0","0","1","1","0","1","1","0","1","0","1","4","2","4","4","4","2","2","1","2","2","715186425389121536","郭","312","","","","","","","","","","","","","","","","","","","","","","","","","","","","","","","","","","","","","","","",""
"373","<p style=""color:white; font-size: 35px;"">高效</p>","e","categorize-html","47","179376","0.0-6.0-0.0-4.0-1.6","4","3","4","3","3","4","3","4","4","3","5","4","4","4","4","5","4","4","4","4","4","5","4","4","5","4","4","4","5","1","0","0","1","0","0","1","1","0","1","1","0","1","0","1","4","2","4","4","4","2","2","1","2","2","715186425389121536","郭","312","","","","","","","","","","","","","","","","","","","true","2","2","ability","373","positive","高效","","","","","","","","","","","","","","",""
"null","","null","html-keyboard-response","48","179634","0.0-6.0-0.0-4.0-0.7","4","3","4","3","3","4","3","4","4","3","5","4","4","4","4","5","4","4","4","4","4","5","4","4","5","4","4","4","5","1","0","0","1","0","0","1","1","0","1","1","0","1","0","1","4","2","4","4","4","2","2","1","2","2","715186425389121536","郭","312","","","","","","","","","","","","","","","","","","","","","","","","","","","","","","","","","","","","","","","",""
"554","<p style=""color:white; font-size: 35px;"">拙笨</p>","i","categorize-html","49","180189","0.0-6.0-0.0-4.0-1.7","4","3","4","3","3","4","3","4","4","3","5","4","4","4","4","5","4","4","4","4","4","5","4","4","5","4","4","4","5","1","0","0","1","0","0","1","1","0","1","1","0","1","0","1","4","2","4","4","4","2","2","1","2","2","715186425389121536","郭","312","","","","","","","","","","","","","","","","","","","true","2","2","ability","554","negative","拙笨","","","","","","","","","","","","","","",""
"null","","null","html-keyboard-response","50","180441","0.0-6.0-0.0-4.0-0.8","4","3","4","3","3","4","3","4","4","3","5","4","4","4","4","5","4","4","4","4","4","5","4","4","5","4","4","4","5","1","0","0","1","0","0","1","1","0","1","1","0","1","0","1","4","2","4","4","4","2","2","1","2","2","715186425389121536","郭","312","","","","","","","","","","","","","","","","","","","","","","","","","","","","","","","","","","","","","","","",""
"726","<p style=""color:white; font-size: 35px;"">能干</p>","e","categorize-html","51","181169","0.0-6.0-0.0-4.0-1.8","4","3","4","3","3","4","3","4","4","3","5","4","4","4","4","5","4","4","4","4","4","5","4","4","5","4","4","4","5","1","0","0","1","0","0","1","1","0","1","1","0","1","0","1","4","2","4","4","4","2","2","1","2","2","715186425389121536","郭","312","","","","","","","","","","","","","","","","","","","true","2","2","ability","726","positive","能干","","","","","","","","","","","","","","",""
"null","","null","html-keyboard-response","52","181426","0.0-6.0-0.0-4.0-0.9","4","3","4","3","3","4","3","4","4","3","5","4","4","4","4","5","4","4","4","4","4","5","4","4","5","4","4","4","5","1","0","0","1","0","0","1","1","0","1","1","0","1","0","1","4","2","4","4","4","2","2","1","2","2","715186425389121536","郭","312","","","","","","","","","","","","","","","","","","","","","","","","","","","","","","","","","","","","","","","",""
"529","<p style=""color:white; font-size: 35px;"">天才</p>","e","categorize-html","53","181956","0.0-6.0-0.0-4.0-1.9","4","3","4","3","3","4","3","4","4","3","5","4","4","4","4","5","4","4","4","4","4","5","4","4","5","4","4","4","5","1","0","0","1","0","0","1","1","0","1","1","0","1","0","1","4","2","4","4","4","2","2","1","2","2","715186425389121536","郭","312","","","","","","","","","","","","","","","","","","","true","2","2","ability","529","positive","天才","","","","","","","","","","","","","","",""
"null","","null","html-keyboard-response","54","182216","0.0-6.0-0.0-4.0-0.10","4","3","4","3","3","4","3","4","4","3","5","4","4","4","4","5","4","4","4","4","4","5","4","4","5","4","4","4","5","1","0","0","1","0","0","1","1","0","1","1","0","1","0","1","4","2","4","4","4","2","2","1","2","2","715186425389121536","郭","312","","","","","","","","","","","","","","","","","","","","","","","","","","","","","","","","","","","","","","","",""
"588","<p style=""color:white; font-size: 35px;"">愚钝</p>","i","categorize-html","55","182805","0.0-6.0-0.0-4.0-1.10","4","3","4","3","3","4","3","4","4","3","5","4","4","4","4","5","4","4","4","4","4","5","4","4","5","4","4","4","5","1","0","0","1","0","0","1","1","0","1","1","0","1","0","1","4","2","4","4","4","2","2","1","2","2","715186425389121536","郭","312","","","","","","","","","","","","","","","","","","","true","2","2","ability","588","negative","愚钝","","","","","","","","","","","","","","",""
"null","","null","html-keyboard-response","56","183057","0.0-6.0-0.0-4.0-0.11","4","3","4","3","3","4","3","4","4","3","5","4","4","4","4","5","4","4","4","4","4","5","4","4","5","4","4","4","5","1","0","0","1","0","0","1","1","0","1","1","0","1","0","1","4","2","4","4","4","2","2","1","2","2","715186425389121536","郭","312","","","","","","","","","","","","","","","","","","","","","","","","","","","","","","","","","","","","","","","",""
"580","<p style=""color:white; font-size: 35px;"">低能</p>","i","categorize-html","57","183638","0.0-6.0-0.0-4.0-1.11","4","3","4","3","3","4","3","4","4","3","5","4","4","4","4","5","4","4","4","4","4","5","4","4","5","4","4","4","5","1","0","0","1","0","0","1","1","0","1","1","0","1","0","1","4","2","4","4","4","2","2","1","2","2","715186425389121536","郭","312","","","","","","","","","","","","","","","","","","","true","2","2","ability","580","negative","低能","","","","","","","","","","","","","","",""
"7123","
    <div class=""tag-bottom""><p>
    —— 任务3：对“他人/积极”词和“自我/消极”词分类 ——<p/>
    <span style=""color:#78DCE8""><b>注意上方，之前的四类词语将混合在一起交替呈现</b></span><p/>
    <span style=""color:#FFD866""><b>请根据上方标签的提示，尽可能正确并且快速地做出按键反应</b></span><p/>
    当按键错误时屏幕中会出现<span style=""color:red""> X </span>，需要按另一个键纠正才能继续<br/><p/>
    请把双手食指分别放在键盘的“E”键和“I”键上<p/>
    按<空格键>开始
    </p></div>"," ","html-keyboard-response","58","190761","0.0-6.0-0.0-5.0","4","3","4","3","3","4","3","4","4","3","5","4","4","4","4","5","4","4","4","4","4","5","4","4","5","4","4","4","5","1","0","0","1","0","0","1","1","0","1","1","0","1","0","1","4","2","4","4","4","2","2","1","2","2","715186425389121536","郭","312","","","","","","","","","","","","","","","","","","","","","","","","","","","","","","","","","","","","","","","",""
"null","","null","html-keyboard-response","59","191020","0.0-6.0-0.0-6.0-0.0","4","3","4","3","3","4","3","4","4","3","5","4","4","4","4","5","4","4","4","4","4","5","4","4","5","4","4","4","5","1","0","0","1","0","0","1","1","0","1","1","0","1","0","1","4","2","4","4","4","2","2","1","2","2","715186425389121536","郭","312","","","","","","","","","","","","","","","","","","","","","","","","","","","","","","","","","","","","","","","",""
"781","<p style=""color:rgb(150, 250, 100); font-size: 35px;"">自己</p>","i","categorize-html","60","191804","0.0-6.0-0.0-6.0-1.0","4","3","4","3","3","4","3","4","4","3","5","4","4","4","4","5","4","4","4","4","4","5","4","4","5","4","4","4","5","1","0","0","1","0","0","1","1","0","1","1","0","1","0","1","4","2","4","4","4","2","2","1","2","2","715186425389121536","郭","312","","","","","","","","","","","","","","","","","","","true","3","3","ability","781","self","自己","","","","","","","","","","","","","","",""
"null","","null","html-keyboard-response","61","192058","0.0-6.0-0.0-6.0-0.1","4","3","4","3","3","4","3","4","4","3","5","4","4","4","4","5","4","4","4","4","4","5","4","4","5","4","4","4","5","1","0","0","1","0","0","1","1","0","1","1","0","1","0","1","4","2","4","4","4","2","2","1","2","2","715186425389121536","郭","312","","","","","","","","","","","","","","","","","","","","","","","","","","","","","","","","","","","","","","","",""
"850","<p style=""color:white; font-size: 35px;"">高效</p>","i","categorize-html","62","193634","0.0-6.0-0.0-6.0-1.1","4","3","4","3","3","4","3","4","4","3","5","4","4","4","4","5","4","4","4","4","4","5","4","4","5","4","4","4","5","1","0","0","1","0","0","1","1","0","1","1","0","1","0","1","4","2","4","4","4","2","2","1","2","2","715186425389121536","郭","312","","","","","","","","","","","","","","","","","","","false","3","3","ability","1700.095238095238","positive","高效","","","","","","","","","","","","","","",""
"null","","null","html-keyboard-response","63","193896","0.0-6.0-0.0-6.0-0.2","4","3","4","3","3","4","3","4","4","3","5","4","4","4","4","5","4","4","4","4","4","5","4","4","5","4","4","4","5","1","0","0","1","0","0","1","1","0","1","1","0","1","0","1","4","2","4","4","4","2","2","1","2","2","715186425389121536","郭","312","","","","","","","","","","","","","","","","","","","","","","","","","","","","","","","","","","","","","","","",""
"803","<p style=""color:rgb(150, 250, 100); font-size: 35px;"">他人的</p>","e","categorize-html","64","194700","0.0-6.0-0.0-6.0-1.2","4","3","4","3","3","4","3","4","4","3","5","4","4","4","4","5","4","4","4","4","4","5","4","4","5","4","4","4","5","1","0","0","1","0","0","1","1","0","1","1","0","1","0","1","4","2","4","4","4","2","2","1","2","2","715186425389121536","郭","312","","","","","","","","","","","","","","","","","","","true","3","3","ability","803","other","他人的","","","","","","","","","","","","","","",""
"null","","null","html-keyboard-response","65","194954","0.0-6.0-0.0-6.0-0.3","4","3","4","3","3","4","3","4","4","3","5","4","4","4","4","5","4","4","4","4","4","5","4","4","5","4","4","4","5","1","0","0","1","0","0","1","1","0","1","1","0","1","0","1","4","2","4","4","4","2","2","1","2","2","715186425389121536","郭","312","","","","","","","","","","","","","","","","","","","","","","","","","","","","","","","","","","","","","","","",""
"973","<p style=""color:white; font-size: 35px;"">低能</p>","i","categorize-html","66","195927","0.0-6.0-0.0-6.0-1.3","4","3","4","3","3","4","3","4","4","3","5","4","4","4","4","5","4","4","4","4","4","5","4","4","5","4","4","4","5","1","0","0","1","0","0","1","1","0","1","1","0","1","0","1","4","2","4","4","4","2","2","1","2","2","715186425389121536","郭","312","","","","","","","","","","","","","","","","","","","true","3","3","ability","973","negative","低能","","","","","","","","","","","","","","",""
"null","","null","html-keyboard-response","67","196187","0.0-6.0-0.0-6.0-0.4","4","3","4","3","3","4","3","4","4","3","5","4","4","4","4","5","4","4","4","4","4","5","4","4","5","4","4","4","5","1","0","0","1","0","0","1","1","0","1","1","0","1","0","1","4","2","4","4","4","2","2","1","2","2","715186425389121536","郭","312","","","","","","","","","","","","","","","","","","","","","","","","","","","","","","","","","","","","","","","",""
"1466","<p style=""color:rgb(150, 250, 100); font-size: 35px;"">别人的</p>","e","categorize-html","68","197654","0.0-6.0-0.0-6.0-1.4","4","3","4","3","3","4","3","4","4","3","5","4","4","4","4","5","4","4","4","4","4","5","4","4","5","4","4","4","5","1","0","0","1","0","0","1","1","0","1","1","0","1","0","1","4","2","4","4","4","2","2","1","2","2","715186425389121536","郭","312","","","","","","","","","","","","","","","","","","","true","3","3","ability","1466","other","别人的","","","","","","","","","","","","","","",""
"null","","null","html-keyboard-response","69","197907","0.0-6.0-0.0-6.0-0.5","4","3","4","3","3","4","3","4","4","3","5","4","4","4","4","5","4","4","4","4","4","5","4","4","5","4","4","4","5","1","0","0","1","0","0","1","1","0","1","1","0","1","0","1","4","2","4","4","4","2","2","1","2","2","715186425389121536","郭","312","","","","","","","","","","","","","","","","","","","","","","","","","","","","","","","","","","","","","","","",""
"656","<p style=""color:white; font-size: 35px;"">天才</p>","e","categorize-html","70","198564","0.0-6.0-0.0-6.0-1.5","4","3","4","3","3","4","3","4","4","3","5","4","4","4","4","5","4","4","4","4","4","5","4","4","5","4","4","4","5","1","0","0","1","0","0","1","1","0","1","1","0","1","0","1","4","2","4","4","4","2","2","1","2","2","715186425389121536","郭","312","","","","","","","","","","","","","","","","","","","true","3","3","ability","656","positive","天才","","","","","","","","","","","","","","",""
"null","","null","html-keyboard-response","71","198818","0.0-6.0-0.0-6.0-0.6","4","3","4","3","3","4","3","4","4","3","5","4","4","4","4","5","4","4","4","4","4","5","4","4","5","4","4","4","5","1","0","0","1","0","0","1","1","0","1","1","0","1","0","1","4","2","4","4","4","2","2","1","2","2","715186425389121536","郭","312","","","","","","","","","","","","","","","","","","","","","","","","","","","","","","","","","","","","","","","",""
"1764","<p style=""color:rgb(150, 250, 100); font-size: 35px;"">本人的</p>","i","categorize-html","72","200583","0.0-6.0-0.0-6.0-1.6","4","3","4","3","3","4","3","4","4","3","5","4","4","4","4","5","4","4","4","4","4","5","4","4","5","4","4","4","5","1","0","0","1","0","0","1","1","0","1","1","0","1","0","1","4","2","4","4","4","2","2","1","2","2","715186425389121536","郭","312","","","","","","","","","","","","","","","","","","","true","3","3","ability","1764","self","本人的","","","","","","","","","","","","","","",""
"null","","null","html-keyboard-response","73","200834","0.0-6.0-0.0-6.0-0.7","4","3","4","3","3","4","3","4","4","3","5","4","4","4","4","5","4","4","4","4","4","5","4","4","5","4","4","4","5","1","0","0","1","0","0","1","1","0","1","1","0","1","0","1","4","2","4","4","4","2","2","1","2","2","715186425389121536","郭","312","","","","","","","","","","","","","","","","","","","","","","","","","","","","","","","","","","","","","","","",""
"2055","<p style=""color:white; font-size: 35px;"">废物</p>","e","categorize-html","74","203335","0.0-6.0-0.0-6.0-1.7","4","3","4","3","3","4","3","4","4","3","5","4","4","4","4","5","4","4","4","4","4","5","4","4","5","4","4","4","5","1","0","0","1","0","0","1","1","0","1","1","0","1","0","1","4","2","4","4","4","2","2","1","2","2","715186425389121536","郭","312","","","","","","","","","","","","","","","","","","","false","3","3","ability","1700.095238095238","negative","废物","","","","","","","","","","","","","","",""
"null","","null","html-keyboard-response","75","203594","0.0-6.0-0.0-6.0-0.8","4","3","4","3","3","4","3","4","4","3","5","4","4","4","4","5","4","4","4","4","4","5","4","4","5","4","4","4","5","1","0","0","1","0","0","1","1","0","1","1","0","1","0","1","4","2","4","4","4","2","2","1","2","2","715186425389121536","郭","312","","","","","","","","","","","","","","","","","","","","","","","","","","","","","","","","","","","","","","","",""
"792","<p style=""color:rgb(150, 250, 100); font-size: 35px;"">本人</p>","i","categorize-html","76","204387","0.0-6.0-0.0-6.0-1.8","4","3","4","3","3","4","3","4","4","3","5","4","4","4","4","5","4","4","4","4","4","5","4","4","5","4","4","4","5","1","0","0","1","0","0","1","1","0","1","1","0","1","0","1","4","2","4","4","4","2","2","1","2","2","715186425389121536","郭","312","","","","","","","","","","","","","","","","","","","true","3","3","ability","792","self","本人","","","","","","","","","","","","","","",""
"null","","null","html-keyboard-response","77","204643","0.0-6.0-0.0-6.0-0.9","4","3","4","3","3","4","3","4","4","3","5","4","4","4","4","5","4","4","4","4","4","5","4","4","5","4","4","4","5","1","0","0","1","0","0","1","1","0","1","1","0","1","0","1","4","2","4","4","4","2","2","1","2","2","715186425389121536","郭","312","","","","","","","","","","","","","","","","","","","","","","","","","","","","","","","","","","","","","","","",""
"4028","<p style=""color:white; font-size: 35px;"">能干</p>","e","categorize-html","78","208672","0.0-6.0-0.0-6.0-1.9","4","3","4","3","3","4","3","4","4","3","5","4","4","4","4","5","4","4","4","4","4","5","4","4","5","4","4","4","5","1","0","0","1","0","0","1","1","0","1","1","0","1","0","1","4","2","4","4","4","2","2","1","2","2","715186425389121536","郭","312","","","","","","","","","","","","","","","","","","","true","3","3","ability","4028","positive","能干","","","","","","","","","","","","","","",""
"null","","null","html-keyboard-response","79","208934","0.0-6.0-0.0-6.0-0.10","4","3","4","3","3","4","3","4","4","3","5","4","4","4","4","5","4","4","4","4","4","5","4","4","5","4","4","4","5","1","0","0","1","0","0","1","1","0","1","1","0","1","0","1","4","2","4","4","4","2","2","1","2","2","715186425389121536","郭","312","","","","","","","","","","","","","","","","","","","","","","","","","","","","","","","","","","","","","","","",""
"492","<p style=""color:rgb(150, 250, 100); font-size: 35px;"">他人</p>","e","categorize-html","80","209428","0.0-6.0-0.0-6.0-1.10","4","3","4","3","3","4","3","4","4","3","5","4","4","4","4","5","4","4","4","4","4","5","4","4","5","4","4","4","5","1","0","0","1","0","0","1","1","0","1","1","0","1","0","1","4","2","4","4","4","2","2","1","2","2","715186425389121536","郭","312","","","","","","","","","","","","","","","","","","","true","3","3","ability","492","other","他人","","","","","","","","","","","","","","",""
"null","","null","html-keyboard-response","81","209683","0.0-6.0-0.0-6.0-0.11","4","3","4","3","3","4","3","4","4","3","5","4","4","4","4","5","4","4","4","4","4","5","4","4","5","4","4","4","5","1","0","0","1","0","0","1","1","0","1","1","0","1","0","1","4","2","4","4","4","2","2","1","2","2","715186425389121536","郭","312","","","","","","","","","","","","","","","","","","","","","","","","","","","","","","","","","","","","","","","",""
"700","<p style=""color:white; font-size: 35px;"">无能</p>","i","categorize-html","82","210385","0.0-6.0-0.0-6.0-1.11","4","3","4","3","3","4","3","4","4","3","5","4","4","4","4","5","4","4","4","4","4","5","4","4","5","4","4","4","5","1","0","0","1","0","0","1","1","0","1","1","0","1","0","1","4","2","4","4","4","2","2","1","2","2","715186425389121536","郭","312","","","","","","","","","","","","","","","","","","","true","3","3","ability","700","negative","无能","","","","","","","","","","","","","","",""
"null","","null","html-keyboard-response","83","210641","0.0-6.0-0.0-6.0-0.12","4","3","4","3","3","4","3","4","4","3","5","4","4","4","4","5","4","4","4","4","4","5","4","4","5","4","4","4","5","1","0","0","1","0","0","1","1","0","1","1","0","1","0","1","4","2","4","4","4","2","2","1","2","2","715186425389121536","郭","312","","","","","","","","","","","","","","","","","","","","","","","","","","","","","","","","","","","","","","","",""
"912","<p style=""color:rgb(150, 250, 100); font-size: 35px;"">他</p>","e","categorize-html","84","211554","0.0-6.0-0.0-6.0-1.12","4","3","4","3","3","4","3","4","4","3","5","4","4","4","4","5","4","4","4","4","4","5","4","4","5","4","4","4","5","1","0","0","1","0","0","1","1","0","1","1","0","1","0","1","4","2","4","4","4","2","2","1","2","2","715186425389121536","郭","312","","","","","","","","","","","","","","","","","","","true","3","3","ability","912","other","他","","","","","","","","","","","","","","",""
"null","","null","html-keyboard-response","85","211810","0.0-6.0-0.0-6.0-0.13","4","3","4","3","3","4","3","4","4","3","5","4","4","4","4","5","4","4","4","4","4","5","4","4","5","4","4","4","5","1","0","0","1","0","0","1","1","0","1","1","0","1","0","1","4","2","4","4","4","2","2","1","2","2","715186425389121536","郭","312","","","","","","","","","","","","","","","","","","","","","","","","","","","","","","","","","","","","","","","",""
"2437","<p style=""color:white; font-size: 35px;"">拙笨</p>","i","categorize-html","86","214249","0.0-6.0-0.0-6.0-1.13","4","3","4","3","3","4","3","4","4","3","5","4","4","4","4","5","4","4","4","4","4","5","4","4","5","4","4","4","5","1","0","0","1","0","0","1","1","0","1","1","0","1","0","1","4","2","4","4","4","2","2","1","2","2","715186425389121536","郭","312","","","","","","","","","","","","","","","","","","","true","3","3","ability","2437","negative","拙笨","","","","","","","","","","","","","","",""
"null","","null","html-keyboard-response","87","214505","0.0-6.0-0.0-6.0-0.14","4","3","4","3","3","4","3","4","4","3","5","4","4","4","4","5","4","4","4","4","4","5","4","4","5","4","4","4","5","1","0","0","1","0","0","1","1","0","1","1","0","1","0","1","4","2","4","4","4","2","2","1","2","2","715186425389121536","郭","312","","","","","","","","","","","","","","","","","","","","","","","","","","","","","","","","","","","","","","","",""
"1014","<p style=""color:rgb(150, 250, 100); font-size: 35px;"">自己的</p>","i","categorize-html","88","215520","0.0-6.0-0.0-6.0-1.14","4","3","4","3","3","4","3","4","4","3","5","4","4","4","4","5","4","4","4","4","4","5","4","4","5","4","4","4","5","1","0","0","1","0","0","1","1","0","1","1","0","1","0","1","4","2","4","4","4","2","2","1","2","2","715186425389121536","郭","312","","","","","","","","","","","","","","","","","","","true","3","3","ability","1014","self","自己的","","","","","","","","","","","","","","",""
"null","","null","html-keyboard-response","89","215778","0.0-6.0-0.0-6.0-0.15","4","3","4","3","3","4","3","4","4","3","5","4","4","4","4","5","4","4","4","4","4","5","4","4","5","4","4","4","5","1","0","0","1","0","0","1","1","0","1","1","0","1","0","1","4","2","4","4","4","2","2","1","2","2","715186425389121536","郭","312","","","","","","","","","","","","","","","","","","","","","","","","","","","","","","","","","","","","","","","",""
"1567","<p style=""color:white; font-size: 35px;"">全能</p>","e","categorize-html","90","217346","0.0-6.0-0.0-6.0-1.15","4","3","4","3","3","4","3","4","4","3","5","4","4","4","4","5","4","4","4","4","4","5","4","4","5","4","4","4","5","1","0","0","1","0","0","1","1","0","1","1","0","1","0","1","4","2","4","4","4","2","2","1","2","2","715186425389121536","郭","312","","","","","","","","","","","","","","","","","","","true","3","3","ability","1567","positive","全能","","","","","","","","","","","","","","",""
"null","","null","html-keyboard-response","91","217603","0.0-6.0-0.0-6.0-0.16","4","3","4","3","3","4","3","4","4","3","5","4","4","4","4","5","4","4","4","4","4","5","4","4","5","4","4","4","5","1","0","0","1","0","0","1","1","0","1","1","0","1","0","1","4","2","4","4","4","2","2","1","2","2","715186425389121536","郭","312","","","","","","","","","","","","","","","","","","","","","","","","","","","","","","","","","","","","","","","",""
"539","<p style=""color:rgb(150, 250, 100); font-size: 35px;"">他的</p>","e","categorize-html","92","218144","0.0-6.0-0.0-6.0-1.16","4","3","4","3","3","4","3","4","4","3","5","4","4","4","4","5","4","4","4","4","4","5","4","4","5","4","4","4","5","1","0","0","1","0","0","1","1","0","1","1","0","1","0","1","4","2","4","4","4","2","2","1","2","2","715186425389121536","郭","312","","","","","","","","","","","","","","","","","","","true","3","3","ability","539","other","他的","","","","","","","","","","","","","","",""
"null","","null","html-keyboard-response","93","218407","0.0-6.0-0.0-6.0-0.17","4","3","4","3","3","4","3","4","4","3","5","4","4","4","4","5","4","4","4","4","4","5","4","4","5","4","4","4","5","1","0","0","1","0","0","1","1","0","1","1","0","1","0","1","4","2","4","4","4","2","2","1","2","2","715186425389121536","郭","312","","","","","","","","","","","","","","","","","","","","","","","","","","","","","","","","","","","","","","","",""
"791","<p style=""color:white; font-size: 35px;"">精干</p>","e","categorize-html","94","219199","0.0-6.0-0.0-6.0-1.17","4","3","4","3","3","4","3","4","4","3","5","4","4","4","4","5","4","4","4","4","4","5","4","4","5","4","4","4","5","1","0","0","1","0","0","1","1","0","1","1","0","1","0","1","4","2","4","4","4","2","2","1","2","2","715186425389121536","郭","312","","","","","","","","","","","","","","","","","","","true","3","3","ability","791","positive","精干","","","","","","","","","","","","","","",""
"null","","null","html-keyboard-response","95","219450","0.0-6.0-0.0-6.0-0.18","4","3","4","3","3","4","3","4","4","3","5","4","4","4","4","5","4","4","4","4","4","5","4","4","5","4","4","4","5","1","0","0","1","0","0","1","1","0","1","1","0","1","0","1","4","2","4","4","4","2","2","1","2","2","715186425389121536","郭","312","","","","","","","","","","","","","","","","","","","","","","","","","","","","","","","","","","","","","","","",""
"639","<p style=""color:rgb(150, 250, 100); font-size: 35px;"">我的</p>","i","categorize-html","96","220091","0.0-6.0-0.0-6.0-1.18","4","3","4","3","3","4","3","4","4","3","5","4","4","4","4","5","4","4","4","4","4","5","4","4","5","4","4","4","5","1","0","0","1","0","0","1","1","0","1","1","0","1","0","1","4","2","4","4","4","2","2","1","2","2","715186425389121536","郭","312","","","","","","","","","","","","","","","","","","","true","3","3","ability","639","self","我的","","","","","","","","","","","","","","",""
"null","","null","html-keyboard-response","97","220347","0.0-6.0-0.0-6.0-0.19","4","3","4","3","3","4","3","4","4","3","5","4","4","4","4","5","4","4","4","4","4","5","4","4","5","4","4","4","5","1","0","0","1","0","0","1","1","0","1","1","0","1","0","1","4","2","4","4","4","2","2","1","2","2","715186425389121536","郭","312","","","","","","","","","","","","","","","","","","","","","","","","","","","","","","","","","","","","","","","",""
"693","<p style=""color:white; font-size: 35px;"">蠢笨</p>","i","categorize-html","98","221040","0.0-6.0-0.0-6.0-1.19","4","3","4","3","3","4","3","4","4","3","5","4","4","4","4","5","4","4","4","4","4","5","4","4","5","4","4","4","5","1","0","0","1","0","0","1","1","0","1","1","0","1","0","1","4","2","4","4","4","2","2","1","2","2","715186425389121536","郭","312","","","","","","","","","","","","","","","","","","","true","3","3","ability","693","negative","蠢笨","","","","","","","","","","","","","","",""
"null","","null","html-keyboard-response","99","221297","0.0-6.0-0.0-6.0-0.20","4","3","4","3","3","4","3","4","4","3","5","4","4","4","4","5","4","4","4","4","4","5","4","4","5","4","4","4","5","1","0","0","1","0","0","1","1","0","1","1","0","1","0","1","4","2","4","4","4","2","2","1","2","2","715186425389121536","郭","312","","","","","","","","","","","","","","","","","","","","","","","","","","","","","","","","","","","","","","","",""
"737","<p style=""color:rgb(150, 250, 100); font-size: 35px;"">别人</p>","e","categorize-html","100","222035","0.0-6.0-0.0-6.0-1.20","4","3","4","3","3","4","3","4","4","3","5","4","4","4","4","5","4","4","4","4","4","5","4","4","5","4","4","4","5","1","0","0","1","0","0","1","1","0","1","1","0","1","0","1","4","2","4","4","4","2","2","1","2","2","715186425389121536","郭","312","","","","","","","","","","","","","","","","","","","true","3","3","ability","737","other","别人","","","","","","","","","","","","","","",""
"null","","null","html-keyboard-response","101","222291","0.0-6.0-0.0-6.0-0.21","4","3","4","3","3","4","3","4","4","3","5","4","4","4","4","5","4","4","4","4","4","5","4","4","5","4","4","4","5","1","0","0","1","0","0","1","1","0","1","1","0","1","0","1","4","2","4","4","4","2","2","1","2","2","715186425389121536","郭","312","","","","","","","","","","","","","","","","","","","","","","","","","","","","","","","","","","","","","","","",""
"530","<p style=""color:white; font-size: 35px;"">愚钝</p>","e","categorize-html","102","223212","0.0-6.0-0.0-6.0-1.21","4","3","4","3","3","4","3","4","4","3","5","4","4","4","4","5","4","4","4","4","4","5","4","4","5","4","4","4","5","1","0","0","1","0","0","1","1","0","1","1","0","1","0","1","4","2","4","4","4","2","2","1","2","2","715186425389121536","郭","312","","","","","","","","","","","","","","","","","","","false","3","3","ability","1700.095238095238","negative","愚钝","","","","","","","","","","","","","","",""
"null","","null","html-keyboard-response","103","223465","0.0-6.0-0.0-6.0-0.22","4","3","4","3","3","4","3","4","4","3","5","4","4","4","4","5","4","4","4","4","4","5","4","4","5","4","4","4","5","1","0","0","1","0","0","1","1","0","1","1","0","1","0","1","4","2","4","4","4","2","2","1","2","2","715186425389121536","郭","312","","","","","","","","","","","","","","","","","","","","","","","","","","","","","","","","","","","","","","","",""
"617","<p style=""color:rgb(150, 250, 100); font-size: 35px;"">我</p>","i","categorize-html","104","224084","0.0-6.0-0.0-6.0-1.22","4","3","4","3","3","4","3","4","4","3","5","4","4","4","4","5","4","4","4","4","4","5","4","4","5","4","4","4","5","1","0","0","1","0","0","1","1","0","1","1","0","1","0","1","4","2","4","4","4","2","2","1","2","2","715186425389121536","郭","312","","","","","","","","","","","","","","","","","","","true","3","3","ability","617","self","我","","","","","","","","","","","","","","",""
"null","","null","html-keyboard-response","105","224338","0.0-6.0-0.0-6.0-0.23","4","3","4","3","3","4","3","4","4","3","5","4","4","4","4","5","4","4","4","4","4","5","4","4","5","4","4","4","5","1","0","0","1","0","0","1","1","0","1","1","0","1","0","1","4","2","4","4","4","2","2","1","2","2","715186425389121536","郭","312","","","","","","","","","","","","","","","","","","","","","","","","","","","","","","","","","","","","","","","",""
"701","<p style=""color:white; font-size: 35px;"">全才</p>","e","categorize-html","106","225041","0.0-6.0-0.0-6.0-1.23","4","3","4","3","3","4","3","4","4","3","5","4","4","4","4","5","4","4","4","4","4","5","4","4","5","4","4","4","5","1","0","0","1","0","0","1","1","0","1","1","0","1","0","1","4","2","4","4","4","2","2","1","2","2","715186425389121536","郭","312","","","","","","","","","","","","","","","","","","","true","3","3","ability","701","positive","全才","","","","","","","","","","","","","","",""
"8335","
    <div class=""tag-bottom""><p>
    —— 任务4：对“他人/积极”词和“自我/消极”词分类 ——<p/>
    <span style=""color:#78DCE8""><b>与刚才的任务完全相同，请再次对这四类词语分类</b></span><p/>
    <span style=""color:#FFD866""><b>请根据上方标签的提示，尽可能正确并且快速地做出按键反应</b></span><p/>
    当按键错误时屏幕中会出现<span style=""color:red""> X </span>，需要按另一个键纠正才能继续<br/><p/>
    请把双手食指分别放在键盘的“E”键和“I”键上<p/>
    按<空格键>开始
    </p></div>"," ","html-keyboard-response","107","233378","0.0-6.0-0.0-7.0","4","3","4","3","3","4","3","4","4","3","5","4","4","4","4","5","4","4","4","4","4","5","4","4","5","4","4","4","5","1","0","0","1","0","0","1","1","0","1","1","0","1","0","1","4","2","4","4","4","2","2","1","2","2","715186425389121536","郭","312","","","","","","","","","","","","","","","","","","","","","","","","","","","","","","","","","","","","","","","",""
"null","","null","html-keyboard-response","108","233634","0.0-6.0-0.0-8.0-0.0","4","3","4","3","3","4","3","4","4","3","5","4","4","4","4","5","4","4","4","4","4","5","4","4","5","4","4","4","5","1","0","0","1","0","0","1","1","0","1","1","0","1","0","1","4","2","4","4","4","2","2","1","2","2","715186425389121536","郭","312","","","","","","","","","","","","","","","","","","","","","","","","","","","","","","","","","","","","","","","",""
"1487","<p style=""color:rgb(150, 250, 100); font-size: 35px;"">他人的</p>","e","categorize-html","109","235123","0.0-6.0-0.0-8.0-1.0","4","3","4","3","3","4","3","4","4","3","5","4","4","4","4","5","4","4","4","4","4","5","4","4","5","4","4","4","5","1","0","0","1","0","0","1","1","0","1","1","0","1","0","1","4","2","4","4","4","2","2","1","2","2","715186425389121536","郭","312","","","","","","","","","","","","","","","","","","","true","4","4","ability","1487","other","他人的","","","","","","","","","","","","","","",""
"null","","null","html-keyboard-response","110","235390","0.0-6.0-0.0-8.0-0.1","4","3","4","3","3","4","3","4","4","3","5","4","4","4","4","5","4","4","4","4","4","5","4","4","5","4","4","4","5","1","0","0","1","0","0","1","1","0","1","1","0","1","0","1","4","2","4","4","4","2","2","1","2","2","715186425389121536","郭","312","","","","","","","","","","","","","","","","","","","","","","","","","","","","","","","","","","","","","","","",""
"566","<p style=""color:white; font-size: 35px;"">能干</p>","e","categorize-html","111","235957","0.0-6.0-0.0-8.0-1.1","4","3","4","3","3","4","3","4","4","3","5","4","4","4","4","5","4","4","4","4","4","5","4","4","5","4","4","4","5","1","0","0","1","0","0","1","1","0","1","1","0","1","0","1","4","2","4","4","4","2","2","1","2","2","715186425389121536","郭","312","","","","","","","","","","","","","","","","","","","true","4","4","ability","566","positive","能干","","","","","","","","","","","","","","",""
"null","","null","html-keyboard-response","112","236220","0.0-6.0-0.0-8.0-0.2","4","3","4","3","3","4","3","4","4","3","5","4","4","4","4","5","4","4","4","4","4","5","4","4","5","4","4","4","5","1","0","0","1","0","0","1","1","0","1","1","0","1","0","1","4","2","4","4","4","2","2","1","2","2","715186425389121536","郭","312","","","","","","","","","","","","","","","","","","","","","","","","","","","","","","","","","","","","","","","",""
"651","<p style=""color:rgb(150, 250, 100); font-size: 35px;"">本人的</p>","i","categorize-html","113","236873","0.0-6.0-0.0-8.0-1.2","4","3","4","3","3","4","3","4","4","3","5","4","4","4","4","5","4","4","4","4","4","5","4","4","5","4","4","4","5","1","0","0","1","0","0","1","1","0","1","1","0","1","0","1","4","2","4","4","4","2","2","1","2","2","715186425389121536","郭","312","","","","","","","","","","","","","","","","","","","true","4","4","ability","651","self","本人的","","","","","","","","","","","","","","",""
"null","","null","html-keyboard-response","114","237131","0.0-6.0-0.0-8.0-0.3","4","3","4","3","3","4","3","4","4","3","5","4","4","4","4","5","4","4","4","4","4","5","4","4","5","4","4","4","5","1","0","0","1","0","0","1","1","0","1","1","0","1","0","1","4","2","4","4","4","2","2","1","2","2","715186425389121536","郭","312","","","","","","","","","","","","","","","","","","","","","","","","","","","","","","","","","","","","","","","",""
"794","<p style=""color:white; font-size: 35px;"">低能</p>","i","categorize-html","115","237925","0.0-6.0-0.0-8.0-1.3","4","3","4","3","3","4","3","4","4","3","5","4","4","4","4","5","4","4","4","4","4","5","4","4","5","4","4","4","5","1","0","0","1","0","0","1","1","0","1","1","0","1","0","1","4","2","4","4","4","2","2","1","2","2","715186425389121536","郭","312","","","","","","","","","","","","","","","","","","","true","4","4","ability","794","negative","低能","","","","","","","","","","","","","","",""
"null","","null","html-keyboard-response","116","238185","0.0-6.0-0.0-8.0-0.4","4","3","4","3","3","4","3","4","4","3","5","4","4","4","4","5","4","4","4","4","4","5","4","4","5","4","4","4","5","1","0","0","1","0","0","1","1","0","1","1","0","1","0","1","4","2","4","4","4","2","2","1","2","2","715186425389121536","郭","312","","","","","","","","","","","","","","","","","","","","","","","","","","","","","","","","","","","","","","","",""
"493","<p style=""color:rgb(150, 250, 100); font-size: 35px;"">本人</p>","i","categorize-html","117","238678","0.0-6.0-0.0-8.0-1.4","4","3","4","3","3","4","3","4","4","3","5","4","4","4","4","5","4","4","4","4","4","5","4","4","5","4","4","4","5","1","0","0","1","0","0","1","1","0","1","1","0","1","0","1","4","2","4","4","4","2","2","1","2","2","715186425389121536","郭","312","","","","","","","","","","","","","","","","","","","true","4","4","ability","493","self","本人","","","","","","","","","","","","","","",""
"null","","null","html-keyboard-response","118","238935","0.0-6.0-0.0-8.0-0.5","4","3","4","3","3","4","3","4","4","3","5","4","4","4","4","5","4","4","4","4","4","5","4","4","5","4","4","4","5","1","0","0","1","0","0","1","1","0","1","1","0","1","0","1","4","2","4","4","4","2","2","1","2","2","715186425389121536","郭","312","","","","","","","","","","","","","","","","","","","","","","","","","","","","","","","","","","","","","","","",""
"595","<p style=""color:white; font-size: 35px;"">天才</p>","e","categorize-html","119","239531","0.0-6.0-0.0-8.0-1.5","4","3","4","3","3","4","3","4","4","3","5","4","4","4","4","5","4","4","4","4","4","5","4","4","5","4","4","4","5","1","0","0","1","0","0","1","1","0","1","1","0","1","0","1","4","2","4","4","4","2","2","1","2","2","715186425389121536","郭","312","","","","","","","","","","","","","","","","","","","true","4","4","ability","595","positive","天才","","","","","","","","","","","","","","",""
"null","","null","html-keyboard-response","120","239785","0.0-6.0-0.0-8.0-0.6","4","3","4","3","3","4","3","4","4","3","5","4","4","4","4","5","4","4","4","4","4","5","4","4","5","4","4","4","5","1","0","0","1","0","0","1","1","0","1","1","0","1","0","1","4","2","4","4","4","2","2","1","2","2","715186425389121536","郭","312","","","","","","","","","","","","","","","","","","","","","","","","","","","","","","","","","","","","","","","",""
"416","<p style=""color:rgb(150, 250, 100); font-size: 35px;"">他的</p>","e","categorize-html","121","240202","0.0-6.0-0.0-8.0-1.6","4","3","4","3","3","4","3","4","4","3","5","4","4","4","4","5","4","4","4","4","4","5","4","4","5","4","4","4","5","1","0","0","1","0","0","1","1","0","1","1","0","1","0","1","4","2","4","4","4","2","2","1","2","2","715186425389121536","郭","312","","","","","","","","","","","","","","","","","","","true","4","4","ability","416","other","他的","","","","","","","","","","","","","","",""
"null","","null","html-keyboard-response","122","240459","0.0-6.0-0.0-8.0-0.7","4","3","4","3","3","4","3","4","4","3","5","4","4","4","4","5","4","4","4","4","4","5","4","4","5","4","4","4","5","1","0","0","1","0","0","1","1","0","1","1","0","1","0","1","4","2","4","4","4","2","2","1","2","2","715186425389121536","郭","312","","","","","","","","","","","","","","","","","","","","","","","","","","","","","","","","","","","","","","","",""
"1508","<p style=""color:white; font-size: 35px;"">低能</p>","i","categorize-html","123","241969","0.0-6.0-0.0-8.0-1.7","4","3","4","3","3","4","3","4","4","3","5","4","4","4","4","5","4","4","4","4","4","5","4","4","5","4","4","4","5","1","0","0","1","0","0","1","1","0","1","1","0","1","0","1","4","2","4","4","4","2","2","1","2","2","715186425389121536","郭","312","","","","","","","","","","","","","","","","","","","true","4","4","ability","1508","negative","低能","","","","","","","","","","","","","","",""
"null","","null","html-keyboard-response","124","242226","0.0-6.0-0.0-8.0-0.8","4","3","4","3","3","4","3","4","4","3","5","4","4","4","4","5","4","4","4","4","4","5","4","4","5","4","4","4","5","1","0","0","1","0","0","1","1","0","1","1","0","1","0","1","4","2","4","4","4","2","2","1","2","2","715186425389121536","郭","312","","","","","","","","","","","","","","","","","","","","","","","","","","","","","","","","","","","","","","","",""
"798","<p style=""color:rgb(150, 250, 100); font-size: 35px;"">他</p>","e","categorize-html","125","243025","0.0-6.0-0.0-8.0-1.8","4","3","4","3","3","4","3","4","4","3","5","4","4","4","4","5","4","4","4","4","4","5","4","4","5","4","4","4","5","1","0","0","1","0","0","1","1","0","1","1","0","1","0","1","4","2","4","4","4","2","2","1","2","2","715186425389121536","郭","312","","","","","","","","","","","","","","","","","","","true","4","4","ability","798","other","他","","","","","","","","","","","","","","",""
"null","","null","html-keyboard-response","126","243283","0.0-6.0-0.0-8.0-0.9","4","3","4","3","3","4","3","4","4","3","5","4","4","4","4","5","4","4","4","4","4","5","4","4","5","4","4","4","5","1","0","0","1","0","0","1","1","0","1","1","0","1","0","1","4","2","4","4","4","2","2","1","2","2","715186425389121536","郭","312","","","","","","","","","","","","","","","","","","","","","","","","","","","","","","","","","","","","","","","",""
"1448","<p style=""color:white; font-size: 35px;"">全才</p>","e","categorize-html","127","244732","0.0-6.0-0.0-8.0-1.9","4","3","4","3","3","4","3","4","4","3","5","4","4","4","4","5","4","4","4","4","4","5","4","4","5","4","4","4","5","1","0","0","1","0","0","1","1","0","1","1","0","1","0","1","4","2","4","4","4","2","2","1","2","2","715186425389121536","郭","312","","","","","","","","","","","","","","","","","","","true","4","4","ability","1448","positive","全才","","","","","","","","","","","","","","",""
"null","","null","html-keyboard-response","128","244986","0.0-6.0-0.0-8.0-0.10","4","3","4","3","3","4","3","4","4","3","5","4","4","4","4","5","4","4","4","4","4","5","4","4","5","4","4","4","5","1","0","0","1","0","0","1","1","0","1","1","0","1","0","1","4","2","4","4","4","2","2","1","2","2","715186425389121536","郭","312","","","","","","","","","","","","","","","","","","","","","","","","","","","","","","","","","","","","","","","",""
"675","<p style=""color:rgb(150, 250, 100); font-size: 35px;"">我的</p>","i","categorize-html","129","245663","0.0-6.0-0.0-8.0-1.10","4","3","4","3","3","4","3","4","4","3","5","4","4","4","4","5","4","4","4","4","4","5","4","4","5","4","4","4","5","1","0","0","1","0","0","1","1","0","1","1","0","1","0","1","4","2","4","4","4","2","2","1","2","2","715186425389121536","郭","312","","","","","","","","","","","","","","","","","","","true","4","4","ability","675","self","我的","","","","","","","","","","","","","","",""
"null","","null","html-keyboard-response","130","245914","0.0-6.0-0.0-8.0-0.11","4","3","4","3","3","4","3","4","4","3","5","4","4","4","4","5","4","4","4","4","4","5","4","4","5","4","4","4","5","1","0","0","1","0","0","1","1","0","1","1","0","1","0","1","4","2","4","4","4","2","2","1","2","2","715186425389121536","郭","312","","","","","","","","","","","","","","","","","","","","","","","","","","","","","","","","","","","","","","","",""
"1243","<p style=""color:white; font-size: 35px;"">蠢笨</p>","i","categorize-html","131","247159","0.0-6.0-0.0-8.0-1.11","4","3","4","3","3","4","3","4","4","3","5","4","4","4","4","5","4","4","4","4","4","5","4","4","5","4","4","4","5","1","0","0","1","0","0","1","1","0","1","1","0","1","0","1","4","2","4","4","4","2","2","1","2","2","715186425389121536","郭","312","","","","","","","","","","","","","","","","","","","true","4","4","ability","1243","negative","蠢笨","","","","","","","","","","","","","","",""
"null","","null","html-keyboard-response","132","247418","0.0-6.0-0.0-8.0-0.12","4","3","4","3","3","4","3","4","4","3","5","4","4","4","4","5","4","4","4","4","4","5","4","4","5","4","4","4","5","1","0","0","1","0","0","1","1","0","1","1","0","1","0","1","4","2","4","4","4","2","2","1","2","2","715186425389121536","郭","312","","","","","","","","","","","","","","","","","","","","","","","","","","","","","","","","","","","","","","","",""
"415","<p style=""color:rgb(150, 250, 100); font-size: 35px;"">本人</p>","i","categorize-html","133","247834","0.0-6.0-0.0-8.0-1.12","4","3","4","3","3","4","3","4","4","3","5","4","4","4","4","5","4","4","4","4","4","5","4","4","5","4","4","4","5","1","0","0","1","0","0","1","1","0","1","1","0","1","0","1","4","2","4","4","4","2","2","1","2","2","715186425389121536","郭","312","","","","","","","","","","","","","","","","","","","true","4","4","ability","415","self","本人","","","","","","","","","","","","","","",""
"null","","null","html-keyboard-response","134","248090","0.0-6.0-0.0-8.0-0.13","4","3","4","3","3","4","3","4","4","3","5","4","4","4","4","5","4","4","4","4","4","5","4","4","5","4","4","4","5","1","0","0","1","0","0","1","1","0","1","1","0","1","0","1","4","2","4","4","4","2","2","1","2","2","715186425389121536","郭","312","","","","","","","","","","","","","","","","","","","","","","","","","","","","","","","","","","","","","","","",""
"695","<p style=""color:white; font-size: 35px;"">能干</p>","e","categorize-html","135","248785","0.0-6.0-0.0-8.0-1.13","4","3","4","3","3","4","3","4","4","3","5","4","4","4","4","5","4","4","4","4","4","5","4","4","5","4","4","4","5","1","0","0","1","0","0","1","1","0","1","1","0","1","0","1","4","2","4","4","4","2","2","1","2","2","715186425389121536","郭","312","","","","","","","","","","","","","","","","","","","true","4","4","ability","695","positive","能干","","","","","","","","","","","","","","",""
"null","","null","html-keyboard-response","136","249043","0.0-6.0-0.0-8.0-0.14","4","3","4","3","3","4","3","4","4","3","5","4","4","4","4","5","4","4","4","4","4","5","4","4","5","4","4","4","5","1","0","0","1","0","0","1","1","0","1","1","0","1","0","1","4","2","4","4","4","2","2","1","2","2","715186425389121536","郭","312","","","","","","","","","","","","","","","","","","","","","","","","","","","","","","","","","","","","","","","",""
"1213","<p style=""color:rgb(150, 250, 100); font-size: 35px;"">别人</p>","e","categorize-html","137","250258","0.0-6.0-0.0-8.0-1.14","4","3","4","3","3","4","3","4","4","3","5","4","4","4","4","5","4","4","4","4","4","5","4","4","5","4","4","4","5","1","0","0","1","0","0","1","1","0","1","1","0","1","0","1","4","2","4","4","4","2","2","1","2","2","715186425389121536","郭","312","","","","","","","","","","","","","","","","","","","true","4","4","ability","1213","other","别人","","","","","","","","","","","","","","",""
"null","","null","html-keyboard-response","138","250515","0.0-6.0-0.0-8.0-0.15","4","3","4","3","3","4","3","4","4","3","5","4","4","4","4","5","4","4","4","4","4","5","4","4","5","4","4","4","5","1","0","0","1","0","0","1","1","0","1","1","0","1","0","1","4","2","4","4","4","2","2","1","2","2","715186425389121536","郭","312","","","","","","","","","","","","","","","","","","","","","","","","","","","","","","","","","","","","","","","",""
"509","<p style=""color:white; font-size: 35px;"">愚钝</p>","e","categorize-html","139","252162","0.0-6.0-0.0-8.0-1.15","4","3","4","3","3","4","3","4","4","3","5","4","4","4","4","5","4","4","4","4","4","5","4","4","5","4","4","4","5","1","0","0","1","0","0","1","1","0","1","1","0","1","0","1","4","2","4","4","4","2","2","1","2","2","715186425389121536","郭","312","","","","","","","","","","","","","","","","","","","false","4","4","ability","1336.860465116279","negative","愚钝","","","","","","","","","","","","","","",""
"null","","null","html-keyboard-response","140","252418","0.0-6.0-0.0-8.0-0.16","4","3","4","3","3","4","3","4","4","3","5","4","4","4","4","5","4","4","4","4","4","5","4","4","5","4","4","4","5","1","0","0","1","0","0","1","1","0","1","1","0","1","0","1","4","2","4","4","4","2","2","1","2","2","715186425389121536","郭","312","","","","","","","","","","","","","","","","","","","","","","","","","","","","","","","","","","","","","","","",""
"1092","<p style=""color:rgb(150, 250, 100); font-size: 35px;"">他的</p>","e","categorize-html","141","253511","0.0-6.0-0.0-8.0-1.16","4","3","4","3","3","4","3","4","4","3","5","4","4","4","4","5","4","4","4","4","4","5","4","4","5","4","4","4","5","1","0","0","1","0","0","1","1","0","1","1","0","1","0","1","4","2","4","4","4","2","2","1","2","2","715186425389121536","郭","312","","","","","","","","","","","","","","","","","","","true","4","4","ability","1092","other","他的","","","","","","","","","","","","","","",""
"null","","null","html-keyboard-response","142","253762","0.0-6.0-0.0-8.0-0.17","4","3","4","3","3","4","3","4","4","3","5","4","4","4","4","5","4","4","4","4","4","5","4","4","5","4","4","4","5","1","0","0","1","0","0","1","1","0","1","1","0","1","0","1","4","2","4","4","4","2","2","1","2","2","715186425389121536","郭","312","","","","","","","","","","","","","","","","","","","","","","","","","","","","","","","","","","","","","","","",""
"1530","<p style=""color:white; font-size: 35px;"">全才</p>","e","categorize-html","143","255293","0.0-6.0-0.0-8.0-1.17","4","3","4","3","3","4","3","4","4","3","5","4","4","4","4","5","4","4","4","4","4","5","4","4","5","4","4","4","5","1","0","0","1","0","0","1","1","0","1","1","0","1","0","1","4","2","4","4","4","2","2","1","2","2","715186425389121536","郭","312","","","","","","","","","","","","","","","","","","","true","4","4","ability","1530","positive","全才","","","","","","","","","","","","","","",""
"null","","null","html-keyboard-response","144","255547","0.0-6.0-0.0-8.0-0.18","4","3","4","3","3","4","3","4","4","3","5","4","4","4","4","5","4","4","4","4","4","5","4","4","5","4","4","4","5","1","0","0","1","0","0","1","1","0","1","1","0","1","0","1","4","2","4","4","4","2","2","1","2","2","715186425389121536","郭","312","","","","","","","","","","","","","","","","","","","","","","","","","","","","","","","","","","","","","","","",""
"988","<p style=""color:rgb(150, 250, 100); font-size: 35px;"">自己的</p>","i","categorize-html","145","256536","0.0-6.0-0.0-8.0-1.18","4","3","4","3","3","4","3","4","4","3","5","4","4","4","4","5","4","4","4","4","4","5","4","4","5","4","4","4","5","1","0","0","1","0","0","1","1","0","1","1","0","1","0","1","4","2","4","4","4","2","2","1","2","2","715186425389121536","郭","312","","","","","","","","","","","","","","","","","","","true","4","4","ability","988","self","自己的","","","","","","","","","","","","","","",""
"null","","null","html-keyboard-response","146","256794","0.0-6.0-0.0-8.0-0.19","4","3","4","3","3","4","3","4","4","3","5","4","4","4","4","5","4","4","4","4","4","5","4","4","5","4","4","4","5","1","0","0","1","0","0","1","1","0","1","1","0","1","0","1","4","2","4","4","4","2","2","1","2","2","715186425389121536","郭","312","","","","","","","","","","","","","","","","","","","","","","","","","","","","","","","","","","","","","","","",""
"699","<p style=""color:white; font-size: 35px;"">拙笨</p>","i","categorize-html","147","257494","0.0-6.0-0.0-8.0-1.19","4","3","4","3","3","4","3","4","4","3","5","4","4","4","4","5","4","4","4","4","4","5","4","4","5","4","4","4","5","1","0","0","1","0","0","1","1","0","1","1","0","1","0","1","4","2","4","4","4","2","2","1","2","2","715186425389121536","郭","312","","","","","","","","","","","","","","","","","","","true","4","4","ability","699","negative","拙笨","","","","","","","","","","","","","","",""
"null","","null","html-keyboard-response","148","257746","0.0-6.0-0.0-8.0-0.20","4","3","4","3","3","4","3","4","4","3","5","4","4","4","4","5","4","4","4","4","4","5","4","4","5","4","4","4","5","1","0","0","1","0","0","1","1","0","1","1","0","1","0","1","4","2","4","4","4","2","2","1","2","2","715186425389121536","郭","312","","","","","","","","","","","","","","","","","","","","","","","","","","","","","","","","","","","","","","","",""
"633","<p style=""color:rgb(150, 250, 100); font-size: 35px;"">别人的</p>","e","categorize-html","149","258380","0.0-6.0-0.0-8.0-1.20","4","3","4","3","3","4","3","4","4","3","5","4","4","4","4","5","4","4","4","4","4","5","4","4","5","4","4","4","5","1","0","0","1","0","0","1","1","0","1","1","0","1","0","1","4","2","4","4","4","2","2","1","2","2","715186425389121536","郭","312","","","","","","","","","","","","","","","","","","","true","4","4","ability","633","other","别人的","","","","","","","","","","","","","","",""
"null","","null","html-keyboard-response","150","258635","0.0-6.0-0.0-8.0-0.21","4","3","4","3","3","4","3","4","4","3","5","4","4","4","4","5","4","4","4","4","4","5","4","4","5","4","4","4","5","1","0","0","1","0","0","1","1","0","1","1","0","1","0","1","4","2","4","4","4","2","2","1","2","2","715186425389121536","郭","312","","","","","","","","","","","","","","","","","","","","","","","","","","","","","","","","","","","","","","","",""
"791","<p style=""color:white; font-size: 35px;"">废物</p>","i","categorize-html","151","259427","0.0-6.0-0.0-8.0-1.21","4","3","4","3","3","4","3","4","4","3","5","4","4","4","4","5","4","4","4","4","4","5","4","4","5","4","4","4","5","1","0","0","1","0","0","1","1","0","1","1","0","1","0","1","4","2","4","4","4","2","2","1","2","2","715186425389121536","郭","312","","","","","","","","","","","","","","","","","","","true","4","4","ability","791","negative","废物","","","","","","","","","","","","","","",""
"null","","null","html-keyboard-response","152","259683","0.0-6.0-0.0-8.0-0.22","4","3","4","3","3","4","3","4","4","3","5","4","4","4","4","5","4","4","4","4","4","5","4","4","5","4","4","4","5","1","0","0","1","0","0","1","1","0","1","1","0","1","0","1","4","2","4","4","4","2","2","1","2","2","715186425389121536","郭","312","","","","","","","","","","","","","","","","","","","","","","","","","","","","","","","","","","","","","","","",""
"423","<p style=""color:rgb(150, 250, 100); font-size: 35px;"">自己的</p>","i","categorize-html","153","260107","0.0-6.0-0.0-8.0-1.22","4","3","4","3","3","4","3","4","4","3","5","4","4","4","4","5","4","4","4","4","4","5","4","4","5","4","4","4","5","1","0","0","1","0","0","1","1","0","1","1","0","1","0","1","4","2","4","4","4","2","2","1","2","2","715186425389121536","郭","312","","","","","","","","","","","","","","","","","","","true","4","4","ability","423","self","自己的","","","","","","","","","","","","","","",""
"null","","null","html-keyboard-response","154","260363","0.0-6.0-0.0-8.0-0.23","4","3","4","3","3","4","3","4","4","3","5","4","4","4","4","5","4","4","4","4","4","5","4","4","5","4","4","4","5","1","0","0","1","0","0","1","1","0","1","1","0","1","0","1","4","2","4","4","4","2","2","1","2","2","715186425389121536","郭","312","","","","","","","","","","","","","","","","","","","","","","","","","","","","","","","","","","","","","","","",""
"1145","<p style=""color:white; font-size: 35px;"">全能</p>","e","categorize-html","155","261510","0.0-6.0-0.0-8.0-1.23","4","3","4","3","3","4","3","4","4","3","5","4","4","4","4","5","4","4","4","4","4","5","4","4","5","4","4","4","5","1","0","0","1","0","0","1","1","0","1","1","0","1","0","1","4","2","4","4","4","2","2","1","2","2","715186425389121536","郭","312","","","","","","","","","","","","","","","","","","","true","4","4","ability","1145","positive","全能","","","","","","","","","","","","","","",""
"null","","null","html-keyboard-response","156","261761","0.0-6.0-0.0-8.0-0.24","4","3","4","3","3","4","3","4","4","3","5","4","4","4","4","5","4","4","4","4","4","5","4","4","5","4","4","4","5","1","0","0","1","0","0","1","1","0","1","1","0","1","0","1","4","2","4","4","4","2","2","1","2","2","715186425389121536","郭","312","","","","","","","","","","","","","","","","","","","","","","","","","","","","","","","","","","","","","","","",""
"383","<p style=""color:rgb(150, 250, 100); font-size: 35px;"">他人的</p>","e","categorize-html","157","262146","0.0-6.0-0.0-8.0-1.24","4","3","4","3","3","4","3","4","4","3","5","4","4","4","4","5","4","4","4","4","4","5","4","4","5","4","4","4","5","1","0","0","1","0","0","1","1","0","1","1","0","1","0","1","4","2","4","4","4","2","2","1","2","2","715186425389121536","郭","312","","","","","","","","","","","","","","","","","","","true","4","4","ability","383","other","他人的","","","","","","","","","","","","","","",""
"null","","null","html-keyboard-response","158","262402","0.0-6.0-0.0-8.0-0.25","4","3","4","3","3","4","3","4","4","3","5","4","4","4","4","5","4","4","4","4","4","5","4","4","5","4","4","4","5","1","0","0","1","0","0","1","1","0","1","1","0","1","0","1","4","2","4","4","4","2","2","1","2","2","715186425389121536","郭","312","","","","","","","","","","","","","","","","","","","","","","","","","","","","","","","","","","","","","","","",""
"503","<p style=""color:white; font-size: 35px;"">蠢笨</p>","e","categorize-html","159","263957","0.0-6.0-0.0-8.0-1.25","4","3","4","3","3","4","3","4","4","3","5","4","4","4","4","5","4","4","4","4","4","5","4","4","5","4","4","4","5","1","0","0","1","0","0","1","1","0","1","1","0","1","0","1","4","2","4","4","4","2","2","1","2","2","715186425389121536","郭","312","","","","","","","","","","","","","","","","","","","false","4","4","ability","1336.860465116279","negative","蠢笨","","","","","","","","","","","","","","",""
"null","","null","html-keyboard-response","160","264210","0.0-6.0-0.0-8.0-0.26","4","3","4","3","3","4","3","4","4","3","5","4","4","4","4","5","4","4","4","4","4","5","4","4","5","4","4","4","5","1","0","0","1","0","0","1","1","0","1","1","0","1","0","1","4","2","4","4","4","2","2","1","2","2","715186425389121536","郭","312","","","","","","","","","","","","","","","","","","","","","","","","","","","","","","","","","","","","","","","",""
"515","<p style=""color:rgb(150, 250, 100); font-size: 35px;"">自己</p>","i","categorize-html","161","264726","0.0-6.0-0.0-8.0-1.26","4","3","4","3","3","4","3","4","4","3","5","4","4","4","4","5","4","4","4","4","4","5","4","4","5","4","4","4","5","1","0","0","1","0","0","1","1","0","1","1","0","1","0","1","4","2","4","4","4","2","2","1","2","2","715186425389121536","郭","312","","","","","","","","","","","","","","","","","","","true","4","4","ability","515","self","自己","","","","","","","","","","","","","","",""
"null","","null","html-keyboard-response","162","264979","0.0-6.0-0.0-8.0-0.27","4","3","4","3","3","4","3","4","4","3","5","4","4","4","4","5","4","4","4","4","4","5","4","4","5","4","4","4","5","1","0","0","1","0","0","1","1","0","1","1","0","1","0","1","4","2","4","4","4","2","2","1","2","2","715186425389121536","郭","312","","","","","","","","","","","","","","","","","","","","","","","","","","","","","","","","","","","","","","","",""
"388","<p style=""color:white; font-size: 35px;"">高效</p>","i","categorize-html","163","265755","0.0-6.0-0.0-8.0-1.27","4","3","4","3","3","4","3","4","4","3","5","4","4","4","4","5","4","4","4","4","4","5","4","4","5","4","4","4","5","1","0","0","1","0","0","1","1","0","1","1","0","1","0","1","4","2","4","4","4","2","2","1","2","2","715186425389121536","郭","312","","","","","","","","","","","","","","","","","","","false","4","4","ability","1336.860465116279","positive","高效","","","","","","","","","","","","","","",""
"null","","null","html-keyboard-response","164","266010","0.0-6.0-0.0-8.0-0.28","4","3","4","3","3","4","3","4","4","3","5","4","4","4","4","5","4","4","4","4","4","5","4","4","5","4","4","4","5","1","0","0","1","0","0","1","1","0","1","1","0","1","0","1","4","2","4","4","4","2","2","1","2","2","715186425389121536","郭","312","","","","","","","","","","","","","","","","","","","","","","","","","","","","","","","","","","","","","","","",""
"408","<p style=""color:rgb(150, 250, 100); font-size: 35px;"">别人的</p>","e","categorize-html","165","266418","0.0-6.0-0.0-8.0-1.28","4","3","4","3","3","4","3","4","4","3","5","4","4","4","4","5","4","4","4","4","4","5","4","4","5","4","4","4","5","1","0","0","1","0","0","1","1","0","1","1","0","1","0","1","4","2","4","4","4","2","2","1","2","2","715186425389121536","郭","312","","","","","","","","","","","","","","","","","","","true","4","4","ability","408","other","别人的","","","","","","","","","","","","","","",""
"null","","null","html-keyboard-response","166","266675","0.0-6.0-0.0-8.0-0.29","4","3","4","3","3","4","3","4","4","3","5","4","4","4","4","5","4","4","4","4","4","5","4","4","5","4","4","4","5","1","0","0","1","0","0","1","1","0","1","1","0","1","0","1","4","2","4","4","4","2","2","1","2","2","715186425389121536","郭","312","","","","","","","","","","","","","","","","","","","","","","","","","","","","","","","","","","","","","","","",""
"599","<p style=""color:white; font-size: 35px;"">愚钝</p>","i","categorize-html","167","267275","0.0-6.0-0.0-8.0-1.29","4","3","4","3","3","4","3","4","4","3","5","4","4","4","4","5","4","4","4","4","4","5","4","4","5","4","4","4","5","1","0","0","1","0","0","1","1","0","1","1","0","1","0","1","4","2","4","4","4","2","2","1","2","2","715186425389121536","郭","312","","","","","","","","","","","","","","","","","","","true","4","4","ability","599","negative","愚钝","","","","","","","","","","","","","","",""
"null","","null","html-keyboard-response","168","267530","0.0-6.0-0.0-8.0-0.30","4","3","4","3","3","4","3","4","4","3","5","4","4","4","4","5","4","4","4","4","4","5","4","4","5","4","4","4","5","1","0","0","1","0","0","1","1","0","1","1","0","1","0","1","4","2","4","4","4","2","2","1","2","2","715186425389121536","郭","312","","","","","","","","","","","","","","","","","","","","","","","","","","","","","","","","","","","","","","","",""
"370","<p style=""color:rgb(150, 250, 100); font-size: 35px;"">自己</p>","i","categorize-html","169","267901","0.0-6.0-0.0-8.0-1.30","4","3","4","3","3","4","3","4","4","3","5","4","4","4","4","5","4","4","4","4","4","5","4","4","5","4","4","4","5","1","0","0","1","0","0","1","1","0","1","1","0","1","0","1","4","2","4","4","4","2","2","1","2","2","715186425389121536","郭","312","","","","","","","","","","","","","","","","","","","true","4","4","ability","370","self","自己","","","","","","","","","","","","","","",""
"null","","null","html-keyboard-response","170","268154","0.0-6.0-0.0-8.0-0.31","4","3","4","3","3","4","3","4","4","3","5","4","4","4","4","5","4","4","4","4","4","5","4","4","5","4","4","4","5","1","0","0","1","0","0","1","1","0","1","1","0","1","0","1","4","2","4","4","4","2","2","1","2","2","715186425389121536","郭","312","","","","","","","","","","","","","","","","","","","","","","","","","","","","","","","","","","","","","","","",""
"317","<p style=""color:white; font-size: 35px;"">天才</p>","i","categorize-html","171","268842","0.0-6.0-0.0-8.0-1.31","4","3","4","3","3","4","3","4","4","3","5","4","4","4","4","5","4","4","4","4","4","5","4","4","5","4","4","4","5","1","0","0","1","0","0","1","1","0","1","1","0","1","0","1","4","2","4","4","4","2","2","1","2","2","715186425389121536","郭","312","","","","","","","","","","","","","","","","","","","false","4","4","ability","1336.860465116279","positive","天才","","","","","","","","","","","","","","",""
"null","","null","html-keyboard-response","172","269099","0.0-6.0-0.0-8.0-0.32","4","3","4","3","3","4","3","4","4","3","5","4","4","4","4","5","4","4","4","4","4","5","4","4","5","4","4","4","5","1","0","0","1","0","0","1","1","0","1","1","0","1","0","1","4","2","4","4","4","2","2","1","2","2","715186425389121536","郭","312","","","","","","","","","","","","","","","","","","","","","","","","","","","","","","","","","","","","","","","",""
"593","<p style=""color:rgb(150, 250, 100); font-size: 35px;"">别人</p>","e","categorize-html","173","269694","0.0-6.0-0.0-8.0-1.32","4","3","4","3","3","4","3","4","4","3","5","4","4","4","4","5","4","4","4","4","4","5","4","4","5","4","4","4","5","1","0","0","1","0","0","1","1","0","1","1","0","1","0","1","4","2","4","4","4","2","2","1","2","2","715186425389121536","郭","312","","","","","","","","","","","","","","","","","","","true","4","4","ability","593","other","别人","","","","","","","","","","","","","","",""
"null","","null","html-keyboard-response","174","269946","0.0-6.0-0.0-8.0-0.33","4","3","4","3","3","4","3","4","4","3","5","4","4","4","4","5","4","4","4","4","4","5","4","4","5","4","4","4","5","1","0","0","1","0","0","1","1","0","1","1","0","1","0","1","4","2","4","4","4","2","2","1","2","2","715186425389121536","郭","312","","","","","","","","","","","","","","","","","","","","","","","","","","","","","","","","","","","","","","","",""
"594","<p style=""color:white; font-size: 35px;"">精干</p>","e","categorize-html","175","270541","0.0-6.0-0.0-8.0-1.33","4","3","4","3","3","4","3","4","4","3","5","4","4","4","4","5","4","4","4","4","4","5","4","4","5","4","4","4","5","1","0","0","1","0","0","1","1","0","1","1","0","1","0","1","4","2","4","4","4","2","2","1","2","2","715186425389121536","郭","312","","","","","","","","","","","","","","","","","","","true","4","4","ability","594","positive","精干","","","","","","","","","","","","","","",""
"null","","null","html-keyboard-response","176","270794","0.0-6.0-0.0-8.0-0.34","4","3","4","3","3","4","3","4","4","3","5","4","4","4","4","5","4","4","4","4","4","5","4","4","5","4","4","4","5","1","0","0","1","0","0","1","1","0","1","1","0","1","0","1","4","2","4","4","4","2","2","1","2","2","715186425389121536","郭","312","","","","","","","","","","","","","","","","","","","","","","","","","","","","","","","","","","","","","","","",""
"538","<p style=""color:rgb(150, 250, 100); font-size: 35px;"">我</p>","i","categorize-html","177","271334","0.0-6.0-0.0-8.0-1.34","4","3","4","3","3","4","3","4","4","3","5","4","4","4","4","5","4","4","4","4","4","5","4","4","5","4","4","4","5","1","0","0","1","0","0","1","1","0","1","1","0","1","0","1","4","2","4","4","4","2","2","1","2","2","715186425389121536","郭","312","","","","","","","","","","","","","","","","","","","true","4","4","ability","538","self","我","","","","","","","","","","","","","","",""
"null","","null","html-keyboard-response","178","271586","0.0-6.0-0.0-8.0-0.35","4","3","4","3","3","4","3","4","4","3","5","4","4","4","4","5","4","4","4","4","4","5","4","4","5","4","4","4","5","1","0","0","1","0","0","1","1","0","1","1","0","1","0","1","4","2","4","4","4","2","2","1","2","2","715186425389121536","郭","312","","","","","","","","","","","","","","","","","","","","","","","","","","","","","","","","","","","","","","","",""
"354","<p style=""color:white; font-size: 35px;"">废物</p>","i","categorize-html","179","271941","0.0-6.0-0.0-8.0-1.35","4","3","4","3","3","4","3","4","4","3","5","4","4","4","4","5","4","4","4","4","4","5","4","4","5","4","4","4","5","1","0","0","1","0","0","1","1","0","1","1","0","1","0","1","4","2","4","4","4","2","2","1","2","2","715186425389121536","郭","312","","","","","","","","","","","","","","","","","","","true","4","4","ability","354","negative","废物","","","","","","","","","","","","","","",""
"null","","null","html-keyboard-response","180","272201","0.0-6.0-0.0-8.0-0.36","4","3","4","3","3","4","3","4","4","3","5","4","4","4","4","5","4","4","4","4","4","5","4","4","5","4","4","4","5","1","0","0","1","0","0","1","1","0","1","1","0","1","0","1","4","2","4","4","4","2","2","1","2","2","715186425389121536","郭","312","","","","","","","","","","","","","","","","","","","","","","","","","","","","","","","","","","","","","","","",""
"849","<p style=""color:rgb(150, 250, 100); font-size: 35px;"">他人</p>","e","categorize-html","181","273051","0.0-6.0-0.0-8.0-1.36","4","3","4","3","3","4","3","4","4","3","5","4","4","4","4","5","4","4","4","4","4","5","4","4","5","4","4","4","5","1","0","0","1","0","0","1","1","0","1","1","0","1","0","1","4","2","4","4","4","2","2","1","2","2","715186425389121536","郭","312","","","","","","","","","","","","","","","","","","","true","4","4","ability","849","other","他人","","","","","","","","","","","","","","",""
"null","","null","html-keyboard-response","182","273306","0.0-6.0-0.0-8.0-0.37","4","3","4","3","3","4","3","4","4","3","5","4","4","4","4","5","4","4","4","4","4","5","4","4","5","4","4","4","5","1","0","0","1","0","0","1","1","0","1","1","0","1","0","1","4","2","4","4","4","2","2","1","2","2","715186425389121536","郭","312","","","","","","","","","","","","","","","","","","","","","","","","","","","","","","","","","","","","","","","",""
"896","<p style=""color:white; font-size: 35px;"">无能</p>","i","categorize-html","183","274203","0.0-6.0-0.0-8.0-1.37","4","3","4","3","3","4","3","4","4","3","5","4","4","4","4","5","4","4","4","4","4","5","4","4","5","4","4","4","5","1","0","0","1","0","0","1","1","0","1","1","0","1","0","1","4","2","4","4","4","2","2","1","2","2","715186425389121536","郭","312","","","","","","","","","","","","","","","","","","","true","4","4","ability","896","negative","无能","","","","","","","","","","","","","","",""
"null","","null","html-keyboard-response","184","274458","0.0-6.0-0.0-8.0-0.38","4","3","4","3","3","4","3","4","4","3","5","4","4","4","4","5","4","4","4","4","4","5","4","4","5","4","4","4","5","1","0","0","1","0","0","1","1","0","1","1","0","1","0","1","4","2","4","4","4","2","2","1","2","2","715186425389121536","郭","312","","","","","","","","","","","","","","","","","","","","","","","","","","","","","","","","","","","","","","","",""
"455","<p style=""color:rgb(150, 250, 100); font-size: 35px;"">我</p>","i","categorize-html","185","274914","0.0-6.0-0.0-8.0-1.38","4","3","4","3","3","4","3","4","4","3","5","4","4","4","4","5","4","4","4","4","4","5","4","4","5","4","4","4","5","1","0","0","1","0","0","1","1","0","1","1","0","1","0","1","4","2","4","4","4","2","2","1","2","2","715186425389121536","郭","312","","","","","","","","","","","","","","","","","","","true","4","4","ability","455","self","我","","","","","","","","","","","","","","",""
"null","","null","html-keyboard-response","186","275171","0.0-6.0-0.0-8.0-0.39","4","3","4","3","3","4","3","4","4","3","5","4","4","4","4","5","4","4","4","4","4","5","4","4","5","4","4","4","5","1","0","0","1","0","0","1","1","0","1","1","0","1","0","1","4","2","4","4","4","2","2","1","2","2","715186425389121536","郭","312","","","","","","","","","","","","","","","","","","","","","","","","","","","","","","","","","","","","","","","",""
"733","<p style=""color:white; font-size: 35px;"">全能</p>","e","categorize-html","187","275905","0.0-6.0-0.0-8.0-1.39","4","3","4","3","3","4","3","4","4","3","5","4","4","4","4","5","4","4","4","4","4","5","4","4","5","4","4","4","5","1","0","0","1","0","0","1","1","0","1","1","0","1","0","1","4","2","4","4","4","2","2","1","2","2","715186425389121536","郭","312","","","","","","","","","","","","","","","","","","","true","4","4","ability","733","positive","全能","","","","","","","","","","","","","","",""
"null","","null","html-keyboard-response","188","276170","0.0-6.0-0.0-8.0-0.40","4","3","4","3","3","4","3","4","4","3","5","4","4","4","4","5","4","4","4","4","4","5","4","4","5","4","4","4","5","1","0","0","1","0","0","1","1","0","1","1","0","1","0","1","4","2","4","4","4","2","2","1","2","2","715186425389121536","郭","312","","","","","","","","","","","","","","","","","","","","","","","","","","","","","","","","","","","","","","","",""
"453","<p style=""color:rgb(150, 250, 100); font-size: 35px;"">他人</p>","e","categorize-html","189","276625","0.0-6.0-0.0-8.0-1.40","4","3","4","3","3","4","3","4","4","3","5","4","4","4","4","5","4","4","4","4","4","5","4","4","5","4","4","4","5","1","0","0","1","0","0","1","1","0","1","1","0","1","0","1","4","2","4","4","4","2","2","1","2","2","715186425389121536","郭","312","","","","","","","","","","","","","","","","","","","true","4","4","ability","453","other","他人","","","","","","","","","","","","","","",""
"null","","null","html-keyboard-response","190","276882","0.0-6.0-0.0-8.0-0.41","4","3","4","3","3","4","3","4","4","3","5","4","4","4","4","5","4","4","4","4","4","5","4","4","5","4","4","4","5","1","0","0","1","0","0","1","1","0","1","1","0","1","0","1","4","2","4","4","4","2","2","1","2","2","715186425389121536","郭","312","","","","","","","","","","","","","","","","","","","","","","","","","","","","","","","","","","","","","","","",""
"808","<p style=""color:white; font-size: 35px;"">高效</p>","e","categorize-html","191","277690","0.0-6.0-0.0-8.0-1.41","4","3","4","3","3","4","3","4","4","3","5","4","4","4","4","5","4","4","4","4","4","5","4","4","5","4","4","4","5","1","0","0","1","0","0","1","1","0","1","1","0","1","0","1","4","2","4","4","4","2","2","1","2","2","715186425389121536","郭","312","","","","","","","","","","","","","","","","","","","true","4","4","ability","808","positive","高效","","","","","","","","","","","","","","",""
"null","","null","html-keyboard-response","192","277954","0.0-6.0-0.0-8.0-0.42","4","3","4","3","3","4","3","4","4","3","5","4","4","4","4","5","4","4","4","4","4","5","4","4","5","4","4","4","5","1","0","0","1","0","0","1","1","0","1","1","0","1","0","1","4","2","4","4","4","2","2","1","2","2","715186425389121536","郭","312","","","","","","","","","","","","","","","","","","","","","","","","","","","","","","","","","","","","","","","",""
"601","<p style=""color:rgb(150, 250, 100); font-size: 35px;"">我的</p>","i","categorize-html","193","278556","0.0-6.0-0.0-8.0-1.42","4","3","4","3","3","4","3","4","4","3","5","4","4","4","4","5","4","4","4","4","4","5","4","4","5","4","4","4","5","1","0","0","1","0","0","1","1","0","1","1","0","1","0","1","4","2","4","4","4","2","2","1","2","2","715186425389121536","郭","312","","","","","","","","","","","","","","","","","","","true","4","4","ability","601","self","我的","","","","","","","","","","","","","","",""
"null","","null","html-keyboard-response","194","278809","0.0-6.0-0.0-8.0-0.43","4","3","4","3","3","4","3","4","4","3","5","4","4","4","4","5","4","4","4","4","4","5","4","4","5","4","4","4","5","1","0","0","1","0","0","1","1","0","1","1","0","1","0","1","4","2","4","4","4","2","2","1","2","2","715186425389121536","郭","312","","","","","","","","","","","","","","","","","","","","","","","","","","","","","","","","","","","","","","","",""
"567","<p style=""color:white; font-size: 35px;"">无能</p>","i","categorize-html","195","279377","0.0-6.0-0.0-8.0-1.43","4","3","4","3","3","4","3","4","4","3","5","4","4","4","4","5","4","4","4","4","4","5","4","4","5","4","4","4","5","1","0","0","1","0","0","1","1","0","1","1","0","1","0","1","4","2","4","4","4","2","2","1","2","2","715186425389121536","郭","312","","","","","","","","","","","","","","","","","","","true","4","4","ability","567","negative","无能","","","","","","","","","","","","","","",""
"null","","null","html-keyboard-response","196","279633","0.0-6.0-0.0-8.0-0.44","4","3","4","3","3","4","3","4","4","3","5","4","4","4","4","5","4","4","4","4","4","5","4","4","5","4","4","4","5","1","0","0","1","0","0","1","1","0","1","1","0","1","0","1","4","2","4","4","4","2","2","1","2","2","715186425389121536","郭","312","","","","","","","","","","","","","","","","","","","","","","","","","","","","","","","","","","","","","","","",""
"414","<p style=""color:rgb(150, 250, 100); font-size: 35px;"">他</p>","i","categorize-html","197","280399","0.0-6.0-0.0-8.0-1.44","4","3","4","3","3","4","3","4","4","3","5","4","4","4","4","5","4","4","4","4","4","5","4","4","5","4","4","4","5","1","0","0","1","0","0","1","1","0","1","1","0","1","0","1","4","2","4","4","4","2","2","1","2","2","715186425389121536","郭","312","","","","","","","","","","","","","","","","","","","false","4","4","ability","1336.860465116279","other","他","","","","","","","","","","","","","","",""
