"rt","stimulus","response","trial_type","trial_index","time_elapsed","internal_node_id","ses_1","ses_2","ses_3","ses_4","ses_5","ses_6","ses_7","ses_8","ses_9","ses_10","coreself_1","coreself_2","coreself_3","coreself_4","coreself_5","coreself_6","coreself_7","coreself_8","coreself_9","coreself_10","SGPS_1","SGPS_2","SGPS_3","SGPS_4","SGPS_5","SGPS_6","SGPS_7","SGPS_8","SGPS_9","NPI1","NPI2","NPI3","NPI4","NPI5","NPI6","NPI7","NPI8","NPI9","NPI10","NPI11","NPI12","NPI13","NPI14","NPI15","hsns_1","hsns_2","hsns_3","hsns_4","hsns_5","hsns_6","hsns_7","hsns_8","hsns_9","hsns_10","subj_idx","friend_name","ParticipantID","value","success","user_agent","responses","item_order","radio_event_ids","radio_event_times","key_event_times","mouse_event_times","straightlining","zigzagging","honeypot","timeout","failed_images","failed_audio","failed_video","version_attrib","version_target","correct","IAT","screen_id","task_id","RT","condition","word","varname","summary","version_attrib2","version_target2","time_stamp","view_history","response_type","key_press","avg_frame_time","center_x","center_y","correct_response","identity","Image","question_order"
"39786","
   <p><div style = ""color: white;font-size:25px;"">您好，欢迎参加本次实验。</div> </p>
   <p><div style = ""color: white;font-size:25px;"">为充分保障您的权利，请确保您已经知晓并同意《参与实验同意书》以及《数据公开知情同意书》。</div></p>
   <p><div style = ""color: white;font-size:25px;"">如果您未见过上述内容，请咨询实验员。</div></p>
   <p><div style = ""color: white;font-size:25px;"">如果您选择继续实验，则表示您已经清楚两份知情同意书的内容并同意。</div></p>
   <p><div style = ""color: red;font-size:30px;"">请确保您记得day0的实验编号，您将在本次实验输入该编号，若您忘记，请咨询实验员后作答。</div></p>
   <p> <div style = ""color: green;font-size:25px;""><按空格键至下页></div> </p>
   "," ","html-keyboard-response","0","39789","0.0-0.0","2","2","2","2","2","2","2","2","2","2","2","2","2","3","2","2","2","2","3","2","4","4","4","3","3","4","4","3","4","1","0","1","1","0","0","0","1","0","1","1","0","1","0","1","3","4","3","4","4","3","3","4","2","2","718763547043037184","li","604","","","","","","","","","","","","","","","","","","","","","","","","","","","","","","","","","","","","","","","",""
"","","","call-function","1","39789","0.0-1.0-0.0","2","2","2","2","2","2","2","2","2","2","2","2","2","3","2","2","2","2","3","2","4","4","4","3","3","4","4","3","4","1","0","1","1","0","0","0","1","0","1","1","0","1","0","1","3","4","3","4","4","3","3","4","2","2","718763547043037184","li","604","","","","","","","","","","","","","","","","","","","","","","","","","","","","","","","","","","","","","","","",""
"23893","","{""friend_name"":""li"",""ParticipantID"":""604""}","survey-html-form","2","63683","0.0-1.0-1.0","2","2","2","2","2","2","2","2","2","2","2","2","2","3","2","2","2","2","3","2","4","4","4","3","3","4","4","3","4","1","0","1","1","0","0","0","1","0","1","1","0","1","0","1","3","4","3","4","4","3","3","4","2","2","718763547043037184","li","604","","","","","","","","","","","","","","","","","","","","","","","","","","","","","","","","","","","","","","","",""
"","","","fullscreen","3","66451","0.0-2.0","2","2","2","2","2","2","2","2","2","2","2","2","2","3","2","2","2","2","3","2","4","4","4","3","3","4","4","3","4","1","0","1","1","0","0","0","1","0","1","1","0","1","0","1","3","4","3","4","4","3","3","4","2","2","718763547043037184","li","604","","true","","","","","","","","","","","","","","","","","","","","","","","","","","","","","","","","","","","","","",""
"47763","","{""Q01"":""2"",""Q02"":""2"",""Q03"":""2"",""Q04"":""2"",""Q05"":""2"",""Q06"":""2"",""Q07"":""2"",""Q08"":""2"",""Q09"":""2"",""Q10"":""2""}","survey-template","4","114217","0.0-3.0","2","2","2","2","2","2","2","2","2","2","2","2","2","3","2","2","2","2","3","2","4","4","4","3","3","4","4","3","4","1","0","1","1","0","0","0","1","0","1","1","0","1","0","1","3","4","3","4","4","3","3","4","2","2","718763547043037184","li","604","","","","{""Q01"":""2"",""Q02"":""2"",""Q03"":""2"",""Q04"":""2"",""Q05"":""2"",""Q06"":""2"",""Q07"":""2"",""Q08"":""2"",""Q09"":""2"",""Q10"":""2""}","[0,1,2,3,4,5,6,7,8,9]","[""Q01"",""Q02"",""Q03"",""Q04"",""Q05"",""Q06"",""Q07"",""Q08"",""Q09"",""Q10""]","[6035,7507,17571,18955,21354,22219,23442,28827,31123,32307]","[]","[6035,7507,17571,18955,20082,21354,22219,23442,28827,31123,32307,47763]","0.5","0.5555555555555556","0","","","","","","","","","","","","","","","","","","","","","","","","","","","",""
"50205","","{""Q01"":""2"",""Q02"":""2"",""Q03"":""2"",""Q04"":""3"",""Q05"":""2"",""Q06"":""2"",""Q07"":""2"",""Q08"":""2"",""Q09"":""3"",""Q10"":""2""}","survey-template","5","164425","0.0-4.0","2","2","2","2","2","2","2","2","2","2","2","2","2","3","2","2","2","2","3","2","4","4","4","3","3","4","4","3","4","1","0","1","1","0","0","0","1","0","1","1","0","1","0","1","3","4","3","4","4","3","3","4","2","2","718763547043037184","li","604","","","","{""Q01"":""2"",""Q02"":""2"",""Q03"":""2"",""Q04"":""3"",""Q05"":""2"",""Q06"":""2"",""Q07"":""2"",""Q08"":""2"",""Q09"":""3"",""Q10"":""2""}","[0,1,2,3,4,5,6,7,8,9]","[""Q01"",""Q02"",""Q03"",""Q04"",""Q05"",""Q06"",""Q07"",""Q08"",""Q09"",""Q10""]","[3005,6796,9668,10476,11900,13212,17949,45197,47709,49100]","[]","[3005,6796,8261,9668,10476,11900,13212,17949,45197,47709,49100,50205]","0.6","0.4444444444444444","0","","","","","","","","","","","","","","","","","","","","","","","","","","","",""
"","","","preload","6","164564","0.0-5.0","2","2","2","2","2","2","2","2","2","2","2","2","2","3","2","2","2","2","3","2","4","4","4","3","3","4","4","3","4","1","0","1","1","0","0","0","1","0","1","1","0","1","0","1","3","4","3","4","4","3","3","4","2","2","718763547043037184","li","604","","true","","","","","","","","","","","false","[]","[]","[]","","","","","","","","","","","","","","","","","","","","","","","",""
"16162","
    <h3>词语分类任务</h3>
    <p>在接下来的任务中，你需要对一系列词语进行分类。</p>
    <p>请先熟悉这些词语，这有利于你完成接下来的任务。</p>
    <table align=""center"" border=1 cellpadding=3 cellspacing=0>
    <tr> <th>类别</th> <th>词语</th> </tr>
    <tr> <td>&emsp;积极&emsp;</td> <td>&emsp;能干、全能、全才、高效、精干、天才&emsp;</td> </tr>
    <tr> <td>&emsp;消极&emsp;</td> <td>&emsp;无能、低能、废物、拙笨、愚钝、蠢笨&emsp;</td> </tr>
    <tr> <td>&emsp;自我&emsp;</td> <td>&emsp;我、我的、自己、自己的、本人、本人的&emsp;</td> </tr>
    <tr> <td>&emsp;他人&emsp;</td> <td>&emsp;他、他的、别人、别人的、他人、他人的&emsp;</td> </tr>
    </table><br/>","0","html-button-response","7","180727","0.0-6.0-0.0-0.0","2","2","2","2","2","2","2","2","2","2","2","2","2","3","2","2","2","2","3","2","4","4","4","3","3","4","4","3","4","1","0","1","1","0","0","0","1","0","1","1","0","1","0","1","3","4","3","4","4","3","3","4","2","2","718763547043037184","li","604","","","","","","","","","","","","","","","","","1","2","","","","","","","","","","","","","","","","","","","","","",""
"20369","
    <div class=""tag-bottom"">
    <p> —— 任务1：对“他人”词和“自我”词分类 ——<p/>
    不同词语会出现在屏幕中央，类别标签将始终显示在屏幕上方<p/>   
    <span style=""color:#FFD866""><b>请根据上方标签的提示，尽可能正确并且快速地做出按键反应</b></span><p/>
    当按键错误时屏幕中会出现<span style=""color:red""> X </span>，需要按另一个键纠正才能继续<br/><p/>
    请把双手食指分别放在键盘的“E”键和“I”键上<p/>
    按<空格键>开始
    </p></div>"," ","html-keyboard-response","8","201097","0.0-6.0-0.0-1.0","2","2","2","2","2","2","2","2","2","2","2","2","2","3","2","2","2","2","3","2","4","4","4","3","3","4","4","3","4","1","0","1","1","0","0","0","1","0","1","1","0","1","0","1","3","4","3","4","4","3","3","4","2","2","718763547043037184","li","604","","","","","","","","","","","","","","","","","","","","","","","","","","","","","","","","","","","","","","","",""
"null","","null","html-keyboard-response","9","201351","0.0-6.0-0.0-2.0-0.0","2","2","2","2","2","2","2","2","2","2","2","2","2","3","2","2","2","2","3","2","4","4","4","3","3","4","4","3","4","1","0","1","1","0","0","0","1","0","1","1","0","1","0","1","3","4","3","4","4","3","3","4","2","2","718763547043037184","li","604","","","","","","","","","","","","","","","","","","","","","","","","","","","","","","","","","","","","","","","",""
"943","<p style=""color:rgb(150, 250, 100); font-size: 35px;"">自己的</p>","i","categorize-html","10","202300","0.0-6.0-0.0-2.0-1.0","2","2","2","2","2","2","2","2","2","2","2","2","2","3","2","2","2","2","3","2","4","4","4","3","3","4","4","3","4","1","0","1","1","0","0","0","1","0","1","1","0","1","0","1","3","4","3","4","4","3","3","4","2","2","718763547043037184","li","604","","","","","","","","","","","","","","","","","","","true","1","1","ability","943","self","自己的","","","","","","","","","","","","","","",""
"null","","null","html-keyboard-response","11","202551","0.0-6.0-0.0-2.0-0.1","2","2","2","2","2","2","2","2","2","2","2","2","2","3","2","2","2","2","3","2","4","4","4","3","3","4","4","3","4","1","0","1","1","0","0","0","1","0","1","1","0","1","0","1","3","4","3","4","4","3","3","4","2","2","718763547043037184","li","604","","","","","","","","","","","","","","","","","","","","","","","","","","","","","","","","","","","","","","","",""
"768","<p style=""color:rgb(150, 250, 100); font-size: 35px;"">我的</p>","i","categorize-html","12","203325","0.0-6.0-0.0-2.0-1.1","2","2","2","2","2","2","2","2","2","2","2","2","2","3","2","2","2","2","3","2","4","4","4","3","3","4","4","3","4","1","0","1","1","0","0","0","1","0","1","1","0","1","0","1","3","4","3","4","4","3","3","4","2","2","718763547043037184","li","604","","","","","","","","","","","","","","","","","","","true","1","1","ability","768","self","我的","","","","","","","","","","","","","","",""
"null","","null","html-keyboard-response","13","203592","0.0-6.0-0.0-2.0-0.2","2","2","2","2","2","2","2","2","2","2","2","2","2","3","2","2","2","2","3","2","4","4","4","3","3","4","4","3","4","1","0","1","1","0","0","0","1","0","1","1","0","1","0","1","3","4","3","4","4","3","3","4","2","2","718763547043037184","li","604","","","","","","","","","","","","","","","","","","","","","","","","","","","","","","","","","","","","","","","",""
"536","<p style=""color:rgb(150, 250, 100); font-size: 35px;"">他</p>","e","categorize-html","14","204132","0.0-6.0-0.0-2.0-1.2","2","2","2","2","2","2","2","2","2","2","2","2","2","3","2","2","2","2","3","2","4","4","4","3","3","4","4","3","4","1","0","1","1","0","0","0","1","0","1","1","0","1","0","1","3","4","3","4","4","3","3","4","2","2","718763547043037184","li","604","","","","","","","","","","","","","","","","","","","true","1","1","ability","536","other","他","","","","","","","","","","","","","","",""
"null","","null","html-keyboard-response","15","204392","0.0-6.0-0.0-2.0-0.3","2","2","2","2","2","2","2","2","2","2","2","2","2","3","2","2","2","2","3","2","4","4","4","3","3","4","4","3","4","1","0","1","1","0","0","0","1","0","1","1","0","1","0","1","3","4","3","4","4","3","3","4","2","2","718763547043037184","li","604","","","","","","","","","","","","","","","","","","","","","","","","","","","","","","","","","","","","","","","",""
"664","<p style=""color:rgb(150, 250, 100); font-size: 35px;"">别人</p>","e","categorize-html","16","205059","0.0-6.0-0.0-2.0-1.3","2","2","2","2","2","2","2","2","2","2","2","2","2","3","2","2","2","2","3","2","4","4","4","3","3","4","4","3","4","1","0","1","1","0","0","0","1","0","1","1","0","1","0","1","3","4","3","4","4","3","3","4","2","2","718763547043037184","li","604","","","","","","","","","","","","","","","","","","","true","1","1","ability","664","other","别人","","","","","","","","","","","","","","",""
"null","","null","html-keyboard-response","17","205312","0.0-6.0-0.0-2.0-0.4","2","2","2","2","2","2","2","2","2","2","2","2","2","3","2","2","2","2","3","2","4","4","4","3","3","4","4","3","4","1","0","1","1","0","0","0","1","0","1","1","0","1","0","1","3","4","3","4","4","3","3","4","2","2","718763547043037184","li","604","","","","","","","","","","","","","","","","","","","","","","","","","","","","","","","","","","","","","","","",""
"599","<p style=""color:rgb(150, 250, 100); font-size: 35px;"">我</p>","i","categorize-html","18","205916","0.0-6.0-0.0-2.0-1.4","2","2","2","2","2","2","2","2","2","2","2","2","2","3","2","2","2","2","3","2","4","4","4","3","3","4","4","3","4","1","0","1","1","0","0","0","1","0","1","1","0","1","0","1","3","4","3","4","4","3","3","4","2","2","718763547043037184","li","604","","","","","","","","","","","","","","","","","","","true","1","1","ability","599","self","我","","","","","","","","","","","","","","",""
"null","","null","html-keyboard-response","19","206181","0.0-6.0-0.0-2.0-0.5","2","2","2","2","2","2","2","2","2","2","2","2","2","3","2","2","2","2","3","2","4","4","4","3","3","4","4","3","4","1","0","1","1","0","0","0","1","0","1","1","0","1","0","1","3","4","3","4","4","3","3","4","2","2","718763547043037184","li","604","","","","","","","","","","","","","","","","","","","","","","","","","","","","","","","","","","","","","","","",""
"586","<p style=""color:rgb(150, 250, 100); font-size: 35px;"">本人</p>","i","categorize-html","20","206771","0.0-6.0-0.0-2.0-1.5","2","2","2","2","2","2","2","2","2","2","2","2","2","3","2","2","2","2","3","2","4","4","4","3","3","4","4","3","4","1","0","1","1","0","0","0","1","0","1","1","0","1","0","1","3","4","3","4","4","3","3","4","2","2","718763547043037184","li","604","","","","","","","","","","","","","","","","","","","true","1","1","ability","586","self","本人","","","","","","","","","","","","","","",""
"null","","null","html-keyboard-response","21","207042","0.0-6.0-0.0-2.0-0.6","2","2","2","2","2","2","2","2","2","2","2","2","2","3","2","2","2","2","3","2","4","4","4","3","3","4","4","3","4","1","0","1","1","0","0","0","1","0","1","1","0","1","0","1","3","4","3","4","4","3","3","4","2","2","718763547043037184","li","604","","","","","","","","","","","","","","","","","","","","","","","","","","","","","","","","","","","","","","","",""
"509","<p style=""color:rgb(150, 250, 100); font-size: 35px;"">本人的</p>","i","categorize-html","22","207556","0.0-6.0-0.0-2.0-1.6","2","2","2","2","2","2","2","2","2","2","2","2","2","3","2","2","2","2","3","2","4","4","4","3","3","4","4","3","4","1","0","1","1","0","0","0","1","0","1","1","0","1","0","1","3","4","3","4","4","3","3","4","2","2","718763547043037184","li","604","","","","","","","","","","","","","","","","","","","true","1","1","ability","509","self","本人的","","","","","","","","","","","","","","",""
"null","","null","html-keyboard-response","23","207822","0.0-6.0-0.0-2.0-0.7","2","2","2","2","2","2","2","2","2","2","2","2","2","3","2","2","2","2","3","2","4","4","4","3","3","4","4","3","4","1","0","1","1","0","0","0","1","0","1","1","0","1","0","1","3","4","3","4","4","3","3","4","2","2","718763547043037184","li","604","","","","","","","","","","","","","","","","","","","","","","","","","","","","","","","","","","","","","","","",""
"561","<p style=""color:rgb(150, 250, 100); font-size: 35px;"">他的</p>","e","categorize-html","24","208387","0.0-6.0-0.0-2.0-1.7","2","2","2","2","2","2","2","2","2","2","2","2","2","3","2","2","2","2","3","2","4","4","4","3","3","4","4","3","4","1","0","1","1","0","0","0","1","0","1","1","0","1","0","1","3","4","3","4","4","3","3","4","2","2","718763547043037184","li","604","","","","","","","","","","","","","","","","","","","true","1","1","ability","561","other","他的","","","","","","","","","","","","","","",""
"null","","null","html-keyboard-response","25","208641","0.0-6.0-0.0-2.0-0.8","2","2","2","2","2","2","2","2","2","2","2","2","2","3","2","2","2","2","3","2","4","4","4","3","3","4","4","3","4","1","0","1","1","0","0","0","1","0","1","1","0","1","0","1","3","4","3","4","4","3","3","4","2","2","718763547043037184","li","604","","","","","","","","","","","","","","","","","","","","","","","","","","","","","","","","","","","","","","","",""
"429","<p style=""color:rgb(150, 250, 100); font-size: 35px;"">他人的</p>","e","categorize-html","26","209076","0.0-6.0-0.0-2.0-1.8","2","2","2","2","2","2","2","2","2","2","2","2","2","3","2","2","2","2","3","2","4","4","4","3","3","4","4","3","4","1","0","1","1","0","0","0","1","0","1","1","0","1","0","1","3","4","3","4","4","3","3","4","2","2","718763547043037184","li","604","","","","","","","","","","","","","","","","","","","true","1","1","ability","429","other","他人的","","","","","","","","","","","","","","",""
"null","","null","html-keyboard-response","27","209342","0.0-6.0-0.0-2.0-0.9","2","2","2","2","2","2","2","2","2","2","2","2","2","3","2","2","2","2","3","2","4","4","4","3","3","4","4","3","4","1","0","1","1","0","0","0","1","0","1","1","0","1","0","1","3","4","3","4","4","3","3","4","2","2","718763547043037184","li","604","","","","","","","","","","","","","","","","","","","","","","","","","","","","","","","","","","","","","","","",""
"481","<p style=""color:rgb(150, 250, 100); font-size: 35px;"">别人的</p>","e","categorize-html","28","209828","0.0-6.0-0.0-2.0-1.9","2","2","2","2","2","2","2","2","2","2","2","2","2","3","2","2","2","2","3","2","4","4","4","3","3","4","4","3","4","1","0","1","1","0","0","0","1","0","1","1","0","1","0","1","3","4","3","4","4","3","3","4","2","2","718763547043037184","li","604","","","","","","","","","","","","","","","","","","","true","1","1","ability","481","other","别人的","","","","","","","","","","","","","","",""
"null","","null","html-keyboard-response","29","210101","0.0-6.0-0.0-2.0-0.10","2","2","2","2","2","2","2","2","2","2","2","2","2","3","2","2","2","2","3","2","4","4","4","3","3","4","4","3","4","1","0","1","1","0","0","0","1","0","1","1","0","1","0","1","3","4","3","4","4","3","3","4","2","2","718763547043037184","li","604","","","","","","","","","","","","","","","","","","","","","","","","","","","","","","","","","","","","","","","",""
"513","<p style=""color:rgb(150, 250, 100); font-size: 35px;"">自己</p>","i","categorize-html","30","210619","0.0-6.0-0.0-2.0-1.10","2","2","2","2","2","2","2","2","2","2","2","2","2","3","2","2","2","2","3","2","4","4","4","3","3","4","4","3","4","1","0","1","1","0","0","0","1","0","1","1","0","1","0","1","3","4","3","4","4","3","3","4","2","2","718763547043037184","li","604","","","","","","","","","","","","","","","","","","","true","1","1","ability","513","self","自己","","","","","","","","","","","","","","",""
"null","","null","html-keyboard-response","31","210871","0.0-6.0-0.0-2.0-0.11","2","2","2","2","2","2","2","2","2","2","2","2","2","3","2","2","2","2","3","2","4","4","4","3","3","4","4","3","4","1","0","1","1","0","0","0","1","0","1","1","0","1","0","1","3","4","3","4","4","3","3","4","2","2","718763547043037184","li","604","","","","","","","","","","","","","","","","","","","","","","","","","","","","","","","","","","","","","","","",""
"543","<p style=""color:rgb(150, 250, 100); font-size: 35px;"">他人</p>","e","categorize-html","32","211419","0.0-6.0-0.0-2.0-1.11","2","2","2","2","2","2","2","2","2","2","2","2","2","3","2","2","2","2","3","2","4","4","4","3","3","4","4","3","4","1","0","1","1","0","0","0","1","0","1","1","0","1","0","1","3","4","3","4","4","3","3","4","2","2","718763547043037184","li","604","","","","","","","","","","","","","","","","","","","true","1","1","ability","543","other","他人","","","","","","","","","","","","","","",""
"72486","
    <div class=""tag-bottom""><p>
    —— 任务2：对“积极”词和“消极”词分类 ——<p/>   
    <span style=""color:#78DCE8""><b>注意上方，类别标签和需要分类的词语都已经改变</b></span><p/>
    <span style=""color:#FFD866""><b>请根据上方标签的提示，尽可能正确并且快速地做出按键反应</b></span><p/>
    当按键错误时屏幕中会出现<span style=""color:red""> X </span>，需要按另一个键纠正才能继续<br/><p/>
    请把双手食指分别放在键盘的“E”键和“I”键上<p/>
    按<空格键>开始
    </p></div>"," ","html-keyboard-response","33","283906","0.0-6.0-0.0-3.0","2","2","2","2","2","2","2","2","2","2","2","2","2","3","2","2","2","2","3","2","4","4","4","3","3","4","4","3","4","1","0","1","1","0","0","0","1","0","1","1","0","1","0","1","3","4","3","4","4","3","3","4","2","2","718763547043037184","li","604","","","","","","","","","","","","","","","","","","","","","","","","","","","","","","","","","","","","","","","",""
"null","","null","html-keyboard-response","34","284171","0.0-6.0-0.0-4.0-0.0","2","2","2","2","2","2","2","2","2","2","2","2","2","3","2","2","2","2","3","2","4","4","4","3","3","4","4","3","4","1","0","1","1","0","0","0","1","0","1","1","0","1","0","1","3","4","3","4","4","3","3","4","2","2","718763547043037184","li","604","","","","","","","","","","","","","","","","","","","","","","","","","","","","","","","","","","","","","","","",""
"972","<p style=""color:white; font-size: 35px;"">全能</p>","e","categorize-html","35","285148","0.0-6.0-0.0-4.0-1.0","2","2","2","2","2","2","2","2","2","2","2","2","2","3","2","2","2","2","3","2","4","4","4","3","3","4","4","3","4","1","0","1","1","0","0","0","1","0","1","1","0","1","0","1","3","4","3","4","4","3","3","4","2","2","718763547043037184","li","604","","","","","","","","","","","","","","","","","","","true","2","2","ability","972","positive","全能","","","","","","","","","","","","","","",""
"null","","null","html-keyboard-response","36","285412","0.0-6.0-0.0-4.0-0.1","2","2","2","2","2","2","2","2","2","2","2","2","2","3","2","2","2","2","3","2","4","4","4","3","3","4","4","3","4","1","0","1","1","0","0","0","1","0","1","1","0","1","0","1","3","4","3","4","4","3","3","4","2","2","718763547043037184","li","604","","","","","","","","","","","","","","","","","","","","","","","","","","","","","","","","","","","","","","","",""
"772","<p style=""color:white; font-size: 35px;"">低能</p>","i","categorize-html","37","286187","0.0-6.0-0.0-4.0-1.1","2","2","2","2","2","2","2","2","2","2","2","2","2","3","2","2","2","2","3","2","4","4","4","3","3","4","4","3","4","1","0","1","1","0","0","0","1","0","1","1","0","1","0","1","3","4","3","4","4","3","3","4","2","2","718763547043037184","li","604","","","","","","","","","","","","","","","","","","","true","2","2","ability","772","negative","低能","","","","","","","","","","","","","","",""
"null","","null","html-keyboard-response","38","286452","0.0-6.0-0.0-4.0-0.2","2","2","2","2","2","2","2","2","2","2","2","2","2","3","2","2","2","2","3","2","4","4","4","3","3","4","4","3","4","1","0","1","1","0","0","0","1","0","1","1","0","1","0","1","3","4","3","4","4","3","3","4","2","2","718763547043037184","li","604","","","","","","","","","","","","","","","","","","","","","","","","","","","","","","","","","","","","","","","",""
"635","<p style=""color:white; font-size: 35px;"">天才</p>","e","categorize-html","39","287092","0.0-6.0-0.0-4.0-1.2","2","2","2","2","2","2","2","2","2","2","2","2","2","3","2","2","2","2","3","2","4","4","4","3","3","4","4","3","4","1","0","1","1","0","0","0","1","0","1","1","0","1","0","1","3","4","3","4","4","3","3","4","2","2","718763547043037184","li","604","","","","","","","","","","","","","","","","","","","true","2","2","ability","635","positive","天才","","","","","","","","","","","","","","",""
"null","","null","html-keyboard-response","40","287351","0.0-6.0-0.0-4.0-0.3","2","2","2","2","2","2","2","2","2","2","2","2","2","3","2","2","2","2","3","2","4","4","4","3","3","4","4","3","4","1","0","1","1","0","0","0","1","0","1","1","0","1","0","1","3","4","3","4","4","3","3","4","2","2","718763547043037184","li","604","","","","","","","","","","","","","","","","","","","","","","","","","","","","","","","","","","","","","","","",""
"528","<p style=""color:white; font-size: 35px;"">废物</p>","i","categorize-html","41","287884","0.0-6.0-0.0-4.0-1.3","2","2","2","2","2","2","2","2","2","2","2","2","2","3","2","2","2","2","3","2","4","4","4","3","3","4","4","3","4","1","0","1","1","0","0","0","1","0","1","1","0","1","0","1","3","4","3","4","4","3","3","4","2","2","718763547043037184","li","604","","","","","","","","","","","","","","","","","","","true","2","2","ability","528","negative","废物","","","","","","","","","","","","","","",""
"null","","null","html-keyboard-response","42","288151","0.0-6.0-0.0-4.0-0.4","2","2","2","2","2","2","2","2","2","2","2","2","2","3","2","2","2","2","3","2","4","4","4","3","3","4","4","3","4","1","0","1","1","0","0","0","1","0","1","1","0","1","0","1","3","4","3","4","4","3","3","4","2","2","718763547043037184","li","604","","","","","","","","","","","","","","","","","","","","","","","","","","","","","","","","","","","","","","","",""
"575","<p style=""color:white; font-size: 35px;"">能干</p>","e","categorize-html","43","288729","0.0-6.0-0.0-4.0-1.4","2","2","2","2","2","2","2","2","2","2","2","2","2","3","2","2","2","2","3","2","4","4","4","3","3","4","4","3","4","1","0","1","1","0","0","0","1","0","1","1","0","1","0","1","3","4","3","4","4","3","3","4","2","2","718763547043037184","li","604","","","","","","","","","","","","","","","","","","","true","2","2","ability","575","positive","能干","","","","","","","","","","","","","","",""
"null","","null","html-keyboard-response","44","288992","0.0-6.0-0.0-4.0-0.5","2","2","2","2","2","2","2","2","2","2","2","2","2","3","2","2","2","2","3","2","4","4","4","3","3","4","4","3","4","1","0","1","1","0","0","0","1","0","1","1","0","1","0","1","3","4","3","4","4","3","3","4","2","2","718763547043037184","li","604","","","","","","","","","","","","","","","","","","","","","","","","","","","","","","","","","","","","","","","",""
"760","<p style=""color:white; font-size: 35px;"">拙笨</p>","i","categorize-html","45","289756","0.0-6.0-0.0-4.0-1.5","2","2","2","2","2","2","2","2","2","2","2","2","2","3","2","2","2","2","3","2","4","4","4","3","3","4","4","3","4","1","0","1","1","0","0","0","1","0","1","1","0","1","0","1","3","4","3","4","4","3","3","4","2","2","718763547043037184","li","604","","","","","","","","","","","","","","","","","","","true","2","2","ability","760","negative","拙笨","","","","","","","","","","","","","","",""
"null","","null","html-keyboard-response","46","290012","0.0-6.0-0.0-4.0-0.6","2","2","2","2","2","2","2","2","2","2","2","2","2","3","2","2","2","2","3","2","4","4","4","3","3","4","4","3","4","1","0","1","1","0","0","0","1","0","1","1","0","1","0","1","3","4","3","4","4","3","3","4","2","2","718763547043037184","li","604","","","","","","","","","","","","","","","","","","","","","","","","","","","","","","","","","","","","","","","",""
"571","<p style=""color:white; font-size: 35px;"">蠢笨</p>","i","categorize-html","47","290587","0.0-6.0-0.0-4.0-1.6","2","2","2","2","2","2","2","2","2","2","2","2","2","3","2","2","2","2","3","2","4","4","4","3","3","4","4","3","4","1","0","1","1","0","0","0","1","0","1","1","0","1","0","1","3","4","3","4","4","3","3","4","2","2","718763547043037184","li","604","","","","","","","","","","","","","","","","","","","true","2","2","ability","571","negative","蠢笨","","","","","","","","","","","","","","",""
"null","","null","html-keyboard-response","48","290852","0.0-6.0-0.0-4.0-0.7","2","2","2","2","2","2","2","2","2","2","2","2","2","3","2","2","2","2","3","2","4","4","4","3","3","4","4","3","4","1","0","1","1","0","0","0","1","0","1","1","0","1","0","1","3","4","3","4","4","3","3","4","2","2","718763547043037184","li","604","","","","","","","","","","","","","","","","","","","","","","","","","","","","","","","","","","","","","","","",""
"675","<p style=""color:white; font-size: 35px;"">全才</p>","e","categorize-html","49","291531","0.0-6.0-0.0-4.0-1.7","2","2","2","2","2","2","2","2","2","2","2","2","2","3","2","2","2","2","3","2","4","4","4","3","3","4","4","3","4","1","0","1","1","0","0","0","1","0","1","1","0","1","0","1","3","4","3","4","4","3","3","4","2","2","718763547043037184","li","604","","","","","","","","","","","","","","","","","","","true","2","2","ability","675","positive","全才","","","","","","","","","","","","","","",""
"null","","null","html-keyboard-response","50","291791","0.0-6.0-0.0-4.0-0.8","2","2","2","2","2","2","2","2","2","2","2","2","2","3","2","2","2","2","3","2","4","4","4","3","3","4","4","3","4","1","0","1","1","0","0","0","1","0","1","1","0","1","0","1","3","4","3","4","4","3","3","4","2","2","718763547043037184","li","604","","","","","","","","","","","","","","","","","","","","","","","","","","","","","","","","","","","","","","","",""
"503","<p style=""color:white; font-size: 35px;"">高效</p>","e","categorize-html","51","292300","0.0-6.0-0.0-4.0-1.8","2","2","2","2","2","2","2","2","2","2","2","2","2","3","2","2","2","2","3","2","4","4","4","3","3","4","4","3","4","1","0","1","1","0","0","0","1","0","1","1","0","1","0","1","3","4","3","4","4","3","3","4","2","2","718763547043037184","li","604","","","","","","","","","","","","","","","","","","","true","2","2","ability","503","positive","高效","","","","","","","","","","","","","","",""
"null","","null","html-keyboard-response","52","292551","0.0-6.0-0.0-4.0-0.9","2","2","2","2","2","2","2","2","2","2","2","2","2","3","2","2","2","2","3","2","4","4","4","3","3","4","4","3","4","1","0","1","1","0","0","0","1","0","1","1","0","1","0","1","3","4","3","4","4","3","3","4","2","2","718763547043037184","li","604","","","","","","","","","","","","","","","","","","","","","","","","","","","","","","","","","","","","","","","",""
"665","<p style=""color:white; font-size: 35px;"">愚钝</p>","i","categorize-html","53","293219","0.0-6.0-0.0-4.0-1.9","2","2","2","2","2","2","2","2","2","2","2","2","2","3","2","2","2","2","3","2","4","4","4","3","3","4","4","3","4","1","0","1","1","0","0","0","1","0","1","1","0","1","0","1","3","4","3","4","4","3","3","4","2","2","718763547043037184","li","604","","","","","","","","","","","","","","","","","","","true","2","2","ability","665","negative","愚钝","","","","","","","","","","","","","","",""
"null","","null","html-keyboard-response","54","293472","0.0-6.0-0.0-4.0-0.10","2","2","2","2","2","2","2","2","2","2","2","2","2","3","2","2","2","2","3","2","4","4","4","3","3","4","4","3","4","1","0","1","1","0","0","0","1","0","1","1","0","1","0","1","3","4","3","4","4","3","3","4","2","2","718763547043037184","li","604","","","","","","","","","","","","","","","","","","","","","","","","","","","","","","","","","","","","","","","",""
"552","<p style=""color:white; font-size: 35px;"">精干</p>","e","categorize-html","55","294028","0.0-6.0-0.0-4.0-1.10","2","2","2","2","2","2","2","2","2","2","2","2","2","3","2","2","2","2","3","2","4","4","4","3","3","4","4","3","4","1","0","1","1","0","0","0","1","0","1","1","0","1","0","1","3","4","3","4","4","3","3","4","2","2","718763547043037184","li","604","","","","","","","","","","","","","","","","","","","true","2","2","ability","552","positive","精干","","","","","","","","","","","","","","",""
"null","","null","html-keyboard-response","56","294281","0.0-6.0-0.0-4.0-0.11","2","2","2","2","2","2","2","2","2","2","2","2","2","3","2","2","2","2","3","2","4","4","4","3","3","4","4","3","4","1","0","1","1","0","0","0","1","0","1","1","0","1","0","1","3","4","3","4","4","3","3","4","2","2","718763547043037184","li","604","","","","","","","","","","","","","","","","","","","","","","","","","","","","","","","","","","","","","","","",""
"605","<p style=""color:white; font-size: 35px;"">无能</p>","i","categorize-html","57","294892","0.0-6.0-0.0-4.0-1.11","2","2","2","2","2","2","2","2","2","2","2","2","2","3","2","2","2","2","3","2","4","4","4","3","3","4","4","3","4","1","0","1","1","0","0","0","1","0","1","1","0","1","0","1","3","4","3","4","4","3","3","4","2","2","718763547043037184","li","604","","","","","","","","","","","","","","","","","","","true","2","2","ability","605","negative","无能","","","","","","","","","","","","","","",""
"101886","
    <div class=""tag-bottom""><p>
    —— 任务3：对“他人/积极”词和“自我/消极”词分类 ——<p/>
    <span style=""color:#78DCE8""><b>注意上方，之前的四类词语将混合在一起交替呈现</b></span><p/>
    <span style=""color:#FFD866""><b>请根据上方标签的提示，尽可能正确并且快速地做出按键反应</b></span><p/>
    当按键错误时屏幕中会出现<span style=""color:red""> X </span>，需要按另一个键纠正才能继续<br/><p/>
    请把双手食指分别放在键盘的“E”键和“I”键上<p/>
    按<空格键>开始
    </p></div>"," ","html-keyboard-response","58","396779","0.0-6.0-0.0-5.0","2","2","2","2","2","2","2","2","2","2","2","2","2","3","2","2","2","2","3","2","4","4","4","3","3","4","4","3","4","1","0","1","1","0","0","0","1","0","1","1","0","1","0","1","3","4","3","4","4","3","3","4","2","2","718763547043037184","li","604","","","","","","","","","","","","","","","","","","","","","","","","","","","","","","","","","","","","","","","",""
"null","","null","html-keyboard-response","59","397031","0.0-6.0-0.0-6.0-0.0","2","2","2","2","2","2","2","2","2","2","2","2","2","3","2","2","2","2","3","2","4","4","4","3","3","4","4","3","4","1","0","1","1","0","0","0","1","0","1","1","0","1","0","1","3","4","3","4","4","3","3","4","2","2","718763547043037184","li","604","","","","","","","","","","","","","","","","","","","","","","","","","","","","","","","","","","","","","","","",""
"960","<p style=""color:rgb(150, 250, 100); font-size: 35px;"">本人的</p>","i","categorize-html","60","397997","0.0-6.0-0.0-6.0-1.0","2","2","2","2","2","2","2","2","2","2","2","2","2","3","2","2","2","2","3","2","4","4","4","3","3","4","4","3","4","1","0","1","1","0","0","0","1","0","1","1","0","1","0","1","3","4","3","4","4","3","3","4","2","2","718763547043037184","li","604","","","","","","","","","","","","","","","","","","","true","3","3","ability","960","self","本人的","","","","","","","","","","","","","","",""
"null","","null","html-keyboard-response","61","398252","0.0-6.0-0.0-6.0-0.1","2","2","2","2","2","2","2","2","2","2","2","2","2","3","2","2","2","2","3","2","4","4","4","3","3","4","4","3","4","1","0","1","1","0","0","0","1","0","1","1","0","1","0","1","3","4","3","4","4","3","3","4","2","2","718763547043037184","li","604","","","","","","","","","","","","","","","","","","","","","","","","","","","","","","","","","","","","","","","",""
"1107","<p style=""color:white; font-size: 35px;"">能干</p>","e","categorize-html","62","399363","0.0-6.0-0.0-6.0-1.1","2","2","2","2","2","2","2","2","2","2","2","2","2","3","2","2","2","2","3","2","4","4","4","3","3","4","4","3","4","1","0","1","1","0","0","0","1","0","1","1","0","1","0","1","3","4","3","4","4","3","3","4","2","2","718763547043037184","li","604","","","","","","","","","","","","","","","","","","","true","3","3","ability","1107","positive","能干","","","","","","","","","","","","","","",""
"null","","null","html-keyboard-response","63","399632","0.0-6.0-0.0-6.0-0.2","2","2","2","2","2","2","2","2","2","2","2","2","2","3","2","2","2","2","3","2","4","4","4","3","3","4","4","3","4","1","0","1","1","0","0","0","1","0","1","1","0","1","0","1","3","4","3","4","4","3","3","4","2","2","718763547043037184","li","604","","","","","","","","","","","","","","","","","","","","","","","","","","","","","","","","","","","","","","","",""
"872","<p style=""color:rgb(150, 250, 100); font-size: 35px;"">别人</p>","e","categorize-html","64","400508","0.0-6.0-0.0-6.0-1.2","2","2","2","2","2","2","2","2","2","2","2","2","2","3","2","2","2","2","3","2","4","4","4","3","3","4","4","3","4","1","0","1","1","0","0","0","1","0","1","1","0","1","0","1","3","4","3","4","4","3","3","4","2","2","718763547043037184","li","604","","","","","","","","","","","","","","","","","","","true","3","3","ability","872","other","别人","","","","","","","","","","","","","","",""
"null","","null","html-keyboard-response","65","400771","0.0-6.0-0.0-6.0-0.3","2","2","2","2","2","2","2","2","2","2","2","2","2","3","2","2","2","2","3","2","4","4","4","3","3","4","4","3","4","1","0","1","1","0","0","0","1","0","1","1","0","1","0","1","3","4","3","4","4","3","3","4","2","2","718763547043037184","li","604","","","","","","","","","","","","","","","","","","","","","","","","","","","","","","","","","","","","","","","",""
"1107","<p style=""color:white; font-size: 35px;"">废物</p>","i","categorize-html","66","401883","0.0-6.0-0.0-6.0-1.3","2","2","2","2","2","2","2","2","2","2","2","2","2","3","2","2","2","2","3","2","4","4","4","3","3","4","4","3","4","1","0","1","1","0","0","0","1","0","1","1","0","1","0","1","3","4","3","4","4","3","3","4","2","2","718763547043037184","li","604","","","","","","","","","","","","","","","","","","","true","3","3","ability","1107","negative","废物","","","","","","","","","","","","","","",""
"null","","null","html-keyboard-response","67","402145","0.0-6.0-0.0-6.0-0.4","2","2","2","2","2","2","2","2","2","2","2","2","2","3","2","2","2","2","3","2","4","4","4","3","3","4","4","3","4","1","0","1","1","0","0","0","1","0","1","1","0","1","0","1","3","4","3","4","4","3","3","4","2","2","718763547043037184","li","604","","","","","","","","","","","","","","","","","","","","","","","","","","","","","","","","","","","","","","","",""
"902","<p style=""color:rgb(150, 250, 100); font-size: 35px;"">本人</p>","i","categorize-html","68","403052","0.0-6.0-0.0-6.0-1.4","2","2","2","2","2","2","2","2","2","2","2","2","2","3","2","2","2","2","3","2","4","4","4","3","3","4","4","3","4","1","0","1","1","0","0","0","1","0","1","1","0","1","0","1","3","4","3","4","4","3","3","4","2","2","718763547043037184","li","604","","","","","","","","","","","","","","","","","","","true","3","3","ability","902","self","本人","","","","","","","","","","","","","","",""
"null","","null","html-keyboard-response","69","403321","0.0-6.0-0.0-6.0-0.5","2","2","2","2","2","2","2","2","2","2","2","2","2","3","2","2","2","2","3","2","4","4","4","3","3","4","4","3","4","1","0","1","1","0","0","0","1","0","1","1","0","1","0","1","3","4","3","4","4","3","3","4","2","2","718763547043037184","li","604","","","","","","","","","","","","","","","","","","","","","","","","","","","","","","","","","","","","","","","",""
"1117","<p style=""color:white; font-size: 35px;"">蠢笨</p>","i","categorize-html","70","404444","0.0-6.0-0.0-6.0-1.5","2","2","2","2","2","2","2","2","2","2","2","2","2","3","2","2","2","2","3","2","4","4","4","3","3","4","4","3","4","1","0","1","1","0","0","0","1","0","1","1","0","1","0","1","3","4","3","4","4","3","3","4","2","2","718763547043037184","li","604","","","","","","","","","","","","","","","","","","","true","3","3","ability","1117","negative","蠢笨","","","","","","","","","","","","","","",""
"null","","null","html-keyboard-response","71","404701","0.0-6.0-0.0-6.0-0.6","2","2","2","2","2","2","2","2","2","2","2","2","2","3","2","2","2","2","3","2","4","4","4","3","3","4","4","3","4","1","0","1","1","0","0","0","1","0","1","1","0","1","0","1","3","4","3","4","4","3","3","4","2","2","718763547043037184","li","604","","","","","","","","","","","","","","","","","","","","","","","","","","","","","","","","","","","","","","","",""
"1258","<p style=""color:rgb(150, 250, 100); font-size: 35px;"">他人的</p>","e","categorize-html","72","405964","0.0-6.0-0.0-6.0-1.6","2","2","2","2","2","2","2","2","2","2","2","2","2","3","2","2","2","2","3","2","4","4","4","3","3","4","4","3","4","1","0","1","1","0","0","0","1","0","1","1","0","1","0","1","3","4","3","4","4","3","3","4","2","2","718763547043037184","li","604","","","","","","","","","","","","","","","","","","","true","3","3","ability","1258","other","他人的","","","","","","","","","","","","","","",""
"null","","null","html-keyboard-response","73","406221","0.0-6.0-0.0-6.0-0.7","2","2","2","2","2","2","2","2","2","2","2","2","2","3","2","2","2","2","3","2","4","4","4","3","3","4","4","3","4","1","0","1","1","0","0","0","1","0","1","1","0","1","0","1","3","4","3","4","4","3","3","4","2","2","718763547043037184","li","604","","","","","","","","","","","","","","","","","","","","","","","","","","","","","","","","","","","","","","","",""
"866","<p style=""color:white; font-size: 35px;"">天才</p>","e","categorize-html","74","407092","0.0-6.0-0.0-6.0-1.7","2","2","2","2","2","2","2","2","2","2","2","2","2","3","2","2","2","2","3","2","4","4","4","3","3","4","4","3","4","1","0","1","1","0","0","0","1","0","1","1","0","1","0","1","3","4","3","4","4","3","3","4","2","2","718763547043037184","li","604","","","","","","","","","","","","","","","","","","","true","3","3","ability","866","positive","天才","","","","","","","","","","","","","","",""
"null","","null","html-keyboard-response","75","407362","0.0-6.0-0.0-6.0-0.8","2","2","2","2","2","2","2","2","2","2","2","2","2","3","2","2","2","2","3","2","4","4","4","3","3","4","4","3","4","1","0","1","1","0","0","0","1","0","1","1","0","1","0","1","3","4","3","4","4","3","3","4","2","2","718763547043037184","li","604","","","","","","","","","","","","","","","","","","","","","","","","","","","","","","","","","","","","","","","",""
"781","<p style=""color:rgb(150, 250, 100); font-size: 35px;"">自己</p>","i","categorize-html","76","408148","0.0-6.0-0.0-6.0-1.8","2","2","2","2","2","2","2","2","2","2","2","2","2","3","2","2","2","2","3","2","4","4","4","3","3","4","4","3","4","1","0","1","1","0","0","0","1","0","1","1","0","1","0","1","3","4","3","4","4","3","3","4","2","2","718763547043037184","li","604","","","","","","","","","","","","","","","","","","","true","3","3","ability","781","self","自己","","","","","","","","","","","","","","",""
"null","","null","html-keyboard-response","77","408401","0.0-6.0-0.0-6.0-0.9","2","2","2","2","2","2","2","2","2","2","2","2","2","3","2","2","2","2","3","2","4","4","4","3","3","4","4","3","4","1","0","1","1","0","0","0","1","0","1","1","0","1","0","1","3","4","3","4","4","3","3","4","2","2","718763547043037184","li","604","","","","","","","","","","","","","","","","","","","","","","","","","","","","","","","","","","","","","","","",""
"829","<p style=""color:white; font-size: 35px;"">高效</p>","e","categorize-html","78","409236","0.0-6.0-0.0-6.0-1.9","2","2","2","2","2","2","2","2","2","2","2","2","2","3","2","2","2","2","3","2","4","4","4","3","3","4","4","3","4","1","0","1","1","0","0","0","1","0","1","1","0","1","0","1","3","4","3","4","4","3","3","4","2","2","718763547043037184","li","604","","","","","","","","","","","","","","","","","","","true","3","3","ability","829","positive","高效","","","","","","","","","","","","","","",""
"null","","null","html-keyboard-response","79","409501","0.0-6.0-0.0-6.0-0.10","2","2","2","2","2","2","2","2","2","2","2","2","2","3","2","2","2","2","3","2","4","4","4","3","3","4","4","3","4","1","0","1","1","0","0","0","1","0","1","1","0","1","0","1","3","4","3","4","4","3","3","4","2","2","718763547043037184","li","604","","","","","","","","","","","","","","","","","","","","","","","","","","","","","","","","","","","","","","","",""
"777","<p style=""color:rgb(150, 250, 100); font-size: 35px;"">别人的</p>","e","categorize-html","80","410284","0.0-6.0-0.0-6.0-1.10","2","2","2","2","2","2","2","2","2","2","2","2","2","3","2","2","2","2","3","2","4","4","4","3","3","4","4","3","4","1","0","1","1","0","0","0","1","0","1","1","0","1","0","1","3","4","3","4","4","3","3","4","2","2","718763547043037184","li","604","","","","","","","","","","","","","","","","","","","true","3","3","ability","777","other","别人的","","","","","","","","","","","","","","",""
"null","","null","html-keyboard-response","81","410541","0.0-6.0-0.0-6.0-0.11","2","2","2","2","2","2","2","2","2","2","2","2","2","3","2","2","2","2","3","2","4","4","4","3","3","4","4","3","4","1","0","1","1","0","0","0","1","0","1","1","0","1","0","1","3","4","3","4","4","3","3","4","2","2","718763547043037184","li","604","","","","","","","","","","","","","","","","","","","","","","","","","","","","","","","","","","","","","","","",""
"961","<p style=""color:white; font-size: 35px;"">无能</p>","i","categorize-html","82","411509","0.0-6.0-0.0-6.0-1.11","2","2","2","2","2","2","2","2","2","2","2","2","2","3","2","2","2","2","3","2","4","4","4","3","3","4","4","3","4","1","0","1","1","0","0","0","1","0","1","1","0","1","0","1","3","4","3","4","4","3","3","4","2","2","718763547043037184","li","604","","","","","","","","","","","","","","","","","","","true","3","3","ability","961","negative","无能","","","","","","","","","","","","","","",""
"null","","null","html-keyboard-response","83","411762","0.0-6.0-0.0-6.0-0.12","2","2","2","2","2","2","2","2","2","2","2","2","2","3","2","2","2","2","3","2","4","4","4","3","3","4","4","3","4","1","0","1","1","0","0","0","1","0","1","1","0","1","0","1","3","4","3","4","4","3","3","4","2","2","718763547043037184","li","604","","","","","","","","","","","","","","","","","","","","","","","","","","","","","","","","","","","","","","","",""
"900","<p style=""color:rgb(150, 250, 100); font-size: 35px;"">他的</p>","e","categorize-html","84","412664","0.0-6.0-0.0-6.0-1.12","2","2","2","2","2","2","2","2","2","2","2","2","2","3","2","2","2","2","3","2","4","4","4","3","3","4","4","3","4","1","0","1","1","0","0","0","1","0","1","1","0","1","0","1","3","4","3","4","4","3","3","4","2","2","718763547043037184","li","604","","","","","","","","","","","","","","","","","","","true","3","3","ability","900","other","他的","","","","","","","","","","","","","","",""
"null","","null","html-keyboard-response","85","412921","0.0-6.0-0.0-6.0-0.13","2","2","2","2","2","2","2","2","2","2","2","2","2","3","2","2","2","2","3","2","4","4","4","3","3","4","4","3","4","1","0","1","1","0","0","0","1","0","1","1","0","1","0","1","3","4","3","4","4","3","3","4","2","2","718763547043037184","li","604","","","","","","","","","","","","","","","","","","","","","","","","","","","","","","","","","","","","","","","",""
"966","<p style=""color:white; font-size: 35px;"">精干</p>","e","categorize-html","86","413893","0.0-6.0-0.0-6.0-1.13","2","2","2","2","2","2","2","2","2","2","2","2","2","3","2","2","2","2","3","2","4","4","4","3","3","4","4","3","4","1","0","1","1","0","0","0","1","0","1","1","0","1","0","1","3","4","3","4","4","3","3","4","2","2","718763547043037184","li","604","","","","","","","","","","","","","","","","","","","true","3","3","ability","966","positive","精干","","","","","","","","","","","","","","",""
"null","","null","html-keyboard-response","87","414161","0.0-6.0-0.0-6.0-0.14","2","2","2","2","2","2","2","2","2","2","2","2","2","3","2","2","2","2","3","2","4","4","4","3","3","4","4","3","4","1","0","1","1","0","0","0","1","0","1","1","0","1","0","1","3","4","3","4","4","3","3","4","2","2","718763547043037184","li","604","","","","","","","","","","","","","","","","","","","","","","","","","","","","","","","","","","","","","","","",""
"949","<p style=""color:rgb(150, 250, 100); font-size: 35px;"">我</p>","i","categorize-html","88","415115","0.0-6.0-0.0-6.0-1.14","2","2","2","2","2","2","2","2","2","2","2","2","2","3","2","2","2","2","3","2","4","4","4","3","3","4","4","3","4","1","0","1","1","0","0","0","1","0","1","1","0","1","0","1","3","4","3","4","4","3","3","4","2","2","718763547043037184","li","604","","","","","","","","","","","","","","","","","","","true","3","3","ability","949","self","我","","","","","","","","","","","","","","",""
"null","","null","html-keyboard-response","89","415381","0.0-6.0-0.0-6.0-0.15","2","2","2","2","2","2","2","2","2","2","2","2","2","3","2","2","2","2","3","2","4","4","4","3","3","4","4","3","4","1","0","1","1","0","0","0","1","0","1","1","0","1","0","1","3","4","3","4","4","3","3","4","2","2","718763547043037184","li","604","","","","","","","","","","","","","","","","","","","","","","","","","","","","","","","","","","","","","","","",""
"1106","<p style=""color:white; font-size: 35px;"">拙笨</p>","i","categorize-html","90","416493","0.0-6.0-0.0-6.0-1.15","2","2","2","2","2","2","2","2","2","2","2","2","2","3","2","2","2","2","3","2","4","4","4","3","3","4","4","3","4","1","0","1","1","0","0","0","1","0","1","1","0","1","0","1","3","4","3","4","4","3","3","4","2","2","718763547043037184","li","604","","","","","","","","","","","","","","","","","","","true","3","3","ability","1106","negative","拙笨","","","","","","","","","","","","","","",""
"null","","null","html-keyboard-response","91","416757","0.0-6.0-0.0-6.0-0.16","2","2","2","2","2","2","2","2","2","2","2","2","2","3","2","2","2","2","3","2","4","4","4","3","3","4","4","3","4","1","0","1","1","0","0","0","1","0","1","1","0","1","0","1","3","4","3","4","4","3","3","4","2","2","718763547043037184","li","604","","","","","","","","","","","","","","","","","","","","","","","","","","","","","","","","","","","","","","","",""
"762","<p style=""color:rgb(150, 250, 100); font-size: 35px;"">自己的</p>","i","categorize-html","92","417524","0.0-6.0-0.0-6.0-1.16","2","2","2","2","2","2","2","2","2","2","2","2","2","3","2","2","2","2","3","2","4","4","4","3","3","4","4","3","4","1","0","1","1","0","0","0","1","0","1","1","0","1","0","1","3","4","3","4","4","3","3","4","2","2","718763547043037184","li","604","","","","","","","","","","","","","","","","","","","true","3","3","ability","762","self","自己的","","","","","","","","","","","","","","",""
"null","","null","html-keyboard-response","93","417781","0.0-6.0-0.0-6.0-0.17","2","2","2","2","2","2","2","2","2","2","2","2","2","3","2","2","2","2","3","2","4","4","4","3","3","4","4","3","4","1","0","1","1","0","0","0","1","0","1","1","0","1","0","1","3","4","3","4","4","3","3","4","2","2","718763547043037184","li","604","","","","","","","","","","","","","","","","","","","","","","","","","","","","","","","","","","","","","","","",""
"721","<p style=""color:white; font-size: 35px;"">愚钝</p>","i","categorize-html","94","418508","0.0-6.0-0.0-6.0-1.17","2","2","2","2","2","2","2","2","2","2","2","2","2","3","2","2","2","2","3","2","4","4","4","3","3","4","4","3","4","1","0","1","1","0","0","0","1","0","1","1","0","1","0","1","3","4","3","4","4","3","3","4","2","2","718763547043037184","li","604","","","","","","","","","","","","","","","","","","","true","3","3","ability","721","negative","愚钝","","","","","","","","","","","","","","",""
"null","","null","html-keyboard-response","95","418759","0.0-6.0-0.0-6.0-0.18","2","2","2","2","2","2","2","2","2","2","2","2","2","3","2","2","2","2","3","2","4","4","4","3","3","4","4","3","4","1","0","1","1","0","0","0","1","0","1","1","0","1","0","1","3","4","3","4","4","3","3","4","2","2","718763547043037184","li","604","","","","","","","","","","","","","","","","","","","","","","","","","","","","","","","","","","","","","","","",""
"800","<p style=""color:rgb(150, 250, 100); font-size: 35px;"">他</p>","e","categorize-html","96","419565","0.0-6.0-0.0-6.0-1.18","2","2","2","2","2","2","2","2","2","2","2","2","2","3","2","2","2","2","3","2","4","4","4","3","3","4","4","3","4","1","0","1","1","0","0","0","1","0","1","1","0","1","0","1","3","4","3","4","4","3","3","4","2","2","718763547043037184","li","604","","","","","","","","","","","","","","","","","","","true","3","3","ability","800","other","他","","","","","","","","","","","","","","",""
"null","","null","html-keyboard-response","97","419821","0.0-6.0-0.0-6.0-0.19","2","2","2","2","2","2","2","2","2","2","2","2","2","3","2","2","2","2","3","2","4","4","4","3","3","4","4","3","4","1","0","1","1","0","0","0","1","0","1","1","0","1","0","1","3","4","3","4","4","3","3","4","2","2","718763547043037184","li","604","","","","","","","","","","","","","","","","","","","","","","","","","","","","","","","","","","","","","","","",""
"1089","<p style=""color:white; font-size: 35px;"">全才</p>","e","categorize-html","98","420916","0.0-6.0-0.0-6.0-1.19","2","2","2","2","2","2","2","2","2","2","2","2","2","3","2","2","2","2","3","2","4","4","4","3","3","4","4","3","4","1","0","1","1","0","0","0","1","0","1","1","0","1","0","1","3","4","3","4","4","3","3","4","2","2","718763547043037184","li","604","","","","","","","","","","","","","","","","","","","true","3","3","ability","1089","positive","全才","","","","","","","","","","","","","","",""
"null","","null","html-keyboard-response","99","421181","0.0-6.0-0.0-6.0-0.20","2","2","2","2","2","2","2","2","2","2","2","2","2","3","2","2","2","2","3","2","4","4","4","3","3","4","4","3","4","1","0","1","1","0","0","0","1","0","1","1","0","1","0","1","3","4","3","4","4","3","3","4","2","2","718763547043037184","li","604","","","","","","","","","","","","","","","","","","","","","","","","","","","","","","","","","","","","","","","",""
"801","<p style=""color:rgb(150, 250, 100); font-size: 35px;"">我的</p>","i","categorize-html","100","421988","0.0-6.0-0.0-6.0-1.20","2","2","2","2","2","2","2","2","2","2","2","2","2","3","2","2","2","2","3","2","4","4","4","3","3","4","4","3","4","1","0","1","1","0","0","0","1","0","1","1","0","1","0","1","3","4","3","4","4","3","3","4","2","2","718763547043037184","li","604","","","","","","","","","","","","","","","","","","","true","3","3","ability","801","self","我的","","","","","","","","","","","","","","",""
"null","","null","html-keyboard-response","101","422242","0.0-6.0-0.0-6.0-0.21","2","2","2","2","2","2","2","2","2","2","2","2","2","3","2","2","2","2","3","2","4","4","4","3","3","4","4","3","4","1","0","1","1","0","0","0","1","0","1","1","0","1","0","1","3","4","3","4","4","3","3","4","2","2","718763547043037184","li","604","","","","","","","","","","","","","","","","","","","","","","","","","","","","","","","","","","","","","","","",""
"838","<p style=""color:white; font-size: 35px;"">全能</p>","e","categorize-html","102","423085","0.0-6.0-0.0-6.0-1.21","2","2","2","2","2","2","2","2","2","2","2","2","2","3","2","2","2","2","3","2","4","4","4","3","3","4","4","3","4","1","0","1","1","0","0","0","1","0","1","1","0","1","0","1","3","4","3","4","4","3","3","4","2","2","718763547043037184","li","604","","","","","","","","","","","","","","","","","","","true","3","3","ability","838","positive","全能","","","","","","","","","","","","","","",""
"null","","null","html-keyboard-response","103","423341","0.0-6.0-0.0-6.0-0.22","2","2","2","2","2","2","2","2","2","2","2","2","2","3","2","2","2","2","3","2","4","4","4","3","3","4","4","3","4","1","0","1","1","0","0","0","1","0","1","1","0","1","0","1","3","4","3","4","4","3","3","4","2","2","718763547043037184","li","604","","","","","","","","","","","","","","","","","","","","","","","","","","","","","","","","","","","","","","","",""
"938","<p style=""color:rgb(150, 250, 100); font-size: 35px;"">他人</p>","e","categorize-html","104","424285","0.0-6.0-0.0-6.0-1.22","2","2","2","2","2","2","2","2","2","2","2","2","2","3","2","2","2","2","3","2","4","4","4","3","3","4","4","3","4","1","0","1","1","0","0","0","1","0","1","1","0","1","0","1","3","4","3","4","4","3","3","4","2","2","718763547043037184","li","604","","","","","","","","","","","","","","","","","","","true","3","3","ability","938","other","他人","","","","","","","","","","","","","","",""
"null","","null","html-keyboard-response","105","424542","0.0-6.0-0.0-6.0-0.23","2","2","2","2","2","2","2","2","2","2","2","2","2","3","2","2","2","2","3","2","4","4","4","3","3","4","4","3","4","1","0","1","1","0","0","0","1","0","1","1","0","1","0","1","3","4","3","4","4","3","3","4","2","2","718763547043037184","li","604","","","","","","","","","","","","","","","","","","","","","","","","","","","","","","","","","","","","","","","",""
"1010","<p style=""color:white; font-size: 35px;"">低能</p>","i","categorize-html","106","425556","0.0-6.0-0.0-6.0-1.23","2","2","2","2","2","2","2","2","2","2","2","2","2","3","2","2","2","2","3","2","4","4","4","3","3","4","4","3","4","1","0","1","1","0","0","0","1","0","1","1","0","1","0","1","3","4","3","4","4","3","3","4","2","2","718763547043037184","li","604","","","","","","","","","","","","","","","","","","","true","3","3","ability","1010","negative","低能","","","","","","","","","","","","","","",""
"36228","
    <div class=""tag-bottom""><p>
    —— 任务4：对“他人/积极”词和“自我/消极”词分类 ——<p/>
    <span style=""color:#78DCE8""><b>与刚才的任务完全相同，请再次对这四类词语分类</b></span><p/>
    <span style=""color:#FFD866""><b>请根据上方标签的提示，尽可能正确并且快速地做出按键反应</b></span><p/>
    当按键错误时屏幕中会出现<span style=""color:red""> X </span>，需要按另一个键纠正才能继续<br/><p/>
    请把双手食指分别放在键盘的“E”键和“I”键上<p/>
    按<空格键>开始
    </p></div>"," ","html-keyboard-response","107","461785","0.0-6.0-0.0-7.0","2","2","2","2","2","2","2","2","2","2","2","2","2","3","2","2","2","2","3","2","4","4","4","3","3","4","4","3","4","1","0","1","1","0","0","0","1","0","1","1","0","1","0","1","3","4","3","4","4","3","3","4","2","2","718763547043037184","li","604","","","","","","","","","","","","","","","","","","","","","","","","","","","","","","","","","","","","","","","",""
"null","","null","html-keyboard-response","108","462051","0.0-6.0-0.0-8.0-0.0","2","2","2","2","2","2","2","2","2","2","2","2","2","3","2","2","2","2","3","2","4","4","4","3","3","4","4","3","4","1","0","1","1","0","0","0","1","0","1","1","0","1","0","1","3","4","3","4","4","3","3","4","2","2","718763547043037184","li","604","","","","","","","","","","","","","","","","","","","","","","","","","","","","","","","","","","","","","","","",""
"2155","<p style=""color:rgb(150, 250, 100); font-size: 35px;"">别人</p>","e","categorize-html","109","464211","0.0-6.0-0.0-8.0-1.0","2","2","2","2","2","2","2","2","2","2","2","2","2","3","2","2","2","2","3","2","4","4","4","3","3","4","4","3","4","1","0","1","1","0","0","0","1","0","1","1","0","1","0","1","3","4","3","4","4","3","3","4","2","2","718763547043037184","li","604","","","","","","","","","","","","","","","","","","","true","4","4","ability","2155","other","别人","","","","","","","","","","","","","","",""
"null","","null","html-keyboard-response","110","464468","0.0-6.0-0.0-8.0-0.1","2","2","2","2","2","2","2","2","2","2","2","2","2","3","2","2","2","2","3","2","4","4","4","3","3","4","4","3","4","1","0","1","1","0","0","0","1","0","1","1","0","1","0","1","3","4","3","4","4","3","3","4","2","2","718763547043037184","li","604","","","","","","","","","","","","","","","","","","","","","","","","","","","","","","","","","","","","","","","",""
"2018","<p style=""color:white; font-size: 35px;"">能干</p>","e","categorize-html","111","466492","0.0-6.0-0.0-8.0-1.1","2","2","2","2","2","2","2","2","2","2","2","2","2","3","2","2","2","2","3","2","4","4","4","3","3","4","4","3","4","1","0","1","1","0","0","0","1","0","1","1","0","1","0","1","3","4","3","4","4","3","3","4","2","2","718763547043037184","li","604","","","","","","","","","","","","","","","","","","","true","4","4","ability","2018","positive","能干","","","","","","","","","","","","","","",""
"null","","null","html-keyboard-response","112","466751","0.0-6.0-0.0-8.0-0.2","2","2","2","2","2","2","2","2","2","2","2","2","2","3","2","2","2","2","3","2","4","4","4","3","3","4","4","3","4","1","0","1","1","0","0","0","1","0","1","1","0","1","0","1","3","4","3","4","4","3","3","4","2","2","718763547043037184","li","604","","","","","","","","","","","","","","","","","","","","","","","","","","","","","","","","","","","","","","","",""
"1855","<p style=""color:rgb(150, 250, 100); font-size: 35px;"">自己的</p>","i","categorize-html","113","468612","0.0-6.0-0.0-8.0-1.2","2","2","2","2","2","2","2","2","2","2","2","2","2","3","2","2","2","2","3","2","4","4","4","3","3","4","4","3","4","1","0","1","1","0","0","0","1","0","1","1","0","1","0","1","3","4","3","4","4","3","3","4","2","2","718763547043037184","li","604","","","","","","","","","","","","","","","","","","","true","4","4","ability","1855","self","自己的","","","","","","","","","","","","","","",""
"null","","null","html-keyboard-response","114","468871","0.0-6.0-0.0-8.0-0.3","2","2","2","2","2","2","2","2","2","2","2","2","2","3","2","2","2","2","3","2","4","4","4","3","3","4","4","3","4","1","0","1","1","0","0","0","1","0","1","1","0","1","0","1","3","4","3","4","4","3","3","4","2","2","718763547043037184","li","604","","","","","","","","","","","","","","","","","","","","","","","","","","","","","","","","","","","","","","","",""
"1503","<p style=""color:white; font-size: 35px;"">拙笨</p>","i","categorize-html","115","470380","0.0-6.0-0.0-8.0-1.3","2","2","2","2","2","2","2","2","2","2","2","2","2","3","2","2","2","2","3","2","4","4","4","3","3","4","4","3","4","1","0","1","1","0","0","0","1","0","1","1","0","1","0","1","3","4","3","4","4","3","3","4","2","2","718763547043037184","li","604","","","","","","","","","","","","","","","","","","","true","4","4","ability","1503","negative","拙笨","","","","","","","","","","","","","","",""
"null","","null","html-keyboard-response","116","470631","0.0-6.0-0.0-8.0-0.4","2","2","2","2","2","2","2","2","2","2","2","2","2","3","2","2","2","2","3","2","4","4","4","3","3","4","4","3","4","1","0","1","1","0","0","0","1","0","1","1","0","1","0","1","3","4","3","4","4","3","3","4","2","2","718763547043037184","li","604","","","","","","","","","","","","","","","","","","","","","","","","","","","","","","","","","","","","","","","",""
"2312","<p style=""color:rgb(150, 250, 100); font-size: 35px;"">我的</p>","i","categorize-html","117","472948","0.0-6.0-0.0-8.0-1.4","2","2","2","2","2","2","2","2","2","2","2","2","2","3","2","2","2","2","3","2","4","4","4","3","3","4","4","3","4","1","0","1","1","0","0","0","1","0","1","1","0","1","0","1","3","4","3","4","4","3","3","4","2","2","718763547043037184","li","604","","","","","","","","","","","","","","","","","","","true","4","4","ability","2312","self","我的","","","","","","","","","","","","","","",""
"null","","null","html-keyboard-response","118","473212","0.0-6.0-0.0-8.0-0.5","2","2","2","2","2","2","2","2","2","2","2","2","2","3","2","2","2","2","3","2","4","4","4","3","3","4","4","3","4","1","0","1","1","0","0","0","1","0","1","1","0","1","0","1","3","4","3","4","4","3","3","4","2","2","718763547043037184","li","604","","","","","","","","","","","","","","","","","","","","","","","","","","","","","","","","","","","","","","","",""
"971","<p style=""color:white; font-size: 35px;"">废物</p>","i","categorize-html","119","474188","0.0-6.0-0.0-8.0-1.5","2","2","2","2","2","2","2","2","2","2","2","2","2","3","2","2","2","2","3","2","4","4","4","3","3","4","4","3","4","1","0","1","1","0","0","0","1","0","1","1","0","1","0","1","3","4","3","4","4","3","3","4","2","2","718763547043037184","li","604","","","","","","","","","","","","","","","","","","","true","4","4","ability","971","negative","废物","","","","","","","","","","","","","","",""
"null","","null","html-keyboard-response","120","474451","0.0-6.0-0.0-8.0-0.6","2","2","2","2","2","2","2","2","2","2","2","2","2","3","2","2","2","2","3","2","4","4","4","3","3","4","4","3","4","1","0","1","1","0","0","0","1","0","1","1","0","1","0","1","3","4","3","4","4","3","3","4","2","2","718763547043037184","li","604","","","","","","","","","","","","","","","","","","","","","","","","","","","","","","","","","","","","","","","",""
"2043","<p style=""color:rgb(150, 250, 100); font-size: 35px;"">他人的</p>","e","categorize-html","121","476500","0.0-6.0-0.0-8.0-1.6","2","2","2","2","2","2","2","2","2","2","2","2","2","3","2","2","2","2","3","2","4","4","4","3","3","4","4","3","4","1","0","1","1","0","0","0","1","0","1","1","0","1","0","1","3","4","3","4","4","3","3","4","2","2","718763547043037184","li","604","","","","","","","","","","","","","","","","","","","true","4","4","ability","2043","other","他人的","","","","","","","","","","","","","","",""
"null","","null","html-keyboard-response","122","476751","0.0-6.0-0.0-8.0-0.7","2","2","2","2","2","2","2","2","2","2","2","2","2","3","2","2","2","2","3","2","4","4","4","3","3","4","4","3","4","1","0","1","1","0","0","0","1","0","1","1","0","1","0","1","3","4","3","4","4","3","3","4","2","2","718763547043037184","li","604","","","","","","","","","","","","","","","","","","","","","","","","","","","","","","","","","","","","","","","",""
"816","<p style=""color:white; font-size: 35px;"">精干</p>","e","categorize-html","123","477572","0.0-6.0-0.0-8.0-1.7","2","2","2","2","2","2","2","2","2","2","2","2","2","3","2","2","2","2","3","2","4","4","4","3","3","4","4","3","4","1","0","1","1","0","0","0","1","0","1","1","0","1","0","1","3","4","3","4","4","3","3","4","2","2","718763547043037184","li","604","","","","","","","","","","","","","","","","","","","true","4","4","ability","816","positive","精干","","","","","","","","","","","","","","",""
"null","","null","html-keyboard-response","124","477832","0.0-6.0-0.0-8.0-0.8","2","2","2","2","2","2","2","2","2","2","2","2","2","3","2","2","2","2","3","2","4","4","4","3","3","4","4","3","4","1","0","1","1","0","0","0","1","0","1","1","0","1","0","1","3","4","3","4","4","3","3","4","2","2","718763547043037184","li","604","","","","","","","","","","","","","","","","","","","","","","","","","","","","","","","","","","","","","","","",""
"895","<p style=""color:rgb(150, 250, 100); font-size: 35px;"">他的</p>","e","categorize-html","125","478729","0.0-6.0-0.0-8.0-1.8","2","2","2","2","2","2","2","2","2","2","2","2","2","3","2","2","2","2","3","2","4","4","4","3","3","4","4","3","4","1","0","1","1","0","0","0","1","0","1","1","0","1","0","1","3","4","3","4","4","3","3","4","2","2","718763547043037184","li","604","","","","","","","","","","","","","","","","","","","true","4","4","ability","895","other","他的","","","","","","","","","","","","","","",""
"null","","null","html-keyboard-response","126","478991","0.0-6.0-0.0-8.0-0.9","2","2","2","2","2","2","2","2","2","2","2","2","2","3","2","2","2","2","3","2","4","4","4","3","3","4","4","3","4","1","0","1","1","0","0","0","1","0","1","1","0","1","0","1","3","4","3","4","4","3","3","4","2","2","718763547043037184","li","604","","","","","","","","","","","","","","","","","","","","","","","","","","","","","","","","","","","","","","","",""
"1104","<p style=""color:white; font-size: 35px;"">全才</p>","e","categorize-html","127","480100","0.0-6.0-0.0-8.0-1.9","2","2","2","2","2","2","2","2","2","2","2","2","2","3","2","2","2","2","3","2","4","4","4","3","3","4","4","3","4","1","0","1","1","0","0","0","1","0","1","1","0","1","0","1","3","4","3","4","4","3","3","4","2","2","718763547043037184","li","604","","","","","","","","","","","","","","","","","","","true","4","4","ability","1104","positive","全才","","","","","","","","","","","","","","",""
"null","","null","html-keyboard-response","128","480352","0.0-6.0-0.0-8.0-0.10","2","2","2","2","2","2","2","2","2","2","2","2","2","3","2","2","2","2","3","2","4","4","4","3","3","4","4","3","4","1","0","1","1","0","0","0","1","0","1","1","0","1","0","1","3","4","3","4","4","3","3","4","2","2","718763547043037184","li","604","","","","","","","","","","","","","","","","","","","","","","","","","","","","","","","","","","","","","","","",""
"1079","<p style=""color:rgb(150, 250, 100); font-size: 35px;"">自己</p>","i","categorize-html","129","481435","0.0-6.0-0.0-8.0-1.10","2","2","2","2","2","2","2","2","2","2","2","2","2","3","2","2","2","2","3","2","4","4","4","3","3","4","4","3","4","1","0","1","1","0","0","0","1","0","1","1","0","1","0","1","3","4","3","4","4","3","3","4","2","2","718763547043037184","li","604","","","","","","","","","","","","","","","","","","","true","4","4","ability","1079","self","自己","","","","","","","","","","","","","","",""
"null","","null","html-keyboard-response","130","481691","0.0-6.0-0.0-8.0-0.11","2","2","2","2","2","2","2","2","2","2","2","2","2","3","2","2","2","2","3","2","4","4","4","3","3","4","4","3","4","1","0","1","1","0","0","0","1","0","1","1","0","1","0","1","3","4","3","4","4","3","3","4","2","2","718763547043037184","li","604","","","","","","","","","","","","","","","","","","","","","","","","","","","","","","","","","","","","","","","",""
"970","<p style=""color:white; font-size: 35px;"">低能</p>","i","categorize-html","131","482668","0.0-6.0-0.0-8.0-1.11","2","2","2","2","2","2","2","2","2","2","2","2","2","3","2","2","2","2","3","2","4","4","4","3","3","4","4","3","4","1","0","1","1","0","0","0","1","0","1","1","0","1","0","1","3","4","3","4","4","3","3","4","2","2","718763547043037184","li","604","","","","","","","","","","","","","","","","","","","true","4","4","ability","970","negative","低能","","","","","","","","","","","","","","",""
"null","","null","html-keyboard-response","132","482951","0.0-6.0-0.0-8.0-0.12","2","2","2","2","2","2","2","2","2","2","2","2","2","3","2","2","2","2","3","2","4","4","4","3","3","4","4","3","4","1","0","1","1","0","0","0","1","0","1","1","0","1","0","1","3","4","3","4","4","3","3","4","2","2","718763547043037184","li","604","","","","","","","","","","","","","","","","","","","","","","","","","","","","","","","","","","","","","","","",""
"1296","<p style=""color:rgb(150, 250, 100); font-size: 35px;"">本人</p>","i","categorize-html","133","484252","0.0-6.0-0.0-8.0-1.12","2","2","2","2","2","2","2","2","2","2","2","2","2","3","2","2","2","2","3","2","4","4","4","3","3","4","4","3","4","1","0","1","1","0","0","0","1","0","1","1","0","1","0","1","3","4","3","4","4","3","3","4","2","2","718763547043037184","li","604","","","","","","","","","","","","","","","","","","","true","4","4","ability","1296","self","本人","","","","","","","","","","","","","","",""
"null","","null","html-keyboard-response","134","484511","0.0-6.0-0.0-8.0-0.13","2","2","2","2","2","2","2","2","2","2","2","2","2","3","2","2","2","2","3","2","4","4","4","3","3","4","4","3","4","1","0","1","1","0","0","0","1","0","1","1","0","1","0","1","3","4","3","4","4","3","3","4","2","2","718763547043037184","li","604","","","","","","","","","","","","","","","","","","","","","","","","","","","","","","","","","","","","","","","",""
"1159","<p style=""color:white; font-size: 35px;"">全能</p>","i","categorize-html","135","492328","0.0-6.0-0.0-8.0-1.13","2","2","2","2","2","2","2","2","2","2","2","2","2","3","2","2","2","2","3","2","4","4","4","3","3","4","4","3","4","1","0","1","1","0","0","0","1","0","1","1","0","1","0","1","3","4","3","4","4","3","3","4","2","2","718763547043037184","li","604","","","","","","","","","","","","","","","","","","","false","4","4","ability","1977.212765957447","positive","全能","","","","","","","","","","","","","","",""
"null","","null","html-keyboard-response","136","492581","0.0-6.0-0.0-8.0-0.14","2","2","2","2","2","2","2","2","2","2","2","2","2","3","2","2","2","2","3","2","4","4","4","3","3","4","4","3","4","1","0","1","1","0","0","0","1","0","1","1","0","1","0","1","3","4","3","4","4","3","3","4","2","2","718763547043037184","li","604","","","","","","","","","","","","","","","","","","","","","","","","","","","","","","","","","","","","","","","",""
"656","<p style=""color:rgb(150, 250, 100); font-size: 35px;"">他人</p>","e","categorize-html","137","493239","0.0-6.0-0.0-8.0-1.14","2","2","2","2","2","2","2","2","2","2","2","2","2","3","2","2","2","2","3","2","4","4","4","3","3","4","4","3","4","1","0","1","1","0","0","0","1","0","1","1","0","1","0","1","3","4","3","4","4","3","3","4","2","2","718763547043037184","li","604","","","","","","","","","","","","","","","","","","","true","4","4","ability","656","other","他人","","","","","","","","","","","","","","",""
"null","","null","html-keyboard-response","138","493501","0.0-6.0-0.0-8.0-0.15","2","2","2","2","2","2","2","2","2","2","2","2","2","3","2","2","2","2","3","2","4","4","4","3","3","4","4","3","4","1","0","1","1","0","0","0","1","0","1","1","0","1","0","1","3","4","3","4","4","3","3","4","2","2","718763547043037184","li","604","","","","","","","","","","","","","","","","","","","","","","","","","","","","","","","","","","","","","","","",""
"866","<p style=""color:white; font-size: 35px;"">拙笨</p>","i","categorize-html","139","494372","0.0-6.0-0.0-8.0-1.15","2","2","2","2","2","2","2","2","2","2","2","2","2","3","2","2","2","2","3","2","4","4","4","3","3","4","4","3","4","1","0","1","1","0","0","0","1","0","1","1","0","1","0","1","3","4","3","4","4","3","3","4","2","2","718763547043037184","li","604","","","","","","","","","","","","","","","","","","","true","4","4","ability","866","negative","拙笨","","","","","","","","","","","","","","",""
"null","","null","html-keyboard-response","140","494642","0.0-6.0-0.0-8.0-0.16","2","2","2","2","2","2","2","2","2","2","2","2","2","3","2","2","2","2","3","2","4","4","4","3","3","4","4","3","4","1","0","1","1","0","0","0","1","0","1","1","0","1","0","1","3","4","3","4","4","3","3","4","2","2","718763547043037184","li","604","","","","","","","","","","","","","","","","","","","","","","","","","","","","","","","","","","","","","","","",""
"813","<p style=""color:rgb(150, 250, 100); font-size: 35px;"">他人</p>","e","categorize-html","141","495461","0.0-6.0-0.0-8.0-1.16","2","2","2","2","2","2","2","2","2","2","2","2","2","3","2","2","2","2","3","2","4","4","4","3","3","4","4","3","4","1","0","1","1","0","0","0","1","0","1","1","0","1","0","1","3","4","3","4","4","3","3","4","2","2","718763547043037184","li","604","","","","","","","","","","","","","","","","","","","true","4","4","ability","813","other","他人","","","","","","","","","","","","","","",""
"null","","null","html-keyboard-response","142","495722","0.0-6.0-0.0-8.0-0.17","2","2","2","2","2","2","2","2","2","2","2","2","2","3","2","2","2","2","3","2","4","4","4","3","3","4","4","3","4","1","0","1","1","0","0","0","1","0","1","1","0","1","0","1","3","4","3","4","4","3","3","4","2","2","718763547043037184","li","604","","","","","","","","","","","","","","","","","","","","","","","","","","","","","","","","","","","","","","","",""
"1742","<p style=""color:white; font-size: 35px;"">无能</p>","i","categorize-html","143","497468","0.0-6.0-0.0-8.0-1.17","2","2","2","2","2","2","2","2","2","2","2","2","2","3","2","2","2","2","3","2","4","4","4","3","3","4","4","3","4","1","0","1","1","0","0","0","1","0","1","1","0","1","0","1","3","4","3","4","4","3","3","4","2","2","718763547043037184","li","604","","","","","","","","","","","","","","","","","","","true","4","4","ability","1742","negative","无能","","","","","","","","","","","","","","",""
"null","","null","html-keyboard-response","144","497721","0.0-6.0-0.0-8.0-0.18","2","2","2","2","2","2","2","2","2","2","2","2","2","3","2","2","2","2","3","2","4","4","4","3","3","4","4","3","4","1","0","1","1","0","0","0","1","0","1","1","0","1","0","1","3","4","3","4","4","3","3","4","2","2","718763547043037184","li","604","","","","","","","","","","","","","","","","","","","","","","","","","","","","","","","","","","","","","","","",""
"1326","<p style=""color:rgb(150, 250, 100); font-size: 35px;"">本人的</p>","i","categorize-html","145","499052","0.0-6.0-0.0-8.0-1.18","2","2","2","2","2","2","2","2","2","2","2","2","2","3","2","2","2","2","3","2","4","4","4","3","3","4","4","3","4","1","0","1","1","0","0","0","1","0","1","1","0","1","0","1","3","4","3","4","4","3","3","4","2","2","718763547043037184","li","604","","","","","","","","","","","","","","","","","","","true","4","4","ability","1326","self","本人的","","","","","","","","","","","","","","",""
"null","","null","html-keyboard-response","146","499316","0.0-6.0-0.0-8.0-0.19","2","2","2","2","2","2","2","2","2","2","2","2","2","3","2","2","2","2","3","2","4","4","4","3","3","4","4","3","4","1","0","1","1","0","0","0","1","0","1","1","0","1","0","1","3","4","3","4","4","3","3","4","2","2","718763547043037184","li","604","","","","","","","","","","","","","","","","","","","","","","","","","","","","","","","","","","","","","","","",""
"1314","<p style=""color:white; font-size: 35px;"">能干</p>","e","categorize-html","147","500636","0.0-6.0-0.0-8.0-1.19","2","2","2","2","2","2","2","2","2","2","2","2","2","3","2","2","2","2","3","2","4","4","4","3","3","4","4","3","4","1","0","1","1","0","0","0","1","0","1","1","0","1","0","1","3","4","3","4","4","3","3","4","2","2","718763547043037184","li","604","","","","","","","","","","","","","","","","","","","true","4","4","ability","1314","positive","能干","","","","","","","","","","","","","","",""
"null","","null","html-keyboard-response","148","500901","0.0-6.0-0.0-8.0-0.20","2","2","2","2","2","2","2","2","2","2","2","2","2","3","2","2","2","2","3","2","4","4","4","3","3","4","4","3","4","1","0","1","1","0","0","0","1","0","1","1","0","1","0","1","3","4","3","4","4","3","3","4","2","2","718763547043037184","li","604","","","","","","","","","","","","","","","","","","","","","","","","","","","","","","","","","","","","","","","",""
"937","<p style=""color:rgb(150, 250, 100); font-size: 35px;"">他</p>","e","categorize-html","149","501840","0.0-6.0-0.0-8.0-1.20","2","2","2","2","2","2","2","2","2","2","2","2","2","3","2","2","2","2","3","2","4","4","4","3","3","4","4","3","4","1","0","1","1","0","0","0","1","0","1","1","0","1","0","1","3","4","3","4","4","3","3","4","2","2","718763547043037184","li","604","","","","","","","","","","","","","","","","","","","true","4","4","ability","937","other","他","","","","","","","","","","","","","","",""
"null","","null","html-keyboard-response","150","502102","0.0-6.0-0.0-8.0-0.21","2","2","2","2","2","2","2","2","2","2","2","2","2","3","2","2","2","2","3","2","4","4","4","3","3","4","4","3","4","1","0","1","1","0","0","0","1","0","1","1","0","1","0","1","3","4","3","4","4","3","3","4","2","2","718763547043037184","li","604","","","","","","","","","","","","","","","","","","","","","","","","","","","","","","","","","","","","","","","",""
"738","<p style=""color:white; font-size: 35px;"">全能</p>","e","categorize-html","151","502845","0.0-6.0-0.0-8.0-1.21","2","2","2","2","2","2","2","2","2","2","2","2","2","3","2","2","2","2","3","2","4","4","4","3","3","4","4","3","4","1","0","1","1","0","0","0","1","0","1","1","0","1","0","1","3","4","3","4","4","3","3","4","2","2","718763547043037184","li","604","","","","","","","","","","","","","","","","","","","true","4","4","ability","738","positive","全能","","","","","","","","","","","","","","",""
"null","","null","html-keyboard-response","152","503102","0.0-6.0-0.0-8.0-0.22","2","2","2","2","2","2","2","2","2","2","2","2","2","3","2","2","2","2","3","2","4","4","4","3","3","4","4","3","4","1","0","1","1","0","0","0","1","0","1","1","0","1","0","1","3","4","3","4","4","3","3","4","2","2","718763547043037184","li","604","","","","","","","","","","","","","","","","","","","","","","","","","","","","","","","","","","","","","","","",""
"985","<p style=""color:rgb(150, 250, 100); font-size: 35px;"">自己的</p>","i","categorize-html","153","504092","0.0-6.0-0.0-8.0-1.22","2","2","2","2","2","2","2","2","2","2","2","2","2","3","2","2","2","2","3","2","4","4","4","3","3","4","4","3","4","1","0","1","1","0","0","0","1","0","1","1","0","1","0","1","3","4","3","4","4","3","3","4","2","2","718763547043037184","li","604","","","","","","","","","","","","","","","","","","","true","4","4","ability","985","self","自己的","","","","","","","","","","","","","","",""
"null","","null","html-keyboard-response","154","504362","0.0-6.0-0.0-8.0-0.23","2","2","2","2","2","2","2","2","2","2","2","2","2","3","2","2","2","2","3","2","4","4","4","3","3","4","4","3","4","1","0","1","1","0","0","0","1","0","1","1","0","1","0","1","3","4","3","4","4","3","3","4","2","2","718763547043037184","li","604","","","","","","","","","","","","","","","","","","","","","","","","","","","","","","","","","","","","","","","",""
"1981","<p style=""color:white; font-size: 35px;"">低能</p>","i","categorize-html","155","506348","0.0-6.0-0.0-8.0-1.23","2","2","2","2","2","2","2","2","2","2","2","2","2","3","2","2","2","2","3","2","4","4","4","3","3","4","4","3","4","1","0","1","1","0","0","0","1","0","1","1","0","1","0","1","3","4","3","4","4","3","3","4","2","2","718763547043037184","li","604","","","","","","","","","","","","","","","","","","","true","4","4","ability","1981","negative","低能","","","","","","","","","","","","","","",""
"null","","null","html-keyboard-response","156","506601","0.0-6.0-0.0-8.0-0.24","2","2","2","2","2","2","2","2","2","2","2","2","2","3","2","2","2","2","3","2","4","4","4","3","3","4","4","3","4","1","0","1","1","0","0","0","1","0","1","1","0","1","0","1","3","4","3","4","4","3","3","4","2","2","718763547043037184","li","604","","","","","","","","","","","","","","","","","","","","","","","","","","","","","","","","","","","","","","","",""
"3045","<p style=""color:rgb(150, 250, 100); font-size: 35px;"">他人的</p>","e","categorize-html","157","509652","0.0-6.0-0.0-8.0-1.24","2","2","2","2","2","2","2","2","2","2","2","2","2","3","2","2","2","2","3","2","4","4","4","3","3","4","4","3","4","1","0","1","1","0","0","0","1","0","1","1","0","1","0","1","3","4","3","4","4","3","3","4","2","2","718763547043037184","li","604","","","","","","","","","","","","","","","","","","","true","4","4","ability","3045","other","他人的","","","","","","","","","","","","","","",""
"null","","null","html-keyboard-response","158","509922","0.0-6.0-0.0-8.0-0.25","2","2","2","2","2","2","2","2","2","2","2","2","2","3","2","2","2","2","3","2","4","4","4","3","3","4","4","3","4","1","0","1","1","0","0","0","1","0","1","1","0","1","0","1","3","4","3","4","4","3","3","4","2","2","718763547043037184","li","604","","","","","","","","","","","","","","","","","","","","","","","","","","","","","","","","","","","","","","","",""
"797","<p style=""color:white; font-size: 35px;"">废物</p>","i","categorize-html","159","510724","0.0-6.0-0.0-8.0-1.25","2","2","2","2","2","2","2","2","2","2","2","2","2","3","2","2","2","2","3","2","4","4","4","3","3","4","4","3","4","1","0","1","1","0","0","0","1","0","1","1","0","1","0","1","3","4","3","4","4","3","3","4","2","2","718763547043037184","li","604","","","","","","","","","","","","","","","","","","","true","4","4","ability","797","negative","废物","","","","","","","","","","","","","","",""
"null","","null","html-keyboard-response","160","510981","0.0-6.0-0.0-8.0-0.26","2","2","2","2","2","2","2","2","2","2","2","2","2","3","2","2","2","2","3","2","4","4","4","3","3","4","4","3","4","1","0","1","1","0","0","0","1","0","1","1","0","1","0","1","3","4","3","4","4","3","3","4","2","2","718763547043037184","li","604","","","","","","","","","","","","","","","","","","","","","","","","","","","","","","","","","","","","","","","",""
"1082","<p style=""color:rgb(150, 250, 100); font-size: 35px;"">本人的</p>","i","categorize-html","161","512068","0.0-6.0-0.0-8.0-1.26","2","2","2","2","2","2","2","2","2","2","2","2","2","3","2","2","2","2","3","2","4","4","4","3","3","4","4","3","4","1","0","1","1","0","0","0","1","0","1","1","0","1","0","1","3","4","3","4","4","3","3","4","2","2","718763547043037184","li","604","","","","","","","","","","","","","","","","","","","true","4","4","ability","1082","self","本人的","","","","","","","","","","","","","","",""
"null","","null","html-keyboard-response","162","512322","0.0-6.0-0.0-8.0-0.27","2","2","2","2","2","2","2","2","2","2","2","2","2","3","2","2","2","2","3","2","4","4","4","3","3","4","4","3","4","1","0","1","1","0","0","0","1","0","1","1","0","1","0","1","3","4","3","4","4","3","3","4","2","2","718763547043037184","li","604","","","","","","","","","","","","","","","","","","","","","","","","","","","","","","","","","","","","","","","",""
"1261","<p style=""color:white; font-size: 35px;"">高效</p>","e","categorize-html","163","513588","0.0-6.0-0.0-8.0-1.27","2","2","2","2","2","2","2","2","2","2","2","2","2","3","2","2","2","2","3","2","4","4","4","3","3","4","4","3","4","1","0","1","1","0","0","0","1","0","1","1","0","1","0","1","3","4","3","4","4","3","3","4","2","2","718763547043037184","li","604","","","","","","","","","","","","","","","","","","","true","4","4","ability","1261","positive","高效","","","","","","","","","","","","","","",""
"null","","null","html-keyboard-response","164","513841","0.0-6.0-0.0-8.0-0.28","2","2","2","2","2","2","2","2","2","2","2","2","2","3","2","2","2","2","3","2","4","4","4","3","3","4","4","3","4","1","0","1","1","0","0","0","1","0","1","1","0","1","0","1","3","4","3","4","4","3","3","4","2","2","718763547043037184","li","604","","","","","","","","","","","","","","","","","","","","","","","","","","","","","","","","","","","","","","","",""
"1630","<p style=""color:rgb(150, 250, 100); font-size: 35px;"">他的</p>","e","categorize-html","165","515476","0.0-6.0-0.0-8.0-1.28","2","2","2","2","2","2","2","2","2","2","2","2","2","3","2","2","2","2","3","2","4","4","4","3","3","4","4","3","4","1","0","1","1","0","0","0","1","0","1","1","0","1","0","1","3","4","3","4","4","3","3","4","2","2","718763547043037184","li","604","","","","","","","","","","","","","","","","","","","true","4","4","ability","1630","other","他的","","","","","","","","","","","","","","",""
"null","","null","html-keyboard-response","166","515742","0.0-6.0-0.0-8.0-0.29","2","2","2","2","2","2","2","2","2","2","2","2","2","3","2","2","2","2","3","2","4","4","4","3","3","4","4","3","4","1","0","1","1","0","0","0","1","0","1","1","0","1","0","1","3","4","3","4","4","3","3","4","2","2","718763547043037184","li","604","","","","","","","","","","","","","","","","","","","","","","","","","","","","","","","","","","","","","","","",""
"897","<p style=""color:white; font-size: 35px;"">全才</p>","e","categorize-html","167","516645","0.0-6.0-0.0-8.0-1.29","2","2","2","2","2","2","2","2","2","2","2","2","2","3","2","2","2","2","3","2","4","4","4","3","3","4","4","3","4","1","0","1","1","0","0","0","1","0","1","1","0","1","0","1","3","4","3","4","4","3","3","4","2","2","718763547043037184","li","604","","","","","","","","","","","","","","","","","","","true","4","4","ability","897","positive","全才","","","","","","","","","","","","","","",""
"null","","null","html-keyboard-response","168","516902","0.0-6.0-0.0-8.0-0.30","2","2","2","2","2","2","2","2","2","2","2","2","2","3","2","2","2","2","3","2","4","4","4","3","3","4","4","3","4","1","0","1","1","0","0","0","1","0","1","1","0","1","0","1","3","4","3","4","4","3","3","4","2","2","718763547043037184","li","604","","","","","","","","","","","","","","","","","","","","","","","","","","","","","","","","","","","","","","","",""
"841","<p style=""color:rgb(150, 250, 100); font-size: 35px;"">本人</p>","i","categorize-html","169","517748","0.0-6.0-0.0-8.0-1.30","2","2","2","2","2","2","2","2","2","2","2","2","2","3","2","2","2","2","3","2","4","4","4","3","3","4","4","3","4","1","0","1","1","0","0","0","1","0","1","1","0","1","0","1","3","4","3","4","4","3","3","4","2","2","718763547043037184","li","604","","","","","","","","","","","","","","","","","","","true","4","4","ability","841","self","本人","","","","","","","","","","","","","","",""
"null","","null","html-keyboard-response","170","518002","0.0-6.0-0.0-8.0-0.31","2","2","2","2","2","2","2","2","2","2","2","2","2","3","2","2","2","2","3","2","4","4","4","3","3","4","4","3","4","1","0","1","1","0","0","0","1","0","1","1","0","1","0","1","3","4","3","4","4","3","3","4","2","2","718763547043037184","li","604","","","","","","","","","","","","","","","","","","","","","","","","","","","","","","","","","","","","","","","",""
"822","<p style=""color:white; font-size: 35px;"">愚钝</p>","i","categorize-html","171","518829","0.0-6.0-0.0-8.0-1.31","2","2","2","2","2","2","2","2","2","2","2","2","2","3","2","2","2","2","3","2","4","4","4","3","3","4","4","3","4","1","0","1","1","0","0","0","1","0","1","1","0","1","0","1","3","4","3","4","4","3","3","4","2","2","718763547043037184","li","604","","","","","","","","","","","","","","","","","","","true","4","4","ability","822","negative","愚钝","","","","","","","","","","","","","","",""
"null","","null","html-keyboard-response","172","519082","0.0-6.0-0.0-8.0-0.32","2","2","2","2","2","2","2","2","2","2","2","2","2","3","2","2","2","2","3","2","4","4","4","3","3","4","4","3","4","1","0","1","1","0","0","0","1","0","1","1","0","1","0","1","3","4","3","4","4","3","3","4","2","2","718763547043037184","li","604","","","","","","","","","","","","","","","","","","","","","","","","","","","","","","","","","","","","","","","",""
"4709","<p style=""color:rgb(150, 250, 100); font-size: 35px;"">别人的</p>","e","categorize-html","173","523796","0.0-6.0-0.0-8.0-1.32","2","2","2","2","2","2","2","2","2","2","2","2","2","3","2","2","2","2","3","2","4","4","4","3","3","4","4","3","4","1","0","1","1","0","0","0","1","0","1","1","0","1","0","1","3","4","3","4","4","3","3","4","2","2","718763547043037184","li","604","","","","","","","","","","","","","","","","","","","true","4","4","ability","4709","other","别人的","","","","","","","","","","","","","","",""
"null","","null","html-keyboard-response","174","524061","0.0-6.0-0.0-8.0-0.33","2","2","2","2","2","2","2","2","2","2","2","2","2","3","2","2","2","2","3","2","4","4","4","3","3","4","4","3","4","1","0","1","1","0","0","0","1","0","1","1","0","1","0","1","3","4","3","4","4","3","3","4","2","2","718763547043037184","li","604","","","","","","","","","","","","","","","","","","","","","","","","","","","","","","","","","","","","","","","",""
"714","<p style=""color:white; font-size: 35px;"">蠢笨</p>","i","categorize-html","175","524780","0.0-6.0-0.0-8.0-1.33","2","2","2","2","2","2","2","2","2","2","2","2","2","3","2","2","2","2","3","2","4","4","4","3","3","4","4","3","4","1","0","1","1","0","0","0","1","0","1","1","0","1","0","1","3","4","3","4","4","3","3","4","2","2","718763547043037184","li","604","","","","","","","","","","","","","","","","","","","true","4","4","ability","714","negative","蠢笨","","","","","","","","","","","","","","",""
"null","","null","html-keyboard-response","176","525042","0.0-6.0-0.0-8.0-0.34","2","2","2","2","2","2","2","2","2","2","2","2","2","3","2","2","2","2","3","2","4","4","4","3","3","4","4","3","4","1","0","1","1","0","0","0","1","0","1","1","0","1","0","1","3","4","3","4","4","3","3","4","2","2","718763547043037184","li","604","","","","","","","","","","","","","","","","","","","","","","","","","","","","","","","","","","","","","","","",""
"1366","<p style=""color:rgb(150, 250, 100); font-size: 35px;"">我</p>","i","categorize-html","177","526412","0.0-6.0-0.0-8.0-1.34","2","2","2","2","2","2","2","2","2","2","2","2","2","3","2","2","2","2","3","2","4","4","4","3","3","4","4","3","4","1","0","1","1","0","0","0","1","0","1","1","0","1","0","1","3","4","3","4","4","3","3","4","2","2","718763547043037184","li","604","","","","","","","","","","","","","","","","","","","true","4","4","ability","1366","self","我","","","","","","","","","","","","","","",""
"null","","null","html-keyboard-response","178","526682","0.0-6.0-0.0-8.0-0.35","2","2","2","2","2","2","2","2","2","2","2","2","2","3","2","2","2","2","3","2","4","4","4","3","3","4","4","3","4","1","0","1","1","0","0","0","1","0","1","1","0","1","0","1","3","4","3","4","4","3","3","4","2","2","718763547043037184","li","604","","","","","","","","","","","","","","","","","","","","","","","","","","","","","","","","","","","","","","","",""
"909","<p style=""color:white; font-size: 35px;"">天才</p>","e","categorize-html","179","527596","0.0-6.0-0.0-8.0-1.35","2","2","2","2","2","2","2","2","2","2","2","2","2","3","2","2","2","2","3","2","4","4","4","3","3","4","4","3","4","1","0","1","1","0","0","0","1","0","1","1","0","1","0","1","3","4","3","4","4","3","3","4","2","2","718763547043037184","li","604","","","","","","","","","","","","","","","","","","","true","4","4","ability","909","positive","天才","","","","","","","","","","","","","","",""
"null","","null","html-keyboard-response","180","527862","0.0-6.0-0.0-8.0-0.36","2","2","2","2","2","2","2","2","2","2","2","2","2","3","2","2","2","2","3","2","4","4","4","3","3","4","4","3","4","1","0","1","1","0","0","0","1","0","1","1","0","1","0","1","3","4","3","4","4","3","3","4","2","2","718763547043037184","li","604","","","","","","","","","","","","","","","","","","","","","","","","","","","","","","","","","","","","","","","",""
"1258","<p style=""color:rgb(150, 250, 100); font-size: 35px;"">自己</p>","i","categorize-html","181","529124","0.0-6.0-0.0-8.0-1.36","2","2","2","2","2","2","2","2","2","2","2","2","2","3","2","2","2","2","3","2","4","4","4","3","3","4","4","3","4","1","0","1","1","0","0","0","1","0","1","1","0","1","0","1","3","4","3","4","4","3","3","4","2","2","718763547043037184","li","604","","","","","","","","","","","","","","","","","","","true","4","4","ability","1258","self","自己","","","","","","","","","","","","","","",""
"null","","null","html-keyboard-response","182","529382","0.0-6.0-0.0-8.0-0.37","2","2","2","2","2","2","2","2","2","2","2","2","2","3","2","2","2","2","3","2","4","4","4","3","3","4","4","3","4","1","0","1","1","0","0","0","1","0","1","1","0","1","0","1","3","4","3","4","4","3","3","4","2","2","718763547043037184","li","604","","","","","","","","","","","","","","","","","","","","","","","","","","","","","","","","","","","","","","","",""
"1177","<p style=""color:white; font-size: 35px;"">高效</p>","e","categorize-html","183","530564","0.0-6.0-0.0-8.0-1.37","2","2","2","2","2","2","2","2","2","2","2","2","2","3","2","2","2","2","3","2","4","4","4","3","3","4","4","3","4","1","0","1","1","0","0","0","1","0","1","1","0","1","0","1","3","4","3","4","4","3","3","4","2","2","718763547043037184","li","604","","","","","","","","","","","","","","","","","","","true","4","4","ability","1177","positive","高效","","","","","","","","","","","","","","",""
"null","","null","html-keyboard-response","184","530822","0.0-6.0-0.0-8.0-0.38","2","2","2","2","2","2","2","2","2","2","2","2","2","3","2","2","2","2","3","2","4","4","4","3","3","4","4","3","4","1","0","1","1","0","0","0","1","0","1","1","0","1","0","1","3","4","3","4","4","3","3","4","2","2","718763547043037184","li","604","","","","","","","","","","","","","","","","","","","","","","","","","","","","","","","","","","","","","","","",""
"1809","<p style=""color:rgb(150, 250, 100); font-size: 35px;"">他</p>","e","categorize-html","185","532636","0.0-6.0-0.0-8.0-1.38","2","2","2","2","2","2","2","2","2","2","2","2","2","3","2","2","2","2","3","2","4","4","4","3","3","4","4","3","4","1","0","1","1","0","0","0","1","0","1","1","0","1","0","1","3","4","3","4","4","3","3","4","2","2","718763547043037184","li","604","","","","","","","","","","","","","","","","","","","true","4","4","ability","1809","other","他","","","","","","","","","","","","","","",""
"null","","null","html-keyboard-response","186","532892","0.0-6.0-0.0-8.0-0.39","2","2","2","2","2","2","2","2","2","2","2","2","2","3","2","2","2","2","3","2","4","4","4","3","3","4","4","3","4","1","0","1","1","0","0","0","1","0","1","1","0","1","0","1","3","4","3","4","4","3","3","4","2","2","718763547043037184","li","604","","","","","","","","","","","","","","","","","","","","","","","","","","","","","","","","","","","","","","","",""
"1124","<p style=""color:white; font-size: 35px;"">无能</p>","i","categorize-html","187","534020","0.0-6.0-0.0-8.0-1.39","2","2","2","2","2","2","2","2","2","2","2","2","2","3","2","2","2","2","3","2","4","4","4","3","3","4","4","3","4","1","0","1","1","0","0","0","1","0","1","1","0","1","0","1","3","4","3","4","4","3","3","4","2","2","718763547043037184","li","604","","","","","","","","","","","","","","","","","","","true","4","4","ability","1124","negative","无能","","","","","","","","","","","","","","",""
"null","","null","html-keyboard-response","188","534271","0.0-6.0-0.0-8.0-0.40","2","2","2","2","2","2","2","2","2","2","2","2","2","3","2","2","2","2","3","2","4","4","4","3","3","4","4","3","4","1","0","1","1","0","0","0","1","0","1","1","0","1","0","1","3","4","3","4","4","3","3","4","2","2","718763547043037184","li","604","","","","","","","","","","","","","","","","","","","","","","","","","","","","","","","","","","","","","","","",""
"2192","<p style=""color:rgb(150, 250, 100); font-size: 35px;"">别人的</p>","e","categorize-html","189","536469","0.0-6.0-0.0-8.0-1.40","2","2","2","2","2","2","2","2","2","2","2","2","2","3","2","2","2","2","3","2","4","4","4","3","3","4","4","3","4","1","0","1","1","0","0","0","1","0","1","1","0","1","0","1","3","4","3","4","4","3","3","4","2","2","718763547043037184","li","604","","","","","","","","","","","","","","","","","","","true","4","4","ability","2192","other","别人的","","","","","","","","","","","","","","",""
"null","","null","html-keyboard-response","190","536731","0.0-6.0-0.0-8.0-0.41","2","2","2","2","2","2","2","2","2","2","2","2","2","3","2","2","2","2","3","2","4","4","4","3","3","4","4","3","4","1","0","1","1","0","0","0","1","0","1","1","0","1","0","1","3","4","3","4","4","3","3","4","2","2","718763547043037184","li","604","","","","","","","","","","","","","","","","","","","","","","","","","","","","","","","","","","","","","","","",""
"1267","<p style=""color:white; font-size: 35px;"">天才</p>","e","categorize-html","191","538004","0.0-6.0-0.0-8.0-1.41","2","2","2","2","2","2","2","2","2","2","2","2","2","3","2","2","2","2","3","2","4","4","4","3","3","4","4","3","4","1","0","1","1","0","0","0","1","0","1","1","0","1","0","1","3","4","3","4","4","3","3","4","2","2","718763547043037184","li","604","","","","","","","","","","","","","","","","","","","true","4","4","ability","1267","positive","天才","","","","","","","","","","","","","","",""
"null","","null","html-keyboard-response","192","538272","0.0-6.0-0.0-8.0-0.42","2","2","2","2","2","2","2","2","2","2","2","2","2","3","2","2","2","2","3","2","4","4","4","3","3","4","4","3","4","1","0","1","1","0","0","0","1","0","1","1","0","1","0","1","3","4","3","4","4","3","3","4","2","2","718763547043037184","li","604","","","","","","","","","","","","","","","","","","","","","","","","","","","","","","","","","","","","","","","",""
"1183","<p style=""color:rgb(150, 250, 100); font-size: 35px;"">我</p>","i","categorize-html","193","539460","0.0-6.0-0.0-8.0-1.42","2","2","2","2","2","2","2","2","2","2","2","2","2","3","2","2","2","2","3","2","4","4","4","3","3","4","4","3","4","1","0","1","1","0","0","0","1","0","1","1","0","1","0","1","3","4","3","4","4","3","3","4","2","2","718763547043037184","li","604","","","","","","","","","","","","","","","","","","","true","4","4","ability","1183","self","我","","","","","","","","","","","","","","",""
"null","","null","html-keyboard-response","194","539712","0.0-6.0-0.0-8.0-0.43","2","2","2","2","2","2","2","2","2","2","2","2","2","3","2","2","2","2","3","2","4","4","4","3","3","4","4","3","4","1","0","1","1","0","0","0","1","0","1","1","0","1","0","1","3","4","3","4","4","3","3","4","2","2","718763547043037184","li","604","","","","","","","","","","","","","","","","","","","","","","","","","","","","","","","","","","","","","","","",""
"1551","<p style=""color:white; font-size: 35px;"">愚钝</p>","i","categorize-html","195","541268","0.0-6.0-0.0-8.0-1.43","2","2","2","2","2","2","2","2","2","2","2","2","2","3","2","2","2","2","3","2","4","4","4","3","3","4","4","3","4","1","0","1","1","0","0","0","1","0","1","1","0","1","0","1","3","4","3","4","4","3","3","4","2","2","718763547043037184","li","604","","","","","","","","","","","","","","","","","","","true","4","4","ability","1551","negative","愚钝","","","","","","","","","","","","","","",""
"null","","null","html-keyboard-response","196","541532","0.0-6.0-0.0-8.0-0.44","2","2","2","2","2","2","2","2","2","2","2","2","2","3","2","2","2","2","3","2","4","4","4","3","3","4","4","3","4","1","0","1","1","0","0","0","1","0","1","1","0","1","0","1","3","4","3","4","4","3","3","4","2","2","718763547043037184","li","604","","","","","","","","","","","","","","","","","","","","","","","","","","","","","","","","","","","","","","","",""
"1323","<p style=""color:rgb(150, 250, 100); font-size: 35px;"">我的</p>","i","categorize-html","197","542860","0.0-6.0-0.0-8.0-1.44","2","2","2","2","2","2","2","2","2","2","2","2","2","3","2","2","2","2","3","2","4","4","4","3","3","4","4","3","4","1","0","1","1","0","0","0","1","0","1","1","0","1","0","1","3","4","3","4","4","3","3","4","2","2","718763547043037184","li","604","","","","","","","","","","","","","","","","","","","true","4","4","ability","1323","self","我的","","","","","","","","","","","","","","",""
