Block1_Old,Num_Source3,Num_Source2,Num_Source1,valence1,valence2,valence3,Num_Old2,Corr_S1,Num_Old1,Corr_S3,Corr_S2,Block3_Old,Block2_Old,Source_2,Source_3,Source_1,domain3,domain2,domain1,Num_Old3,math,Num_All2,valence_all1,All_Words3,Num_All1,valence_all2,Num_All3,All_Words1,valence_all3,Corr_Rec2,Corr_Rec3,Corr_Rec1,domian_all3,domian_all2,domian_all1,All_Words2,trials.thisRepN,trials.thisTrialN,trials.thisN,trials.thisIndex,trials_2.thisRepN,trials_2.thisTrialN,trials_2.thisN,trials_2.thisIndex,trials_4.thisRepN,trials_4.thisTrialN,trials_4.thisN,trials_4.thisIndex,trials_3.thisRepN,trials_3.thisTrialN,trials_3.thisN,trials_3.thisIndex,block_resp_1.keys,block_resp_1.rt,words_rating.keys,words_rating.rt,block_resp_2.keys,block_resp_2.rt,Rec_resp.keys,Rec_resp.corr,Rec_resp.rt,Source_resp.keys,Source_resp.corr,Source_resp.rt,expName,participant,Age,frameRate,Sex,session,date,
,,,,,,,,,,,,,,,,,,,,,,,,,,,,,,,,,,,,,,,,,,,,,,,,,,,,,1,2.25886201859,,,,,,,,,,,moral_self_bias,01,22,59.9948219954,m,001,2018_Apr_02_0845,
恶心,material/instr2_1.png,material/instr2_1.png,material/instr2_1.png,2,2,2,material/73.png,f,material/177.png,f,f,恶心,残虐,self,self,self,1,1,1,material/177.png,,,,,,,,,,,,,,,,,0,0,0,76,,,,,,,,,,,,,,,1,1.24218297005,,,,,,,,,moral_self_bias,01,22,59.9948219954,m,001,2018_Apr_02_0845,
残忍,material/instr2_2.png,material/instr2_2.png,material/instr2_2.png,2,2,2,material/41.png,j,material/141.png,j,j,残忍,歹毒,friend,friend,friend,1,1,1,material/141.png,,,,,,,,,,,,,,,,,0,1,1,40,,,,,,,,,,,,,,,1,0.8587038517,,,,,,,,,moral_self_bias,01,22,59.9948219954,m,001,2018_Apr_02_0845,
高尚,material/instr2_1.png,material/instr2_1.png,material/instr2_1.png,1,1,1,material/11.png,f,material/111.png,f,f,高尚,高雅,self,self,self,1,1,1,material/111.png,,,,,,,,,,,,,,,,,0,2,2,10,,,,,,,,,,,,,,,4,1.34216308594,,,,,,,,,moral_self_bias,01,22,59.9948219954,m,001,2018_Apr_02_0845,
差生,material/instr2_2.png,material/instr2_2.png,material/instr2_2.png,2,2,2,material/81.png,j,material/179.png,j,j,呆笨,无助,friend,friend,friend,2,2,2,material/83.png,,,,,,,,,,,,,,,,,0,3,3,78,,,,,,,,,,,,,,,1,1.12555789948,,,,,,,,,moral_self_bias,01,22,59.9948219954,m,001,2018_Apr_02_0845,
冷血,material/instr2_1.png,material/instr2_1.png,material/instr2_1.png,2,2,2,material/35.png,f,material/135.png,f,f,冷血,冷漠,self,self,self,1,1,1,material/135.png,,,,,,,,,,,,,,,,,0,4,4,34,,,,,,,,,,,,,,,1,0.84033703804,,,,,,,,,moral_self_bias,01,22,59.9948219954,m,001,2018_Apr_02_0845,
背叛,material/instr2_1.png,material/instr2_1.png,material/instr2_1.png,2,2,2,material/32.png,f,material/132.png,f,f,背叛,不忠,self,self,self,1,1,1,material/132.png,,,,,,,,,,,,,,,,,0,5,5,31,,,,,,,,,,,,,,,1,0.74200296402,,,,,,,,,moral_self_bias,01,22,59.9948219954,m,001,2018_Apr_02_0845,
机变,material/instr2_2.png,material/instr2_2.png,material/instr2_2.png,1,1,1,material/70.png,j,material/168.png,j,j,全面,全面,friend,friend,friend,2,2,2,material/70.png,,,,,,,,,,,,,,,,,0,6,6,67,,,,,,,,,,,,,,,1,1.04209280014,,,,,,,,,moral_self_bias,01,22,59.9948219954,m,001,2018_Apr_02_0845,
孝顺,material/instr2_1.png,material/instr2_1.png,material/instr2_1.png,1,1,1,material/161.png,f,material/164.png,f,f,奉献,勇敢,self,self,self,1,1,1,material/64.png,,,,,,,,,,,,,,,,,0,7,7,63,,,,,,,,,,,,,,,4,1.35804796219,,,,,,,,,moral_self_bias,01,22,59.9948219954,m,001,2018_Apr_02_0845,
顽愚,material/instr2_1.png,material/instr2_1.png,material/instr2_1.png,2,2,2,material/84.png,f,material/84.png,f,f,犹豫,顽愚,self,self,self,2,2,2,material/181.png,,,,,,,,,,,,,,,,,0,8,8,87,,,,,,,,,,,,,,,1,1.30780100822,,,,,,,,,moral_self_bias,01,22,59.9948219954,m,001,2018_Apr_02_0845,
果敢,material/instr2_1.png,material/instr2_1.png,material/instr2_1.png,1,1,1,material/25.png,f,material/125.png,f,f,果断,果断,self,self,self,2,2,2,material/25.png,,,,,,,,,,,,,,,,,0,9,9,24,,,,,,,,,,,,,,,3,1.5597949028,,,,,,,,,moral_self_bias,01,22,59.9948219954,m,001,2018_Apr_02_0845,
浅薄,material/instr2_2.png,material/instr2_2.png,material/instr2_2.png,2,2,2,material/58.png,j,material/158.png,j,j,肤浅,肤浅,friend,friend,friend,2,2,2,material/58.png,,,,,,,,,,,,,,,,,0,10,10,57,,,,,,,,,,,,,,,1,0.974923849106,,,,,,,,,moral_self_bias,01,22,59.9948219954,m,001,2018_Apr_02_0845,
勤快,material/instr2_2.png,material/instr2_2.png,material/instr2_2.png,1,1,1,material/26.png,j,material/126.png,j,j,刻苦,刻苦,friend,friend,friend,2,2,2,material/26.png,,,,,,,,,,,,,,,,,0,11,11,25,,,,,,,,,,,,,,,4,1.03354597092,,,,,,,,,moral_self_bias,01,22,59.9948219954,m,001,2018_Apr_02_0845,
精干,material/instr2_1.png,material/instr2_1.png,material/instr2_1.png,1,1,1,material/21.png,f,material/121.png,f,f,干练,干练,self,self,self,2,2,2,material/21.png,,,,,,,,,,,,,,,,,0,12,12,20,,,,,,,,,,,,,,,3,1.59151005745,,,,,,,,,moral_self_bias,01,22,59.9948219954,m,001,2018_Apr_02_0845,
敬业,material/instr2_2.png,material/instr2_2.png,material/instr2_2.png,1,1,1,material/62.png,j,material/162.png,j,j,坚韧,坚韧,friend,friend,friend,1,1,1,material/62.png,,,,,,,,,,,,,,,,,0,13,13,61,,,,,,,,,,,,,,,5,1.27513098717,,,,,,,,,moral_self_bias,01,22,59.9948219954,m,001,2018_Apr_02_0845,
机敏,material/instr2_2.png,material/instr2_2.png,material/instr2_2.png,1,1,1,material/18.png,j,material/118.png,j,j,敏锐,敏锐,friend,friend,friend,2,2,2,material/18.png,,,,,,,,,,,,,,,,,0,14,14,17,,,,,,,,,,,,,,,4,1.18274712563,,,,,,,,,moral_self_bias,01,22,59.9948219954,m,001,2018_Apr_02_0845,
弱智,material/instr2_1.png,material/instr2_1.png,material/instr2_1.png,2,2,2,material/59.png,f,material/159.png,f,f,智障,智障,self,self,self,2,2,2,material/59.png,,,,,,,,,,,,,,,,,0,15,15,58,,,,,,,,,,,,,,,1,0.958462953568,,,,,,,,,moral_self_bias,01,22,59.9948219954,m,001,2018_Apr_02_0845,
才尽,material/instr2_1.png,material/instr2_1.png,material/instr2_1.png,2,2,2,material/183.png,f,material/182.png,f,f,颓废,薄弱,self,self,self,2,2,2,material/79.png,,,,,,,,,,,,,,,,,0,16,16,81,,,,,,,,,,,,,,,1,1.2255589962,,,,,,,,,moral_self_bias,01,22,59.9948219954,m,001,2018_Apr_02_0845,
多才,material/instr2_1.png,material/instr2_1.png,material/instr2_1.png,1,1,1,material/23.png,f,material/123.png,f,f,有才,有才,self,self,self,2,2,2,material/23.png,,,,,,,,,,,,,,,,,0,17,17,22,,,,,,,,,,,,,,,3,1.1835808754,,,,,,,,,moral_self_bias,01,22,59.9948219954,m,001,2018_Apr_02_0845,
冷静,material/instr2_1.png,material/instr2_1.png,material/instr2_1.png,1,1,1,material/24.png,f,material/124.png,f,f,理智,理智,self,self,self,2,2,2,material/24.png,,,,,,,,,,,,,,,,,0,18,18,23,,,,,,,,,,,,,,,4,0.866921186447,,,,,,,,,moral_self_bias,01,22,59.9948219954,m,001,2018_Apr_02_0845,
恶毒,material/instr2_2.png,material/instr2_2.png,material/instr2_2.png,2,2,2,material/39.png,j,material/139.png,j,j,恶毒,凶残,friend,friend,friend,1,1,1,material/139.png,,,,,,,,,,,,,,,,,0,19,19,38,,,,,,,,,,,,,,,1,1.12417197227,,,,,,,,,moral_self_bias,01,22,59.9948219954,m,001,2018_Apr_02_0845,
自私,material/instr2_2.png,material/instr2_2.png,material/instr2_2.png,2,2,2,material/46.png,j,material/146.png,j,j,自私,小气,friend,friend,friend,1,1,1,material/146.png,,,,,,,,,,,,,,,,,0,20,20,45,,,,,,,,,,,,,,,1,1.09190201759,,,,,,,,,moral_self_bias,01,22,59.9948219954,m,001,2018_Apr_02_0845,
聪颖,material/instr2_2.png,material/instr2_2.png,material/instr2_2.png,1,1,1,material/17.png,j,material/117.png,j,j,聪明,聪明,friend,friend,friend,2,2,2,material/17.png,,,,,,,,,,,,,,,,,0,21,21,16,,,,,,,,,,,,,,,4,1.92552900314,,,,,,,,,moral_self_bias,01,22,59.9948219954,m,001,2018_Apr_02_0845,
独立,material/instr2_1.png,material/instr2_1.png,material/instr2_1.png,1,1,1,material/64.png,f,material/165.png,f,f,谦虚,奉献,self,self,self,1,1,1,material/65.png,,,,,,,,,,,,,,,,,0,22,22,64,,,,,,,,,,,,,,,3,1.47612094879,,,,,,,,,moral_self_bias,01,22,59.9948219954,m,001,2018_Apr_02_0845,
机智,material/instr2_2.png,material/instr2_2.png,material/instr2_2.png,1,1,1,material/16.png,j,material/116.png,j,j,睿智,睿智,friend,friend,friend,2,2,2,material/16.png,,,,,,,,,,,,,,,,,0,23,23,15,,,,,,,,,,,,,,,4,1.2087829113,,,,,,,,,moral_self_bias,01,22,59.9948219954,m,001,2018_Apr_02_0845,
盲目,material/instr2_1.png,material/instr2_1.png,material/instr2_1.png,2,2,2,material/55.png,f,material/155.png,f,f,盲从,盲从,self,self,self,2,2,2,material/55.png,,,,,,,,,,,,,,,,,0,24,24,54,,,,,,,,,,,,,,,1,0.842648983002,,,,,,,,,moral_self_bias,01,22,59.9948219954,m,001,2018_Apr_02_0845,
不义,material/instr2_2.png,material/instr2_2.png,material/instr2_2.png,2,2,2,material/173.png,j,material/174.png,j,j,不义,黑心,friend,friend,friend,1,1,1,material/174.png,,,,,,,,,,,,,,,,,0,25,25,73,,,,,,,,,,,,,,,1,0.725636005402,,,,,,,,,moral_self_bias,01,22,59.9948219954,m,001,2018_Apr_02_0845,
进取,material/instr2_1.png,material/instr2_1.png,material/instr2_1.png,1,1,1,material/30.png,f,material/130.png,f,f,上进,上进,self,self,self,2,2,2,material/30.png,,,,,,,,,,,,,,,,,0,26,26,29,,,,,,,,,,,,,,,4,1.10902118683,,,,,,,,,moral_self_bias,01,22,59.9948219954,m,001,2018_Apr_02_0845,
愚钝,material/instr2_1.png,material/instr2_1.png,material/instr2_1.png,2,2,2,material/56.png,f,material/156.png,f,f,愚昧,愚昧,self,self,self,2,2,2,material/56.png,,,,,,,,,,,,,,,,,0,27,27,55,,,,,,,,,,,,,,,1,0.659106016159,,,,,,,,,moral_self_bias,01,22,59.9948219954,m,001,2018_Apr_02_0845,
坚忍,material/instr2_1.png,material/instr2_1.png,material/instr2_1.png,1,1,1,material/168.png,f,material/170.png,f,f,机变,机变,self,self,self,2,2,2,material/168.png,,,,,,,,,,,,,,,,,0,28,28,69,,,,,,,,,,,,,,,4,1.4927380085,,,,,,,,,moral_self_bias,01,22,59.9948219954,m,001,2018_Apr_02_0845,
友善,material/instr2_1.png,material/instr2_1.png,material/instr2_1.png,1,1,1,material/4.png,f,material/104.png,f,f,友善,友爱,self,self,self,1,1,1,material/104.png,,,,,,,,,,,,,,,,,0,29,29,3,,,,,,,,,,,,,,,4,0.691941022873,,,,,,,,,moral_self_bias,01,22,59.9948219954,m,001,2018_Apr_02_0845,
虚荣,material/instr2_1.png,material/instr2_1.png,material/instr2_1.png,2,2,2,material/43.png,f,material/143.png,f,f,虚荣,拜金,self,self,self,1,1,1,material/143.png,,,,,,,,,,,,,,,,,0,30,30,42,,,,,,,,,,,,,,,1,0.958910942078,,,,,,,,,moral_self_bias,01,22,59.9948219954,m,001,2018_Apr_02_0845,
黑心,material/instr2_2.png,material/instr2_2.png,material/instr2_2.png,2,2,2,material/74.png,j,material/173.png,j,j,黑心,卑劣,friend,friend,friend,1,1,1,material/173.png,,,,,,,,,,,,,,,,,0,31,31,72,,,,,,,,,,,,,,,1,0.874941825867,,,,,,,,,moral_self_bias,01,22,59.9948219954,m,001,2018_Apr_02_0845,
诚信,material/instr2_1.png,material/instr2_1.png,material/instr2_1.png,1,1,1,material/5.png,f,material/105.png,f,f,诚信,守信,self,self,self,1,1,1,material/105.png,,,,,,,,,,,,,,,,,0,32,32,4,,,,,,,,,,,,,,,4,0.875365972519,,,,,,,,,moral_self_bias,01,22,59.9948219954,m,001,2018_Apr_02_0845,
毛糙,material/instr2_2.png,material/instr2_2.png,material/instr2_2.png,2,2,2,material/179.png,j,material/178.png,j,j,顽愚,差生,friend,friend,friend,2,2,2,material/84.png,,,,,,,,,,,,,,,,,0,33,33,77,,,,,,,,,,,,,,,1,0.892551898956,,,,,,,,,moral_self_bias,01,22,59.9948219954,m,001,2018_Apr_02_0845,
廉明,material/instr2_2.png,material/instr2_2.png,material/instr2_2.png,1,1,1,material/13.png,j,material/113.png,j,j,廉明,廉洁,friend,friend,friend,1,1,1,material/113.png,,,,,,,,,,,,,,,,,0,34,34,12,,,,,,,,,,,,,,,4,1.15869498253,,,,,,,,,moral_self_bias,01,22,59.9948219954,m,001,2018_Apr_02_0845,
迟钝,material/instr2_1.png,material/instr2_1.png,material/instr2_1.png,2,2,2,material/53.png,f,material/153.png,f,f,迟缓,迟缓,self,self,self,2,2,2,material/53.png,,,,,,,,,,,,,,,,,0,35,35,52,,,,,,,,,,,,,,,1,0.858851909637,,,,,,,,,moral_self_bias,01,22,59.9948219954,m,001,2018_Apr_02_0845,
博爱,material/instr2_1.png,material/instr2_1.png,material/instr2_1.png,1,1,1,material/1.png,f,material/101.png,f,f,博爱,善良,self,self,self,1,1,1,material/101.png,,,,,,,,,,,,,,,,,0,36,36,0,,,,,,,,,,,,,,,3,1.84208798409,,,,,,,,,moral_self_bias,01,22,59.9948219954,m,001,2018_Apr_02_0845,
博学,material/instr2_1.png,material/instr2_1.png,material/instr2_1.png,1,1,1,material/22.png,f,material/122.png,f,f,才学,才学,self,self,self,2,2,2,material/22.png,,,,,,,,,,,,,,,,,0,37,37,21,,,,,,,,,,,,,,,4,1.84207820892,,,,,,,,,moral_self_bias,01,22,59.9948219954,m,001,2018_Apr_02_0845,
无私,material/instr2_2.png,material/instr2_2.png,material/instr2_2.png,1,1,1,material/8.png,j,material/108.png,j,j,无私,公道,friend,friend,friend,1,1,1,material/108.png,,,,,,,,,,,,,,,,,0,38,38,7,,,,,,,,,,,,,,,1,0.725412130356,,,,,,,,,moral_self_bias,01,22,59.9948219954,m,001,2018_Apr_02_0845,
白痴,material/instr2_2.png,material/instr2_2.png,material/instr2_2.png,2,2,2,material/49.png,j,material/149.png,j,j,痴呆,痴呆,friend,friend,friend,2,2,2,material/49.png,,,,,,,,,,,,,,,,,0,39,39,48,,,,,,,,,,,,,,,1,0.833262205124,,,,,,,,,moral_self_bias,01,22,59.9948219954,m,001,2018_Apr_02_0845,
可恶,material/instr2_1.png,material/instr2_1.png,material/instr2_1.png,2,2,2,material/34.png,f,material/134.png,f,f,可恶,可恨,self,self,self,1,1,1,material/134.png,,,,,,,,,,,,,,,,,0,40,40,33,,,,,,,,,,,,,,,1,0.867280960083,,,,,,,,,moral_self_bias,01,22,59.9948219954,m,001,2018_Apr_02_0845,
笨蛋,material/instr2_2.png,material/instr2_2.png,material/instr2_2.png,2,2,2,material/48.png,j,material/148.png,j,j,愚蠢,愚蠢,friend,friend,friend,2,2,2,material/48.png,,,,,,,,,,,,,,,,,0,41,41,47,,,,,,,,,,,,,,,1,0.874580144882,,,,,,,,,moral_self_bias,01,22,59.9948219954,m,001,2018_Apr_02_0845,
高明,material/instr2_1.png,material/instr2_1.png,material/instr2_1.png,1,1,1,material/69.png,f,material/69.png,f,f,高明,高明,self,self,self,2,2,2,material/69.png,,,,,,,,,,,,,,,,,0,42,42,86,,,,,,,,,,,,,,,3,2.25867295265,,,,,,,,,moral_self_bias,01,22,59.9948219954,m,001,2018_Apr_02_0845,
机灵,material/instr2_2.png,material/instr2_2.png,material/instr2_2.png,1,1,1,material/19.png,j,material/119.png,j,j,灵活,灵活,friend,friend,friend,2,2,2,material/19.png,,,,,,,,,,,,,,,,,0,43,43,18,,,,,,,,,,,,,,,4,1.14219498634,,,,,,,,,moral_self_bias,01,22,59.9948219954,m,001,2018_Apr_02_0845,
贪污,material/instr2_1.png,material/instr2_1.png,material/instr2_1.png,2,2,2,material/33.png,f,material/133.png,f,f,贪污,腐败,self,self,self,1,1,1,material/133.png,,,,,,,,,,,,,,,,,0,44,44,32,,,,,,,,,,,,,,,1,0.808173179626,,,,,,,,,moral_self_bias,01,22,59.9948219954,m,001,2018_Apr_02_0845,
自律,material/instr2_2.png,material/instr2_2.png,material/instr2_2.png,1,1,1,material/28.png,j,material/128.png,j,j,克己,克己,friend,friend,friend,2,2,2,material/28.png,,,,,,,,,,,,,,,,,0,45,45,27,,,,,,,,,,,,,,,5,1.75880885124,,,,,,,,,moral_self_bias,01,22,59.9948219954,m,001,2018_Apr_02_0845,
怠惰,material/instr2_2.png,material/instr2_2.png,material/instr2_2.png,2,2,2,material/181.png,j,material/180.png,j,j,怠惰,犹豫,friend,friend,friend,2,2,2,material/180.png,,,,,,,,,,,,,,,,,0,46,46,79,,,,,,,,,,,,,,,1,1.09247303009,,,,,,,,,moral_self_bias,01,22,59.9948219954,m,001,2018_Apr_02_0845,
高手,material/instr2_2.png,material/instr2_2.png,material/instr2_2.png,1,1,1,material/68.png,j,material/167.png,j,j,广博,广博,friend,friend,friend,2,2,2,material/68.png,,,,,,,,,,,,,,,,,0,47,47,66,,,,,,,,,,,,,,,5,1.09281492233,,,,,,,,,moral_self_bias,01,22,59.9948219954,m,001,2018_Apr_02_0845,
鲁钝,material/instr2_2.png,material/instr2_2.png,material/instr2_2.png,2,2,2,material/50.png,j,material/150.png,j,j,愚笨,愚笨,friend,friend,friend,2,2,2,material/50.png,,,,,,,,,,,,,,,,,0,48,48,49,,,,,,,,,,,,,,,1,0.692579030991,,,,,,,,,moral_self_bias,01,22,59.9948219954,m,001,2018_Apr_02_0845,
缓慢,material/instr2_1.png,material/instr2_1.png,material/instr2_1.png,2,2,2,material/52.png,f,material/152.png,f,f,拖延,拖延,self,self,self,2,2,2,material/52.png,,,,,,,,,,,,,,,,,0,49,49,51,,,,,,,,,,,,,,,1,1.02466106415,,,,,,,,,moral_self_bias,01,22,59.9948219954,m,001,2018_Apr_02_0845,
正义,material/instr2_1.png,material/instr2_1.png,material/instr2_1.png,1,1,1,material/66.png,f,material/66.png,f,f,独立,正义,self,self,self,1,1,1,material/165.png,,,,,,,,,,,,,,,,,0,50,50,84,,,,,,,,,,,,,,,4,1.25959420204,,,,,,,,,moral_self_bias,01,22,59.9948219954,m,001,2018_Apr_02_0845,
缺德,material/instr2_2.png,material/instr2_2.png,material/instr2_2.png,2,2,2,material/38.png,j,material/138.png,j,j,缺德,无德,friend,friend,friend,1,1,1,material/138.png,,,,,,,,,,,,,,,,,0,51,51,37,,,,,,,,,,,,,,,1,0.724502801895,,,,,,,,,moral_self_bias,01,22,59.9948219954,m,001,2018_Apr_02_0845,
仁厚,material/instr2_1.png,material/instr2_1.png,material/instr2_1.png,1,1,1,material/3.png,f,material/103.png,f,f,仁厚,仁慈,self,self,self,1,1,1,material/103.png,,,,,,,,,,,,,,,,,0,52,52,2,,,,,,,,,,,,,,,4,1.47545909882,,,,,,,,,moral_self_bias,01,22,59.9948219954,m,001,2018_Apr_02_0845,
犹豫,material/instr2_1.png,material/instr2_1.png,material/instr2_1.png,2,2,2,material/78.png,f,material/181.png,f,f,厌学,草率,self,self,self,2,2,2,material/184.png,,,,,,,,,,,,,,,,,0,53,53,80,,,,,,,,,,,,,,,1,0.659754037857,,,,,,,,,moral_self_bias,01,22,59.9948219954,m,001,2018_Apr_02_0845,
无能,material/instr2_2.png,material/instr2_2.png,material/instr2_2.png,2,2,2,material/57.png,j,material/157.png,j,j,无知,无知,friend,friend,friend,2,2,2,material/57.png,,,,,,,,,,,,,,,,,0,54,54,56,,,,,,,,,,,,,,,1,0.791573047638,,,,,,,,,moral_self_bias,01,22,59.9948219954,m,001,2018_Apr_02_0845,
仗义,material/instr2_1.png,material/instr2_1.png,material/instr2_1.png,1,1,1,material/63.png,f,material/166.png,f,f,正义,文明,self,self,self,1,1,1,material/66.png,,,,,,,,,,,,,,,,,0,55,55,65,,,,,,,,,,,,,,,4,1.19194197655,,,,,,,,,moral_self_bias,01,22,59.9948219954,m,001,2018_Apr_02_0845,
卑鄙,material/instr2_2.png,material/instr2_2.png,material/instr2_2.png,2,2,2,material/37.png,j,material/137.png,j,j,卑鄙,无耻,friend,friend,friend,1,1,1,material/137.png,,,,,,,,,,,,,,,,,0,56,56,36,,,,,,,,,,,,,,,1,0.725522041321,,,,,,,,,moral_self_bias,01,22,59.9948219954,m,001,2018_Apr_02_0845,
浮夸,material/instr2_2.png,material/instr2_2.png,material/instr2_2.png,2,2,2,material/77.png,j,material/172.png,j,j,浮夸,软弱,friend,friend,friend,1,1,1,material/172.png,,,,,,,,,,,,,,,,,0,57,57,71,,,,,,,,,,,,,,,1,0.892122983932,,,,,,,,,moral_self_bias,01,22,59.9948219954,m,001,2018_Apr_02_0845,
高效,material/instr2_1.png,material/instr2_1.png,material/instr2_1.png,1,1,1,material/169.png,f,material/171.png,f,f,颖悟,颖悟,self,self,self,2,2,2,material/169.png,,,,,,,,,,,,,,,,,0,58,58,70,,,,,,,,,,,,,,,4,1.42761611938,,,,,,,,,moral_self_bias,01,22,59.9948219954,m,001,2018_Apr_02_0845,
超群,material/instr2_2.png,material/instr2_2.png,material/instr2_2.png,1,1,1,material/27.png,j,material/127.png,j,j,卓越,卓越,friend,friend,friend,2,2,2,material/27.png,,,,,,,,,,,,,,,,,0,59,59,26,,,,,,,,,,,,,,,4,1.05940508842,,,,,,,,,moral_self_bias,01,22,59.9948219954,m,001,2018_Apr_02_0845,
正直,material/instr2_2.png,material/instr2_2.png,material/instr2_2.png,1,1,1,material/9.png,j,material/109.png,j,j,正直,秉直,friend,friend,friend,1,1,1,material/109.png,,,,,,,,,,,,,,,,,0,60,60,8,,,,,,,,,,,,,,,4,0.825659990311,,,,,,,,,moral_self_bias,01,22,59.9948219954,m,001,2018_Apr_02_0845,
厌学,material/instr2_2.png,material/instr2_2.png,material/instr2_2.png,2,2,2,material/182.png,j,material/184.png,j,j,健忘,才尽,friend,friend,friend,2,2,2,material/80.png,,,,,,,,,,,,,,,,,0,61,61,83,,,,,,,,,,,,,,,1,1.00800585747,,,,,,,,,moral_self_bias,01,22,59.9948219954,m,001,2018_Apr_02_0845,
能干,material/instr2_2.png,material/instr2_2.png,material/instr2_2.png,1,1,1,material/20.png,j,material/120.png,j,j,厉害,厉害,friend,friend,friend,2,2,2,material/20.png,,,,,,,,,,,,,,,,,0,62,62,19,,,,,,,,,,,,,,,5,0.925685882568,,,,,,,,,moral_self_bias,01,22,59.9948219954,m,001,2018_Apr_02_0845,
奸诈,material/instr2_1.png,material/instr2_1.png,material/instr2_1.png,2,2,2,material/42.png,f,material/142.png,f,f,奸诈,阴险,self,self,self,1,1,1,material/142.png,,,,,,,,,,,,,,,,,0,63,63,41,,,,,,,,,,,,,,,1,0.825708866119,,,,,,,,,moral_self_bias,01,22,59.9948219954,m,001,2018_Apr_02_0845,
狠毒,material/instr2_2.png,material/instr2_2.png,material/instr2_2.png,2,2,2,material/40.png,j,material/140.png,j,j,狠毒,邪恶,friend,friend,friend,1,1,1,material/140.png,,,,,,,,,,,,,,,,,0,64,64,39,,,,,,,,,,,,,,,1,0.642817974091,,,,,,,,,moral_self_bias,01,22,59.9948219954,m,001,2018_Apr_02_0845,
笃行,material/instr2_1.png,material/instr2_1.png,material/instr2_1.png,1,1,1,material/31.png,f,material/131.png,f,f,笃学,笃学,self,self,self,2,2,2,material/31.png,,,,,,,,,,,,,,,,,0,65,65,30,,,,,,,,,,,,,,,4,1.60795903206,,,,,,,,,moral_self_bias,01,22,59.9948219954,m,001,2018_Apr_02_0845,
爽约,material/instr2_2.png,material/instr2_2.png,material/instr2_2.png,2,2,2,material/44.png,j,material/144.png,j,j,爽约,失信,friend,friend,friend,1,1,1,material/144.png,,,,,,,,,,,,,,,,,0,66,66,43,,,,,,,,,,,,,,,1,0.892560958862,,,,,,,,,moral_self_bias,01,22,59.9948219954,m,001,2018_Apr_02_0845,
无情,material/instr2_1.png,material/instr2_1.png,material/instr2_1.png,2,2,2,material/172.png,f,material/175.png,f,f,无情,浮夸,self,self,self,1,1,1,material/175.png,,,,,,,,,,,,,,,,,0,67,67,74,,,,,,,,,,,,,,,1,0.591952085495,,,,,,,,,moral_self_bias,01,22,59.9948219954,m,001,2018_Apr_02_0845,
刻板,material/instr2_2.png,material/instr2_2.png,material/instr2_2.png,2,2,2,material/47.png,j,material/147.png,j,j,死板,死板,friend,friend,friend,2,2,2,material/47.png,,,,,,,,,,,,,,,,,0,68,68,46,,,,,,,,,,,,,,,1,0.675668954849,,,,,,,,,moral_self_bias,01,22,59.9948219954,m,001,2018_Apr_02_0845,
忠贞,material/instr2_2.png,material/instr2_2.png,material/instr2_2.png,1,1,1,material/14.png,j,material/114.png,j,j,忠贞,爱国,friend,friend,friend,1,1,1,material/114.png,,,,,,,,,,,,,,,,,0,69,69,13,,,,,,,,,,,,,,,5,1.55869293213,,,,,,,,,moral_self_bias,01,22,59.9948219954,m,001,2018_Apr_02_0845,
勇敢,material/instr2_2.png,material/instr2_2.png,material/instr2_2.png,1,1,1,material/165.png,j,material/161.png,j,j,平等,独立,friend,friend,friend,1,1,1,material/61.png,,,,,,,,,,,,,,,,,0,70,70,60,,,,,,,,,,,,,,,5,1.09259080887,,,,,,,,,moral_self_bias,01,22,59.9948219954,m,001,2018_Apr_02_0845,
公平,material/instr2_2.png,material/instr2_2.png,material/instr2_2.png,1,1,1,material/7.png,j,material/107.png,j,j,公平,公正,friend,friend,friend,1,1,1,material/107.png,,,,,,,,,,,,,,,,,0,71,71,6,,,,,,,,,,,,,,,5,0.942816972733,,,,,,,,,moral_self_bias,01,22,59.9948219954,m,001,2018_Apr_02_0845,
爱心,material/instr2_1.png,material/instr2_1.png,material/instr2_1.png,1,1,1,material/2.png,f,material/102.png,f,f,爱心,善心,self,self,self,1,1,1,material/102.png,,,,,,,,,,,,,,,,,0,72,72,1,,,,,,,,,,,,,,,5,0.866616010666,,,,,,,,,moral_self_bias,01,22,59.9948219954,m,001,2018_Apr_02_0845,
厚道,material/instr2_2.png,material/instr2_2.png,material/instr2_2.png,1,1,1,material/6.png,j,material/106.png,j,j,厚道,诚实,friend,friend,friend,1,1,1,material/106.png,,,,,,,,,,,,,,,,,0,73,73,5,,,,,,,,,,,,,,,5,0.775210142136,,,,,,,,,moral_self_bias,01,22,59.9948219954,m,001,2018_Apr_02_0845,
依靠,material/instr2_1.png,material/instr2_1.png,material/instr2_1.png,2,2,2,material/54.png,f,material/154.png,f,f,依赖,依赖,self,self,self,2,2,2,material/54.png,,,,,,,,,,,,,,,,,0,74,74,53,,,,,,,,,,,,,,,5,0.875222921371,,,,,,,,,moral_self_bias,01,22,59.9948219954,m,001,2018_Apr_02_0845,
坚毅,material/instr2_2.png,material/instr2_2.png,material/instr2_2.png,1,1,1,material/10.png,j,material/110.png,j,j,坚毅,顽强,friend,friend,friend,1,1,1,material/110.png,,,,,,,,,,,,,,,,,0,75,75,9,,,,,,,,,,,,,,,5,1.30939912796,,,,,,,,,moral_self_bias,01,22,59.9948219954,m,001,2018_Apr_02_0845,
颖悟,material/instr2_2.png,material/instr2_2.png,material/instr2_2.png,1,1,1,material/167.png,j,material/169.png,j,j,高手,高手,friend,friend,friend,2,2,2,material/167.png,,,,,,,,,,,,,,,,,0,76,76,68,,,,,,,,,,,,,,,1,1.97600698471,,,,,,,,,moral_self_bias,01,22,59.9948219954,m,001,2018_Apr_02_0845,
忠心,material/instr2_1.png,material/instr2_1.png,material/instr2_1.png,1,1,1,material/12.png,f,material/112.png,f,f,忠心,忠诚,self,self,self,1,1,1,material/112.png,,,,,,,,,,,,,,,,,0,77,77,11,,,,,,,,,,,,,,,5,0.992830038071,,,,,,,,,moral_self_bias,01,22,59.9948219954,m,001,2018_Apr_02_0845,
迷糊,material/instr2_2.png,material/instr2_2.png,material/instr2_2.png,2,2,2,material/51.png,j,material/151.png,j,j,糊涂,糊涂,friend,friend,friend,2,2,2,material/51.png,,,,,,,,,,,,,,,,,0,78,78,50,,,,,,,,,,,,,,,1,0.783218860626,,,,,,,,,moral_self_bias,01,22,59.9948219954,m,001,2018_Apr_02_0845,
残虐,material/instr2_1.png,material/instr2_1.png,material/instr2_1.png,2,2,2,material/175.png,f,material/73.png,f,f,残虐,无情,self,self,self,1,1,1,material/73.png,,,,,,,,,,,,,,,,,0,79,79,85,,,,,,,,,,,,,,,1,0.692358970642,,,,,,,,,moral_self_bias,01,22,59.9948219954,m,001,2018_Apr_02_0845,
薄弱,material/instr2_1.png,material/instr2_1.png,material/instr2_1.png,2,2,2,material/82.png,f,material/183.png,f,f,毛糙,窝囊,self,self,self,2,2,2,material/178.png,,,,,,,,,,,,,,,,,0,80,80,82,,,,,,,,,,,,,,,1,0.808145999908,,,,,,,,,moral_self_bias,01,22,59.9948219954,m,001,2018_Apr_02_0845,
笨拙,material/instr2_1.png,material/instr2_1.png,material/instr2_1.png,2,2,2,material/60.png,f,material/160.png,f,f,粗拙,粗拙,self,self,self,2,2,2,material/60.png,,,,,,,,,,,,,,,,,0,81,81,59,,,,,,,,,,,,,,,1,1.02420711517,,,,,,,,,moral_self_bias,01,22,59.9948219954,m,001,2018_Apr_02_0845,
好问,material/instr2_1.png,material/instr2_1.png,material/instr2_1.png,1,1,1,material/29.png,f,material/129.png,f,f,好学,好学,self,self,self,2,2,2,material/29.png,,,,,,,,,,,,,,,,,0,82,82,28,,,,,,,,,,,,,,,4,1.23311805725,,,,,,,,,moral_self_bias,01,22,59.9948219954,m,001,2018_Apr_02_0845,
放纵,material/instr2_1.png,material/instr2_1.png,material/instr2_1.png,2,2,2,material/76.png,f,material/176.png,f,f,放纵,虚伪,self,self,self,1,1,1,material/176.png,,,,,,,,,,,,,,,,,0,83,83,75,,,,,,,,,,,,,,,1,0.842073917389,,,,,,,,,moral_self_bias,01,22,59.9948219954,m,001,2018_Apr_02_0845,
纯洁,material/instr2_2.png,material/instr2_2.png,material/instr2_2.png,1,1,1,material/15.png,j,material/115.png,j,j,纯洁,清白,friend,friend,friend,1,1,1,material/115.png,,,,,,,,,,,,,,,,,0,84,84,14,,,,,,,,,,,,,,,1,1.35810518265,,,,,,,,,moral_self_bias,01,22,59.9948219954,m,001,2018_Apr_02_0845,
撒谎,material/instr2_1.png,material/instr2_1.png,material/instr2_1.png,2,2,2,material/36.png,f,material/136.png,f,f,撒谎,说谎,self,self,self,1,1,1,material/136.png,,,,,,,,,,,,,,,,,0,85,85,35,,,,,,,,,,,,,,,2,1.61652398109,,,,,,,,,moral_self_bias,01,22,59.9948219954,m,001,2018_Apr_02_0845,
小人,material/instr2_2.png,material/instr2_2.png,material/instr2_2.png,2,2,2,material/45.png,j,material/145.png,j,j,小人,下流,friend,friend,friend,1,1,1,material/145.png,,,,,,,,,,,,,,,,,0,86,86,44,,,,,,,,,,,,,,,1,1.100233078,,,,,,,,,moral_self_bias,01,22,59.9948219954,m,001,2018_Apr_02_0845,
宽容,material/instr2_2.png,material/instr2_2.png,material/instr2_2.png,1,1,1,material/163.png,j,material/163.png,j,j,文明,宽容,friend,friend,friend,1,1,1,material/63.png,,,,,,,,,,,,,,,,,0,87,87,62,,,,,,,,,,,,,,,4,0.992088079453,,,,,,,,,moral_self_bias,01,22,59.9948219954,m,001,2018_Apr_02_0845,
,,,,,,,,,,,,,,,,,,,,,5+4= ?,,,,,,,,,,,,,,,,,,,,0,0,0,37,,,,,,,,,,,,,,,,,,,,,moral_self_bias,01,22,59.9948219954,m,001,2018_Apr_02_0845,
,,,,,,,,,,,,,,,,,,,,,1+9= ?,,,,,,,,,,,,,,,,,,,,0,1,1,3,,,,,,,,,,,,,,,,,,,,,moral_self_bias,01,22,59.9948219954,m,001,2018_Apr_02_0845,
,,,,,,,,,,,,,,,,,,,,,1+6= ?,,,,,,,,,,,,,,,,,,,,0,2,2,5,,,,,,,,,,,,,,,,,,,,,moral_self_bias,01,22,59.9948219954,m,001,2018_Apr_02_0845,
,,,,,,,,,,,,,,,,,,,,,1+1= ?,,,,,,,,,,,,,,,,,,,,0,3,3,0,,,,,,,,,,,,,,,,,,,,,moral_self_bias,01,22,59.9948219954,m,001,2018_Apr_02_0845,
,,,,,,,,,,,,,,,,,,,,,10-5=？,,,,,,,,,,,,,,,,,,,,0,4,4,67,,,,,,,,,,,,,,,,,,,,,moral_self_bias,01,22,59.9948219954,m,001,2018_Apr_02_0845,
,,,,,,,,,,,,,,,,,,,,,8/4= ?,,,,,,,,,,,,,,,,,,,,0,5,5,57,,,,,,,,,,,,,,,,,,,,,moral_self_bias,01,22,59.9948219954,m,001,2018_Apr_02_0845,
,,,,,,,,,,,,,,,,,,,,,3+1= ?,,,,,,,,,,,,,,,,,,,,0,6,6,16,,,,,,,,,,,,,,,,,,,,,moral_self_bias,01,22,59.9948219954,m,001,2018_Apr_02_0845,
,,,,,,,,,,,,,,,,,,,,,30-29= ?,,,,,,,,,,,,,,,,,,,,0,7,7,73,,,,,,,,,,,,,,,,,,,,,moral_self_bias,01,22,59.9948219954,m,001,2018_Apr_02_0845,
,,,,,,,,,,,,,,,,,,,,,11-8= ?,,,,,,,,,,,,,,,,,,,,0,8,8,106,,,,,,,,,,,,,,,,,,,,,moral_self_bias,01,22,59.9948219954,m,001,2018_Apr_02_0845,
,,,,,,,,,,,,,,,,,,,,,4+5= ?,,,,,,,,,,,,,,,,,,,,0,9,9,29,,,,,,,,,,,,,,,,,,,,,moral_self_bias,01,22,59.9948219954,m,001,2018_Apr_02_0845,
,,,,,,,,,,,,,,,,,,,,,2*3= ?,,,,,,,,,,,,,,,,,,,,0,10,10,108,,,,,,,,,,,,,,,,,,,,,moral_self_bias,01,22,59.9948219954,m,001,2018_Apr_02_0845,
,,,,,,,,,,,,,,,,,,,,,9+0= ?,,,,,,,,,,,,,,,,,,,,0,11,11,118,,,,,,,,,,,,,,,,,,,,,moral_self_bias,01,22,59.9948219954,m,001,2018_Apr_02_0845,
,,,,,,,,,,,,,,,,,,,,,6+3= ?,,,,,,,,,,,,,,,,,,,,0,12,12,45,,,,,,,,,,,,,,,,,,,,,moral_self_bias,01,22,59.9948219954,m,001,2018_Apr_02_0845,
,,,,,,,,,,,,,,,,,,,,,16-11=？,,,,,,,,,,,,,,,,,,,,0,13,13,62,,,,,,,,,,,,,,,,,,,,,moral_self_bias,01,22,59.9948219954,m,001,2018_Apr_02_0845,
,,,,,,,,,,,,,,,,,,,,,13-9= ?,,,,,,,,,,,,,,,,,,,,0,14,14,92,,,,,,,,,,,,,,,,,,,,,moral_self_bias,01,22,59.9948219954,m,001,2018_Apr_02_0845,
,,,,,,,,,,,,,,,,,,,,,7+2= ?,,,,,,,,,,,,,,,,,,,,0,15,15,47,,,,,,,,,,,,,,,,,,,,,moral_self_bias,01,22,59.9948219954,m,001,2018_Apr_02_0845,
,,,,,,,,,,,,,,,,,,,,,7*0= ?,,,,,,,,,,,,,,,,,,,,0,16,16,88,,,,,,,,,,,,,,,,,,,,,moral_self_bias,01,22,59.9948219954,m,001,2018_Apr_02_0845,
,,,,,,,,,,,,,,,,,,,,,18/9= ?,,,,,,,,,,,,,,,,,,,,0,17,17,96,,,,,,,,,,,,,,,,,,,,,moral_self_bias,01,22,59.9948219954,m,001,2018_Apr_02_0845,
,,,,,,,,,,,,,,,,,,,,,3+0= ?,,,,,,,,,,,,,,,,,,,,0,18,18,105,,,,,,,,,,,,,,,,,,,,,moral_self_bias,01,22,59.9948219954,m,001,2018_Apr_02_0845,
,,,,,,,,,,,,,,,,,,,,,5+2= ?,,,,,,,,,,,,,,,,,,,,0,19,19,35,,,,,,,,,,,,,,,,,,,,,moral_self_bias,01,22,59.9948219954,m,001,2018_Apr_02_0845,
,,,,,,,,,,,,,,,,,,,,,3+3= ?,,,,,,,,,,,,,,,,,,,,0,20,20,18,,,,,,,,,,,,,,,,,,,,,moral_self_bias,01,22,59.9948219954,m,001,2018_Apr_02_0845,
,,,,,,,,,,,,,,,,,,,,,3+4= ?,,,,,,,,,,,,,,,,,,,,0,21,21,19,,,,,,,,,,,,,,,,,,,,,moral_self_bias,01,22,59.9948219954,m,001,2018_Apr_02_0845,
,,,,,,,,,,,,,,,,,,,,,9-7= ?,,,,,,,,,,,,,,,,,,,,0,22,22,30,,,,,,,,,,,,,,,,,,,,,moral_self_bias,01,22,59.9948219954,m,001,2018_Apr_02_0845,
,,,,,,,,,,,,,,,,,,,,,8-2= ?,,,,,,,,,,,,,,,,,,,,0,23,23,38,,,,,,,,,,,,,,,,,,,,,moral_self_bias,01,22,59.9948219954,m,001,2018_Apr_02_0845,
,,,,,,,,,,,,,,,,,,,,,4*1= ?,,,,,,,,,,,,,,,,,,,,0,24,24,85,,,,,,,,,,,,,,,,,,,,,moral_self_bias,01,22,59.9948219954,m,001,2018_Apr_02_0845,
,,,,,,,,,,,,,,,,,,,,,22/11= ?,,,,,,,,,,,,,,,,,,,,0,25,25,71,,,,,,,,,,,,,,,,,,,,,moral_self_bias,01,22,59.9948219954,m,001,2018_Apr_02_0845,
,,,,,,,,,,,,,,,,,,,,,4/4= ?,,,,,,,,,,,,,,,,,,,,0,26,26,55,,,,,,,,,,,,,,,,,,,,,moral_self_bias,01,22,59.9948219954,m,001,2018_Apr_02_0845,
,,,,,,,,,,,,,,,,,,,,,3^1= ?,,,,,,,,,,,,,,,,,,,,0,27,27,101,,,,,,,,,,,,,,,,,,,,,moral_self_bias,01,22,59.9948219954,m,001,2018_Apr_02_0845,
,,,,,,,,,,,,,,,,,,,,,81/9= ?,,,,,,,,,,,,,,,,,,,,0,28,28,75,,,,,,,,,,,,,,,,,,,,,moral_self_bias,01,22,59.9948219954,m,001,2018_Apr_02_0845,
,,,,,,,,,,,,,,,,,,,,,3+6= ?,,,,,,,,,,,,,,,,,,,,0,29,29,21,,,,,,,,,,,,,,,,,,,,,moral_self_bias,01,22,59.9948219954,m,001,2018_Apr_02_0845,
,,,,,,,,,,,,,,,,,,,,,3*1= ?,,,,,,,,,,,,,,,,,,,,0,30,30,83,,,,,,,,,,,,,,,,,,,,,moral_self_bias,01,22,59.9948219954,m,001,2018_Apr_02_0845,
,,,,,,,,,,,,,,,,,,,,,8-3= ?,,,,,,,,,,,,,,,,,,,,0,31,31,39,,,,,,,,,,,,,,,,,,,,,moral_self_bias,01,22,59.9948219954,m,001,2018_Apr_02_0845,
,,,,,,,,,,,,,,,,,,,,,7+1= ?,,,,,,,,,,,,,,,,,,,,0,32,32,46,,,,,,,,,,,,,,,,,,,,,moral_self_bias,01,22,59.9948219954,m,001,2018_Apr_02_0845,
,,,,,,,,,,,,,,,,,,,,,3+2= ?,,,,,,,,,,,,,,,,,,,,0,33,33,17,,,,,,,,,,,,,,,,,,,,,moral_self_bias,01,22,59.9948219954,m,001,2018_Apr_02_0845,
,,,,,,,,,,,,,,,,,,,,,11-3=？,,,,,,,,,,,,,,,,,,,,0,34,34,68,,,,,,,,,,,,,,,,,,,,,moral_self_bias,01,22,59.9948219954,m,001,2018_Apr_02_0845,
,,,,,,,,,,,,,,,,,,,,,11-5= ?,,,,,,,,,,,,,,,,,,,,0,35,35,107,,,,,,,,,,,,,,,,,,,,,moral_self_bias,01,22,59.9948219954,m,001,2018_Apr_02_0845,
,,,,,,,,,,,,,,,,,,,,,10-9= ?,,,,,,,,,,,,,,,,,,,,0,36,36,112,,,,,,,,,,,,,,,,,,,,,moral_self_bias,01,22,59.9948219954,m,001,2018_Apr_02_0845,
,,,,,,,,,,,,,,,,,,,,,8-5= ?,,,,,,,,,,,,,,,,,,,,0,37,37,41,,,,,,,,,,,,,,,,,,,,,moral_self_bias,01,22,59.9948219954,m,001,2018_Apr_02_0845,
,,,,,,,,,,,,,,,,,,,,,5+3= ?,,,,,,,,,,,,,,,,,,,,0,38,38,36,,,,,,,,,,,,,,,,,,,,,moral_self_bias,01,22,59.9948219954,m,001,2018_Apr_02_0845,
,,,,,,,,,,,,,,,,,,,,,56/7= ?,,,,,,,,,,,,,,,,,,,,0,39,39,77,,,,,,,,,,,,,,,,,,,,,moral_self_bias,01,22,59.9948219954,m,001,2018_Apr_02_0845,
,,,,,,,,,,,,,,,,,,,,,8-4= ?,,,,,,,,,,,,,,,,,,,,0,40,40,40,,,,,,,,,,,,,,,,,,,,,moral_self_bias,01,22,59.9948219954,m,001,2018_Apr_02_0845,
,,,,,,,,,,,,,,,,,,,,,3^2= ?,,,,,,,,,,,,,,,,,,,,0,41,41,50,,,,,,,,,,,,,,,,,,,,,moral_self_bias,01,22,59.9948219954,m,001,2018_Apr_02_0845,
,,,,,,,,,,,,,,,,,,,,,5/1= ?,,,,,,,,,,,,,,,,,,,,0,42,42,59,,,,,,,,,,,,,,,,,,,,,moral_self_bias,01,22,59.9948219954,m,001,2018_Apr_02_0845,
,,,,,,,,,,,,,,,,,,,,,6*0= ?,,,,,,,,,,,,,,,,,,,,0,43,43,87,,,,,,,,,,,,,,,,,,,,,moral_self_bias,01,22,59.9948219954,m,001,2018_Apr_02_0845,
,,,,,,,,,,,,,,,,,,,,,12/4= ?,,,,,,,,,,,,,,,,,,,,0,44,44,89,,,,,,,,,,,,,,,,,,,,,moral_self_bias,01,22,59.9948219954,m,001,2018_Apr_02_0845,
,,,,,,,,,,,,,,,,,,,,,22-22= ?,,,,,,,,,,,,,,,,,,,,0,45,45,93,,,,,,,,,,,,,,,,,,,,,moral_self_bias,01,22,59.9948219954,m,001,2018_Apr_02_0845,
,,,,,,,,,,,,,,,,,,,,,8-1= ?,,,,,,,,,,,,,,,,,,,,0,46,46,33,,,,,,,,,,,,,,,,,,,,,moral_self_bias,01,22,59.9948219954,m,001,2018_Apr_02_0845,
,,,,,,,,,,,,,,,,,,,,,5+1= ?,,,,,,,,,,,,,,,,,,,,0,47,47,34,,,,,,,,,,,,,,,,,,,,,moral_self_bias,01,22,59.9948219954,m,001,2018_Apr_02_0845,
,,,,,,,,,,,,,,,,,,,,,12-5=？,,,,,,,,,,,,,,,,,,,,0,48,48,65,,,,,,,,,,,,,,,,,,,,,moral_self_bias,01,22,59.9948219954,m,001,2018_Apr_02_0845,
,,,,,,,,,,,,,,,,,,,,,5*0= ?,,,,,,,,,,,,,,,,,,,,0,49,49,86,,,,,,,,,,,,,,,,,,,,,moral_self_bias,01,22,59.9948219954,m,001,2018_Apr_02_0845,
,,,,,,,,,,,,,,,,,,,,,13-5= ?,,,,,,,,,,,,,,,,,,,,0,50,50,98,,,,,,,,,,,,,,,,,,,,,moral_self_bias,01,22,59.9948219954,m,001,2018_Apr_02_0845,
,,,,,,,,,,,,,,,,,,,,,1+7= ?,,,,,,,,,,,,,,,,,,,,0,51,51,4,,,,,,,,,,,,,,,,,,,,,moral_self_bias,01,22,59.9948219954,m,001,2018_Apr_02_0845,
,,,,,,,,,,,,,,,,,,,,,9-8= ?,,,,,,,,,,,,,,,,,,,,0,52,52,31,,,,,,,,,,,,,,,,,,,,,moral_self_bias,01,22,59.9948219954,m,001,2018_Apr_02_0845,
,,,,,,,,,,,,,,,,,,,,,2+5= ?,,,,,,,,,,,,,,,,,,,,0,53,53,11,,,,,,,,,,,,,,,,,,,,,moral_self_bias,01,22,59.9948219954,m,001,2018_Apr_02_0845,
,,,,,,,,,,,,,,,,,,,,,9-2= ?,,,,,,,,,,,,,,,,,,,,0,54,54,14,,,,,,,,,,,,,,,,,,,,,moral_self_bias,01,22,59.9948219954,m,001,2018_Apr_02_0845,
,,,,,,,,,,,,,,,,,,,,,2+3= ?,,,,,,,,,,,,,,,,,,,,0,55,55,9,,,,,,,,,,,,,,,,,,,,,moral_self_bias,01,22,59.9948219954,m,001,2018_Apr_02_0845,
,,,,,,,,,,,,,,,,,,,,,4+3= ?,,,,,,,,,,,,,,,,,,,,0,56,56,27,,,,,,,,,,,,,,,,,,,,,moral_self_bias,01,22,59.9948219954,m,001,2018_Apr_02_0845,
,,,,,,,,,,,,,,,,,,,,,3*2= ?,,,,,,,,,,,,,,,,,,,,0,57,57,53,,,,,,,,,,,,,,,,,,,,,moral_self_bias,01,22,59.9948219954,m,001,2018_Apr_02_0845,
,,,,,,,,,,,,,,,,,,,,,2+2= ?,,,,,,,,,,,,,,,,,,,,0,58,58,8,,,,,,,,,,,,,,,,,,,,,moral_self_bias,01,22,59.9948219954,m,001,2018_Apr_02_0845,
,,,,,,,,,,,,,,,,,,,,,12-12= ?,,,,,,,,,,,,,,,,,,,,0,59,59,99,,,,,,,,,,,,,,,,,,,,,moral_self_bias,01,22,59.9948219954,m,001,2018_Apr_02_0845,
,,,,,,,,,,,,,,,,,,,,,9-4= ?,,,,,,,,,,,,,,,,,,,,0,60,60,22,,,,,,,,,,,,,,,,,,,,,moral_self_bias,01,22,59.9948219954,m,001,2018_Apr_02_0845,
,,,,,,,,,,,,,,,,,,,,,9-6= ?,,,,,,,,,,,,,,,,,,,,0,61,61,24,,,,,,,,,,,,,,,,,,,,,moral_self_bias,01,22,59.9948219954,m,001,2018_Apr_02_0845,
,,,,,,,,,,,,,,,,,,,,,9/3= ?,,,,,,,,,,,,,,,,,,,,0,62,62,56,,,,,,,,,,,,,,,,,,,,,moral_self_bias,01,22,59.9948219954,m,001,2018_Apr_02_0845,
,,,,,,,,,,,,,,,,,,,,,7*1= ?,,,,,,,,,,,,,,,,,,,,0,63,63,113,,,,,,,,,,,,,,,,,,,,,moral_self_bias,01,22,59.9948219954,m,001,2018_Apr_02_0845,
,,,,,,,,,,,,,,,,,,,,,4^1= ?,,,,,,,,,,,,,,,,,,,,0,64,64,102,,,,,,,,,,,,,,,,,,,,,moral_self_bias,01,22,59.9948219954,m,001,2018_Apr_02_0845,
,,,,,,,,,,,,,,,,,,,,,3*3= ?,,,,,,,,,,,,,,,,,,,,0,65,65,54,,,,,,,,,,,,,,,,,,,,,moral_self_bias,01,22,59.9948219954,m,001,2018_Apr_02_0845,
,,,,,,,,,,,,,,,,,,,,,9-3= ?,,,,,,,,,,,,,,,,,,,,0,66,66,15,,,,,,,,,,,,,,,,,,,,,moral_self_bias,01,22,59.9948219954,m,001,2018_Apr_02_0845,
,,,,,,,,,,,,,,,,,,,,,2*4= ?,,,,,,,,,,,,,,,,,,,,0,67,67,84,,,,,,,,,,,,,,,,,,,,,moral_self_bias,01,22,59.9948219954,m,001,2018_Apr_02_0845,
,,,,,,,,,,,,,,,,,,,,,72/9= ?,,,,,,,,,,,,,,,,,,,,0,68,68,76,,,,,,,,,,,,,,,,,,,,,moral_self_bias,01,22,59.9948219954,m,001,2018_Apr_02_0845,
,,,,,,,,,,,,,,,,,,,,,1+8= ?,,,,,,,,,,,,,,,,,,,,0,69,69,6,,,,,,,,,,,,,,,,,,,,,moral_self_bias,01,22,59.9948219954,m,001,2018_Apr_02_0845,
,,,,,,,,,,,,,,,,,,,,,13-6=？,,,,,,,,,,,,,,,,,,,,0,70,70,64,,,,,,,,,,,,,,,,,,,,,moral_self_bias,01,22,59.9948219954,m,001,2018_Apr_02_0845,
,,,,,,,,,,,,,,,,,,,,,11-4=？,,,,,,,,,,,,,,,,,,,,0,71,71,66,,,,,,,,,,,,,,,,,,,,,moral_self_bias,01,22,59.9948219954,m,001,2018_Apr_02_0845,
,,,,,,,,,,,,,,,,,,,,,9-9= ?,,,,,,,,,,,,,,,,,,,,0,72,72,32,,,,,,,,,,,,,,,,,,,,,moral_self_bias,01,22,59.9948219954,m,001,2018_Apr_02_0845,
,,,,,,,,,,,,,,,,,,,,,2^2= ?,,,,,,,,,,,,,,,,,,,,0,73,73,49,,,,,,,,,,,,,,,,,,,,,moral_self_bias,01,22,59.9948219954,m,001,2018_Apr_02_0845,
,,,,,,,,,,,,,,,,,,,,,20/5=？,,,,,,,,,,,,,,,,,,,,0,74,74,69,,,,,,,,,,,,,,,,,,,,,moral_self_bias,01,22,59.9948219954,m,001,2018_Apr_02_0845,
,,,,,,,,,,,,,,,,,,,,,2+1= ?,,,,,,,,,,,,,,,,,,,,0,75,75,7,,,,,,,,,,,,,,,,,,,,,moral_self_bias,01,22,59.9948219954,m,001,2018_Apr_02_0845,
,,,,,,,,,,,,,,,,,,,,,4+2= ?,,,,,,,,,,,,,,,,,,,,0,76,76,26,,,,,,,,,,,,,,,,,,,,,moral_self_bias,01,22,59.9948219954,m,001,2018_Apr_02_0845,
,,,,,,,,,,,,,,,,,,,,,4*2= ?,,,,,,,,,,,,,,,,,,,,0,77,77,82,,,,,,,,,,,,,,,,,,,,,moral_self_bias,01,22,59.9948219954,m,001,2018_Apr_02_0845,
,,,,,,,,,,,,,,,,,,,,,29-27= ?,,,,,,,,,,,,,,,,,,,,0,78,78,72,,,,,,,,,,,,,,,,,,,,,moral_self_bias,01,22,59.9948219954,m,001,2018_Apr_02_0845,
,,,,,,,,,,,,,,,,,,,,,18/2= ?,,,,,,,,,,,,,,,,,,,,0,79,79,97,,,,,,,,,,,,,,,,,,,,,moral_self_bias,01,22,59.9948219954,m,001,2018_Apr_02_0845,
,,,,,,,,,,,,,,,,,,,,,2+4= ?,,,,,,,,,,,,,,,,,,,,0,80,80,10,,,,,,,,,,,,,,,,,,,,,moral_self_bias,01,22,59.9948219954,m,001,2018_Apr_02_0845,
,,,,,,,,,,,,,,,,,,,,,8+1= ?,,,,,,,,,,,,,,,,,,,,0,81,81,48,,,,,,,,,,,,,,,,,,,,,moral_self_bias,01,22,59.9948219954,m,001,2018_Apr_02_0845,
,,,,,,,,,,,,,,,,,,,,,4+1= ?,,,,,,,,,,,,,,,,,,,,0,82,82,25,,,,,,,,,,,,,,,,,,,,,moral_self_bias,01,22,59.9948219954,m,001,2018_Apr_02_0845,
,,,,,,,,,,,,,,,,,,,,,12/6= ?,,,,,,,,,,,,,,,,,,,,0,83,83,90,,,,,,,,,,,,,,,,,,,,,moral_self_bias,01,22,59.9948219954,m,001,2018_Apr_02_0845,
,,,,,,,,,,,,,,,,,,,,,8*1= ?,,,,,,,,,,,,,,,,,,,,0,84,84,111,,,,,,,,,,,,,,,,,,,,,moral_self_bias,01,22,59.9948219954,m,001,2018_Apr_02_0845,
,,,,,,,,,,,,,,,,,,,,,1^2= ?,,,,,,,,,,,,,,,,,,,,0,85,85,51,,,,,,,,,,,,,,,,,,,,,moral_self_bias,01,22,59.9948219954,m,001,2018_Apr_02_0845,
,,,,,,,,,,,,,,,,,,,,,17-12= ? ,,,,,,,,,,,,,,,,,,,,0,86,86,104,,,,,,,,,,,,,,,,,,,,,moral_self_bias,01,22,59.9948219954,m,001,2018_Apr_02_0845,
,,,,,,,,,,,,,,,,,,,,,12/12= ?,,,,,,,,,,,,,,,,,,,,0,87,87,91,,,,,,,,,,,,,,,,,,,,,moral_self_bias,01,22,59.9948219954,m,001,2018_Apr_02_0845,
,,,,,,,,,,,,,,,,,,,,,11-11= ?,,,,,,,,,,,,,,,,,,,,0,88,88,119,,,,,,,,,,,,,,,,,,,,,moral_self_bias,01,22,59.9948219954,m,001,2018_Apr_02_0845,
,,,,,,,,,,,,,,,,,,,,,6^0= ?,,,,,,,,,,,,,,,,,,,,0,89,89,114,,,,,,,,,,,,,,,,,,,,,moral_self_bias,01,22,59.9948219954,m,001,2018_Apr_02_0845,
,,,,,,,,,,,,,,,,,,,,,2+6= ?,,,,,,,,,,,,,,,,,,,,0,90,90,12,,,,,,,,,,,,,,,,,,,,,moral_self_bias,01,22,59.9948219954,m,001,2018_Apr_02_0845,
,,,,,,,,,,,,,,,,,,,,,14-9=？,,,,,,,,,,,,,,,,,,,,0,91,91,63,,,,,,,,,,,,,,,,,,,,,moral_self_bias,01,22,59.9948219954,m,001,2018_Apr_02_0845,
,,,,,,,,,,,,,,,,,,,,,6^0= ?,,,,,,,,,,,,,,,,,,,,0,92,92,103,,,,,,,,,,,,,,,,,,,,,moral_self_bias,01,22,59.9948219954,m,001,2018_Apr_02_0845,
,,,,,,,,,,,,,,,,,,,,,5-3= ?,,,,,,,,,,,,,,,,,,,,0,93,93,116,,,,,,,,,,,,,,,,,,,,,moral_self_bias,01,22,59.9948219954,m,001,2018_Apr_02_0845,
,,,,,,,,,,,,,,,,,,,,,43-34= ?,,,,,,,,,,,,,,,,,,,,0,94,94,79,,,,,,,,,,,,,,,,,,,,,moral_self_bias,01,22,59.9948219954,m,001,2018_Apr_02_0845,
,,,,,,,,,,,,,,,,,,,,,6+1= ?,,,,,,,,,,,,,,,,,,,,0,95,95,43,,,,,,,,,,,,,,,,,,,,,moral_self_bias,01,22,59.9948219954,m,001,2018_Apr_02_0845,
,,,,,,,,,,,,,,,,,,,,,21/3= ? ,,,,,,,,,,,,,,,,,,,,0,96,96,95,,,,,,,,,,,,,,,,,,,,,moral_self_bias,01,22,59.9948219954,m,001,2018_Apr_02_0845,
,,,,,,,,,,,,,,,,,,,,,6/2= ?,,,,,,,,,,,,,,,,,,,,0,97,97,58,,,,,,,,,,,,,,,,,,,,,moral_self_bias,01,22,59.9948219954,m,001,2018_Apr_02_0845,
,,,,,,,,,,,,,,,,,,,,,4+4= ?,,,,,,,,,,,,,,,,,,,,0,98,98,28,,,,,,,,,,,,,,,,,,,,,moral_self_bias,01,22,59.9948219954,m,001,2018_Apr_02_0845,
,,,,,,,,,,,,,,,,,,,,,1-1= ?,,,,,,,,,,,,,,,,,,,,0,99,99,52,,,,,,,,,,,,,,,,,,,,,moral_self_bias,01,22,59.9948219954,m,001,2018_Apr_02_0845,
,,,,,,,,,,,,,,,,,,,,,1*8= ?,,,,,,,,,,,,,,,,,,,,0,100,100,110,,,,,,,,,,,,,,,,,,,,,moral_self_bias,01,22,59.9948219954,m,001,2018_Apr_02_0845,
,,,,,,,,,,,,,,,,,,,,,32-23=？,,,,,,,,,,,,,,,,,,,,0,101,101,60,,,,,,,,,,,,,,,,,,,,,moral_self_bias,01,22,59.9948219954,m,001,2018_Apr_02_0845,
,,,,,,,,,,,,,,,,,,,,,23^0= ?,,,,,,,,,,,,,,,,,,,,0,102,102,94,,,,,,,,,,,,,,,,,,,,,moral_self_bias,01,22,59.9948219954,m,001,2018_Apr_02_0845,
,,,,,,,,,,,,,,,,,,,,,49/7 = ?,,,,,,,,,,,,,,,,,,,,0,103,103,78,,,,,,,,,,,,,,,,,,,,,moral_self_bias,01,22,59.9948219954,m,001,2018_Apr_02_0845,
,,,,,,,,,,,,,,,,,,,,,2+7= ?,,,,,,,,,,,,,,,,,,,,0,104,104,13,,,,,,,,,,,,,,,,,,,,,moral_self_bias,01,22,59.9948219954,m,001,2018_Apr_02_0845,
,,,,,,,,,,,,,,,,,,,,,90/45= ?,,,,,,,,,,,,,,,,,,,,0,105,105,74,,,,,,,,,,,,,,,,,,,,,moral_self_bias,01,22,59.9948219954,m,001,2018_Apr_02_0845,
,,,,,,,,,,,,,,,,,,,,,21/7= ?,,,,,,,,,,,,,,,,,,,,0,106,106,70,,,,,,,,,,,,,,,,,,,,,moral_self_bias,01,22,59.9948219954,m,001,2018_Apr_02_0845,
,,,,,,,,,,,,,,,,,,,,,9-1=?,,,,,,,,,,,,,,,,,,,,0,107,107,2,,,,,,,,,,,,,,,,,,,,,moral_self_bias,01,22,59.9948219954,m,001,2018_Apr_02_0845,
,,,,,,,,,,,,,,,,,,,,,8-6= ?,,,,,,,,,,,,,,,,,,,,0,108,108,42,,,,,,,,,,,,,,,,,,,,,moral_self_bias,01,22,59.9948219954,m,001,2018_Apr_02_0845,
,,,,,,,,,,,,,,,,,,,,,1+2= ?,,,,,,,,,,,,,,,,,,,,0,109,109,1,,,,,,,,,,,,,,,,,,,,,moral_self_bias,01,22,59.9948219954,m,001,2018_Apr_02_0845,
,,,,,,,,,,,,,,,,,,,,,50-42= ?,,,,,,,,,,,,,,,,,,,,0,110,110,81,,,,,,,,,,,,,,,,,,,,,moral_self_bias,01,22,59.9948219954,m,001,2018_Apr_02_0845,
,,,,,,,,,,,,,,,,,,,,,15-10=？,,,,,,,,,,,,,,,,,,,,0,111,111,61,,,,,,,,,,,,,,,,,,,,,moral_self_bias,01,22,59.9948219954,m,001,2018_Apr_02_0845,
,,,,,,,,,,,,,,,,,,,,,19-17= ?,,,,,,,,,,,,,,,,,,,,0,112,112,100,,,,,,,,,,,,,,,,,,,,,moral_self_bias,01,22,59.9948219954,m,001,2018_Apr_02_0845,
,,,,,,,,,,,,,,,,,,,,,3+5= ?,,,,,,,,,,,,,,,,,,,,0,113,113,20,,,,,,,,,,,,,,,,,,,,,moral_self_bias,01,22,59.9948219954,m,001,2018_Apr_02_0845,
,,,,,,,,,,,,,,,,,,,,,7-0= ?,,,,,,,,,,,,,,,,,,,,0,114,114,117,,,,,,,,,,,,,,,,,,,,,moral_self_bias,01,22,59.9948219954,m,001,2018_Apr_02_0845,
,,,,,,,,,,,,,,,,,,,,,12-7= ?,,,,,,,,,,,,,,,,,,,,0,115,115,115,,,,,,,,,,,,,,,,,,,,,moral_self_bias,01,22,59.9948219954,m,001,2018_Apr_02_0845,
,,,,,,,,,,,,,,,,,,,,,6+2= ?,,,,,,,,,,,,,,,,,,,,0,116,116,44,,,,,,,,,,,,,,,,,,,,,moral_self_bias,01,22,59.9948219954,m,001,2018_Apr_02_0845,
,,,,,,,,,,,,,,,,,,,,,9-5= ?,,,,,,,,,,,,,,,,,,,,0,117,117,23,,,,,,,,,,,,,,,,,,,,,moral_self_bias,01,22,59.9948219954,m,001,2018_Apr_02_0845,
,,,,,,,,,,,,,,,,,,,,,1*9= ?,,,,,,,,,,,,,,,,,,,,0,118,118,109,,,,,,,,,,,,,,,,,,,,,moral_self_bias,01,22,59.9948219954,m,001,2018_Apr_02_0845,
,,,,,,,,,,,,,,,,,,,,,32-32= ?,,,,,,,,,,,,,,,,,,,,0,119,119,80,,,,,,,,,,,,,,,,,,,,,moral_self_bias,01,22,59.9948219954,m,001,2018_Apr_02_0845,
,,,,,,,,,,,,,,,,,,,,,,,,,,,,,,,,,,,,,,,,,,,,,,,,,,,,,,,,,1,2.41758608818,,,,,,,moral_self_bias,01,22,59.9948219954,m,001,2018_Apr_02_0845,
,,,,,,,,,,,,,,,,,,,,,,material/112.png,1,忠诚,material/12.png,1,material/12.png,忠诚,1,j,j,j,1,1,1,忠心,,,,,,,,,0,0,0,11,0,0,0,0,,,,,,,f,0,1.82551884651,j,1,5.2748260498,moral_self_bias,01,22,59.9948219954,m,001,2018_Apr_02_0845,
,,,,,,,,,,,,,,,,,,,,,,material/112.png,1,忠诚,material/12.png,1,material/12.png,忠诚,1,j,j,j,1,1,1,忠心,,,,,,,,,0,0,0,11,,,,,,,,,,,,,,,,,moral_self_bias,01,22,59.9948219954,m,001,2018_Apr_02_0845,
,,,,,,,,,,,,,,,,,,,,,,material/66.png,1,独立,material/66.png,1,material/165.png,正义,1,f,f,f,1,1,1,正义,,,,,,,,,0,1,1,164,0,0,0,0,,,,,,,f,1,6.69228792191,f,0,0.724416971207,moral_self_bias,01,22,59.9948219954,m,001,2018_Apr_02_0845,
,,,,,,,,,,,,,,,,,,,,,,material/66.png,1,独立,material/66.png,1,material/165.png,正义,1,f,f,f,1,1,1,正义,,,,,,,,,0,1,1,164,,,,,,,,,,,,,,,,,moral_self_bias,01,22,59.9948219954,m,001,2018_Apr_02_0845,
,,,,,,,,,,,,,,,,,,,,,,material/154.png,2,依靠,material/54.png,2,material/154.png,依赖,2,j,j,j,2,2,2,依靠,,,,,,,,,0,2,2,53,0,0,0,0,,,,,,,f,0,1.05028295517,f,0,0.307873010635,moral_self_bias,01,22,59.9948219954,m,001,2018_Apr_02_0845,
,,,,,,,,,,,,,,,,,,,,,,material/154.png,2,依靠,material/54.png,2,material/154.png,依赖,2,j,j,j,2,2,2,依靠,,,,,,,,,0,2,2,53,,,,,,,,,,,,,,,,,moral_self_bias,01,22,59.9948219954,m,001,2018_Apr_02_0845,
,,,,,,,,,,,,,,,,,,,,,,material/118.png,1,机敏,material/18.png,1,material/118.png,敏锐,1,j,j,j,2,2,2,机敏,,,,,,,,,0,3,3,17,,,,,,,,,,,j,1,1.54994606972,,,,moral_self_bias,01,22,59.9948219954,m,001,2018_Apr_02_0845,
,,,,,,,,,,,,,,,,,,,,,,material/79.png,2,薄弱,material/81.png,2,material/183.png,无助,2,j,j,j,2,2,2,颓废,,,,,,,,,0,4,4,77,,,,,,,,,,,j,1,0.924744129181,,,,moral_self_bias,01,22,59.9948219954,m,001,2018_Apr_02_0845,
,,,,,,,,,,,,,,,,,,,,,,material/81.png,2,呆笨,material/179.png,2,material/83.png,差生,2,f,f,f,2,2,2,无助,,,,,,,,,0,5,5,158,0,0,0,0,,,,,,,f,1,1.42615509033,j,1,0.241970062256,moral_self_bias,01,22,59.9948219954,m,001,2018_Apr_02_0845,
,,,,,,,,,,,,,,,,,,,,,,material/81.png,2,呆笨,material/179.png,2,material/83.png,差生,2,f,f,f,2,2,2,无助,,,,,,,,,0,5,5,158,,,,,,,,,,,,,,,,,moral_self_bias,01,22,59.9948219954,m,001,2018_Apr_02_0845,
,,,,,,,,,,,,,,,,,,,,,,material/4.png,1,友善,material/104.png,1,material/104.png,友善,1,f,f,f,1,1,1,友爱,,,,,,,,,0,6,6,83,0,0,0,0,,,,,,,f,1,2.84109401703,j,1,1.02579116821,moral_self_bias,01,22,59.9948219954,m,001,2018_Apr_02_0845,
,,,,,,,,,,,,,,,,,,,,,,material/4.png,1,友善,material/104.png,1,material/104.png,友善,1,f,f,f,1,1,1,友爱,,,,,,,,,0,6,6,83,,,,,,,,,,,,,,,,,moral_self_bias,01,22,59.9948219954,m,001,2018_Apr_02_0845,
,,,,,,,,,,,,,,,,,,,,,,material/125.png,1,果敢,material/25.png,1,material/125.png,果断,1,j,j,j,2,2,2,果敢,,,,,,,,,0,7,7,24,,,,,,,,,,,j,1,3.07536005974,,,,moral_self_bias,01,22,59.9948219954,m,001,2018_Apr_02_0845,
,,,,,,,,,,,,,,,,,,,,,,material/106.png,1,诚实,material/6.png,1,material/6.png,诚实,1,j,j,j,1,1,1,厚道,,,,,,,,,0,8,8,5,0,0,0,0,,,,,,,f,0,1.8070909977,f,0,0.307757854462,moral_self_bias,01,22,59.9948219954,m,001,2018_Apr_02_0845,
,,,,,,,,,,,,,,,,,,,,,,material/106.png,1,诚实,material/6.png,1,material/6.png,诚实,1,j,j,j,1,1,1,厚道,,,,,,,,,0,8,8,5,,,,,,,,,,,,,,,,,moral_self_bias,01,22,59.9948219954,m,001,2018_Apr_02_0845,
,,,,,,,,,,,,,,,,,,,,,,material/47.png,2,死板,material/147.png,2,material/47.png,刻板,2,f,f,f,2,2,2,死板,,,,,,,,,0,9,9,126,0,0,0,0,,,,,,,f,1,1.47474718094,j,1,0.192183971405,moral_self_bias,01,22,59.9948219954,m,001,2018_Apr_02_0845,
,,,,,,,,,,,,,,,,,,,,,,material/47.png,2,死板,material/147.png,2,material/47.png,刻板,2,f,f,f,2,2,2,死板,,,,,,,,,0,9,9,126,,,,,,,,,,,,,,,,,moral_self_bias,01,22,59.9948219954,m,001,2018_Apr_02_0845,
,,,,,,,,,,,,,,,,,,,,,,material/120.png,1,能干,material/20.png,1,material/120.png,厉害,1,j,j,j,2,2,2,能干,,,,,,,,,0,10,10,19,,,,,,,,,,,j,1,2.58457994461,,,,moral_self_bias,01,22,59.9948219954,m,001,2018_Apr_02_0845,
,,,,,,,,,,,,,,,,,,,,,,material/157.png,2,无能,material/57.png,2,material/157.png,无知,2,j,j,j,2,2,2,无能,,,,,,,,,0,11,11,56,,,,,,,,,,,j,1,1.35795307159,,,,moral_self_bias,01,22,59.9948219954,m,001,2018_Apr_02_0845,
,,,,,,,,,,,,,,,,,,,,,,material/5.png,1,诚信,material/105.png,1,material/105.png,诚信,1,f,f,f,1,1,1,守信,,,,,,,,,0,12,12,84,0,0,0,0,,,,,,,f,1,1.5586180687,f,0,0.441894054413,moral_self_bias,01,22,59.9948219954,m,001,2018_Apr_02_0845,
,,,,,,,,,,,,,,,,,,,,,,material/5.png,1,诚信,material/105.png,1,material/105.png,诚信,1,f,f,f,1,1,1,守信,,,,,,,,,0,12,12,84,,,,,,,,,,,,,,,,,moral_self_bias,01,22,59.9948219954,m,001,2018_Apr_02_0845,
,,,,,,,,,,,,,,,,,,,,,,material/63.png,1,正义,material/166.png,1,material/66.png,仗义,1,f,f,f,1,1,1,文明,,,,,,,,,0,13,13,145,0,0,0,0,,,,,,,f,1,1.64218091965,j,1,0.242027997971,moral_self_bias,01,22,59.9948219954,m,001,2018_Apr_02_0845,
,,,,,,,,,,,,,,,,,,,,,,material/63.png,1,正义,material/166.png,1,material/66.png,仗义,1,f,f,f,1,1,1,文明,,,,,,,,,0,13,13,145,,,,,,,,,,,,,,,,,moral_self_bias,01,22,59.9948219954,m,001,2018_Apr_02_0845,
,,,,,,,,,,,,,,,,,,,,,,material/146.png,2,小气,material/46.png,2,material/46.png,小气,2,j,j,j,1,1,1,自私,,,,,,,,,0,14,14,45,,,,,,,,,,,j,1,1.22490310669,,,,moral_self_bias,01,22,59.9948219954,m,001,2018_Apr_02_0845,
,,,,,,,,,,,,,,,,,,,,,,material/58.png,2,肤浅,material/158.png,2,material/58.png,浅薄,2,f,f,f,2,2,2,肤浅,,,,,,,,,0,15,15,137,0,0,0,0,,,,,,,f,1,1.49105811119,f,0,0.308474063873,moral_self_bias,01,22,59.9948219954,m,001,2018_Apr_02_0845,
,,,,,,,,,,,,,,,,,,,,,,material/58.png,2,肤浅,material/158.png,2,material/58.png,浅薄,2,f,f,f,2,2,2,肤浅,,,,,,,,,0,15,15,137,,,,,,,,,,,,,,,,,moral_self_bias,01,22,59.9948219954,m,001,2018_Apr_02_0845,
,,,,,,,,,,,,,,,,,,,,,,material/24.png,1,理智,material/124.png,1,material/24.png,冷静,1,f,f,f,2,2,2,理智,,,,,,,,,0,16,16,103,0,0,0,0,,,,,,,f,1,1.00738096237,f,0,0.242407083511,moral_self_bias,01,22,59.9948219954,m,001,2018_Apr_02_0845,
,,,,,,,,,,,,,,,,,,,,,,material/24.png,1,理智,material/124.png,1,material/24.png,冷静,1,f,f,f,2,2,2,理智,,,,,,,,,0,16,16,103,,,,,,,,,,,,,,,,,moral_self_bias,01,22,59.9948219954,m,001,2018_Apr_02_0845,
,,,,,,,,,,,,,,,,,,,,,,material/107.png,1,公正,material/7.png,1,material/7.png,公正,1,j,j,j,1,1,1,公平,,,,,,,,,0,17,17,6,0,0,0,0,,,,,,,f,0,1.20765304565,f,0,0.241586923599,moral_self_bias,01,22,59.9948219954,m,001,2018_Apr_02_0845,
,,,,,,,,,,,,,,,,,,,,,,material/107.png,1,公正,material/7.png,1,material/7.png,公正,1,j,j,j,1,1,1,公平,,,,,,,,,0,17,17,6,,,,,,,,,,,,,,,,,moral_self_bias,01,22,59.9948219954,m,001,2018_Apr_02_0845,
,,,,,,,,,,,,,,,,,,,,,,material/23.png,1,有才,material/123.png,1,material/23.png,多才,1,f,f,f,2,2,2,有才,,,,,,,,,0,18,18,102,0,0,0,0,,,,,,,f,1,1.357462883,f,0,0.192033052444,moral_self_bias,01,22,59.9948219954,m,001,2018_Apr_02_0845,
,,,,,,,,,,,,,,,,,,,,,,material/23.png,1,有才,material/123.png,1,material/23.png,多才,1,f,f,f,2,2,2,有才,,,,,,,,,0,18,18,102,,,,,,,,,,,,,,,,,moral_self_bias,01,22,59.9948219954,m,001,2018_Apr_02_0845,
,,,,,,,,,,,,,,,,,,,,,,material/111.png,1,高雅,material/11.png,1,material/11.png,高雅,1,j,j,j,1,1,1,高尚,,,,,,,,,0,19,19,10,,,,,,,,,,,j,1,0.774211883545,,,,moral_self_bias,01,22,59.9948219954,m,001,2018_Apr_02_0845,
,,,,,,,,,,,,,,,,,,,,,,material/51.png,2,糊涂,material/151.png,2,material/51.png,迷糊,2,f,f,f,2,2,2,糊涂,,,,,,,,,0,20,20,130,0,0,0,0,,,,,,,f,1,1.46779894829,j,1,0.199391126633,moral_self_bias,01,22,59.9948219954,m,001,2018_Apr_02_0845,
,,,,,,,,,,,,,,,,,,,,,,material/51.png,2,糊涂,material/151.png,2,material/51.png,迷糊,2,f,f,f,2,2,2,糊涂,,,,,,,,,0,20,20,130,,,,,,,,,,,,,,,,,moral_self_bias,01,22,59.9948219954,m,001,2018_Apr_02_0845,
,,,,,,,,,,,,,,,,,,,,,,material/56.png,2,愚昧,material/156.png,2,material/56.png,愚钝,2,f,f,f,2,2,2,愚昧,,,,,,,,,0,21,21,135,,,,,,,,,,,j,0,2.34364295006,,,,moral_self_bias,01,22,59.9948219954,m,001,2018_Apr_02_0845,
,,,,,,,,,,,,,,,,,,,,,,material/117.png,1,聪颖,material/17.png,1,material/117.png,聪明,1,j,j,j,2,2,2,聪颖,,,,,,,,,0,22,22,16,0,0,0,0,,,,,,,f,0,1.49135613441,j,1,0.408974170685,moral_self_bias,01,22,59.9948219954,m,001,2018_Apr_02_0845,
,,,,,,,,,,,,,,,,,,,,,,material/117.png,1,聪颖,material/17.png,1,material/117.png,聪明,1,j,j,j,2,2,2,聪颖,,,,,,,,,0,22,22,16,,,,,,,,,,,,,,,,,moral_self_bias,01,22,59.9948219954,m,001,2018_Apr_02_0845,
,,,,,,,,,,,,,,,,,,,,,,material/148.png,2,笨蛋,material/48.png,2,material/148.png,愚蠢,2,j,j,j,2,2,2,笨蛋,,,,,,,,,0,23,23,47,,,,,,,,,,,j,1,0.991263151169,,,,moral_self_bias,01,22,59.9948219954,m,001,2018_Apr_02_0845,
,,,,,,,,,,,,,,,,,,,,,,material/152.png,2,缓慢,material/52.png,2,material/152.png,拖延,2,j,j,j,2,2,2,缓慢,,,,,,,,,0,24,24,51,,,,,,,,,,,j,1,0.808388948441,,,,moral_self_bias,01,22,59.9948219954,m,001,2018_Apr_02_0845,
,,,,,,,,,,,,,,,,,,,,,,material/20.png,1,厉害,material/120.png,1,material/20.png,能干,1,f,f,f,2,2,2,厉害,,,,,,,,,0,25,25,99,,,,,,,,,,,j,0,1.6091029644,,,,moral_self_bias,01,22,59.9948219954,m,001,2018_Apr_02_0845,
,,,,,,,,,,,,,,,,,,,,,,material/64.png,1,谦虚,material/165.png,1,material/65.png,独立,1,f,f,f,1,1,1,奉献,,,,,,,,,0,26,26,144,0,0,0,0,,,,,,,f,1,0.858018875122,f,0,0.242300033569,moral_self_bias,01,22,59.9948219954,m,001,2018_Apr_02_0845,
,,,,,,,,,,,,,,,,,,,,,,material/64.png,1,谦虚,material/165.png,1,material/65.png,独立,1,f,f,f,1,1,1,奉献,,,,,,,,,0,26,26,144,,,,,,,,,,,,,,,,,moral_self_bias,01,22,59.9948219954,m,001,2018_Apr_02_0845,
,,,,,,,,,,,,,,,,,,,,,,material/26.png,1,刻苦,material/126.png,1,material/26.png,勤快,1,f,f,f,2,2,2,刻苦,,,,,,,,,0,27,27,105,0,0,0,0,,,,,,,f,1,1.47493600845,j,1,0.208490133286,moral_self_bias,01,22,59.9948219954,m,001,2018_Apr_02_0845,
,,,,,,,,,,,,,,,,,,,,,,material/26.png,1,刻苦,material/126.png,1,material/26.png,勤快,1,f,f,f,2,2,2,刻苦,,,,,,,,,0,27,27,105,,,,,,,,,,,,,,,,,moral_self_bias,01,22,59.9948219954,m,001,2018_Apr_02_0845,
,,,,,,,,,,,,,,,,,,,,,,material/71.png,1,严谨,material/68.png,1,material/71.png,广博,1,j,j,j,2,2,2,严谨,,,,,,,,,0,28,28,66,,,,,,,,,,,j,1,1.22430205345,,,,moral_self_bias,01,22,59.9948219954,m,001,2018_Apr_02_0845,
,,,,,,,,,,,,,,,,,,,,,,material/55.png,2,盲从,material/155.png,2,material/55.png,盲目,2,f,f,f,2,2,2,盲从,,,,,,,,,0,29,29,134,0,0,0,0,,,,,,,f,1,1.10719203949,f,0,0.207672834396,moral_self_bias,01,22,59.9948219954,m,001,2018_Apr_02_0845,
,,,,,,,,,,,,,,,,,,,,,,material/55.png,2,盲从,material/155.png,2,material/55.png,盲目,2,f,f,f,2,2,2,盲从,,,,,,,,,0,29,29,134,,,,,,,,,,,,,,,,,moral_self_bias,01,22,59.9948219954,m,001,2018_Apr_02_0845,
,,,,,,,,,,,,,,,,,,,,,,material/28.png,1,克己,material/128.png,1,material/28.png,自律,1,f,f,f,2,2,2,克己,,,,,,,,,0,30,30,107,0,0,0,0,,,,,,,f,1,0.908416032791,j,1,0.750122070312,moral_self_bias,01,22,59.9948219954,m,001,2018_Apr_02_0845,
,,,,,,,,,,,,,,,,,,,,,,material/28.png,1,克己,material/128.png,1,material/28.png,自律,1,f,f,f,2,2,2,克己,,,,,,,,,0,30,30,107,,,,,,,,,,,,,,,,,moral_self_bias,01,22,59.9948219954,m,001,2018_Apr_02_0845,
,,,,,,,,,,,,,,,,,,,,,,material/168.png,1,机变,material/170.png,1,material/168.png,坚忍,1,f,f,f,2,2,2,机变,,,,,,,,,0,31,31,149,0,0,0,0,,,,,,,f,1,0.957967042923,f,0,0.234924077988,moral_self_bias,01,22,59.9948219954,m,001,2018_Apr_02_0845,
,,,,,,,,,,,,,,,,,,,,,,material/168.png,1,机变,material/170.png,1,material/168.png,坚忍,1,f,f,f,2,2,2,机变,,,,,,,,,0,31,31,149,,,,,,,,,,,,,,,,,moral_self_bias,01,22,59.9948219954,m,001,2018_Apr_02_0845,
,,,,,,,,,,,,,,,,,,,,,,material/84.png,2,犹豫,material/84.png,2,material/181.png,顽愚,2,f,f,f,2,2,2,顽愚,,,,,,,,,0,32,32,167,0,0,0,0,,,,,,,f,1,2.84986186028,f,0,0.225121021271,moral_self_bias,01,22,59.9948219954,m,001,2018_Apr_02_0845,
,,,,,,,,,,,,,,,,,,,,,,material/84.png,2,犹豫,material/84.png,2,material/181.png,顽愚,2,f,f,f,2,2,2,顽愚,,,,,,,,,0,32,32,167,,,,,,,,,,,,,,,,,moral_self_bias,01,22,59.9948219954,m,001,2018_Apr_02_0845,
,,,,,,,,,,,,,,,,,,,,,,material/164.png,1,宽容,material/63.png,1,material/163.png,文明,1,j,j,j,1,1,1,孝顺,,,,,,,,,0,33,33,62,,,,,,,,,,,j,1,0.975385189056,,,,moral_self_bias,01,22,59.9948219954,m,001,2018_Apr_02_0845,
,,,,,,,,,,,,,,,,,,,,,,material/140.png,2,邪恶,material/40.png,2,material/40.png,邪恶,2,j,j,j,1,1,1,狠毒,,,,,,,,,0,34,34,39,,,,,,,,,,,j,1,0.791467905045,,,,moral_self_bias,01,22,59.9948219954,m,001,2018_Apr_02_0845,
,,,,,,,,,,,,,,,,,,,,,,material/145.png,2,下流,material/45.png,2,material/45.png,下流,2,j,j,j,1,1,1,小人,,,,,,,,,0,35,35,44,,,,,,,,,,,j,1,0.940655946732,,,,moral_self_bias,01,22,59.9948219954,m,001,2018_Apr_02_0845,
,,,,,,,,,,,,,,,,,,,,,,material/156.png,2,愚钝,material/56.png,2,material/156.png,愚昧,2,j,j,j,2,2,2,愚钝,,,,,,,,,0,36,36,55,,,,,,,,,,,j,1,0.825232982635,,,,moral_self_bias,01,22,59.9948219954,m,001,2018_Apr_02_0845,
,,,,,,,,,,,,,,,,,,,,,,material/8.png,1,无私,material/108.png,1,material/108.png,无私,1,f,f,f,1,1,1,公道,,,,,,,,,0,37,37,87,0,0,0,0,,,,,,,f,1,1.38395404816,j,1,0.158066034317,moral_self_bias,01,22,59.9948219954,m,001,2018_Apr_02_0845,
,,,,,,,,,,,,,,,,,,,,,,material/8.png,1,无私,material/108.png,1,material/108.png,无私,1,f,f,f,1,1,1,公道,,,,,,,,,0,37,37,87,,,,,,,,,,,,,,,,,moral_self_bias,01,22,59.9948219954,m,001,2018_Apr_02_0845,
,,,,,,,,,,,,,,,,,,,,,,material/57.png,2,无知,material/157.png,2,material/57.png,无能,2,f,f,f,2,2,2,无知,,,,,,,,,0,38,38,136,0,0,0,0,,,,,,,f,1,1.19218206406,j,1,0.175448894501,moral_self_bias,01,22,59.9948219954,m,001,2018_Apr_02_0845,
,,,,,,,,,,,,,,,,,,,,,,material/57.png,2,无知,material/157.png,2,material/57.png,无能,2,f,f,f,2,2,2,无知,,,,,,,,,0,38,38,136,,,,,,,,,,,,,,,,,moral_self_bias,01,22,59.9948219954,m,001,2018_Apr_02_0845,
,,,,,,,,,,,,,,,,,,,,,,material/161.png,1,奉献,material/164.png,1,material/64.png,孝顺,1,f,f,f,1,1,1,勇敢,,,,,,,,,0,39,39,143,0,0,0,0,,,,,,,f,1,0.908679962158,f,0,0.225150108337,moral_self_bias,01,22,59.9948219954,m,001,2018_Apr_02_0845,
,,,,,,,,,,,,,,,,,,,,,,material/161.png,1,奉献,material/164.png,1,material/64.png,孝顺,1,f,f,f,1,1,1,勇敢,,,,,,,,,0,39,39,143,,,,,,,,,,,,,,,,,moral_self_bias,01,22,59.9948219954,m,001,2018_Apr_02_0845,
,,,,,,,,,,,,,,,,,,,,,,material/39.png,2,恶毒,material/139.png,2,material/139.png,恶毒,2,f,f,f,1,1,1,凶残,,,,,,,,,0,40,40,118,0,0,0,0,,,,,,,f,1,0.958357095718,f,0,1.90790987015,moral_self_bias,01,22,59.9948219954,m,001,2018_Apr_02_0845,
,,,,,,,,,,,,,,,,,,,,,,material/39.png,2,恶毒,material/139.png,2,material/139.png,恶毒,2,f,f,f,1,1,1,凶残,,,,,,,,,0,40,40,118,,,,,,,,,,,,,,,,,moral_self_bias,01,22,59.9948219954,m,001,2018_Apr_02_0845,
,,,,,,,,,,,,,,,,,,,,,,material/115.png,1,清白,material/15.png,1,material/15.png,清白,1,j,j,j,1,1,1,纯洁,,,,,,,,,0,41,41,14,,,,,,,,,,,j,1,0.908261060715,,,,moral_self_bias,01,22,59.9948219954,m,001,2018_Apr_02_0845,
,,,,,,,,,,,,,,,,,,,,,,material/38.png,2,缺德,material/138.png,2,material/138.png,缺德,2,f,f,f,1,1,1,无德,,,,,,,,,0,42,42,117,0,0,0,0,,,,,,,f,1,1.1079249382,j,1,0.475867986679,moral_self_bias,01,22,59.9948219954,m,001,2018_Apr_02_0845,
,,,,,,,,,,,,,,,,,,,,,,material/38.png,2,缺德,material/138.png,2,material/138.png,缺德,2,f,f,f,1,1,1,无德,,,,,,,,,0,42,42,117,,,,,,,,,,,,,,,,,moral_self_bias,01,22,59.9948219954,m,001,2018_Apr_02_0845,
,,,,,,,,,,,,,,,,,,,,,,material/75.png,2,卑劣,material/74.png,2,material/74.png,卑劣,2,j,j,j,1,1,1,害人,,,,,,,,,0,43,43,70,,,,,,,,,,,j,1,0.8579621315,,,,moral_self_bias,01,22,59.9948219954,m,001,2018_Apr_02_0845,
,,,,,,,,,,,,,,,,,,,,,,material/133.png,2,腐败,material/33.png,2,material/33.png,腐败,2,j,j,j,1,1,1,贪污,,,,,,,,,0,44,44,32,,,,,,,,,,,j,1,0.707919120789,,,,moral_self_bias,01,22,59.9948219954,m,001,2018_Apr_02_0845,
,,,,,,,,,,,,,,,,,,,,,,material/69.png,1,高明,material/69.png,1,material/69.png,高明,1,f,f,f,2,2,2,高明,,,,,,,,,0,45,45,166,0,0,0,0,,,,,,,f,1,1.07453799248,j,1,0.390912771225,moral_self_bias,01,22,59.9948219954,m,001,2018_Apr_02_0845,
,,,,,,,,,,,,,,,,,,,,,,material/69.png,1,高明,material/69.png,1,material/69.png,高明,1,f,f,f,2,2,2,高明,,,,,,,,,0,45,45,166,,,,,,,,,,,,,,,,,moral_self_bias,01,22,59.9948219954,m,001,2018_Apr_02_0845,
,,,,,,,,,,,,,,,,,,,,,,material/121.png,1,精干,material/21.png,1,material/121.png,干练,1,j,j,j,2,2,2,精干,,,,,,,,,0,46,46,20,,,,,,,,,,,j,1,2.32410788536,,,,moral_self_bias,01,22,59.9948219954,m,001,2018_Apr_02_0845,
,,,,,,,,,,,,,,,,,,,,,,material/138.png,2,无德,material/38.png,2,material/38.png,无德,2,j,j,j,1,1,1,缺德,,,,,,,,,0,47,47,37,,,,,,,,,,,j,1,1.29170107841,,,,moral_self_bias,01,22,59.9948219954,m,001,2018_Apr_02_0845,
,,,,,,,,,,,,,,,,,,,,,,material/50.png,2,愚笨,material/150.png,2,material/50.png,鲁钝,2,f,f,f,2,2,2,愚笨,,,,,,,,,0,48,48,129,0,0,0,0,,,,,,,f,1,1.42477297783,j,1,0.309376955032,moral_self_bias,01,22,59.9948219954,m,001,2018_Apr_02_0845,
,,,,,,,,,,,,,,,,,,,,,,material/50.png,2,愚笨,material/150.png,2,material/50.png,鲁钝,2,f,f,f,2,2,2,愚笨,,,,,,,,,0,48,48,129,,,,,,,,,,,,,,,,,moral_self_bias,01,22,59.9948219954,m,001,2018_Apr_02_0845,
,,,,,,,,,,,,,,,,,,,,,,material/176.png,2,害人,material/75.png,2,material/75.png,害人,2,j,j,j,1,1,1,放纵,,,,,,,,,0,49,49,71,,,,,,,,,,,j,1,1.708081007,,,,moral_self_bias,01,22,59.9948219954,m,001,2018_Apr_02_0845,
,,,,,,,,,,,,,,,,,,,,,,material/6.png,1,厚道,material/106.png,1,material/106.png,厚道,1,f,f,f,1,1,1,诚实,,,,,,,,,0,50,50,85,0,0,0,0,,,,,,,f,1,0.875185966492,f,0,0.258875846863,moral_self_bias,01,22,59.9948219954,m,001,2018_Apr_02_0845,
,,,,,,,,,,,,,,,,,,,,,,material/6.png,1,厚道,material/106.png,1,material/106.png,厚道,1,f,f,f,1,1,1,诚实,,,,,,,,,0,50,50,85,,,,,,,,,,,,,,,,,moral_self_bias,01,22,59.9948219954,m,001,2018_Apr_02_0845,
,,,,,,,,,,,,,,,,,,,,,,material/105.png,1,守信,material/5.png,1,material/5.png,守信,1,j,j,j,1,1,1,诚信,,,,,,,,,0,51,51,4,,,,,,,,,,,j,1,1.23375320435,,,,moral_self_bias,01,22,59.9948219954,m,001,2018_Apr_02_0845,
,,,,,,,,,,,,,,,,,,,,,,material/74.png,2,黑心,material/173.png,2,material/173.png,黑心,2,f,f,f,1,1,1,卑劣,,,,,,,,,0,52,52,152,0,0,0,0,,,,,,,f,1,2.1082611084,j,1,0.212293863297,moral_self_bias,01,22,59.9948219954,m,001,2018_Apr_02_0845,
,,,,,,,,,,,,,,,,,,,,,,material/74.png,2,黑心,material/173.png,2,material/173.png,黑心,2,f,f,f,1,1,1,卑劣,,,,,,,,,0,52,52,152,,,,,,,,,,,,,,,,,moral_self_bias,01,22,59.9948219954,m,001,2018_Apr_02_0845,
,,,,,,,,,,,,,,,,,,,,,,material/170.png,1,坚忍,material/71.png,1,material/170.png,严谨,1,j,j,j,2,2,2,坚忍,,,,,,,,,0,53,53,68,,,,,,,,,,,j,1,2.6053481102,,,,moral_self_bias,01,22,59.9948219954,m,001,2018_Apr_02_0845,
,,,,,,,,,,,,,,,,,,,,,,material/27.png,1,卓越,material/127.png,1,material/27.png,超群,1,f,f,f,2,2,2,卓越,,,,,,,,,0,54,54,106,,,,,,,,,,,j,0,0.741333961487,,,,moral_self_bias,01,22,59.9948219954,m,001,2018_Apr_02_0845,
,,,,,,,,,,,,,,,,,,,,,,material/151.png,2,迷糊,material/51.png,2,material/151.png,糊涂,2,j,j,j,2,2,2,迷糊,,,,,,,,,0,55,55,50,,,,,,,,,,,j,1,1.30776596069,,,,moral_self_bias,01,22,59.9948219954,m,001,2018_Apr_02_0845,
,,,,,,,,,,,,,,,,,,,,,,material/10.png,1,坚毅,material/110.png,1,material/110.png,坚毅,1,f,f,f,1,1,1,顽强,,,,,,,,,0,56,56,89,0,0,0,0,,,,,,,f,1,0.924901008606,j,1,0.424761772156,moral_self_bias,01,22,59.9948219954,m,001,2018_Apr_02_0845,
,,,,,,,,,,,,,,,,,,,,,,material/10.png,1,坚毅,material/110.png,1,material/110.png,坚毅,1,f,f,f,1,1,1,顽强,,,,,,,,,0,56,56,89,,,,,,,,,,,,,,,,,moral_self_bias,01,22,59.9948219954,m,001,2018_Apr_02_0845,
,,,,,,,,,,,,,,,,,,,,,,material/139.png,2,凶残,material/39.png,2,material/39.png,凶残,2,j,j,j,1,1,1,恶毒,,,,,,,,,0,57,57,38,0,0,0,0,,,,,,,f,0,0.958782911301,j,1,0.224393129349,moral_self_bias,01,22,59.9948219954,m,001,2018_Apr_02_0845,
,,,,,,,,,,,,,,,,,,,,,,material/139.png,2,凶残,material/39.png,2,material/39.png,凶残,2,j,j,j,1,1,1,恶毒,,,,,,,,,0,57,57,38,,,,,,,,,,,,,,,,,moral_self_bias,01,22,59.9948219954,m,001,2018_Apr_02_0845,
,,,,,,,,,,,,,,,,,,,,,,material/128.png,1,自律,material/28.png,1,material/128.png,克己,1,j,j,j,2,2,2,自律,,,,,,,,,0,58,58,27,,,,,,,,,,,j,1,1.00760006905,,,,moral_self_bias,01,22,59.9948219954,m,001,2018_Apr_02_0845,
,,,,,,,,,,,,,,,,,,,,,,material/62.png,1,坚韧,material/162.png,1,material/62.png,敬业,1,f,f,f,1,1,1,坚韧,,,,,,,,,0,59,59,141,0,0,0,0,,,,,,,f,1,1.06646108627,j,1,0.175174951553,moral_self_bias,01,22,59.9948219954,m,001,2018_Apr_02_0845,
,,,,,,,,,,,,,,,,,,,,,,material/62.png,1,坚韧,material/162.png,1,material/62.png,敬业,1,f,f,f,1,1,1,坚韧,,,,,,,,,0,59,59,141,,,,,,,,,,,,,,,,,moral_self_bias,01,22,59.9948219954,m,001,2018_Apr_02_0845,
,,,,,,,,,,,,,,,,,,,,,,material/42.png,2,奸诈,material/142.png,2,material/142.png,奸诈,2,f,f,f,1,1,1,阴险,,,,,,,,,0,60,60,121,0,0,0,0,,,,,,,f,1,2.18378806114,j,1,0.183598041534,moral_self_bias,01,22,59.9948219954,m,001,2018_Apr_02_0845,
,,,,,,,,,,,,,,,,,,,,,,material/42.png,2,奸诈,material/142.png,2,material/142.png,奸诈,2,f,f,f,1,1,1,阴险,,,,,,,,,0,60,60,121,,,,,,,,,,,,,,,,,moral_self_bias,01,22,59.9948219954,m,001,2018_Apr_02_0845,
,,,,,,,,,,,,,,,,,,,,,,material/153.png,2,迟钝,material/53.png,2,material/153.png,迟缓,2,j,j,j,2,2,2,迟钝,,,,,,,,,0,61,61,52,0,0,0,0,,,,,,,f,0,1.47001385689,j,1,0.12472820282,moral_self_bias,01,22,59.9948219954,m,001,2018_Apr_02_0845,
,,,,,,,,,,,,,,,,,,,,,,material/153.png,2,迟钝,material/53.png,2,material/153.png,迟缓,2,j,j,j,2,2,2,迟钝,,,,,,,,,0,61,61,52,,,,,,,,,,,,,,,,,moral_self_bias,01,22,59.9948219954,m,001,2018_Apr_02_0845,
,,,,,,,,,,,,,,,,,,,,,,material/114.png,1,爱国,material/14.png,1,material/14.png,爱国,1,j,j,j,1,1,1,忠贞,,,,,,,,,0,62,62,13,,,,,,,,,,,j,1,0.775070905685,,,,moral_self_bias,01,22,59.9948219954,m,001,2018_Apr_02_0845,
,,,,,,,,,,,,,,,,,,,,,,material/44.png,2,爽约,material/144.png,2,material/144.png,爽约,2,f,f,f,1,1,1,失信,,,,,,,,,0,63,63,123,0,0,0,0,,,,,,,f,1,1.02489900589,j,1,0.175091981888,moral_self_bias,01,22,59.9948219954,m,001,2018_Apr_02_0845,
,,,,,,,,,,,,,,,,,,,,,,material/44.png,2,爽约,material/144.png,2,material/144.png,爽约,2,f,f,f,1,1,1,失信,,,,,,,,,0,63,63,123,,,,,,,,,,,,,,,,,moral_self_bias,01,22,59.9948219954,m,001,2018_Apr_02_0845,
,,,,,,,,,,,,,,,,,,,,,,material/172.png,2,无情,material/175.png,2,material/175.png,无情,2,f,f,f,1,1,1,浮夸,,,,,,,,,0,64,64,154,,,,,,,,,,,j,0,1.00874090195,,,,moral_self_bias,01,22,59.9948219954,m,001,2018_Apr_02_0845,
,,,,,,,,,,,,,,,,,,,,,,material/61.png,1,仗义,material/65.png,1,material/166.png,谦虚,1,j,j,j,1,1,1,平等,,,,,,,,,0,65,65,64,,,,,,,,,,,j,1,0.908237934113,,,,moral_self_bias,01,22,59.9948219954,m,001,2018_Apr_02_0845,
,,,,,,,,,,,,,,,,,,,,,,material/116.png,1,机智,material/16.png,1,material/116.png,睿智,1,j,j,j,2,2,2,机智,,,,,,,,,0,66,66,15,,,,,,,,,,,j,1,1.38281702995,,,,moral_self_bias,01,22,59.9948219954,m,001,2018_Apr_02_0845,
,,,,,,,,,,,,,,,,,,,,,,material/65.png,1,勇敢,material/61.png,1,material/161.png,平等,1,j,j,j,1,1,1,谦虚,,,,,,,,,0,67,67,60,,,,,,,,,,,j,1,0.79137802124,,,,moral_self_bias,01,22,59.9948219954,m,001,2018_Apr_02_0845,
,,,,,,,,,,,,,,,,,,,,,,material/162.png,1,敬业,material/62.png,1,material/162.png,坚韧,1,j,j,j,1,1,1,敬业,,,,,,,,,0,68,68,61,0,0,0,0,,,,,,,f,0,1.49011898041,j,1,0.283354997635,moral_self_bias,01,22,59.9948219954,m,001,2018_Apr_02_0845,
,,,,,,,,,,,,,,,,,,,,,,material/162.png,1,敬业,material/62.png,1,material/162.png,坚韧,1,j,j,j,1,1,1,敬业,,,,,,,,,0,68,68,61,,,,,,,,,,,,,,,,,moral_self_bias,01,22,59.9948219954,m,001,2018_Apr_02_0845,
,,,,,,,,,,,,,,,,,,,,,,material/21.png,1,干练,material/121.png,1,material/21.png,精干,1,f,f,f,2,2,2,干练,,,,,,,,,0,69,69,100,0,0,0,0,,,,,,,f,1,1.14238786697,j,1,0.192127943039,moral_self_bias,01,22,59.9948219954,m,001,2018_Apr_02_0845,
,,,,,,,,,,,,,,,,,,,,,,material/21.png,1,干练,material/121.png,1,material/21.png,精干,1,f,f,f,2,2,2,干练,,,,,,,,,0,69,69,100,,,,,,,,,,,,,,,,,moral_self_bias,01,22,59.9948219954,m,001,2018_Apr_02_0845,
,,,,,,,,,,,,,,,,,,,,,,material/122.png,1,博学,material/22.png,1,material/122.png,才学,1,j,j,j,2,2,2,博学,,,,,,,,,0,70,70,21,,,,,,,,,,,j,1,1.43360495567,,,,moral_self_bias,01,22,59.9948219954,m,001,2018_Apr_02_0845,
,,,,,,,,,,,,,,,,,,,,,,material/179.png,2,顽愚,material/178.png,2,material/84.png,毛糙,2,f,f,f,2,2,2,差生,,,,,,,,,0,71,71,157,0,0,0,0,,,,,,,f,1,1.1498529911,f,0,0.241066932678,moral_self_bias,01,22,59.9948219954,m,001,2018_Apr_02_0845,
,,,,,,,,,,,,,,,,,,,,,,material/179.png,2,顽愚,material/178.png,2,material/84.png,毛糙,2,f,f,f,2,2,2,差生,,,,,,,,,0,71,71,157,,,,,,,,,,,,,,,,,moral_self_bias,01,22,59.9948219954,m,001,2018_Apr_02_0845,
,,,,,,,,,,,,,,,,,,,,,,material/166.png,1,孝顺,material/64.png,1,material/164.png,奉献,1,j,j,j,1,1,1,仗义,,,,,,,,,0,72,72,63,0,0,0,0,,,,,,,f,0,0.716986894608,f,0,0.391570091248,moral_self_bias,01,22,59.9948219954,m,001,2018_Apr_02_0845,
,,,,,,,,,,,,,,,,,,,,,,material/166.png,1,孝顺,material/64.png,1,material/164.png,奉献,1,j,j,j,1,1,1,仗义,,,,,,,,,0,72,72,63,,,,,,,,,,,,,,,,,moral_self_bias,01,22,59.9948219954,m,001,2018_Apr_02_0845,
,,,,,,,,,,,,,,,,,,,,,,material/67.png,1,骁勇,material/70.png,1,material/67.png,全面,1,j,j,j,2,2,2,骁勇,,,,,,,,,0,73,73,67,,,,,,,,,,,j,1,0.741566181183,,,,moral_self_bias,01,22,59.9948219954,m,001,2018_Apr_02_0845,
,,,,,,,,,,,,,,,,,,,,,,material/82.png,2,毛糙,material/183.png,2,material/178.png,薄弱,2,f,f,f,2,2,2,窝囊,,,,,,,,,0,74,74,162,,,,,,,,,,,j,0,1.3414580822,,,,moral_self_bias,01,22,59.9948219954,m,001,2018_Apr_02_0845,
,,,,,,,,,,,,,,,,,,,,,,material/102.png,1,善心,material/2.png,1,material/2.png,善心,1,j,j,j,1,1,1,爱心,,,,,,,,,0,75,75,1,,,,,,,,,,,j,1,0.808048009872,,,,moral_self_bias,01,22,59.9948219954,m,001,2018_Apr_02_0845,
,,,,,,,,,,,,,,,,,,,,,,material/34.png,2,可恶,material/134.png,2,material/134.png,可恶,2,f,f,f,1,1,1,可恨,,,,,,,,,0,76,76,113,0,0,0,0,,,,,,,f,1,1.27376794815,j,1,0.207557201385,moral_self_bias,01,22,59.9948219954,m,001,2018_Apr_02_0845,
,,,,,,,,,,,,,,,,,,,,,,material/34.png,2,可恶,material/134.png,2,material/134.png,可恶,2,f,f,f,1,1,1,可恨,,,,,,,,,0,76,76,113,,,,,,,,,,,,,,,,,moral_self_bias,01,22,59.9948219954,m,001,2018_Apr_02_0845,
,,,,,,,,,,,,,,,,,,,,,,material/78.png,2,厌学,material/181.png,2,material/184.png,犹豫,2,f,f,f,2,2,2,草率,,,,,,,,,0,77,77,160,0,0,0,0,,,,,,,f,1,1.05823683739,j,1,0.24129986763,moral_self_bias,01,22,59.9948219954,m,001,2018_Apr_02_0845,
,,,,,,,,,,,,,,,,,,,,,,material/78.png,2,厌学,material/181.png,2,material/184.png,犹豫,2,f,f,f,2,2,2,草率,,,,,,,,,0,77,77,160,,,,,,,,,,,,,,,,,moral_self_bias,01,22,59.9948219954,m,001,2018_Apr_02_0845,
,,,,,,,,,,,,,,,,,,,,,,material/76.png,2,放纵,material/176.png,2,material/176.png,放纵,2,f,f,f,1,1,1,虚伪,,,,,,,,,0,78,78,155,0,0,0,0,,,,,,,f,1,0.841933965683,f,0,0.308562994003,moral_self_bias,01,22,59.9948219954,m,001,2018_Apr_02_0845,
,,,,,,,,,,,,,,,,,,,,,,material/76.png,2,放纵,material/176.png,2,material/176.png,放纵,2,f,f,f,1,1,1,虚伪,,,,,,,,,0,78,78,155,,,,,,,,,,,,,,,,,moral_self_bias,01,22,59.9948219954,m,001,2018_Apr_02_0845,
,,,,,,,,,,,,,,,,,,,,,,material/59.png,2,智障,material/159.png,2,material/59.png,弱智,2,f,f,f,2,2,2,智障,,,,,,,,,0,79,79,138,0,0,0,0,,,,,,,f,1,1.02459692955,f,0,0.217440843582,moral_self_bias,01,22,59.9948219954,m,001,2018_Apr_02_0845,
,,,,,,,,,,,,,,,,,,,,,,material/59.png,2,智障,material/159.png,2,material/59.png,弱智,2,f,f,f,2,2,2,智障,,,,,,,,,0,79,79,138,,,,,,,,,,,,,,,,,moral_self_bias,01,22,59.9948219954,m,001,2018_Apr_02_0845,
,,,,,,,,,,,,,,,,,,,,,,material/14.png,1,忠贞,material/114.png,1,material/114.png,忠贞,1,f,f,f,1,1,1,爱国,,,,,,,,,0,80,80,93,0,0,0,0,,,,,,,f,1,2.39113903046,j,1,0.191032886505,moral_self_bias,01,22,59.9948219954,m,001,2018_Apr_02_0845,
,,,,,,,,,,,,,,,,,,,,,,material/14.png,1,忠贞,material/114.png,1,material/114.png,忠贞,1,f,f,f,1,1,1,爱国,,,,,,,,,0,80,80,93,,,,,,,,,,,,,,,,,moral_self_bias,01,22,59.9948219954,m,001,2018_Apr_02_0845,
,,,,,,,,,,,,,,,,,,,,,,material/184.png,2,草率,material/80.png,2,material/78.png,健忘,2,j,j,j,2,2,2,厌学,,,,,,,,,0,81,81,76,,,,,,,,,,,j,1,0.775285005569,,,,moral_self_bias,01,22,59.9948219954,m,001,2018_Apr_02_0845,
,,,,,,,,,,,,,,,,,,,,,,material/134.png,2,可恨,material/34.png,2,material/34.png,可恨,2,j,j,j,1,1,1,可恶,,,,,,,,,0,82,82,33,,,,,,,,,,,j,1,0.740910053253,,,,moral_self_bias,01,22,59.9948219954,m,001,2018_Apr_02_0845,
,,,,,,,,,,,,,,,,,,,,,,material/2.png,1,爱心,material/102.png,1,material/102.png,爱心,1,f,f,f,1,1,1,善心,,,,,,,,,0,83,83,81,,,,,,,,,,,j,0,0.958137989044,,,,moral_self_bias,01,22,59.9948219954,m,001,2018_Apr_02_0845,
,,,,,,,,,,,,,,,,,,,,,,material/124.png,1,冷静,material/24.png,1,material/124.png,理智,1,j,j,j,2,2,2,冷静,,,,,,,,,0,84,84,23,,,,,,,,,,,j,1,0.875262022018,,,,moral_self_bias,01,22,59.9948219954,m,001,2018_Apr_02_0845,
,,,,,,,,,,,,,,,,,,,,,,material/165.png,1,平等,material/161.png,1,material/61.png,勇敢,1,f,f,f,1,1,1,独立,,,,,,,,,0,85,85,140,,,,,,,,,,,j,0,1.15779709816,,,,moral_self_bias,01,22,59.9948219954,m,001,2018_Apr_02_0845,
,,,,,,,,,,,,,,,,,,,,,,material/25.png,1,果断,material/125.png,1,material/25.png,果敢,1,f,f,f,2,2,2,果断,,,,,,,,,0,86,86,104,0,0,0,0,,,,,,,f,1,1.0581638813,f,0,0.766814947128,moral_self_bias,01,22,59.9948219954,m,001,2018_Apr_02_0845,
,,,,,,,,,,,,,,,,,,,,,,material/25.png,1,果断,material/125.png,1,material/25.png,果敢,1,f,f,f,2,2,2,果断,,,,,,,,,0,86,86,104,,,,,,,,,,,,,,,,,moral_self_bias,01,22,59.9948219954,m,001,2018_Apr_02_0845,
,,,,,,,,,,,,,,,,,,,,,,material/103.png,1,仁慈,material/3.png,1,material/3.png,仁慈,1,j,j,j,1,1,1,仁厚,,,,,,,,,0,87,87,2,,,,,,,,,,,j,1,0.774193048477,,,,moral_self_bias,01,22,59.9948219954,m,001,2018_Apr_02_0845,
,,,,,,,,,,,,,,,,,,,,,,material/43.png,2,虚荣,material/143.png,2,material/143.png,虚荣,2,f,f,f,1,1,1,拜金,,,,,,,,,0,88,88,122,,,,,,,,,,,j,0,0.874396800995,,,,moral_self_bias,01,22,59.9948219954,m,001,2018_Apr_02_0845,
,,,,,,,,,,,,,,,,,,,,,,material/73.png,2,恶心,material/177.png,2,material/177.png,恶心,2,f,f,f,1,1,1,残虐,,,,,,,,,0,89,89,156,0,0,0,0,,,,,,,f,1,0.974069833755,j,1,0.209047079086,moral_self_bias,01,22,59.9948219954,m,001,2018_Apr_02_0845,
,,,,,,,,,,,,,,,,,,,,,,material/73.png,2,恶心,material/177.png,2,material/177.png,恶心,2,f,f,f,1,1,1,残虐,,,,,,,,,0,89,89,156,,,,,,,,,,,,,,,,,moral_self_bias,01,22,59.9948219954,m,001,2018_Apr_02_0845,
,,,,,,,,,,,,,,,,,,,,,,material/17.png,1,聪明,material/117.png,1,material/17.png,聪颖,1,f,f,f,2,2,2,聪明,,,,,,,,,0,90,90,96,0,0,0,0,,,,,,,f,1,3.17542910576,j,1,0.175258159637,moral_self_bias,01,22,59.9948219954,m,001,2018_Apr_02_0845,
,,,,,,,,,,,,,,,,,,,,,,material/17.png,1,聪明,material/117.png,1,material/17.png,聪颖,1,f,f,f,2,2,2,聪明,,,,,,,,,0,90,90,96,,,,,,,,,,,,,,,,,moral_self_bias,01,22,59.9948219954,m,001,2018_Apr_02_0845,
,,,,,,,,,,,,,,,,,,,,,,material/183.png,2,颓废,material/182.png,2,material/79.png,才尽,2,f,f,f,2,2,2,薄弱,,,,,,,,,0,91,91,161,0,0,0,0,,,,,,,f,1,1.10874581337,f,0,0.191663980484,moral_self_bias,01,22,59.9948219954,m,001,2018_Apr_02_0845,
,,,,,,,,,,,,,,,,,,,,,,material/183.png,2,颓废,material/182.png,2,material/79.png,才尽,2,f,f,f,2,2,2,薄弱,,,,,,,,,0,91,91,161,,,,,,,,,,,,,,,,,moral_self_bias,01,22,59.9948219954,m,001,2018_Apr_02_0845,
,,,,,,,,,,,,,,,,,,,,,,material/3.png,1,仁厚,material/103.png,1,material/103.png,仁厚,1,f,f,f,1,1,1,仁慈,,,,,,,,,0,92,92,82,0,0,0,0,,,,,,,f,1,0.733500003815,f,0,0.17568397522,moral_self_bias,01,22,59.9948219954,m,001,2018_Apr_02_0845,
,,,,,,,,,,,,,,,,,,,,,,material/3.png,1,仁厚,material/103.png,1,material/103.png,仁厚,1,f,f,f,1,1,1,仁慈,,,,,,,,,0,92,92,82,,,,,,,,,,,,,,,,,moral_self_bias,01,22,59.9948219954,m,001,2018_Apr_02_0845,
,,,,,,,,,,,,,,,,,,,,,,material/9.png,1,正直,material/109.png,1,material/109.png,正直,1,f,f,f,1,1,1,秉直,,,,,,,,,0,93,93,88,0,0,0,0,,,,,,,f,1,0.857795953751,f,0,0.224667072296,moral_self_bias,01,22,59.9948219954,m,001,2018_Apr_02_0845,
,,,,,,,,,,,,,,,,,,,,,,material/9.png,1,正直,material/109.png,1,material/109.png,正直,1,f,f,f,1,1,1,秉直,,,,,,,,,0,93,93,88,,,,,,,,,,,,,,,,,moral_self_bias,01,22,59.9948219954,m,001,2018_Apr_02_0845,
,,,,,,,,,,,,,,,,,,,,,,material/1.png,1,博爱,material/101.png,1,material/101.png,博爱,1,f,f,f,1,1,1,善良,,,,,,,,,0,94,94,80,0,0,0,0,,,,,,,f,1,1.07150888443,f,0,0.307789087296,moral_self_bias,01,22,59.9948219954,m,001,2018_Apr_02_0845,
,,,,,,,,,,,,,,,,,,,,,,material/1.png,1,博爱,material/101.png,1,material/101.png,博爱,1,f,f,f,1,1,1,善良,,,,,,,,,0,94,94,80,,,,,,,,,,,,,,,,,moral_self_bias,01,22,59.9948219954,m,001,2018_Apr_02_0845,
,,,,,,,,,,,,,,,,,,,,,,material/177.png,2,谄媚,material/72.png,2,material/72.png,谄媚,2,j,j,j,1,1,1,恶心,,,,,,,,,0,95,95,69,0,0,0,0,,,,,,,f,0,0.691232919693,j,1,0.25839304924,moral_self_bias,01,22,59.9948219954,m,001,2018_Apr_02_0845,
,,,,,,,,,,,,,,,,,,,,,,material/177.png,2,谄媚,material/72.png,2,material/72.png,谄媚,2,j,j,j,1,1,1,恶心,,,,,,,,,0,95,95,69,,,,,,,,,,,,,,,,,moral_self_bias,01,22,59.9948219954,m,001,2018_Apr_02_0845,
,,,,,,,,,,,,,,,,,,,,,,material/159.png,2,弱智,material/59.png,2,material/159.png,智障,2,j,j,j,2,2,2,弱智,,,,,,,,,0,96,96,58,,,,,,,,,,,j,1,2.42430996895,,,,moral_self_bias,01,22,59.9948219954,m,001,2018_Apr_02_0845,
,,,,,,,,,,,,,,,,,,,,,,material/132.png,2,不忠,material/32.png,2,material/32.png,不忠,2,j,j,j,1,1,1,背叛,,,,,,,,,0,97,97,31,,,,,,,,,,,j,1,1.09951615334,,,,moral_self_bias,01,22,59.9948219954,m,001,2018_Apr_02_0845,
,,,,,,,,,,,,,,,,,,,,,,material/149.png,2,白痴,material/49.png,2,material/149.png,痴呆,2,j,j,j,2,2,2,白痴,,,,,,,,,0,98,98,48,,,,,,,,,,,j,1,0.791098117828,,,,moral_self_bias,01,22,59.9948219954,m,001,2018_Apr_02_0845,
,,,,,,,,,,,,,,,,,,,,,,material/144.png,2,失信,material/44.png,2,material/44.png,失信,2,j,j,j,1,1,1,爽约,,,,,,,,,0,99,99,43,,,,,,,,,,,j,1,0.77375292778,,,,moral_self_bias,01,22,59.9948219954,m,001,2018_Apr_02_0845,
,,,,,,,,,,,,,,,,,,,,,,material/22.png,1,才学,material/122.png,1,material/22.png,博学,1,f,f,f,2,2,2,才学,,,,,,,,,0,100,100,101,,,,,,,,,,,j,0,0.691475868225,,,,moral_self_bias,01,22,59.9948219954,m,001,2018_Apr_02_0845,
,,,,,,,,,,,,,,,,,,,,,,material/169.png,1,颖悟,material/171.png,1,material/169.png,高效,1,f,f,f,2,2,2,颖悟,,,,,,,,,0,101,101,150,,,,,,,,,,,j,0,2.55751681328,,,,moral_self_bias,01,22,59.9948219954,m,001,2018_Apr_02_0845,
,,,,,,,,,,,,,,,,,,,,,,material/136.png,2,说谎,material/36.png,2,material/36.png,说谎,2,j,j,j,1,1,1,撒谎,,,,,,,,,0,102,102,35,,,,,,,,,,,j,1,1.04157590866,,,,moral_self_bias,01,22,59.9948219954,m,001,2018_Apr_02_0845,
,,,,,,,,,,,,,,,,,,,,,,material/12.png,1,忠心,material/112.png,1,material/112.png,忠心,1,f,f,f,1,1,1,忠诚,,,,,,,,,0,103,103,91,,,,,,,,,,,j,0,2.72471690178,,,,moral_self_bias,01,22,59.9948219954,m,001,2018_Apr_02_0845,
,,,,,,,,,,,,,,,,,,,,,,material/175.png,2,残虐,material/73.png,2,material/73.png,残虐,2,f,f,f,1,1,1,无情,,,,,,,,,0,104,104,165,0,0,0,0,,,,,,,f,1,1.10768890381,j,1,0.192030906677,moral_self_bias,01,22,59.9948219954,m,001,2018_Apr_02_0845,
,,,,,,,,,,,,,,,,,,,,,,material/175.png,2,残虐,material/73.png,2,material/73.png,残虐,2,f,f,f,1,1,1,无情,,,,,,,,,0,104,104,165,,,,,,,,,,,,,,,,,moral_self_bias,01,22,59.9948219954,m,001,2018_Apr_02_0845,
,,,,,,,,,,,,,,,,,,,,,,material/48.png,2,愚蠢,material/148.png,2,material/48.png,笨蛋,2,f,f,f,2,2,2,愚蠢,,,,,,,,,0,105,105,127,,,,,,,,,,,j,0,0.741855859756,,,,moral_self_bias,01,22,59.9948219954,m,001,2018_Apr_02_0845,
,,,,,,,,,,,,,,,,,,,,,,material/15.png,1,纯洁,material/115.png,1,material/115.png,纯洁,1,f,f,f,1,1,1,清白,,,,,,,,,0,106,106,94,,,,,,,,,,,j,0,1.67411899567,,,,moral_self_bias,01,22,59.9948219954,m,001,2018_Apr_02_0845,
,,,,,,,,,,,,,,,,,,,,,,material/33.png,2,贪污,material/133.png,2,material/133.png,贪污,2,f,f,f,1,1,1,腐败,,,,,,,,,0,107,107,112,0,0,0,0,,,,,,,f,1,0.924739122391,j,1,0.275919914246,moral_self_bias,01,22,59.9948219954,m,001,2018_Apr_02_0845,
,,,,,,,,,,,,,,,,,,,,,,material/33.png,2,贪污,material/133.png,2,material/133.png,贪污,2,f,f,f,1,1,1,腐败,,,,,,,,,0,107,107,112,,,,,,,,,,,,,,,,,moral_self_bias,01,22,59.9948219954,m,001,2018_Apr_02_0845,
,,,,,,,,,,,,,,,,,,,,,,material/35.png,2,冷血,material/135.png,2,material/135.png,冷血,2,f,f,f,1,1,1,冷漠,,,,,,,,,0,108,108,114,0,0,0,0,,,,,,,f,1,0.791501045227,j,1,0.225936174393,moral_self_bias,01,22,59.9948219954,m,001,2018_Apr_02_0845,
,,,,,,,,,,,,,,,,,,,,,,material/35.png,2,冷血,material/135.png,2,material/135.png,冷血,2,f,f,f,1,1,1,冷漠,,,,,,,,,0,108,108,114,,,,,,,,,,,,,,,,,moral_self_bias,01,22,59.9948219954,m,001,2018_Apr_02_0845,
,,,,,,,,,,,,,,,,,,,,,,material/173.png,2,不义,material/174.png,2,material/174.png,不义,2,f,f,f,1,1,1,黑心,,,,,,,,,0,109,109,153,,,,,,,,,,,j,0,1.09157419205,,,,moral_self_bias,01,22,59.9948219954,m,001,2018_Apr_02_0845,
,,,,,,,,,,,,,,,,,,,,,,material/143.png,2,拜金,material/43.png,2,material/43.png,拜金,2,j,j,j,1,1,1,虚荣,,,,,,,,,0,110,110,42,,,,,,,,,,,j,1,0.67502617836,,,,moral_self_bias,01,22,59.9948219954,m,001,2018_Apr_02_0845,
,,,,,,,,,,,,,,,,,,,,,,material/68.png,1,广博,material/167.png,1,material/68.png,高手,1,f,f,f,2,2,2,广博,,,,,,,,,0,111,111,146,0,0,0,0,,,,,,,f,1,1.17526483536,j,1,0.142213106155,moral_self_bias,01,22,59.9948219954,m,001,2018_Apr_02_0845,
,,,,,,,,,,,,,,,,,,,,,,material/68.png,1,广博,material/167.png,1,material/68.png,高手,1,f,f,f,2,2,2,广博,,,,,,,,,0,111,111,146,,,,,,,,,,,,,,,,,moral_self_bias,01,22,59.9948219954,m,001,2018_Apr_02_0845,
,,,,,,,,,,,,,,,,,,,,,,material/119.png,1,机灵,material/19.png,1,material/119.png,灵活,1,j,j,j,2,2,2,机灵,,,,,,,,,0,112,112,18,,,,,,,,,,,j,1,0.791166067123,,,,moral_self_bias,01,22,59.9948219954,m,001,2018_Apr_02_0845,
,,,,,,,,,,,,,,,,,,,,,,material/29.png,1,好学,material/129.png,1,material/29.png,好问,1,f,f,f,2,2,2,好学,,,,,,,,,0,113,113,108,,,,,,,,,,,j,0,0.891538143158,,,,moral_self_bias,01,22,59.9948219954,m,001,2018_Apr_02_0845,
,,,,,,,,,,,,,,,,,,,,,,material/123.png,1,多才,material/23.png,1,material/123.png,有才,1,j,j,j,2,2,2,多才,,,,,,,,,0,114,114,22,0,0,0,0,,,,,,,f,0,0.924273967743,f,0,0.258241891861,moral_self_bias,01,22,59.9948219954,m,001,2018_Apr_02_0845,
,,,,,,,,,,,,,,,,,,,,,,material/123.png,1,多才,material/23.png,1,material/123.png,有才,1,j,j,j,2,2,2,多才,,,,,,,,,0,114,114,22,,,,,,,,,,,,,,,,,moral_self_bias,01,22,59.9948219954,m,001,2018_Apr_02_0845,
,,,,,,,,,,,,,,,,,,,,,,material/13.png,1,廉明,material/113.png,1,material/113.png,廉明,1,f,f,f,1,1,1,廉洁,,,,,,,,,0,115,115,92,0,0,0,0,,,,,,,f,1,1.38379096985,f,0,0.541346073151,moral_self_bias,01,22,59.9948219954,m,001,2018_Apr_02_0845,
,,,,,,,,,,,,,,,,,,,,,,material/13.png,1,廉明,material/113.png,1,material/113.png,廉明,1,f,f,f,1,1,1,廉洁,,,,,,,,,0,115,115,92,,,,,,,,,,,,,,,,,moral_self_bias,01,22,59.9948219954,m,001,2018_Apr_02_0845,
,,,,,,,,,,,,,,,,,,,,,,material/147.png,2,刻板,material/47.png,2,material/147.png,死板,2,j,j,j,2,2,2,刻板,,,,,,,,,0,116,116,46,,,,,,,,,,,j,1,0.807842969894,,,,moral_self_bias,01,22,59.9948219954,m,001,2018_Apr_02_0845,
,,,,,,,,,,,,,,,,,,,,,,material/53.png,2,迟缓,material/153.png,2,material/53.png,迟钝,2,f,f,f,2,2,2,迟缓,,,,,,,,,0,117,117,132,,,,,,,,,,,j,0,0.724633932114,,,,moral_self_bias,01,22,59.9948219954,m,001,2018_Apr_02_0845,
,,,,,,,,,,,,,,,,,,,,,,material/11.png,1,高尚,material/111.png,1,material/111.png,高尚,1,f,f,f,1,1,1,高雅,,,,,,,,,0,118,118,90,0,0,0,0,,,,,,,f,1,1.01739096642,j,1,0.17471909523,moral_self_bias,01,22,59.9948219954,m,001,2018_Apr_02_0845,
,,,,,,,,,,,,,,,,,,,,,,material/11.png,1,高尚,material/111.png,1,material/111.png,高尚,1,f,f,f,1,1,1,高雅,,,,,,,,,0,118,118,90,,,,,,,,,,,,,,,,,moral_self_bias,01,22,59.9948219954,m,001,2018_Apr_02_0845,
,,,,,,,,,,,,,,,,,,,,,,material/41.png,2,残忍,material/141.png,2,material/141.png,残忍,2,f,f,f,1,1,1,歹毒,,,,,,,,,0,119,119,120,0,0,0,0,,,,,,,f,1,5.34134078026,j,1,0.341001033783,moral_self_bias,01,22,59.9948219954,m,001,2018_Apr_02_0845,
,,,,,,,,,,,,,,,,,,,,,,material/41.png,2,残忍,material/141.png,2,material/141.png,残忍,2,f,f,f,1,1,1,歹毒,,,,,,,,,0,119,119,120,,,,,,,,,,,,,,,,,moral_self_bias,01,22,59.9948219954,m,001,2018_Apr_02_0845,
,,,,,,,,,,,,,,,,,,,,,,material/7.png,1,公平,material/107.png,1,material/107.png,公平,1,f,f,f,1,1,1,公正,,,,,,,,,0,120,120,86,0,0,0,0,,,,,,,f,1,1.04069900513,f,0,0.257999897003,moral_self_bias,01,22,59.9948219954,m,001,2018_Apr_02_0845,
,,,,,,,,,,,,,,,,,,,,,,material/7.png,1,公平,material/107.png,1,material/107.png,公平,1,f,f,f,1,1,1,公正,,,,,,,,,0,120,120,86,,,,,,,,,,,,,,,,,moral_self_bias,01,22,59.9948219954,m,001,2018_Apr_02_0845,
,,,,,,,,,,,,,,,,,,,,,,material/178.png,2,窝囊,material/82.png,2,material/82.png,窝囊,2,j,j,j,2,2,2,毛糙,,,,,,,,,0,121,121,78,,,,,,,,,,,j,1,0.97483587265,,,,moral_self_bias,01,22,59.9948219954,m,001,2018_Apr_02_0845,
,,,,,,,,,,,,,,,,,,,,,,material/45.png,2,小人,material/145.png,2,material/145.png,小人,2,f,f,f,1,1,1,下流,,,,,,,,,0,122,122,124,,,,,,,,,,,j,0,0.691366910934,,,,moral_self_bias,01,22,59.9948219954,m,001,2018_Apr_02_0845,
,,,,,,,,,,,,,,,,,,,,,,material/46.png,2,自私,material/146.png,2,material/146.png,自私,2,f,f,f,1,1,1,小气,,,,,,,,,0,123,123,125,0,0,0,0,,,,,,,f,1,1.81009697914,j,1,0.134088039398,moral_self_bias,01,22,59.9948219954,m,001,2018_Apr_02_0845,
,,,,,,,,,,,,,,,,,,,,,,material/46.png,2,自私,material/146.png,2,material/146.png,自私,2,f,f,f,1,1,1,小气,,,,,,,,,0,123,123,125,,,,,,,,,,,,,,,,,moral_self_bias,01,22,59.9948219954,m,001,2018_Apr_02_0845,
,,,,,,,,,,,,,,,,,,,,,,material/135.png,2,冷漠,material/35.png,2,material/35.png,冷漠,2,j,j,j,1,1,1,冷血,,,,,,,,,0,124,124,34,,,,,,,,,,,j,1,1.3577709198,,,,moral_self_bias,01,22,59.9948219954,m,001,2018_Apr_02_0845,
,,,,,,,,,,,,,,,,,,,,,,material/101.png,1,善良,material/1.png,1,material/1.png,善良,1,j,j,j,1,1,1,博爱,,,,,,,,,0,125,125,0,0,0,0,0,,,,,,,f,0,1.15787982941,f,0,0.234089851379,moral_self_bias,01,22,59.9948219954,m,001,2018_Apr_02_0845,
,,,,,,,,,,,,,,,,,,,,,,material/101.png,1,善良,material/1.png,1,material/1.png,善良,1,j,j,j,1,1,1,博爱,,,,,,,,,0,125,125,0,,,,,,,,,,,,,,,,,moral_self_bias,01,22,59.9948219954,m,001,2018_Apr_02_0845,
,,,,,,,,,,,,,,,,,,,,,,material/174.png,2,虚伪,material/76.png,2,material/76.png,虚伪,2,j,j,j,1,1,1,不义,,,,,,,,,0,126,126,72,,,,,,,,,,,j,1,1.52439498901,,,,moral_self_bias,01,22,59.9948219954,m,001,2018_Apr_02_0845,
,,,,,,,,,,,,,,,,,,,,,,material/163.png,1,文明,material/163.png,1,material/63.png,宽容,1,f,f,f,1,1,1,宽容,,,,,,,,,0,127,127,142,,,,,,,,,,,j,0,0.758692026138,,,,moral_self_bias,01,22,59.9948219954,m,001,2018_Apr_02_0845,
,,,,,,,,,,,,,,,,,,,,,,material/108.png,1,公道,material/8.png,1,material/8.png,公道,1,j,j,j,1,1,1,无私,,,,,,,,,0,128,128,7,,,,,,,,,,,j,1,0.941488027573,,,,moral_self_bias,01,22,59.9948219954,m,001,2018_Apr_02_0845,
,,,,,,,,,,,,,,,,,,,,,,material/180.png,2,无助,material/79.png,2,material/81.png,颓废,2,j,j,j,2,2,2,怠惰,,,,,,,,,0,129,129,75,,,,,,,,,,,j,1,0.790823936462,,,,moral_self_bias,01,22,59.9948219954,m,001,2018_Apr_02_0845,
,,,,,,,,,,,,,,,,,,,,,,material/52.png,2,拖延,material/152.png,2,material/52.png,缓慢,2,f,f,f,2,2,2,拖延,,,,,,,,,0,130,130,131,,,,,,,,,,,j,0,0.62455701828,,,,moral_self_bias,01,22,59.9948219954,m,001,2018_Apr_02_0845,
,,,,,,,,,,,,,,,,,,,,,,material/104.png,1,友爱,material/4.png,1,material/4.png,友爱,1,j,j,j,1,1,1,友善,,,,,,,,,0,131,131,3,,,,,,,,,,,j,1,0.883543014526,,,,moral_self_bias,01,22,59.9948219954,m,001,2018_Apr_02_0845,
,,,,,,,,,,,,,,,,,,,,,,material/160.png,2,笨拙,material/60.png,2,material/160.png,粗拙,2,j,j,j,2,2,2,笨拙,,,,,,,,,0,132,132,59,,,,,,,,,,,j,1,0.641545057297,,,,moral_self_bias,01,22,59.9948219954,m,001,2018_Apr_02_0845,
,,,,,,,,,,,,,,,,,,,,,,material/130.png,1,进取,material/30.png,1,material/130.png,上进,1,j,j,j,2,2,2,进取,,,,,,,,,0,133,133,29,,,,,,,,,,,j,1,0.608387947083,,,,moral_self_bias,01,22,59.9948219954,m,001,2018_Apr_02_0845,
,,,,,,,,,,,,,,,,,,,,,,material/110.png,1,顽强,material/10.png,1,material/10.png,顽强,1,j,j,j,1,1,1,坚毅,,,,,,,,,0,134,134,9,,,,,,,,,,,j,1,0.791656970978,,,,moral_self_bias,01,22,59.9948219954,m,001,2018_Apr_02_0845,
,,,,,,,,,,,,,,,,,,,,,,material/141.png,2,歹毒,material/41.png,2,material/41.png,歹毒,2,j,j,j,1,1,1,残忍,,,,,,,,,0,135,135,40,,,,,,,,,,,j,1,0.696132183075,,,,moral_self_bias,01,22,59.9948219954,m,001,2018_Apr_02_0845,
,,,,,,,,,,,,,,,,,,,,,,material/83.png,2,差生,material/78.png,2,material/179.png,草率,2,j,j,j,2,2,2,呆笨,,,,,,,,,0,136,136,74,,,,,,,,,,,j,1,0.808959007263,,,,moral_self_bias,01,22,59.9948219954,m,001,2018_Apr_02_0845,
,,,,,,,,,,,,,,,,,,,,,,material/142.png,2,阴险,material/42.png,2,material/42.png,阴险,2,j,j,j,1,1,1,奸诈,,,,,,,,,0,137,137,41,,,,,,,,,,,j,1,0.791542053223,,,,moral_self_bias,01,22,59.9948219954,m,001,2018_Apr_02_0845,
,,,,,,,,,,,,,,,,,,,,,,material/18.png,1,敏锐,material/118.png,1,material/18.png,机敏,1,f,f,f,2,2,2,敏锐,,,,,,,,,0,138,138,97,,,,,,,,,,,j,0,1.07444596291,,,,moral_self_bias,01,22,59.9948219954,m,001,2018_Apr_02_0845,
,,,,,,,,,,,,,,,,,,,,,,material/19.png,1,灵活,material/119.png,1,material/19.png,机灵,1,f,f,f,2,2,2,灵活,,,,,,,,,0,139,139,98,,,,,,,,,,,j,0,0.974990129471,,,,moral_self_bias,01,22,59.9948219954,m,001,2018_Apr_02_0845,
,,,,,,,,,,,,,,,,,,,,,,material/40.png,2,狠毒,material/140.png,2,material/140.png,狠毒,2,f,f,f,1,1,1,邪恶,,,,,,,,,0,140,140,119,,,,,,,,,,,j,0,0.841777086258,,,,moral_self_bias,01,22,59.9948219954,m,001,2018_Apr_02_0845,
,,,,,,,,,,,,,,,,,,,,,,material/127.png,1,超群,material/27.png,1,material/127.png,卓越,1,j,j,j,2,2,2,超群,,,,,,,,,0,141,141,26,,,,,,,,,,,j,1,0.690448999405,,,,moral_self_bias,01,22,59.9948219954,m,001,2018_Apr_02_0845,
,,,,,,,,,,,,,,,,,,,,,,material/167.png,1,高手,material/169.png,1,material/167.png,颖悟,1,f,f,f,2,2,2,高手,,,,,,,,,0,142,142,148,,,,,,,,,,,j,0,0.741544961929,,,,moral_self_bias,01,22,59.9948219954,m,001,2018_Apr_02_0845,
,,,,,,,,,,,,,,,,,,,,,,material/37.png,2,卑鄙,material/137.png,2,material/137.png,卑鄙,2,f,f,f,1,1,1,无耻,,,,,,,,,0,143,143,116,,,,,,,,,,,j,0,0.90776014328,,,,moral_self_bias,01,22,59.9948219954,m,001,2018_Apr_02_0845,
,,,,,,,,,,,,,,,,,,,,,,material/137.png,2,无耻,material/37.png,2,material/37.png,无耻,2,j,j,j,1,1,1,卑鄙,,,,,,,,,0,144,144,36,,,,,,,,,,,j,1,1.16607499123,,,,moral_self_bias,01,22,59.9948219954,m,001,2018_Apr_02_0845,
,,,,,,,,,,,,,,,,,,,,,,material/30.png,1,上进,material/130.png,1,material/30.png,进取,1,f,f,f,2,2,2,上进,,,,,,,,,0,145,145,109,,,,,,,,,,,j,0,1.0041680336,,,,moral_self_bias,01,22,59.9948219954,m,001,2018_Apr_02_0845,
,,,,,,,,,,,,,,,,,,,,,,material/77.png,2,浮夸,material/172.png,2,material/172.png,浮夸,2,f,f,f,1,1,1,软弱,,,,,,,,,0,146,146,151,0,0,0,0,,,,,,,f,1,0.940663099289,j,1,0.175663948059,moral_self_bias,01,22,59.9948219954,m,001,2018_Apr_02_0845,
,,,,,,,,,,,,,,,,,,,,,,material/77.png,2,浮夸,material/172.png,2,material/172.png,浮夸,2,f,f,f,1,1,1,软弱,,,,,,,,,0,146,146,151,,,,,,,,,,,,,,,,,moral_self_bias,01,22,59.9948219954,m,001,2018_Apr_02_0845,
,,,,,,,,,,,,,,,,,,,,,,material/113.png,1,廉洁,material/13.png,1,material/13.png,廉洁,1,j,j,j,1,1,1,廉明,,,,,,,,,0,147,147,12,,,,,,,,,,,j,1,1.09214997292,,,,moral_self_bias,01,22,59.9948219954,m,001,2018_Apr_02_0845,
,,,,,,,,,,,,,,,,,,,,,,material/109.png,1,秉直,material/9.png,1,material/9.png,秉直,1,j,j,j,1,1,1,正直,,,,,,,,,0,148,148,8,,,,,,,,,,,j,1,0.791511058807,,,,moral_self_bias,01,22,59.9948219954,m,001,2018_Apr_02_0845,
,,,,,,,,,,,,,,,,,,,,,,material/32.png,2,背叛,material/132.png,2,material/132.png,背叛,2,f,f,f,1,1,1,不忠,,,,,,,,,0,149,149,111,,,,,,,,,,,j,0,0.808232069016,,,,moral_self_bias,01,22,59.9948219954,m,001,2018_Apr_02_0845,
,,,,,,,,,,,,,,,,,,,,,,material/155.png,2,盲目,material/55.png,2,material/155.png,盲从,2,j,j,j,2,2,2,盲目,,,,,,,,,0,150,150,54,,,,,,,,,,,j,1,2.49169492722,,,,moral_self_bias,01,22,59.9948219954,m,001,2018_Apr_02_0845,
,,,,,,,,,,,,,,,,,,,,,,material/60.png,2,粗拙,material/160.png,2,material/60.png,笨拙,2,f,f,f,2,2,2,粗拙,,,,,,,,,0,151,151,139,,,,,,,,,,,j,0,1.79188990593,,,,moral_self_bias,01,22,59.9948219954,m,001,2018_Apr_02_0845,
,,,,,,,,,,,,,,,,,,,,,,material/171.png,1,高效,material/67.png,1,material/171.png,骁勇,1,j,j,j,2,2,2,高效,,,,,,,,,0,152,152,65,,,,,,,,,,,j,1,0.908146858215,,,,moral_self_bias,01,22,59.9948219954,m,001,2018_Apr_02_0845,
,,,,,,,,,,,,,,,,,,,,,,material/70.png,1,全面,material/168.png,1,material/70.png,机变,1,f,f,f,2,2,2,全面,,,,,,,,,0,153,153,147,0,0,0,0,,,,,,,f,1,0.958446979523,j,1,0.191643953323,moral_self_bias,01,22,59.9948219954,m,001,2018_Apr_02_0845,
,,,,,,,,,,,,,,,,,,,,,,material/70.png,1,全面,material/168.png,1,material/70.png,机变,1,f,f,f,2,2,2,全面,,,,,,,,,0,153,153,147,,,,,,,,,,,,,,,,,moral_self_bias,01,22,59.9948219954,m,001,2018_Apr_02_0845,
,,,,,,,,,,,,,,,,,,,,,,material/31.png,1,笃学,material/131.png,1,material/31.png,笃行,1,f,f,f,2,2,2,笃学,,,,,,,,,0,154,154,110,0,0,0,0,,,,,,,f,1,0.94061589241,f,0,0.241665124893,moral_self_bias,01,22,59.9948219954,m,001,2018_Apr_02_0845,
,,,,,,,,,,,,,,,,,,,,,,material/31.png,1,笃学,material/131.png,1,material/31.png,笃行,1,f,f,f,2,2,2,笃学,,,,,,,,,0,154,154,110,,,,,,,,,,,,,,,,,moral_self_bias,01,22,59.9948219954,m,001,2018_Apr_02_0845,
,,,,,,,,,,,,,,,,,,,,,,material/182.png,2,健忘,material/184.png,2,material/80.png,厌学,2,f,f,f,2,2,2,才尽,,,,,,,,,0,155,155,163,0,0,0,0,,,,,,,f,1,0.950167179108,j,1,0.141143083572,moral_self_bias,01,22,59.9948219954,m,001,2018_Apr_02_0845,
,,,,,,,,,,,,,,,,,,,,,,material/182.png,2,健忘,material/184.png,2,material/80.png,厌学,2,f,f,f,2,2,2,才尽,,,,,,,,,0,155,155,163,,,,,,,,,,,,,,,,,moral_self_bias,01,22,59.9948219954,m,001,2018_Apr_02_0845,
,,,,,,,,,,,,,,,,,,,,,,material/72.png,2,软弱,material/77.png,2,material/77.png,软弱,2,j,j,j,1,1,1,谄媚,,,,,,,,,0,156,156,73,,,,,,,,,,,j,1,0.850970983505,,,,moral_self_bias,01,22,59.9948219954,m,001,2018_Apr_02_0845,
,,,,,,,,,,,,,,,,,,,,,,material/49.png,2,痴呆,material/149.png,2,material/49.png,白痴,2,f,f,f,2,2,2,痴呆,,,,,,,,,0,157,157,128,,,,,,,,,,,j,0,3.15703392029,,,,moral_self_bias,01,22,59.9948219954,m,001,2018_Apr_02_0845,
,,,,,,,,,,,,,,,,,,,,,,material/54.png,2,依赖,material/154.png,2,material/54.png,依靠,2,f,f,f,2,2,2,依赖,,,,,,,,,0,158,158,133,,,,,,,,,,,j,0,1.29088783264,,,,moral_self_bias,01,22,59.9948219954,m,001,2018_Apr_02_0845,
,,,,,,,,,,,,,,,,,,,,,,material/129.png,1,好问,material/29.png,1,material/129.png,好学,1,j,j,j,2,2,2,好问,,,,,,,,,0,159,159,28,,,,,,,,,,,j,1,0.890953779221,,,,moral_self_bias,01,22,59.9948219954,m,001,2018_Apr_02_0845,
,,,,,,,,,,,,,,,,,,,,,,material/80.png,2,才尽,material/83.png,2,material/182.png,呆笨,2,j,j,j,2,2,2,健忘,,,,,,,,,0,160,160,79,,,,,,,,,,,j,1,1.27532505989,,,,moral_self_bias,01,22,59.9948219954,m,001,2018_Apr_02_0845,
,,,,,,,,,,,,,,,,,,,,,,material/126.png,1,勤快,material/26.png,1,material/126.png,刻苦,1,j,j,j,2,2,2,勤快,,,,,,,,,0,161,161,25,,,,,,,,,,,j,1,1.27368593216,,,,moral_self_bias,01,22,59.9948219954,m,001,2018_Apr_02_0845,
,,,,,,,,,,,,,,,,,,,,,,material/16.png,1,睿智,material/116.png,1,material/16.png,机智,1,f,f,f,2,2,2,睿智,,,,,,,,,0,162,162,95,0,0,0,0,,,,,,,f,1,1.69069314003,j,1,0.159008026123,moral_self_bias,01,22,59.9948219954,m,001,2018_Apr_02_0845,
,,,,,,,,,,,,,,,,,,,,,,material/16.png,1,睿智,material/116.png,1,material/16.png,机智,1,f,f,f,2,2,2,睿智,,,,,,,,,0,162,162,95,,,,,,,,,,,,,,,,,moral_self_bias,01,22,59.9948219954,m,001,2018_Apr_02_0845,
,,,,,,,,,,,,,,,,,,,,,,material/131.png,1,笃行,material/31.png,1,material/131.png,笃学,1,j,j,j,2,2,2,笃行,,,,,,,,,0,163,163,30,0,0,0,0,,,,,,,f,0,2.25790715218,f,0,0.341907978058,moral_self_bias,01,22,59.9948219954,m,001,2018_Apr_02_0845,
,,,,,,,,,,,,,,,,,,,,,,material/131.png,1,笃行,material/31.png,1,material/131.png,笃学,1,j,j,j,2,2,2,笃行,,,,,,,,,0,163,163,30,,,,,,,,,,,,,,,,,moral_self_bias,01,22,59.9948219954,m,001,2018_Apr_02_0845,
,,,,,,,,,,,,,,,,,,,,,,material/36.png,2,撒谎,material/136.png,2,material/136.png,撒谎,2,f,f,f,1,1,1,说谎,,,,,,,,,0,164,164,115,0,0,0,0,,,,,,,f,1,1.00798511505,f,0,0.225057840347,moral_self_bias,01,22,59.9948219954,m,001,2018_Apr_02_0845,
,,,,,,,,,,,,,,,,,,,,,,material/36.png,2,撒谎,material/136.png,2,material/136.png,撒谎,2,f,f,f,1,1,1,说谎,,,,,,,,,0,164,164,115,,,,,,,,,,,,,,,,,moral_self_bias,01,22,59.9948219954,m,001,2018_Apr_02_0845,
,,,,,,,,,,,,,,,,,,,,,,material/181.png,2,怠惰,material/180.png,2,material/180.png,怠惰,2,f,f,f,2,2,2,犹豫,,,,,,,,,0,165,165,159,0,0,0,0,,,,,,,f,1,1.24085092545,j,1,0.126837015152,moral_self_bias,01,22,59.9948219954,m,001,2018_Apr_02_0845,
,,,,,,,,,,,,,,,,,,,,,,material/181.png,2,怠惰,material/180.png,2,material/180.png,怠惰,2,f,f,f,2,2,2,犹豫,,,,,,,,,0,165,165,159,,,,,,,,,,,,,,,,,moral_self_bias,01,22,59.9948219954,m,001,2018_Apr_02_0845,
,,,,,,,,,,,,,,,,,,,,,,material/158.png,2,浅薄,material/58.png,2,material/158.png,肤浅,2,j,j,j,2,2,2,浅薄,,,,,,,,,0,166,166,57,,,,,,,,,,,j,1,1.10731601715,,,,moral_self_bias,01,22,59.9948219954,m,001,2018_Apr_02_0845,
,,,,,,,,,,,,,,,,,,,,,,material/150.png,2,鲁钝,material/50.png,2,material/150.png,愚笨,2,j,j,j,2,2,2,鲁钝,,,,,,,,,0,167,167,49,,,,,,,,,,,j,1,0.75720000267,,,,moral_self_bias,01,22,59.9948219954,m,001,2018_Apr_02_0845,
