Block1_Old,Num_Source3,Num_Source2,Num_Source1,valence1,valence2,valence3,Num_Old2,Corr_S1,Num_Old1,Corr_S3,Corr_S2,Block3_Old,Block2_Old,Source_2,Source_3,Source_1,domain3,domain2,domain1,Num_Old3,math,Num_All2,valence_all1,All_Words3,Num_All1,valence_all2,Num_All3,All_Words1,valence_all3,Corr_Rec2,Corr_Rec3,Corr_Rec1,domian_all3,domian_all2,domian_all1,All_Words2,trials.thisRepN,trials.thisTrialN,trials.thisN,trials.thisIndex,trials_2.thisRepN,trials_2.thisTrialN,trials_2.thisN,trials_2.thisIndex,trials_4.thisRepN,trials_4.thisTrialN,trials_4.thisN,trials_4.thisIndex,trials_3.thisRepN,trials_3.thisTrialN,trials_3.thisN,trials_3.thisIndex,block_resp_1.keys,block_resp_1.rt,words_rating.keys,words_rating.rt,block_resp_2.keys,block_resp_2.rt,Rec_resp.keys,Rec_resp.corr,Rec_resp.rt,Source_resp.keys,Source_resp.corr,Source_resp.rt,expName,participant,Age,frameRate,Sex,session,date,
,,,,,,,,,,,,,,,,,,,,,,,,,,,,,,,,,,,,,,,,,,,,,,,,,,,,,1,2.30879497528,,,,,,,,,,,moral_self_bias,04,19,60.0070961761,f,001,2018_Apr_02_1029,
勤快,material/instr2_2.png,material/instr2_2.png,material/instr2_2.png,1,1,1,material/26.png,j,material/126.png,j,j,刻苦,刻苦,friend,friend,friend,2,2,2,material/26.png,,,,,,,,,,,,,,,,,0,0,0,25,,,,,,,,,,,,,,,None,,,,,,,,,,moral_self_bias,04,19,60.0070961761,f,001,2018_Apr_02_1029,
坚忍,material/instr2_1.png,material/instr2_1.png,material/instr2_1.png,1,1,1,material/168.png,f,material/170.png,f,f,机变,机变,self,self,self,2,2,2,material/168.png,,,,,,,,,,,,,,,,,0,1,1,69,,,,,,,,,,,,,,,4,2.60860395432,,,,,,,,,moral_self_bias,04,19,60.0070961761,f,001,2018_Apr_02_1029,
愚钝,material/instr2_1.png,material/instr2_1.png,material/instr2_1.png,2,2,2,material/56.png,f,material/156.png,f,f,愚昧,愚昧,self,self,self,2,2,2,material/56.png,,,,,,,,,,,,,,,,,0,2,2,55,,,,,,,,,,,,,,,3,2.44243597984,,,,,,,,,moral_self_bias,04,19,60.0070961761,f,001,2018_Apr_02_1029,
鲁钝,material/instr2_2.png,material/instr2_2.png,material/instr2_2.png,2,2,2,material/50.png,j,material/150.png,j,j,愚笨,愚笨,friend,friend,friend,2,2,2,material/50.png,,,,,,,,,,,,,,,,,0,3,3,49,,,,,,,,,,,,,,,1,1.97576498985,,,,,,,,,moral_self_bias,04,19,60.0070961761,f,001,2018_Apr_02_1029,
顽愚,material/instr2_1.png,material/instr2_1.png,material/instr2_1.png,2,2,2,material/84.png,f,material/84.png,f,f,犹豫,顽愚,self,self,self,2,2,2,material/181.png,,,,,,,,,,,,,,,,,0,4,4,87,,,,,,,,,,,,,,,2,2.07545804977,,,,,,,,,moral_self_bias,04,19,60.0070961761,f,001,2018_Apr_02_1029,
机敏,material/instr2_2.png,material/instr2_2.png,material/instr2_2.png,1,1,1,material/18.png,j,material/118.png,j,j,敏锐,敏锐,friend,friend,friend,2,2,2,material/18.png,,,,,,,,,,,,,,,,,0,5,5,17,,,,,,,,,,,,,,,2,2.50862288475,,,,,,,,,moral_self_bias,04,19,60.0070961761,f,001,2018_Apr_02_1029,
依靠,material/instr2_1.png,material/instr2_1.png,material/instr2_1.png,2,2,2,material/54.png,f,material/154.png,f,f,依赖,依赖,self,self,self,2,2,2,material/54.png,,,,,,,,,,,,,,,,,0,6,6,53,,,,,,,,,,,,,,,None,,,,,,,,,,moral_self_bias,04,19,60.0070961761,f,001,2018_Apr_02_1029,
孝顺,material/instr2_1.png,material/instr2_1.png,material/instr2_1.png,1,1,1,material/161.png,f,material/164.png,f,f,奉献,勇敢,self,self,self,1,1,1,material/64.png,,,,,,,,,,,,,,,,,0,7,7,63,,,,,,,,,,,,,,,5,2.40945196152,,,,,,,,,moral_self_bias,04,19,60.0070961761,f,001,2018_Apr_02_1029,
忠心,material/instr2_1.png,material/instr2_1.png,material/instr2_1.png,1,1,1,material/12.png,f,material/112.png,f,f,忠心,忠诚,self,self,self,1,1,1,material/112.png,,,,,,,,,,,,,,,,,0,8,8,11,,,,,,,,,,,,,,,5,1.64212203026,,,,,,,,,moral_self_bias,04,19,60.0070961761,f,001,2018_Apr_02_1029,
高明,material/instr2_1.png,material/instr2_1.png,material/instr2_1.png,1,1,1,material/69.png,f,material/69.png,f,f,高明,高明,self,self,self,2,2,2,material/69.png,,,,,,,,,,,,,,,,,0,9,9,86,,,,,,,,,,,,,,,2,1.45852398872,,,,,,,,,moral_self_bias,04,19,60.0070961761,f,001,2018_Apr_02_1029,
精干,material/instr2_1.png,material/instr2_1.png,material/instr2_1.png,1,1,1,material/21.png,f,material/121.png,f,f,干练,干练,self,self,self,2,2,2,material/21.png,,,,,,,,,,,,,,,,,0,10,10,20,,,,,,,,,,,,,,,3,1.30826401711,,,,,,,,,moral_self_bias,04,19,60.0070961761,f,001,2018_Apr_02_1029,
自律,material/instr2_2.png,material/instr2_2.png,material/instr2_2.png,1,1,1,material/28.png,j,material/128.png,j,j,克己,克己,friend,friend,friend,2,2,2,material/28.png,,,,,,,,,,,,,,,,,0,11,11,27,,,,,,,,,,,,,,,4,1.84171414375,,,,,,,,,moral_self_bias,04,19,60.0070961761,f,001,2018_Apr_02_1029,
敬业,material/instr2_2.png,material/instr2_2.png,material/instr2_2.png,1,1,1,material/62.png,j,material/162.png,j,j,坚韧,坚韧,friend,friend,friend,1,1,1,material/62.png,,,,,,,,,,,,,,,,,0,12,12,61,,,,,,,,,,,,,,,4,1.47522687912,,,,,,,,,moral_self_bias,04,19,60.0070961761,f,001,2018_Apr_02_1029,
缺德,material/instr2_2.png,material/instr2_2.png,material/instr2_2.png,2,2,2,material/38.png,j,material/138.png,j,j,缺德,无德,friend,friend,friend,1,1,1,material/138.png,,,,,,,,,,,,,,,,,0,13,13,37,,,,,,,,,,,,,,,1,1.24157094955,,,,,,,,,moral_self_bias,04,19,60.0070961761,f,001,2018_Apr_02_1029,
好问,material/instr2_1.png,material/instr2_1.png,material/instr2_1.png,1,1,1,material/29.png,f,material/129.png,f,f,好学,好学,self,self,self,2,2,2,material/29.png,,,,,,,,,,,,,,,,,0,14,14,28,,,,,,,,,,,,,,,3,1.50830817223,,,,,,,,,moral_self_bias,04,19,60.0070961761,f,001,2018_Apr_02_1029,
奸诈,material/instr2_1.png,material/instr2_1.png,material/instr2_1.png,2,2,2,material/42.png,f,material/142.png,f,f,奸诈,阴险,self,self,self,1,1,1,material/142.png,,,,,,,,,,,,,,,,,0,15,15,41,,,,,,,,,,,,,,,4,1.57536888123,,,,,,,,,moral_self_bias,04,19,60.0070961761,f,001,2018_Apr_02_1029,
高尚,material/instr2_1.png,material/instr2_1.png,material/instr2_1.png,1,1,1,material/11.png,f,material/111.png,f,f,高尚,高雅,self,self,self,1,1,1,material/111.png,,,,,,,,,,,,,,,,,0,16,16,10,,,,,,,,,,,,,,,4,1.39200997353,,,,,,,,,moral_self_bias,04,19,60.0070961761,f,001,2018_Apr_02_1029,
爽约,material/instr2_2.png,material/instr2_2.png,material/instr2_2.png,2,2,2,material/44.png,j,material/144.png,j,j,爽约,失信,friend,friend,friend,1,1,1,material/144.png,,,,,,,,,,,,,,,,,0,17,17,43,,,,,,,,,,,,,,,1,1.69226002693,,,,,,,,,moral_self_bias,04,19,60.0070961761,f,001,2018_Apr_02_1029,
宽容,material/instr2_2.png,material/instr2_2.png,material/instr2_2.png,1,1,1,material/163.png,j,material/163.png,j,j,文明,宽容,friend,friend,friend,1,1,1,material/63.png,,,,,,,,,,,,,,,,,0,18,18,62,,,,,,,,,,,,,,,4,2.24209594727,,,,,,,,,moral_self_bias,04,19,60.0070961761,f,001,2018_Apr_02_1029,
浅薄,material/instr2_2.png,material/instr2_2.png,material/instr2_2.png,2,2,2,material/58.png,j,material/158.png,j,j,肤浅,肤浅,friend,friend,friend,2,2,2,material/58.png,,,,,,,,,,,,,,,,,0,19,19,57,,,,,,,,,,,,,,,1,1.17541980743,,,,,,,,,moral_self_bias,04,19,60.0070961761,f,001,2018_Apr_02_1029,
坚毅,material/instr2_2.png,material/instr2_2.png,material/instr2_2.png,1,1,1,material/10.png,j,material/110.png,j,j,坚毅,顽强,friend,friend,friend,1,1,1,material/110.png,,,,,,,,,,,,,,,,,0,20,20,9,,,,,,,,,,,,,,,5,1.15889000893,,,,,,,,,moral_self_bias,04,19,60.0070961761,f,001,2018_Apr_02_1029,
盲目,material/instr2_1.png,material/instr2_1.png,material/instr2_1.png,2,2,2,material/55.png,f,material/155.png,f,f,盲从,盲从,self,self,self,2,2,2,material/55.png,,,,,,,,,,,,,,,,,0,21,21,54,,,,,,,,,,,,,,,3,1.92483901978,,,,,,,,,moral_self_bias,04,19,60.0070961761,f,001,2018_Apr_02_1029,
自私,material/instr2_2.png,material/instr2_2.png,material/instr2_2.png,2,2,2,material/46.png,j,material/146.png,j,j,自私,小气,friend,friend,friend,1,1,1,material/146.png,,,,,,,,,,,,,,,,,0,22,22,45,,,,,,,,,,,,,,,1,1.52582406998,,,,,,,,,moral_self_bias,04,19,60.0070961761,f,001,2018_Apr_02_1029,
笨拙,material/instr2_1.png,material/instr2_1.png,material/instr2_1.png,2,2,2,material/60.png,f,material/160.png,f,f,粗拙,粗拙,self,self,self,2,2,2,material/60.png,,,,,,,,,,,,,,,,,0,23,23,59,,,,,,,,,,,,,,,3,2.11644816399,,,,,,,,,moral_self_bias,04,19,60.0070961761,f,001,2018_Apr_02_1029,
笨蛋,material/instr2_2.png,material/instr2_2.png,material/instr2_2.png,2,2,2,material/48.png,j,material/148.png,j,j,愚蠢,愚蠢,friend,friend,friend,2,2,2,material/48.png,,,,,,,,,,,,,,,,,0,24,24,47,,,,,,,,,,,,,,,1,2.65925598145,,,,,,,,,moral_self_bias,04,19,60.0070961761,f,001,2018_Apr_02_1029,
恶心,material/instr2_1.png,material/instr2_1.png,material/instr2_1.png,2,2,2,material/73.png,f,material/177.png,f,f,恶心,残虐,self,self,self,1,1,1,material/177.png,,,,,,,,,,,,,,,,,0,25,25,76,,,,,,,,,,,,,,,1,2.40821290016,,,,,,,,,moral_self_bias,04,19,60.0070961761,f,001,2018_Apr_02_1029,
笃行,material/instr2_1.png,material/instr2_1.png,material/instr2_1.png,1,1,1,material/31.png,f,material/131.png,f,f,笃学,笃学,self,self,self,2,2,2,material/31.png,,,,,,,,,,,,,,,,,0,26,26,30,,,,,,,,,,,,,,,2,1.95024704933,,,,,,,,,moral_self_bias,04,19,60.0070961761,f,001,2018_Apr_02_1029,
独立,material/instr2_1.png,material/instr2_1.png,material/instr2_1.png,1,1,1,material/64.png,f,material/165.png,f,f,谦虚,奉献,self,self,self,1,1,1,material/65.png,,,,,,,,,,,,,,,,,0,27,27,64,,,,,,,,,,,,,,,4,2.34204316139,,,,,,,,,moral_self_bias,04,19,60.0070961761,f,001,2018_Apr_02_1029,
机智,material/instr2_2.png,material/instr2_2.png,material/instr2_2.png,1,1,1,material/16.png,j,material/116.png,j,j,睿智,睿智,friend,friend,friend,2,2,2,material/16.png,,,,,,,,,,,,,,,,,0,28,28,15,,,,,,,,,,,,,,,4,1.27614402771,,,,,,,,,moral_self_bias,04,19,60.0070961761,f,001,2018_Apr_02_1029,
聪颖,material/instr2_2.png,material/instr2_2.png,material/instr2_2.png,1,1,1,material/17.png,j,material/117.png,j,j,聪明,聪明,friend,friend,friend,2,2,2,material/17.png,,,,,,,,,,,,,,,,,0,29,29,16,,,,,,,,,,,,,,,4,0.821480035782,,,,,,,,,moral_self_bias,04,19,60.0070961761,f,001,2018_Apr_02_1029,
无能,material/instr2_2.png,material/instr2_2.png,material/instr2_2.png,2,2,2,material/57.png,j,material/157.png,j,j,无知,无知,friend,friend,friend,2,2,2,material/57.png,,,,,,,,,,,,,,,,,0,30,30,56,,,,,,,,,,,,,,,1,1.09227490425,,,,,,,,,moral_self_bias,04,19,60.0070961761,f,001,2018_Apr_02_1029,
残忍,material/instr2_2.png,material/instr2_2.png,material/instr2_2.png,2,2,2,material/41.png,j,material/141.png,j,j,残忍,歹毒,friend,friend,friend,1,1,1,material/141.png,,,,,,,,,,,,,,,,,0,31,31,40,,,,,,,,,,,,,,,1,1.07524418831,,,,,,,,,moral_self_bias,04,19,60.0070961761,f,001,2018_Apr_02_1029,
超群,material/instr2_2.png,material/instr2_2.png,material/instr2_2.png,1,1,1,material/27.png,j,material/127.png,j,j,卓越,卓越,friend,friend,friend,2,2,2,material/27.png,,,,,,,,,,,,,,,,,0,32,32,26,,,,,,,,,,,,,,,4,1.57468891144,,,,,,,,,moral_self_bias,04,19,60.0070961761,f,001,2018_Apr_02_1029,
多才,material/instr2_1.png,material/instr2_1.png,material/instr2_1.png,1,1,1,material/23.png,f,material/123.png,f,f,有才,有才,self,self,self,2,2,2,material/23.png,,,,,,,,,,,,,,,,,0,33,33,22,,,,,,,,,,,,,,,2,1.80885982513,,,,,,,,,moral_self_bias,04,19,60.0070961761,f,001,2018_Apr_02_1029,
厚道,material/instr2_2.png,material/instr2_2.png,material/instr2_2.png,1,1,1,material/6.png,j,material/106.png,j,j,厚道,诚实,friend,friend,friend,1,1,1,material/106.png,,,,,,,,,,,,,,,,,0,34,34,5,,,,,,,,,,,,,,,4,1.19243192673,,,,,,,,,moral_self_bias,04,19,60.0070961761,f,001,2018_Apr_02_1029,
能干,material/instr2_2.png,material/instr2_2.png,material/instr2_2.png,1,1,1,material/20.png,j,material/120.png,j,j,厉害,厉害,friend,friend,friend,2,2,2,material/20.png,,,,,,,,,,,,,,,,,0,35,35,19,,,,,,,,,,,,,,,4,2.10869193077,,,,,,,,,moral_self_bias,04,19,60.0070961761,f,001,2018_Apr_02_1029,
高效,material/instr2_1.png,material/instr2_1.png,material/instr2_1.png,1,1,1,material/169.png,f,material/171.png,f,f,颖悟,颖悟,self,self,self,2,2,2,material/169.png,,,,,,,,,,,,,,,,,0,36,36,70,,,,,,,,,,,,,,,3,1.70855998993,,,,,,,,,moral_self_bias,04,19,60.0070961761,f,001,2018_Apr_02_1029,
颖悟,material/instr2_2.png,material/instr2_2.png,material/instr2_2.png,1,1,1,material/167.png,j,material/169.png,j,j,高手,高手,friend,friend,friend,2,2,2,material/167.png,,,,,,,,,,,,,,,,,0,37,37,68,,,,,,,,,,,,,,,4,1.12465190887,,,,,,,,,moral_self_bias,04,19,60.0070961761,f,001,2018_Apr_02_1029,
机灵,material/instr2_2.png,material/instr2_2.png,material/instr2_2.png,1,1,1,material/19.png,j,material/119.png,j,j,灵活,灵活,friend,friend,friend,2,2,2,material/19.png,,,,,,,,,,,,,,,,,0,38,38,18,,,,,,,,,,,,,,,4,0.758532047272,,,,,,,,,moral_self_bias,04,19,60.0070961761,f,001,2018_Apr_02_1029,
放纵,material/instr2_1.png,material/instr2_1.png,material/instr2_1.png,2,2,2,material/76.png,f,material/176.png,f,f,放纵,虚伪,self,self,self,1,1,1,material/176.png,,,,,,,,,,,,,,,,,0,39,39,75,,,,,,,,,,,,,,,4,1.45805311203,,,,,,,,,moral_self_bias,04,19,60.0070961761,f,001,2018_Apr_02_1029,
厌学,material/instr2_2.png,material/instr2_2.png,material/instr2_2.png,2,2,2,material/182.png,j,material/184.png,j,j,健忘,才尽,friend,friend,friend,2,2,2,material/80.png,,,,,,,,,,,,,,,,,0,40,40,83,,,,,,,,,,,,,,,2,1.69233489037,,,,,,,,,moral_self_bias,04,19,60.0070961761,f,001,2018_Apr_02_1029,
刻板,material/instr2_2.png,material/instr2_2.png,material/instr2_2.png,2,2,2,material/47.png,j,material/147.png,j,j,死板,死板,friend,friend,friend,2,2,2,material/47.png,,,,,,,,,,,,,,,,,0,41,41,46,,,,,,,,,,,,,,,1,1.87527108192,,,,,,,,,moral_self_bias,04,19,60.0070961761,f,001,2018_Apr_02_1029,
诚信,material/instr2_1.png,material/instr2_1.png,material/instr2_1.png,1,1,1,material/5.png,f,material/105.png,f,f,诚信,守信,self,self,self,1,1,1,material/105.png,,,,,,,,,,,,,,,,,0,42,42,4,,,,,,,,,,,,,,,4,1.29239010811,,,,,,,,,moral_self_bias,04,19,60.0070961761,f,001,2018_Apr_02_1029,
虚荣,material/instr2_1.png,material/instr2_1.png,material/instr2_1.png,2,2,2,material/43.png,f,material/143.png,f,f,虚荣,拜金,self,self,self,1,1,1,material/143.png,,,,,,,,,,,,,,,,,0,43,43,42,,,,,,,,,,,,,,,1,1.64290809631,,,,,,,,,moral_self_bias,04,19,60.0070961761,f,001,2018_Apr_02_1029,
正直,material/instr2_2.png,material/instr2_2.png,material/instr2_2.png,1,1,1,material/9.png,j,material/109.png,j,j,正直,秉直,friend,friend,friend,1,1,1,material/109.png,,,,,,,,,,,,,,,,,0,44,44,8,,,,,,,,,,,,,,,5,2.93309116364,,,,,,,,,moral_self_bias,04,19,60.0070961761,f,001,2018_Apr_02_1029,
高手,material/instr2_2.png,material/instr2_2.png,material/instr2_2.png,1,1,1,material/68.png,j,material/167.png,j,j,广博,广博,friend,friend,friend,2,2,2,material/68.png,,,,,,,,,,,,,,,,,0,45,45,66,,,,,,,,,,,,,,,4,1.7924451828,,,,,,,,,moral_self_bias,04,19,60.0070961761,f,001,2018_Apr_02_1029,
薄弱,material/instr2_1.png,material/instr2_1.png,material/instr2_1.png,2,2,2,material/82.png,f,material/183.png,f,f,毛糙,窝囊,self,self,self,2,2,2,material/178.png,,,,,,,,,,,,,,,,,0,46,46,82,,,,,,,,,,,,,,,2,1.35857796669,,,,,,,,,moral_self_bias,04,19,60.0070961761,f,001,2018_Apr_02_1029,
冷血,material/instr2_1.png,material/instr2_1.png,material/instr2_1.png,2,2,2,material/35.png,f,material/135.png,f,f,冷血,冷漠,self,self,self,1,1,1,material/135.png,,,,,,,,,,,,,,,,,0,47,47,34,,,,,,,,,,,,,,,3,2.95868396759,,,,,,,,,moral_self_bias,04,19,60.0070961761,f,001,2018_Apr_02_1029,
浮夸,material/instr2_2.png,material/instr2_2.png,material/instr2_2.png,2,2,2,material/77.png,j,material/172.png,j,j,浮夸,软弱,friend,friend,friend,1,1,1,material/172.png,,,,,,,,,,,,,,,,,0,48,48,71,,,,,,,,,,,,,,,None,,,,,,,,,,moral_self_bias,04,19,60.0070961761,f,001,2018_Apr_02_1029,
无私,material/instr2_2.png,material/instr2_2.png,material/instr2_2.png,1,1,1,material/8.png,j,material/108.png,j,j,无私,公道,friend,friend,friend,1,1,1,material/108.png,,,,,,,,,,,,,,,,,0,49,49,7,,,,,,,,,,,,,,,4,1.34964704514,,,,,,,,,moral_self_bias,04,19,60.0070961761,f,001,2018_Apr_02_1029,
撒谎,material/instr2_1.png,material/instr2_1.png,material/instr2_1.png,2,2,2,material/36.png,f,material/136.png,f,f,撒谎,说谎,self,self,self,1,1,1,material/136.png,,,,,,,,,,,,,,,,,0,50,50,35,,,,,,,,,,,,,,,2,2.12571597099,,,,,,,,,moral_self_bias,04,19,60.0070961761,f,001,2018_Apr_02_1029,
仗义,material/instr2_1.png,material/instr2_1.png,material/instr2_1.png,1,1,1,material/63.png,f,material/166.png,f,f,正义,文明,self,self,self,1,1,1,material/66.png,,,,,,,,,,,,,,,,,0,51,51,65,,,,,,,,,,,,,,,None,,,,,,,,,,moral_self_bias,04,19,60.0070961761,f,001,2018_Apr_02_1029,
博爱,material/instr2_1.png,material/instr2_1.png,material/instr2_1.png,1,1,1,material/1.png,f,material/101.png,f,f,博爱,善良,self,self,self,1,1,1,material/101.png,,,,,,,,,,,,,,,,,0,52,52,0,,,,,,,,,,,,,,,4,1.59995293617,,,,,,,,,moral_self_bias,04,19,60.0070961761,f,001,2018_Apr_02_1029,
机变,material/instr2_2.png,material/instr2_2.png,material/instr2_2.png,1,1,1,material/70.png,j,material/168.png,j,j,全面,全面,friend,friend,friend,2,2,2,material/70.png,,,,,,,,,,,,,,,,,0,53,53,67,,,,,,,,,,,,,,,4,1.80840492249,,,,,,,,,moral_self_bias,04,19,60.0070961761,f,001,2018_Apr_02_1029,
缓慢,material/instr2_1.png,material/instr2_1.png,material/instr2_1.png,2,2,2,material/52.png,f,material/152.png,f,f,拖延,拖延,self,self,self,2,2,2,material/52.png,,,,,,,,,,,,,,,,,0,54,54,51,,,,,,,,,,,,,,,4,2.60824203491,,,,,,,,,moral_self_bias,04,19,60.0070961761,f,001,2018_Apr_02_1029,
背叛,material/instr2_1.png,material/instr2_1.png,material/instr2_1.png,2,2,2,material/32.png,f,material/132.png,f,f,背叛,不忠,self,self,self,1,1,1,material/132.png,,,,,,,,,,,,,,,,,0,55,55,31,,,,,,,,,,,,,,,2,1.35821413994,,,,,,,,,moral_self_bias,04,19,60.0070961761,f,001,2018_Apr_02_1029,
可恶,material/instr2_1.png,material/instr2_1.png,material/instr2_1.png,2,2,2,material/34.png,f,material/134.png,f,f,可恶,可恨,self,self,self,1,1,1,material/134.png,,,,,,,,,,,,,,,,,0,56,56,33,,,,,,,,,,,,,,,2,0.908610105515,,,,,,,,,moral_self_bias,04,19,60.0070961761,f,001,2018_Apr_02_1029,
不义,material/instr2_2.png,material/instr2_2.png,material/instr2_2.png,2,2,2,material/173.png,j,material/174.png,j,j,不义,黑心,friend,friend,friend,1,1,1,material/174.png,,,,,,,,,,,,,,,,,0,57,57,73,,,,,,,,,,,,,,,1,1.05919694901,,,,,,,,,moral_self_bias,04,19,60.0070961761,f,001,2018_Apr_02_1029,
果敢,material/instr2_1.png,material/instr2_1.png,material/instr2_1.png,1,1,1,material/25.png,f,material/125.png,f,f,果断,果断,self,self,self,2,2,2,material/25.png,,,,,,,,,,,,,,,,,0,58,58,24,,,,,,,,,,,,,,,4,1.15921092033,,,,,,,,,moral_self_bias,04,19,60.0070961761,f,001,2018_Apr_02_1029,
狠毒,material/instr2_2.png,material/instr2_2.png,material/instr2_2.png,2,2,2,material/40.png,j,material/140.png,j,j,狠毒,邪恶,friend,friend,friend,1,1,1,material/140.png,,,,,,,,,,,,,,,,,0,59,59,39,,,,,,,,,,,,,,,1,0.826689958572,,,,,,,,,moral_self_bias,04,19,60.0070961761,f,001,2018_Apr_02_1029,
冷静,material/instr2_1.png,material/instr2_1.png,material/instr2_1.png,1,1,1,material/24.png,f,material/124.png,f,f,理智,理智,self,self,self,2,2,2,material/24.png,,,,,,,,,,,,,,,,,0,60,60,23,,,,,,,,,,,,,,,4,0.925928115845,,,,,,,,,moral_self_bias,04,19,60.0070961761,f,001,2018_Apr_02_1029,
弱智,material/instr2_1.png,material/instr2_1.png,material/instr2_1.png,2,2,2,material/59.png,f,material/159.png,f,f,智障,智障,self,self,self,2,2,2,material/59.png,,,,,,,,,,,,,,,,,0,61,61,58,,,,,,,,,,,,,,,1,0.809260129929,,,,,,,,,moral_self_bias,04,19,60.0070961761,f,001,2018_Apr_02_1029,
差生,material/instr2_2.png,material/instr2_2.png,material/instr2_2.png,2,2,2,material/81.png,j,material/179.png,j,j,呆笨,无助,friend,friend,friend,2,2,2,material/83.png,,,,,,,,,,,,,,,,,0,62,62,78,,,,,,,,,,,,,,,1,1.3594288826,,,,,,,,,moral_self_bias,04,19,60.0070961761,f,001,2018_Apr_02_1029,
爱心,material/instr2_1.png,material/instr2_1.png,material/instr2_1.png,1,1,1,material/2.png,f,material/102.png,f,f,爱心,善心,self,self,self,1,1,1,material/102.png,,,,,,,,,,,,,,,,,0,63,63,1,,,,,,,,,,,,,,,4,1.50828409195,,,,,,,,,moral_self_bias,04,19,60.0070961761,f,001,2018_Apr_02_1029,
白痴,material/instr2_2.png,material/instr2_2.png,material/instr2_2.png,2,2,2,material/49.png,j,material/149.png,j,j,痴呆,痴呆,friend,friend,friend,2,2,2,material/49.png,,,,,,,,,,,,,,,,,0,64,64,48,,,,,,,,,,,,,,,1,0.775874853134,,,,,,,,,moral_self_bias,04,19,60.0070961761,f,001,2018_Apr_02_1029,
忠贞,material/instr2_2.png,material/instr2_2.png,material/instr2_2.png,1,1,1,material/14.png,j,material/114.png,j,j,忠贞,爱国,friend,friend,friend,1,1,1,material/114.png,,,,,,,,,,,,,,,,,0,65,65,13,,,,,,,,,,,,,,,4,1.00866699219,,,,,,,,,moral_self_bias,04,19,60.0070961761,f,001,2018_Apr_02_1029,
残虐,material/instr2_1.png,material/instr2_1.png,material/instr2_1.png,2,2,2,material/175.png,f,material/73.png,f,f,残虐,无情,self,self,self,1,1,1,material/73.png,,,,,,,,,,,,,,,,,0,66,66,85,,,,,,,,,,,,,,,1,0.809893131256,,,,,,,,,moral_self_bias,04,19,60.0070961761,f,001,2018_Apr_02_1029,
廉明,material/instr2_2.png,material/instr2_2.png,material/instr2_2.png,1,1,1,material/13.png,j,material/113.png,j,j,廉明,廉洁,friend,friend,friend,1,1,1,material/113.png,,,,,,,,,,,,,,,,,0,67,67,12,,,,,,,,,,,,,,,5,1.15902209282,,,,,,,,,moral_self_bias,04,19,60.0070961761,f,001,2018_Apr_02_1029,
正义,material/instr2_1.png,material/instr2_1.png,material/instr2_1.png,1,1,1,material/66.png,f,material/66.png,f,f,独立,正义,self,self,self,1,1,1,material/165.png,,,,,,,,,,,,,,,,,0,68,68,84,,,,,,,,,,,,,,,5,0.791965961456,,,,,,,,,moral_self_bias,04,19,60.0070961761,f,001,2018_Apr_02_1029,
仁厚,material/instr2_1.png,material/instr2_1.png,material/instr2_1.png,1,1,1,material/3.png,f,material/103.png,f,f,仁厚,仁慈,self,self,self,1,1,1,material/103.png,,,,,,,,,,,,,,,,,0,69,69,2,,,,,,,,,,,,,,,4,1.55889797211,,,,,,,,,moral_self_bias,04,19,60.0070961761,f,001,2018_Apr_02_1029,
迟钝,material/instr2_1.png,material/instr2_1.png,material/instr2_1.png,2,2,2,material/53.png,f,material/153.png,f,f,迟缓,迟缓,self,self,self,2,2,2,material/53.png,,,,,,,,,,,,,,,,,0,70,70,52,,,,,,,,,,,,,,,1,2.07654309273,,,,,,,,,moral_self_bias,04,19,60.0070961761,f,001,2018_Apr_02_1029,
小人,material/instr2_2.png,material/instr2_2.png,material/instr2_2.png,2,2,2,material/45.png,j,material/145.png,j,j,小人,下流,friend,friend,friend,1,1,1,material/145.png,,,,,,,,,,,,,,,,,0,71,71,44,,,,,,,,,,,,,,,1,0.875890016556,,,,,,,,,moral_self_bias,04,19,60.0070961761,f,001,2018_Apr_02_1029,
迷糊,material/instr2_2.png,material/instr2_2.png,material/instr2_2.png,2,2,2,material/51.png,j,material/151.png,j,j,糊涂,糊涂,friend,friend,friend,2,2,2,material/51.png,,,,,,,,,,,,,,,,,0,72,72,50,,,,,,,,,,,,,,,1,0.775733947754,,,,,,,,,moral_self_bias,04,19,60.0070961761,f,001,2018_Apr_02_1029,
公平,material/instr2_2.png,material/instr2_2.png,material/instr2_2.png,1,1,1,material/7.png,j,material/107.png,j,j,公平,公正,friend,friend,friend,1,1,1,material/107.png,,,,,,,,,,,,,,,,,0,73,73,6,,,,,,,,,,,,,,,4,1.20898389816,,,,,,,,,moral_self_bias,04,19,60.0070961761,f,001,2018_Apr_02_1029,
犹豫,material/instr2_1.png,material/instr2_1.png,material/instr2_1.png,2,2,2,material/78.png,f,material/181.png,f,f,厌学,草率,self,self,self,2,2,2,material/184.png,,,,,,,,,,,,,,,,,0,74,74,80,,,,,,,,,,,,,,,1,0.775814056396,,,,,,,,,moral_self_bias,04,19,60.0070961761,f,001,2018_Apr_02_1029,
勇敢,material/instr2_2.png,material/instr2_2.png,material/instr2_2.png,1,1,1,material/165.png,j,material/161.png,j,j,平等,独立,friend,friend,friend,1,1,1,material/61.png,,,,,,,,,,,,,,,,,0,75,75,60,,,,,,,,,,,,,,,5,1.20929312706,,,,,,,,,moral_self_bias,04,19,60.0070961761,f,001,2018_Apr_02_1029,
贪污,material/instr2_1.png,material/instr2_1.png,material/instr2_1.png,2,2,2,material/33.png,f,material/133.png,f,f,贪污,腐败,self,self,self,1,1,1,material/133.png,,,,,,,,,,,,,,,,,0,76,76,32,,,,,,,,,,,,,,,1,0.792245864868,,,,,,,,,moral_self_bias,04,19,60.0070961761,f,001,2018_Apr_02_1029,
友善,material/instr2_1.png,material/instr2_1.png,material/instr2_1.png,1,1,1,material/4.png,f,material/104.png,f,f,友善,友爱,self,self,self,1,1,1,material/104.png,,,,,,,,,,,,,,,,,0,77,77,3,,,,,,,,,,,,,,,5,0.808155059814,,,,,,,,,moral_self_bias,04,19,60.0070961761,f,001,2018_Apr_02_1029,
怠惰,material/instr2_2.png,material/instr2_2.png,material/instr2_2.png,2,2,2,material/181.png,j,material/180.png,j,j,怠惰,犹豫,friend,friend,friend,2,2,2,material/180.png,,,,,,,,,,,,,,,,,0,78,78,79,,,,,,,,,,,,,,,1,1.00811290741,,,,,,,,,moral_self_bias,04,19,60.0070961761,f,001,2018_Apr_02_1029,
毛糙,material/instr2_2.png,material/instr2_2.png,material/instr2_2.png,2,2,2,material/179.png,j,material/178.png,j,j,顽愚,差生,friend,friend,friend,2,2,2,material/84.png,,,,,,,,,,,,,,,,,0,79,79,77,,,,,,,,,,,,,,,1,1.01692914963,,,,,,,,,moral_self_bias,04,19,60.0070961761,f,001,2018_Apr_02_1029,
无情,material/instr2_1.png,material/instr2_1.png,material/instr2_1.png,2,2,2,material/172.png,f,material/175.png,f,f,无情,浮夸,self,self,self,1,1,1,material/175.png,,,,,,,,,,,,,,,,,0,80,80,74,,,,,,,,,,,,,,,3,1.7420668602,,,,,,,,,moral_self_bias,04,19,60.0070961761,f,001,2018_Apr_02_1029,
恶毒,material/instr2_2.png,material/instr2_2.png,material/instr2_2.png,2,2,2,material/39.png,j,material/139.png,j,j,恶毒,凶残,friend,friend,friend,1,1,1,material/139.png,,,,,,,,,,,,,,,,,0,81,81,38,,,,,,,,,,,,,,,1,0.842253923416,,,,,,,,,moral_self_bias,04,19,60.0070961761,f,001,2018_Apr_02_1029,
进取,material/instr2_1.png,material/instr2_1.png,material/instr2_1.png,1,1,1,material/30.png,f,material/130.png,f,f,上进,上进,self,self,self,2,2,2,material/30.png,,,,,,,,,,,,,,,,,0,82,82,29,,,,,,,,,,,,,,,4,1.42498278618,,,,,,,,,moral_self_bias,04,19,60.0070961761,f,001,2018_Apr_02_1029,
卑鄙,material/instr2_2.png,material/instr2_2.png,material/instr2_2.png,2,2,2,material/37.png,j,material/137.png,j,j,卑鄙,无耻,friend,friend,friend,1,1,1,material/137.png,,,,,,,,,,,,,,,,,0,83,83,36,,,,,,,,,,,,,,,1,0.866407155991,,,,,,,,,moral_self_bias,04,19,60.0070961761,f,001,2018_Apr_02_1029,
黑心,material/instr2_2.png,material/instr2_2.png,material/instr2_2.png,2,2,2,material/74.png,j,material/173.png,j,j,黑心,卑劣,friend,friend,friend,1,1,1,material/173.png,,,,,,,,,,,,,,,,,0,84,84,72,,,,,,,,,,,,,,,1,0.60804605484,,,,,,,,,moral_self_bias,04,19,60.0070961761,f,001,2018_Apr_02_1029,
才尽,material/instr2_1.png,material/instr2_1.png,material/instr2_1.png,2,2,2,material/183.png,f,material/182.png,f,f,颓废,薄弱,self,self,self,2,2,2,material/79.png,,,,,,,,,,,,,,,,,0,85,85,81,,,,,,,,,,,,,,,1,1.17534685135,,,,,,,,,moral_self_bias,04,19,60.0070961761,f,001,2018_Apr_02_1029,
纯洁,material/instr2_2.png,material/instr2_2.png,material/instr2_2.png,1,1,1,material/15.png,j,material/115.png,j,j,纯洁,清白,friend,friend,friend,1,1,1,material/115.png,,,,,,,,,,,,,,,,,0,86,86,14,,,,,,,,,,,,,,,4,1.14315700531,,,,,,,,,moral_self_bias,04,19,60.0070961761,f,001,2018_Apr_02_1029,
博学,material/instr2_1.png,material/instr2_1.png,material/instr2_1.png,1,1,1,material/22.png,f,material/122.png,f,f,才学,才学,self,self,self,2,2,2,material/22.png,,,,,,,,,,,,,,,,,0,87,87,21,,,,,,,,,,,,,,,1,0.692162036896,,,,,,,,,moral_self_bias,04,19,60.0070961761,f,001,2018_Apr_02_1029,
,,,,,,,,,,,,,,,,,,,,,1-1= ?,,,,,,,,,,,,,,,,,,,,0,0,0,52,,,,,,,,,,,,,,,,,,,,,moral_self_bias,04,19,60.0070961761,f,001,2018_Apr_02_1029,
,,,,,,,,,,,,,,,,,,,,,11-11= ?,,,,,,,,,,,,,,,,,,,,0,1,1,119,,,,,,,,,,,,,,,,,,,,,moral_self_bias,04,19,60.0070961761,f,001,2018_Apr_02_1029,
,,,,,,,,,,,,,,,,,,,,,9-7= ?,,,,,,,,,,,,,,,,,,,,0,2,2,30,,,,,,,,,,,,,,,,,,,,,moral_self_bias,04,19,60.0070961761,f,001,2018_Apr_02_1029,
,,,,,,,,,,,,,,,,,,,,,2+2= ?,,,,,,,,,,,,,,,,,,,,0,3,3,8,,,,,,,,,,,,,,,,,,,,,moral_self_bias,04,19,60.0070961761,f,001,2018_Apr_02_1029,
,,,,,,,,,,,,,,,,,,,,,2+4= ?,,,,,,,,,,,,,,,,,,,,0,4,4,10,,,,,,,,,,,,,,,,,,,,,moral_self_bias,04,19,60.0070961761,f,001,2018_Apr_02_1029,
,,,,,,,,,,,,,,,,,,,,,8-2= ?,,,,,,,,,,,,,,,,,,,,0,5,5,38,,,,,,,,,,,,,,,,,,,,,moral_self_bias,04,19,60.0070961761,f,001,2018_Apr_02_1029,
,,,,,,,,,,,,,,,,,,,,,5+2= ?,,,,,,,,,,,,,,,,,,,,0,6,6,35,,,,,,,,,,,,,,,,,,,,,moral_self_bias,04,19,60.0070961761,f,001,2018_Apr_02_1029,
,,,,,,,,,,,,,,,,,,,,,50-42= ?,,,,,,,,,,,,,,,,,,,,0,7,7,81,,,,,,,,,,,,,,,,,,,,,moral_self_bias,04,19,60.0070961761,f,001,2018_Apr_02_1029,
,,,,,,,,,,,,,,,,,,,,,72/9= ?,,,,,,,,,,,,,,,,,,,,0,8,8,76,,,,,,,,,,,,,,,,,,,,,moral_self_bias,04,19,60.0070961761,f,001,2018_Apr_02_1029,
,,,,,,,,,,,,,,,,,,,,,8-6= ?,,,,,,,,,,,,,,,,,,,,0,9,9,42,,,,,,,,,,,,,,,,,,,,,moral_self_bias,04,19,60.0070961761,f,001,2018_Apr_02_1029,
,,,,,,,,,,,,,,,,,,,,,12/12= ?,,,,,,,,,,,,,,,,,,,,0,10,10,91,,,,,,,,,,,,,,,,,,,,,moral_self_bias,04,19,60.0070961761,f,001,2018_Apr_02_1029,
,,,,,,,,,,,,,,,,,,,,,10-9= ?,,,,,,,,,,,,,,,,,,,,0,11,11,112,,,,,,,,,,,,,,,,,,,,,moral_self_bias,04,19,60.0070961761,f,001,2018_Apr_02_1029,
,,,,,,,,,,,,,,,,,,,,,1+9= ?,,,,,,,,,,,,,,,,,,,,0,12,12,3,,,,,,,,,,,,,,,,,,,,,moral_self_bias,04,19,60.0070961761,f,001,2018_Apr_02_1029,
,,,,,,,,,,,,,,,,,,,,,90/45= ?,,,,,,,,,,,,,,,,,,,,0,13,13,74,,,,,,,,,,,,,,,,,,,,,moral_self_bias,04,19,60.0070961761,f,001,2018_Apr_02_1029,
,,,,,,,,,,,,,,,,,,,,,8-4= ?,,,,,,,,,,,,,,,,,,,,0,14,14,40,,,,,,,,,,,,,,,,,,,,,moral_self_bias,04,19,60.0070961761,f,001,2018_Apr_02_1029,
,,,,,,,,,,,,,,,,,,,,,8-1= ?,,,,,,,,,,,,,,,,,,,,0,15,15,33,,,,,,,,,,,,,,,,,,,,,moral_self_bias,04,19,60.0070961761,f,001,2018_Apr_02_1029,
,,,,,,,,,,,,,,,,,,,,,9-3= ?,,,,,,,,,,,,,,,,,,,,0,16,16,15,,,,,,,,,,,,,,,,,,,,,moral_self_bias,04,19,60.0070961761,f,001,2018_Apr_02_1029,
,,,,,,,,,,,,,,,,,,,,,12/4= ?,,,,,,,,,,,,,,,,,,,,0,17,17,89,,,,,,,,,,,,,,,,,,,,,moral_self_bias,04,19,60.0070961761,f,001,2018_Apr_02_1029,
,,,,,,,,,,,,,,,,,,,,,7-0= ?,,,,,,,,,,,,,,,,,,,,0,18,18,117,,,,,,,,,,,,,,,,,,,,,moral_self_bias,04,19,60.0070961761,f,001,2018_Apr_02_1029,
,,,,,,,,,,,,,,,,,,,,,3+0= ?,,,,,,,,,,,,,,,,,,,,0,19,19,105,,,,,,,,,,,,,,,,,,,,,moral_self_bias,04,19,60.0070961761,f,001,2018_Apr_02_1029,
,,,,,,,,,,,,,,,,,,,,,11-8= ?,,,,,,,,,,,,,,,,,,,,0,20,20,106,,,,,,,,,,,,,,,,,,,,,moral_self_bias,04,19,60.0070961761,f,001,2018_Apr_02_1029,
,,,,,,,,,,,,,,,,,,,,,23^0= ?,,,,,,,,,,,,,,,,,,,,0,21,21,94,,,,,,,,,,,,,,,,,,,,,moral_self_bias,04,19,60.0070961761,f,001,2018_Apr_02_1029,
,,,,,,,,,,,,,,,,,,,,,6+2= ?,,,,,,,,,,,,,,,,,,,,0,22,22,44,,,,,,,,,,,,,,,,,,,,,moral_self_bias,04,19,60.0070961761,f,001,2018_Apr_02_1029,
,,,,,,,,,,,,,,,,,,,,,9-4= ?,,,,,,,,,,,,,,,,,,,,0,23,23,22,,,,,,,,,,,,,,,,,,,,,moral_self_bias,04,19,60.0070961761,f,001,2018_Apr_02_1029,
,,,,,,,,,,,,,,,,,,,,,22-22= ?,,,,,,,,,,,,,,,,,,,,0,24,24,93,,,,,,,,,,,,,,,,,,,,,moral_self_bias,04,19,60.0070961761,f,001,2018_Apr_02_1029,
,,,,,,,,,,,,,,,,,,,,,11-3=？,,,,,,,,,,,,,,,,,,,,0,25,25,68,,,,,,,,,,,,,,,,,,,,,moral_self_bias,04,19,60.0070961761,f,001,2018_Apr_02_1029,
,,,,,,,,,,,,,,,,,,,,,1+7= ?,,,,,,,,,,,,,,,,,,,,0,26,26,4,,,,,,,,,,,,,,,,,,,,,moral_self_bias,04,19,60.0070961761,f,001,2018_Apr_02_1029,
,,,,,,,,,,,,,,,,,,,,,8+1= ?,,,,,,,,,,,,,,,,,,,,0,27,27,48,,,,,,,,,,,,,,,,,,,,,moral_self_bias,04,19,60.0070961761,f,001,2018_Apr_02_1029,
,,,,,,,,,,,,,,,,,,,,,15-10=？,,,,,,,,,,,,,,,,,,,,0,28,28,61,,,,,,,,,,,,,,,,,,,,,moral_self_bias,04,19,60.0070961761,f,001,2018_Apr_02_1029,
,,,,,,,,,,,,,,,,,,,,,7+2= ?,,,,,,,,,,,,,,,,,,,,0,29,29,47,,,,,,,,,,,,,,,,,,,,,moral_self_bias,04,19,60.0070961761,f,001,2018_Apr_02_1029,
,,,,,,,,,,,,,,,,,,,,,5+4= ?,,,,,,,,,,,,,,,,,,,,0,30,30,37,,,,,,,,,,,,,,,,,,,,,moral_self_bias,04,19,60.0070961761,f,001,2018_Apr_02_1029,
,,,,,,,,,,,,,,,,,,,,,12-7= ?,,,,,,,,,,,,,,,,,,,,0,31,31,115,,,,,,,,,,,,,,,,,,,,,moral_self_bias,04,19,60.0070961761,f,001,2018_Apr_02_1029,
,,,,,,,,,,,,,,,,,,,,,3^1= ?,,,,,,,,,,,,,,,,,,,,0,32,32,101,,,,,,,,,,,,,,,,,,,,,moral_self_bias,04,19,60.0070961761,f,001,2018_Apr_02_1029,
,,,,,,,,,,,,,,,,,,,,,4+1= ?,,,,,,,,,,,,,,,,,,,,0,33,33,25,,,,,,,,,,,,,,,,,,,,,moral_self_bias,04,19,60.0070961761,f,001,2018_Apr_02_1029,
,,,,,,,,,,,,,,,,,,,,,10-5=？,,,,,,,,,,,,,,,,,,,,0,34,34,67,,,,,,,,,,,,,,,,,,,,,moral_self_bias,04,19,60.0070961761,f,001,2018_Apr_02_1029,
,,,,,,,,,,,,,,,,,,,,,12-5=？,,,,,,,,,,,,,,,,,,,,0,35,35,65,,,,,,,,,,,,,,,,,,,,,moral_self_bias,04,19,60.0070961761,f,001,2018_Apr_02_1029,
,,,,,,,,,,,,,,,,,,,,,8/4= ?,,,,,,,,,,,,,,,,,,,,0,36,36,57,,,,,,,,,,,,,,,,,,,,,moral_self_bias,04,19,60.0070961761,f,001,2018_Apr_02_1029,
,,,,,,,,,,,,,,,,,,,,,5+1= ?,,,,,,,,,,,,,,,,,,,,0,37,37,34,,,,,,,,,,,,,,,,,,,,,moral_self_bias,04,19,60.0070961761,f,001,2018_Apr_02_1029,
,,,,,,,,,,,,,,,,,,,,,6+1= ?,,,,,,,,,,,,,,,,,,,,0,38,38,43,,,,,,,,,,,,,,,,,,,,,moral_self_bias,04,19,60.0070961761,f,001,2018_Apr_02_1029,
,,,,,,,,,,,,,,,,,,,,,1+2= ?,,,,,,,,,,,,,,,,,,,,0,39,39,1,,,,,,,,,,,,,,,,,,,,,moral_self_bias,04,19,60.0070961761,f,001,2018_Apr_02_1029,
,,,,,,,,,,,,,,,,,,,,,4+4= ?,,,,,,,,,,,,,,,,,,,,0,40,40,28,,,,,,,,,,,,,,,,,,,,,moral_self_bias,04,19,60.0070961761,f,001,2018_Apr_02_1029,
,,,,,,,,,,,,,,,,,,,,,6+3= ?,,,,,,,,,,,,,,,,,,,,0,41,41,45,,,,,,,,,,,,,,,,,,,,,moral_self_bias,04,19,60.0070961761,f,001,2018_Apr_02_1029,
,,,,,,,,,,,,,,,,,,,,,12/6= ?,,,,,,,,,,,,,,,,,,,,0,42,42,90,,,,,,,,,,,,,,,,,,,,,moral_self_bias,04,19,60.0070961761,f,001,2018_Apr_02_1029,
,,,,,,,,,,,,,,,,,,,,,13-9= ?,,,,,,,,,,,,,,,,,,,,0,43,43,92,,,,,,,,,,,,,,,,,,,,,moral_self_bias,04,19,60.0070961761,f,001,2018_Apr_02_1029,
,,,,,,,,,,,,,,,,,,,,,6^0= ?,,,,,,,,,,,,,,,,,,,,0,44,44,114,,,,,,,,,,,,,,,,,,,,,moral_self_bias,04,19,60.0070961761,f,001,2018_Apr_02_1029,
,,,,,,,,,,,,,,,,,,,,,9-5= ?,,,,,,,,,,,,,,,,,,,,0,45,45,23,,,,,,,,,,,,,,,,,,,,,moral_self_bias,04,19,60.0070961761,f,001,2018_Apr_02_1029,
,,,,,,,,,,,,,,,,,,,,,9-9= ?,,,,,,,,,,,,,,,,,,,,0,46,46,32,,,,,,,,,,,,,,,,,,,,,moral_self_bias,04,19,60.0070961761,f,001,2018_Apr_02_1029,
,,,,,,,,,,,,,,,,,,,,,21/3= ? ,,,,,,,,,,,,,,,,,,,,0,47,47,95,,,,,,,,,,,,,,,,,,,,,moral_self_bias,04,19,60.0070961761,f,001,2018_Apr_02_1029,
,,,,,,,,,,,,,,,,,,,,,14-9=？,,,,,,,,,,,,,,,,,,,,0,48,48,63,,,,,,,,,,,,,,,,,,,,,moral_self_bias,04,19,60.0070961761,f,001,2018_Apr_02_1029,
,,,,,,,,,,,,,,,,,,,,,32-23=？,,,,,,,,,,,,,,,,,,,,0,49,49,60,,,,,,,,,,,,,,,,,,,,,moral_self_bias,04,19,60.0070961761,f,001,2018_Apr_02_1029,
,,,,,,,,,,,,,,,,,,,,,49/7 = ?,,,,,,,,,,,,,,,,,,,,0,50,50,78,,,,,,,,,,,,,,,,,,,,,moral_self_bias,04,19,60.0070961761,f,001,2018_Apr_02_1029,
,,,,,,,,,,,,,,,,,,,,,11-5= ?,,,,,,,,,,,,,,,,,,,,0,51,51,107,,,,,,,,,,,,,,,,,,,,,moral_self_bias,04,19,60.0070961761,f,001,2018_Apr_02_1029,
,,,,,,,,,,,,,,,,,,,,,9-8= ?,,,,,,,,,,,,,,,,,,,,0,52,52,31,,,,,,,,,,,,,,,,,,,,,moral_self_bias,04,19,60.0070961761,f,001,2018_Apr_02_1029,
,,,,,,,,,,,,,,,,,,,,,8*1= ?,,,,,,,,,,,,,,,,,,,,0,53,53,111,,,,,,,,,,,,,,,,,,,,,moral_self_bias,04,19,60.0070961761,f,001,2018_Apr_02_1029,
,,,,,,,,,,,,,,,,,,,,,2^2= ?,,,,,,,,,,,,,,,,,,,,0,54,54,49,,,,,,,,,,,,,,,,,,,,,moral_self_bias,04,19,60.0070961761,f,001,2018_Apr_02_1029,
,,,,,,,,,,,,,,,,,,,,,3*3= ?,,,,,,,,,,,,,,,,,,,,0,55,55,54,,,,,,,,,,,,,,,,,,,,,moral_self_bias,04,19,60.0070961761,f,001,2018_Apr_02_1029,
,,,,,,,,,,,,,,,,,,,,,3+6= ?,,,,,,,,,,,,,,,,,,,,0,56,56,21,,,,,,,,,,,,,,,,,,,,,moral_self_bias,04,19,60.0070961761,f,001,2018_Apr_02_1029,
,,,,,,,,,,,,,,,,,,,,,6*0= ?,,,,,,,,,,,,,,,,,,,,0,57,57,87,,,,,,,,,,,,,,,,,,,,,moral_self_bias,04,19,60.0070961761,f,001,2018_Apr_02_1029,
,,,,,,,,,,,,,,,,,,,,,29-27= ?,,,,,,,,,,,,,,,,,,,,0,58,58,72,,,,,,,,,,,,,,,,,,,,,moral_self_bias,04,19,60.0070961761,f,001,2018_Apr_02_1029,
,,,,,,,,,,,,,,,,,,,,,3*1= ?,,,,,,,,,,,,,,,,,,,,0,59,59,83,,,,,,,,,,,,,,,,,,,,,moral_self_bias,04,19,60.0070961761,f,001,2018_Apr_02_1029,
,,,,,,,,,,,,,,,,,,,,,2*4= ?,,,,,,,,,,,,,,,,,,,,0,60,60,84,,,,,,,,,,,,,,,,,,,,,moral_self_bias,04,19,60.0070961761,f,001,2018_Apr_02_1029,
,,,,,,,,,,,,,,,,,,,,,2+1= ?,,,,,,,,,,,,,,,,,,,,0,61,61,7,,,,,,,,,,,,,,,,,,,,,moral_self_bias,04,19,60.0070961761,f,001,2018_Apr_02_1029,
,,,,,,,,,,,,,,,,,,,,,18/2= ?,,,,,,,,,,,,,,,,,,,,0,62,62,97,,,,,,,,,,,,,,,,,,,,,moral_self_bias,04,19,60.0070961761,f,001,2018_Apr_02_1029,
,,,,,,,,,,,,,,,,,,,,,3+5= ?,,,,,,,,,,,,,,,,,,,,0,63,63,20,,,,,,,,,,,,,,,,,,,,,moral_self_bias,04,19,60.0070961761,f,001,2018_Apr_02_1029,
,,,,,,,,,,,,,,,,,,,,,4/4= ?,,,,,,,,,,,,,,,,,,,,0,64,64,55,,,,,,,,,,,,,,,,,,,,,moral_self_bias,04,19,60.0070961761,f,001,2018_Apr_02_1029,
,,,,,,,,,,,,,,,,,,,,,3+3= ?,,,,,,,,,,,,,,,,,,,,0,65,65,18,,,,,,,,,,,,,,,,,,,,,moral_self_bias,04,19,60.0070961761,f,001,2018_Apr_02_1029,
,,,,,,,,,,,,,,,,,,,,,4+2= ?,,,,,,,,,,,,,,,,,,,,0,66,66,26,,,,,,,,,,,,,,,,,,,,,moral_self_bias,04,19,60.0070961761,f,001,2018_Apr_02_1029,
,,,,,,,,,,,,,,,,,,,,,1+1= ?,,,,,,,,,,,,,,,,,,,,0,67,67,0,,,,,,,,,,,,,,,,,,,,,moral_self_bias,04,19,60.0070961761,f,001,2018_Apr_02_1029,
,,,,,,,,,,,,,,,,,,,,,4^1= ?,,,,,,,,,,,,,,,,,,,,0,68,68,102,,,,,,,,,,,,,,,,,,,,,moral_self_bias,04,19,60.0070961761,f,001,2018_Apr_02_1029,
,,,,,,,,,,,,,,,,,,,,,1^2= ?,,,,,,,,,,,,,,,,,,,,0,69,69,51,,,,,,,,,,,,,,,,,,,,,moral_self_bias,04,19,60.0070961761,f,001,2018_Apr_02_1029,
,,,,,,,,,,,,,,,,,,,,,8-3= ?,,,,,,,,,,,,,,,,,,,,0,70,70,39,,,,,,,,,,,,,,,,,,,,,moral_self_bias,04,19,60.0070961761,f,001,2018_Apr_02_1029,
,,,,,,,,,,,,,,,,,,,,,5/1= ?,,,,,,,,,,,,,,,,,,,,0,71,71,59,,,,,,,,,,,,,,,,,,,,,moral_self_bias,04,19,60.0070961761,f,001,2018_Apr_02_1029,
,,,,,,,,,,,,,,,,,,,,,4*1= ?,,,,,,,,,,,,,,,,,,,,0,72,72,85,,,,,,,,,,,,,,,,,,,,,moral_self_bias,04,19,60.0070961761,f,001,2018_Apr_02_1029,
,,,,,,,,,,,,,,,,,,,,,9-1=?,,,,,,,,,,,,,,,,,,,,0,73,73,2,,,,,,,,,,,,,,,,,,,,,moral_self_bias,04,19,60.0070961761,f,001,2018_Apr_02_1029,
,,,,,,,,,,,,,,,,,,,,,4+3= ?,,,,,,,,,,,,,,,,,,,,0,74,74,27,,,,,,,,,,,,,,,,,,,,,moral_self_bias,04,19,60.0070961761,f,001,2018_Apr_02_1029,
,,,,,,,,,,,,,,,,,,,,,81/9= ?,,,,,,,,,,,,,,,,,,,,0,75,75,75,,,,,,,,,,,,,,,,,,,,,moral_self_bias,04,19,60.0070961761,f,001,2018_Apr_02_1029,
,,,,,,,,,,,,,,,,,,,,,7*1= ?,,,,,,,,,,,,,,,,,,,,0,76,76,113,,,,,,,,,,,,,,,,,,,,,moral_self_bias,04,19,60.0070961761,f,001,2018_Apr_02_1029,
,,,,,,,,,,,,,,,,,,,,,16-11=？,,,,,,,,,,,,,,,,,,,,0,77,77,62,,,,,,,,,,,,,,,,,,,,,moral_self_bias,04,19,60.0070961761,f,001,2018_Apr_02_1029,
,,,,,,,,,,,,,,,,,,,,,2+3= ?,,,,,,,,,,,,,,,,,,,,0,78,78,9,,,,,,,,,,,,,,,,,,,,,moral_self_bias,04,19,60.0070961761,f,001,2018_Apr_02_1029,
,,,,,,,,,,,,,,,,,,,,,20/5=？,,,,,,,,,,,,,,,,,,,,0,79,79,69,,,,,,,,,,,,,,,,,,,,,moral_self_bias,04,19,60.0070961761,f,001,2018_Apr_02_1029,
,,,,,,,,,,,,,,,,,,,,,7+1= ?,,,,,,,,,,,,,,,,,,,,0,80,80,46,,,,,,,,,,,,,,,,,,,,,moral_self_bias,04,19,60.0070961761,f,001,2018_Apr_02_1029,
,,,,,,,,,,,,,,,,,,,,,5+3= ?,,,,,,,,,,,,,,,,,,,,0,81,81,36,,,,,,,,,,,,,,,,,,,,,moral_self_bias,04,19,60.0070961761,f,001,2018_Apr_02_1029,
,,,,,,,,,,,,,,,,,,,,,9-2= ?,,,,,,,,,,,,,,,,,,,,0,82,82,14,,,,,,,,,,,,,,,,,,,,,moral_self_bias,04,19,60.0070961761,f,001,2018_Apr_02_1029,
,,,,,,,,,,,,,,,,,,,,,6^0= ?,,,,,,,,,,,,,,,,,,,,0,83,83,103,,,,,,,,,,,,,,,,,,,,,moral_self_bias,04,19,60.0070961761,f,001,2018_Apr_02_1029,
,,,,,,,,,,,,,,,,,,,,,43-34= ?,,,,,,,,,,,,,,,,,,,,0,84,84,79,,,,,,,,,,,,,,,,,,,,,moral_self_bias,04,19,60.0070961761,f,001,2018_Apr_02_1029,
,,,,,,,,,,,,,,,,,,,,,9+0= ?,,,,,,,,,,,,,,,,,,,,0,85,85,118,,,,,,,,,,,,,,,,,,,,,moral_self_bias,04,19,60.0070961761,f,001,2018_Apr_02_1029,
,,,,,,,,,,,,,,,,,,,,,3*2= ?,,,,,,,,,,,,,,,,,,,,0,86,86,53,,,,,,,,,,,,,,,,,,,,,moral_self_bias,04,19,60.0070961761,f,001,2018_Apr_02_1029,
,,,,,,,,,,,,,,,,,,,,,7*0= ?,,,,,,,,,,,,,,,,,,,,0,87,87,88,,,,,,,,,,,,,,,,,,,,,moral_self_bias,04,19,60.0070961761,f,001,2018_Apr_02_1029,
,,,,,,,,,,,,,,,,,,,,,13-6=？,,,,,,,,,,,,,,,,,,,,0,88,88,64,,,,,,,,,,,,,,,,,,,,,moral_self_bias,04,19,60.0070961761,f,001,2018_Apr_02_1029,
,,,,,,,,,,,,,,,,,,,,,17-12= ? ,,,,,,,,,,,,,,,,,,,,0,89,89,104,,,,,,,,,,,,,,,,,,,,,moral_self_bias,04,19,60.0070961761,f,001,2018_Apr_02_1029,
,,,,,,,,,,,,,,,,,,,,,18/9= ?,,,,,,,,,,,,,,,,,,,,0,90,90,96,,,,,,,,,,,,,,,,,,,,,moral_self_bias,04,19,60.0070961761,f,001,2018_Apr_02_1029,
,,,,,,,,,,,,,,,,,,,,,12-12= ?,,,,,,,,,,,,,,,,,,,,0,91,91,99,,,,,,,,,,,,,,,,,,,,,moral_self_bias,04,19,60.0070961761,f,001,2018_Apr_02_1029,
,,,,,,,,,,,,,,,,,,,,,1*9= ?,,,,,,,,,,,,,,,,,,,,0,92,92,109,,,,,,,,,,,,,,,,,,,,,moral_self_bias,04,19,60.0070961761,f,001,2018_Apr_02_1029,
,,,,,,,,,,,,,,,,,,,,,3+2= ?,,,,,,,,,,,,,,,,,,,,0,93,93,17,,,,,,,,,,,,,,,,,,,,,moral_self_bias,04,19,60.0070961761,f,001,2018_Apr_02_1029,
,,,,,,,,,,,,,,,,,,,,,56/7= ?,,,,,,,,,,,,,,,,,,,,0,94,94,77,,,,,,,,,,,,,,,,,,,,,moral_self_bias,04,19,60.0070961761,f,001,2018_Apr_02_1029,
,,,,,,,,,,,,,,,,,,,,,5*0= ?,,,,,,,,,,,,,,,,,,,,0,95,95,86,,,,,,,,,,,,,,,,,,,,,moral_self_bias,04,19,60.0070961761,f,001,2018_Apr_02_1029,
,,,,,,,,,,,,,,,,,,,,,2+7= ?,,,,,,,,,,,,,,,,,,,,0,96,96,13,,,,,,,,,,,,,,,,,,,,,moral_self_bias,04,19,60.0070961761,f,001,2018_Apr_02_1029,
,,,,,,,,,,,,,,,,,,,,,2+5= ?,,,,,,,,,,,,,,,,,,,,0,97,97,11,,,,,,,,,,,,,,,,,,,,,moral_self_bias,04,19,60.0070961761,f,001,2018_Apr_02_1029,
,,,,,,,,,,,,,,,,,,,,,19-17= ?,,,,,,,,,,,,,,,,,,,,0,98,98,100,,,,,,,,,,,,,,,,,,,,,moral_self_bias,04,19,60.0070961761,f,001,2018_Apr_02_1029,
,,,,,,,,,,,,,,,,,,,,,22/11= ?,,,,,,,,,,,,,,,,,,,,0,99,99,71,,,,,,,,,,,,,,,,,,,,,moral_self_bias,04,19,60.0070961761,f,001,2018_Apr_02_1029,
,,,,,,,,,,,,,,,,,,,,,2*3= ?,,,,,,,,,,,,,,,,,,,,0,100,100,108,,,,,,,,,,,,,,,,,,,,,moral_self_bias,04,19,60.0070961761,f,001,2018_Apr_02_1029,
,,,,,,,,,,,,,,,,,,,,,4*2= ?,,,,,,,,,,,,,,,,,,,,0,101,101,82,,,,,,,,,,,,,,,,,,,,,moral_self_bias,04,19,60.0070961761,f,001,2018_Apr_02_1029,
,,,,,,,,,,,,,,,,,,,,,9/3= ?,,,,,,,,,,,,,,,,,,,,0,102,102,56,,,,,,,,,,,,,,,,,,,,,moral_self_bias,04,19,60.0070961761,f,001,2018_Apr_02_1029,
,,,,,,,,,,,,,,,,,,,,,30-29= ?,,,,,,,,,,,,,,,,,,,,0,103,103,73,,,,,,,,,,,,,,,,,,,,,moral_self_bias,04,19,60.0070961761,f,001,2018_Apr_02_1029,
,,,,,,,,,,,,,,,,,,,,,1+6= ?,,,,,,,,,,,,,,,,,,,,0,104,104,5,,,,,,,,,,,,,,,,,,,,,moral_self_bias,04,19,60.0070961761,f,001,2018_Apr_02_1029,
,,,,,,,,,,,,,,,,,,,,,8-5= ?,,,,,,,,,,,,,,,,,,,,0,105,105,41,,,,,,,,,,,,,,,,,,,,,moral_self_bias,04,19,60.0070961761,f,001,2018_Apr_02_1029,
,,,,,,,,,,,,,,,,,,,,,6/2= ?,,,,,,,,,,,,,,,,,,,,0,106,106,58,,,,,,,,,,,,,,,,,,,,,moral_self_bias,04,19,60.0070961761,f,001,2018_Apr_02_1029,
,,,,,,,,,,,,,,,,,,,,,21/7= ?,,,,,,,,,,,,,,,,,,,,0,107,107,70,,,,,,,,,,,,,,,,,,,,,moral_self_bias,04,19,60.0070961761,f,001,2018_Apr_02_1029,
,,,,,,,,,,,,,,,,,,,,,3+1= ?,,,,,,,,,,,,,,,,,,,,0,108,108,16,,,,,,,,,,,,,,,,,,,,,moral_self_bias,04,19,60.0070961761,f,001,2018_Apr_02_1029,
,,,,,,,,,,,,,,,,,,,,,9-6= ?,,,,,,,,,,,,,,,,,,,,0,109,109,24,,,,,,,,,,,,,,,,,,,,,moral_self_bias,04,19,60.0070961761,f,001,2018_Apr_02_1029,
,,,,,,,,,,,,,,,,,,,,,13-5= ?,,,,,,,,,,,,,,,,,,,,0,110,110,98,,,,,,,,,,,,,,,,,,,,,moral_self_bias,04,19,60.0070961761,f,001,2018_Apr_02_1029,
,,,,,,,,,,,,,,,,,,,,,4+5= ?,,,,,,,,,,,,,,,,,,,,0,111,111,29,,,,,,,,,,,,,,,,,,,,,moral_self_bias,04,19,60.0070961761,f,001,2018_Apr_02_1029,
,,,,,,,,,,,,,,,,,,,,,3+4= ?,,,,,,,,,,,,,,,,,,,,0,112,112,19,,,,,,,,,,,,,,,,,,,,,moral_self_bias,04,19,60.0070961761,f,001,2018_Apr_02_1029,
,,,,,,,,,,,,,,,,,,,,,5-3= ?,,,,,,,,,,,,,,,,,,,,0,113,113,116,,,,,,,,,,,,,,,,,,,,,moral_self_bias,04,19,60.0070961761,f,001,2018_Apr_02_1029,
,,,,,,,,,,,,,,,,,,,,,2+6= ?,,,,,,,,,,,,,,,,,,,,0,114,114,12,,,,,,,,,,,,,,,,,,,,,moral_self_bias,04,19,60.0070961761,f,001,2018_Apr_02_1029,
,,,,,,,,,,,,,,,,,,,,,1+8= ?,,,,,,,,,,,,,,,,,,,,0,115,115,6,,,,,,,,,,,,,,,,,,,,,moral_self_bias,04,19,60.0070961761,f,001,2018_Apr_02_1029,
,,,,,,,,,,,,,,,,,,,,,32-32= ?,,,,,,,,,,,,,,,,,,,,0,116,116,80,,,,,,,,,,,,,,,,,,,,,moral_self_bias,04,19,60.0070961761,f,001,2018_Apr_02_1029,
,,,,,,,,,,,,,,,,,,,,,3^2= ?,,,,,,,,,,,,,,,,,,,,0,117,117,50,,,,,,,,,,,,,,,,,,,,,moral_self_bias,04,19,60.0070961761,f,001,2018_Apr_02_1029,
,,,,,,,,,,,,,,,,,,,,,11-4=？,,,,,,,,,,,,,,,,,,,,0,118,118,66,,,,,,,,,,,,,,,,,,,,,moral_self_bias,04,19,60.0070961761,f,001,2018_Apr_02_1029,
,,,,,,,,,,,,,,,,,,,,,1*8= ?,,,,,,,,,,,,,,,,,,,,0,119,119,110,,,,,,,,,,,,,,,,,,,,,moral_self_bias,04,19,60.0070961761,f,001,2018_Apr_02_1029,
,,,,,,,,,,,,,,,,,,,,,,,,,,,,,,,,,,,,,,,,,,,,,,,,,,,,,,,,,1,5.2920589447,,,,,,,moral_self_bias,04,19,60.0070961761,f,001,2018_Apr_02_1029,
,,,,,,,,,,,,,,,,,,,,,,material/20.png,1,厉害,material/120.png,1,material/20.png,能干,1,f,f,f,2,2,2,厉害,,,,,,,,,0,0,0,99,0,0,0,0,,,,,,,f,1,2.89042806625,j,0,12.5585529804,moral_self_bias,04,19,60.0070961761,f,001,2018_Apr_02_1029,
,,,,,,,,,,,,,,,,,,,,,,material/20.png,1,厉害,material/120.png,1,material/20.png,能干,1,f,f,f,2,2,2,厉害,,,,,,,,,0,0,0,99,,,,,,,,,,,,,,,,,moral_self_bias,04,19,60.0070961761,f,001,2018_Apr_02_1029,
,,,,,,,,,,,,,,,,,,,,,,material/9.png,1,正直,material/109.png,1,material/109.png,正直,1,f,f,f,1,1,1,秉直,,,,,,,,,0,1,1,88,0,0,0,0,,,,,,,f,1,2.89143300056,j,0,1.10922312737,moral_self_bias,04,19,60.0070961761,f,001,2018_Apr_02_1029,
,,,,,,,,,,,,,,,,,,,,,,material/9.png,1,正直,material/109.png,1,material/109.png,正直,1,f,f,f,1,1,1,秉直,,,,,,,,,0,1,1,88,,,,,,,,,,,,,,,,,moral_self_bias,04,19,60.0070961761,f,001,2018_Apr_02_1029,
,,,,,,,,,,,,,,,,,,,,,,material/42.png,2,奸诈,material/142.png,2,material/142.png,奸诈,2,f,f,f,1,1,1,阴险,,,,,,,,,0,2,2,121,0,0,0,0,,,,,,,f,1,1.79055213928,f,1,0.757814884186,moral_self_bias,04,19,60.0070961761,f,001,2018_Apr_02_1029,
,,,,,,,,,,,,,,,,,,,,,,material/42.png,2,奸诈,material/142.png,2,material/142.png,奸诈,2,f,f,f,1,1,1,阴险,,,,,,,,,0,2,2,121,,,,,,,,,,,,,,,,,moral_self_bias,04,19,60.0070961761,f,001,2018_Apr_02_1029,
,,,,,,,,,,,,,,,,,,,,,,material/144.png,2,失信,material/44.png,2,material/44.png,失信,2,j,j,j,1,1,1,爽约,,,,,,,,,0,3,3,43,,,,,,,,,,,j,1,2.32484602928,,,,moral_self_bias,04,19,60.0070961761,f,001,2018_Apr_02_1029,
,,,,,,,,,,,,,,,,,,,,,,material/120.png,1,能干,material/20.png,1,material/120.png,厉害,1,j,j,j,2,2,2,能干,,,,,,,,,0,4,4,19,,,,,,,,,,,j,1,2.17480492592,,,,moral_self_bias,04,19,60.0070961761,f,001,2018_Apr_02_1029,
,,,,,,,,,,,,,,,,,,,,,,material/121.png,1,精干,material/21.png,1,material/121.png,干练,1,j,j,j,2,2,2,精干,,,,,,,,,0,5,5,20,0,0,0,0,,,,,,,f,0,1.50775098801,j,0,3.14189291,moral_self_bias,04,19,60.0070961761,f,001,2018_Apr_02_1029,
,,,,,,,,,,,,,,,,,,,,,,material/121.png,1,精干,material/21.png,1,material/121.png,干练,1,j,j,j,2,2,2,精干,,,,,,,,,0,5,5,20,,,,,,,,,,,,,,,,,moral_self_bias,04,19,60.0070961761,f,001,2018_Apr_02_1029,
,,,,,,,,,,,,,,,,,,,,,,material/67.png,1,骁勇,material/70.png,1,material/67.png,全面,1,j,j,j,2,2,2,骁勇,,,,,,,,,0,6,6,67,,,,,,,,,,,j,1,1.12543392181,,,,moral_self_bias,04,19,60.0070961761,f,001,2018_Apr_02_1029,
,,,,,,,,,,,,,,,,,,,,,,material/167.png,1,高手,material/169.png,1,material/167.png,颖悟,1,f,f,f,2,2,2,高手,,,,,,,,,0,7,7,148,,,,,,,,,,,j,0,0.674716949463,,,,moral_self_bias,04,19,60.0070961761,f,001,2018_Apr_02_1029,
,,,,,,,,,,,,,,,,,,,,,,material/29.png,1,好学,material/129.png,1,material/29.png,好问,1,f,f,f,2,2,2,好学,,,,,,,,,0,8,8,108,0,0,0,0,,,,,,,f,1,1.25766992569,f,1,0.541706085205,moral_self_bias,04,19,60.0070961761,f,001,2018_Apr_02_1029,
,,,,,,,,,,,,,,,,,,,,,,material/29.png,1,好学,material/129.png,1,material/29.png,好问,1,f,f,f,2,2,2,好学,,,,,,,,,0,8,8,108,,,,,,,,,,,,,,,,,moral_self_bias,04,19,60.0070961761,f,001,2018_Apr_02_1029,
,,,,,,,,,,,,,,,,,,,,,,material/17.png,1,聪明,material/117.png,1,material/17.png,聪颖,1,f,f,f,2,2,2,聪明,,,,,,,,,0,9,9,96,0,0,0,0,,,,,,,f,1,1.99143815041,j,0,0.458924055099,moral_self_bias,04,19,60.0070961761,f,001,2018_Apr_02_1029,
,,,,,,,,,,,,,,,,,,,,,,material/17.png,1,聪明,material/117.png,1,material/17.png,聪颖,1,f,f,f,2,2,2,聪明,,,,,,,,,0,9,9,96,,,,,,,,,,,,,,,,,moral_self_bias,04,19,60.0070961761,f,001,2018_Apr_02_1029,
,,,,,,,,,,,,,,,,,,,,,,material/127.png,1,超群,material/27.png,1,material/127.png,卓越,1,j,j,j,2,2,2,超群,,,,,,,,,0,10,10,26,,,,,,,,,,,j,1,0.87499499321,,,,moral_self_bias,04,19,60.0070961761,f,001,2018_Apr_02_1029,
,,,,,,,,,,,,,,,,,,,,,,material/44.png,2,爽约,material/144.png,2,material/144.png,爽约,2,f,f,f,1,1,1,失信,,,,,,,,,0,11,11,123,0,0,0,0,,,,,,,f,1,1.0413441658,j,0,0.808151006699,moral_self_bias,04,19,60.0070961761,f,001,2018_Apr_02_1029,
,,,,,,,,,,,,,,,,,,,,,,material/44.png,2,爽约,material/144.png,2,material/144.png,爽约,2,f,f,f,1,1,1,失信,,,,,,,,,0,11,11,123,,,,,,,,,,,,,,,,,moral_self_bias,04,19,60.0070961761,f,001,2018_Apr_02_1029,
,,,,,,,,,,,,,,,,,,,,,,material/109.png,1,秉直,material/9.png,1,material/9.png,秉直,1,j,j,j,1,1,1,正直,,,,,,,,,0,12,12,8,,,,,,,,,,,j,1,1.52485394478,,,,moral_self_bias,04,19,60.0070961761,f,001,2018_Apr_02_1029,
,,,,,,,,,,,,,,,,,,,,,,material/105.png,1,守信,material/5.png,1,material/5.png,守信,1,j,j,j,1,1,1,诚信,,,,,,,,,0,13,13,4,,,,,,,,,,,j,1,1.55829691887,,,,moral_self_bias,04,19,60.0070961761,f,001,2018_Apr_02_1029,
,,,,,,,,,,,,,,,,,,,,,,material/15.png,1,纯洁,material/115.png,1,material/115.png,纯洁,1,f,f,f,1,1,1,清白,,,,,,,,,0,14,14,94,0,0,0,0,,,,,,,f,1,1.20718288422,j,0,0.441280126572,moral_self_bias,04,19,60.0070961761,f,001,2018_Apr_02_1029,
,,,,,,,,,,,,,,,,,,,,,,material/15.png,1,纯洁,material/115.png,1,material/115.png,纯洁,1,f,f,f,1,1,1,清白,,,,,,,,,0,14,14,94,,,,,,,,,,,,,,,,,moral_self_bias,04,19,60.0070961761,f,001,2018_Apr_02_1029,
,,,,,,,,,,,,,,,,,,,,,,material/126.png,1,勤快,material/26.png,1,material/126.png,刻苦,1,j,j,j,2,2,2,勤快,,,,,,,,,0,15,15,25,,,,,,,,,,,j,1,1.3911550045,,,,moral_self_bias,04,19,60.0070961761,f,001,2018_Apr_02_1029,
,,,,,,,,,,,,,,,,,,,,,,material/183.png,2,颓废,material/182.png,2,material/79.png,才尽,2,f,f,f,2,2,2,薄弱,,,,,,,,,0,16,16,161,0,0,0,0,,,,,,,f,1,1.62398815155,f,1,0.324031114578,moral_self_bias,04,19,60.0070961761,f,001,2018_Apr_02_1029,
,,,,,,,,,,,,,,,,,,,,,,material/183.png,2,颓废,material/182.png,2,material/79.png,才尽,2,f,f,f,2,2,2,薄弱,,,,,,,,,0,16,16,161,,,,,,,,,,,,,,,,,moral_self_bias,04,19,60.0070961761,f,001,2018_Apr_02_1029,
,,,,,,,,,,,,,,,,,,,,,,material/58.png,2,肤浅,material/158.png,2,material/58.png,浅薄,2,f,f,f,2,2,2,肤浅,,,,,,,,,0,17,17,137,0,0,0,0,,,,,,,f,1,3.95003914833,j,0,1.841121912,moral_self_bias,04,19,60.0070961761,f,001,2018_Apr_02_1029,
,,,,,,,,,,,,,,,,,,,,,,material/58.png,2,肤浅,material/158.png,2,material/58.png,浅薄,2,f,f,f,2,2,2,肤浅,,,,,,,,,0,17,17,137,,,,,,,,,,,,,,,,,moral_self_bias,04,19,60.0070961761,f,001,2018_Apr_02_1029,
,,,,,,,,,,,,,,,,,,,,,,material/68.png,1,广博,material/167.png,1,material/68.png,高手,1,f,f,f,2,2,2,广博,,,,,,,,,0,18,18,146,0,0,0,0,,,,,,,f,1,1.25574588776,f,1,0.657912969589,moral_self_bias,04,19,60.0070961761,f,001,2018_Apr_02_1029,
,,,,,,,,,,,,,,,,,,,,,,material/68.png,1,广博,material/167.png,1,material/68.png,高手,1,f,f,f,2,2,2,广博,,,,,,,,,0,18,18,146,,,,,,,,,,,,,,,,,moral_self_bias,04,19,60.0070961761,f,001,2018_Apr_02_1029,
,,,,,,,,,,,,,,,,,,,,,,material/22.png,1,才学,material/122.png,1,material/22.png,博学,1,f,f,f,2,2,2,才学,,,,,,,,,0,19,19,101,0,0,0,0,,,,,,,f,1,1.60757899284,f,1,0.858762025833,moral_self_bias,04,19,60.0070961761,f,001,2018_Apr_02_1029,
,,,,,,,,,,,,,,,,,,,,,,material/22.png,1,才学,material/122.png,1,material/22.png,博学,1,f,f,f,2,2,2,才学,,,,,,,,,0,19,19,101,,,,,,,,,,,,,,,,,moral_self_bias,04,19,60.0070961761,f,001,2018_Apr_02_1029,
,,,,,,,,,,,,,,,,,,,,,,material/62.png,1,坚韧,material/162.png,1,material/62.png,敬业,1,f,f,f,1,1,1,坚韧,,,,,,,,,0,20,20,141,0,0,0,0,,,,,,,f,1,1.35774803162,j,0,0.325450181961,moral_self_bias,04,19,60.0070961761,f,001,2018_Apr_02_1029,
,,,,,,,,,,,,,,,,,,,,,,material/62.png,1,坚韧,material/162.png,1,material/62.png,敬业,1,f,f,f,1,1,1,坚韧,,,,,,,,,0,20,20,141,,,,,,,,,,,,,,,,,moral_self_bias,04,19,60.0070961761,f,001,2018_Apr_02_1029,
,,,,,,,,,,,,,,,,,,,,,,material/63.png,1,正义,material/166.png,1,material/66.png,仗义,1,f,f,f,1,1,1,文明,,,,,,,,,0,21,21,145,,,,,,,,,,,j,0,1.3082549572,,,,moral_self_bias,04,19,60.0070961761,f,001,2018_Apr_02_1029,
,,,,,,,,,,,,,,,,,,,,,,material/117.png,1,聪颖,material/17.png,1,material/117.png,聪明,1,j,j,j,2,2,2,聪颖,,,,,,,,,0,22,22,16,0,0,0,0,,,,,,,f,0,0.92373585701,f,1,0.857746124268,moral_self_bias,04,19,60.0070961761,f,001,2018_Apr_02_1029,
,,,,,,,,,,,,,,,,,,,,,,material/117.png,1,聪颖,material/17.png,1,material/117.png,聪明,1,j,j,j,2,2,2,聪颖,,,,,,,,,0,22,22,16,,,,,,,,,,,,,,,,,moral_self_bias,04,19,60.0070961761,f,001,2018_Apr_02_1029,
,,,,,,,,,,,,,,,,,,,,,,material/182.png,2,健忘,material/184.png,2,material/80.png,厌学,2,f,f,f,2,2,2,才尽,,,,,,,,,0,23,23,163,0,0,0,0,,,,,,,f,1,0.907759904861,j,0,0.392205953598,moral_self_bias,04,19,60.0070961761,f,001,2018_Apr_02_1029,
,,,,,,,,,,,,,,,,,,,,,,material/182.png,2,健忘,material/184.png,2,material/80.png,厌学,2,f,f,f,2,2,2,才尽,,,,,,,,,0,23,23,163,,,,,,,,,,,,,,,,,moral_self_bias,04,19,60.0070961761,f,001,2018_Apr_02_1029,
,,,,,,,,,,,,,,,,,,,,,,material/160.png,2,笨拙,material/60.png,2,material/160.png,粗拙,2,j,j,j,2,2,2,笨拙,,,,,,,,,0,24,24,59,,,,,,,,,,,j,1,1.04201197624,,,,moral_self_bias,04,19,60.0070961761,f,001,2018_Apr_02_1029,
,,,,,,,,,,,,,,,,,,,,,,material/38.png,2,缺德,material/138.png,2,material/138.png,缺德,2,f,f,f,1,1,1,无德,,,,,,,,,0,25,25,117,,,,,,,,,,,j,0,1.20054197311,,,,moral_self_bias,04,19,60.0070961761,f,001,2018_Apr_02_1029,
,,,,,,,,,,,,,,,,,,,,,,material/31.png,1,笃学,material/131.png,1,material/31.png,笃行,1,f,f,f,2,2,2,笃学,,,,,,,,,0,26,26,110,0,0,0,0,,,,,,,f,1,1.44929289818,f,1,0.274452924728,moral_self_bias,04,19,60.0070961761,f,001,2018_Apr_02_1029,
,,,,,,,,,,,,,,,,,,,,,,material/31.png,1,笃学,material/131.png,1,material/31.png,笃行,1,f,f,f,2,2,2,笃学,,,,,,,,,0,26,26,110,,,,,,,,,,,,,,,,,moral_self_bias,04,19,60.0070961761,f,001,2018_Apr_02_1029,
,,,,,,,,,,,,,,,,,,,,,,material/56.png,2,愚昧,material/156.png,2,material/56.png,愚钝,2,f,f,f,2,2,2,愚昧,,,,,,,,,0,27,27,135,0,0,0,0,,,,,,,f,1,0.890920162201,f,1,0.258034944534,moral_self_bias,04,19,60.0070961761,f,001,2018_Apr_02_1029,
,,,,,,,,,,,,,,,,,,,,,,material/56.png,2,愚昧,material/156.png,2,material/56.png,愚钝,2,f,f,f,2,2,2,愚昧,,,,,,,,,0,27,27,135,,,,,,,,,,,,,,,,,moral_self_bias,04,19,60.0070961761,f,001,2018_Apr_02_1029,
,,,,,,,,,,,,,,,,,,,,,,material/140.png,2,邪恶,material/40.png,2,material/40.png,邪恶,2,j,j,j,1,1,1,狠毒,,,,,,,,,0,28,28,39,0,0,0,0,,,,,,,f,0,1.02347111702,j,0,1.2251200676,moral_self_bias,04,19,60.0070961761,f,001,2018_Apr_02_1029,
,,,,,,,,,,,,,,,,,,,,,,material/140.png,2,邪恶,material/40.png,2,material/40.png,邪恶,2,j,j,j,1,1,1,狠毒,,,,,,,,,0,28,28,39,,,,,,,,,,,,,,,,,moral_self_bias,04,19,60.0070961761,f,001,2018_Apr_02_1029,
,,,,,,,,,,,,,,,,,,,,,,material/116.png,1,机智,material/16.png,1,material/116.png,睿智,1,j,j,j,2,2,2,机智,,,,,,,,,0,29,29,15,0,0,0,0,,,,,,,f,0,2.15730595589,j,0,0.274788856506,moral_self_bias,04,19,60.0070961761,f,001,2018_Apr_02_1029,
,,,,,,,,,,,,,,,,,,,,,,material/116.png,1,机智,material/16.png,1,material/116.png,睿智,1,j,j,j,2,2,2,机智,,,,,,,,,0,29,29,15,,,,,,,,,,,,,,,,,moral_self_bias,04,19,60.0070961761,f,001,2018_Apr_02_1029,
,,,,,,,,,,,,,,,,,,,,,,material/133.png,2,腐败,material/33.png,2,material/33.png,腐败,2,j,j,j,1,1,1,贪污,,,,,,,,,0,30,30,32,,,,,,,,,,,j,1,0.875219106674,,,,moral_self_bias,04,19,60.0070961761,f,001,2018_Apr_02_1029,
,,,,,,,,,,,,,,,,,,,,,,material/179.png,2,顽愚,material/178.png,2,material/84.png,毛糙,2,f,f,f,2,2,2,差生,,,,,,,,,0,31,31,157,0,0,0,0,,,,,,,f,1,1.32537102699,j,0,0.340500116348,moral_self_bias,04,19,60.0070961761,f,001,2018_Apr_02_1029,
,,,,,,,,,,,,,,,,,,,,,,material/179.png,2,顽愚,material/178.png,2,material/84.png,毛糙,2,f,f,f,2,2,2,差生,,,,,,,,,0,31,31,157,,,,,,,,,,,,,,,,,moral_self_bias,04,19,60.0070961761,f,001,2018_Apr_02_1029,
,,,,,,,,,,,,,,,,,,,,,,material/76.png,2,放纵,material/176.png,2,material/176.png,放纵,2,f,f,f,1,1,1,虚伪,,,,,,,,,0,32,32,155,0,0,0,0,,,,,,,f,1,0.94034910202,f,1,0.250202178955,moral_self_bias,04,19,60.0070961761,f,001,2018_Apr_02_1029,
,,,,,,,,,,,,,,,,,,,,,,material/76.png,2,放纵,material/176.png,2,material/176.png,放纵,2,f,f,f,1,1,1,虚伪,,,,,,,,,0,32,32,155,,,,,,,,,,,,,,,,,moral_self_bias,04,19,60.0070961761,f,001,2018_Apr_02_1029,
,,,,,,,,,,,,,,,,,,,,,,material/107.png,1,公正,material/7.png,1,material/7.png,公正,1,j,j,j,1,1,1,公平,,,,,,,,,0,33,33,6,0,0,0,0,,,,,,,f,0,1.33976697922,j,0,0.308114051819,moral_self_bias,04,19,60.0070961761,f,001,2018_Apr_02_1029,
,,,,,,,,,,,,,,,,,,,,,,material/107.png,1,公正,material/7.png,1,material/7.png,公正,1,j,j,j,1,1,1,公平,,,,,,,,,0,33,33,6,,,,,,,,,,,,,,,,,moral_self_bias,04,19,60.0070961761,f,001,2018_Apr_02_1029,
,,,,,,,,,,,,,,,,,,,,,,material/145.png,2,下流,material/45.png,2,material/45.png,下流,2,j,j,j,1,1,1,小人,,,,,,,,,0,34,34,44,,,,,,,,,,,j,1,0.807939052582,,,,moral_self_bias,04,19,60.0070961761,f,001,2018_Apr_02_1029,
,,,,,,,,,,,,,,,,,,,,,,material/53.png,2,迟缓,material/153.png,2,material/53.png,迟钝,2,f,f,f,2,2,2,迟缓,,,,,,,,,0,35,35,132,0,0,0,0,,,,,,,f,1,1.37483716011,f,1,0.250262022018,moral_self_bias,04,19,60.0070961761,f,001,2018_Apr_02_1029,
,,,,,,,,,,,,,,,,,,,,,,material/53.png,2,迟缓,material/153.png,2,material/53.png,迟钝,2,f,f,f,2,2,2,迟缓,,,,,,,,,0,35,35,132,,,,,,,,,,,,,,,,,moral_self_bias,04,19,60.0070961761,f,001,2018_Apr_02_1029,
,,,,,,,,,,,,,,,,,,,,,,material/166.png,1,孝顺,material/64.png,1,material/164.png,奉献,1,j,j,j,1,1,1,仗义,,,,,,,,,0,36,36,63,,,,,,,,,,,j,1,0.991326093674,,,,moral_self_bias,04,19,60.0070961761,f,001,2018_Apr_02_1029,
,,,,,,,,,,,,,,,,,,,,,,material/146.png,2,小气,material/46.png,2,material/46.png,小气,2,j,j,j,1,1,1,自私,,,,,,,,,0,37,37,45,,,,,,,,,,,j,1,0.6411049366,,,,moral_self_bias,04,19,60.0070961761,f,001,2018_Apr_02_1029,
,,,,,,,,,,,,,,,,,,,,,,material/181.png,2,怠惰,material/180.png,2,material/180.png,怠惰,2,f,f,f,2,2,2,犹豫,,,,,,,,,0,38,38,159,0,0,0,0,,,,,,,f,1,0.856192111969,j,0,0.324943065643,moral_self_bias,04,19,60.0070961761,f,001,2018_Apr_02_1029,
,,,,,,,,,,,,,,,,,,,,,,material/181.png,2,怠惰,material/180.png,2,material/180.png,怠惰,2,f,f,f,2,2,2,犹豫,,,,,,,,,0,38,38,159,,,,,,,,,,,,,,,,,moral_self_bias,04,19,60.0070961761,f,001,2018_Apr_02_1029,
,,,,,,,,,,,,,,,,,,,,,,material/49.png,2,痴呆,material/149.png,2,material/49.png,白痴,2,f,f,f,2,2,2,痴呆,,,,,,,,,0,39,39,128,0,0,0,0,,,,,,,f,1,2.17524313927,j,0,0.742008924484,moral_self_bias,04,19,60.0070961761,f,001,2018_Apr_02_1029,
,,,,,,,,,,,,,,,,,,,,,,material/49.png,2,痴呆,material/149.png,2,material/49.png,白痴,2,f,f,f,2,2,2,痴呆,,,,,,,,,0,39,39,128,,,,,,,,,,,,,,,,,moral_self_bias,04,19,60.0070961761,f,001,2018_Apr_02_1029,
,,,,,,,,,,,,,,,,,,,,,,material/153.png,2,迟钝,material/53.png,2,material/153.png,迟缓,2,j,j,j,2,2,2,迟钝,,,,,,,,,0,40,40,52,,,,,,,,,,,j,1,0.758521080017,,,,moral_self_bias,04,19,60.0070961761,f,001,2018_Apr_02_1029,
,,,,,,,,,,,,,,,,,,,,,,material/81.png,2,呆笨,material/179.png,2,material/83.png,差生,2,f,f,f,2,2,2,无助,,,,,,,,,0,41,41,158,0,0,0,0,,,,,,,f,1,1.09175801277,j,0,0.225743055344,moral_self_bias,04,19,60.0070961761,f,001,2018_Apr_02_1029,
,,,,,,,,,,,,,,,,,,,,,,material/81.png,2,呆笨,material/179.png,2,material/83.png,差生,2,f,f,f,2,2,2,无助,,,,,,,,,0,41,41,158,,,,,,,,,,,,,,,,,moral_self_bias,04,19,60.0070961761,f,001,2018_Apr_02_1029,
,,,,,,,,,,,,,,,,,,,,,,material/124.png,1,冷静,material/24.png,1,material/124.png,理智,1,j,j,j,2,2,2,冷静,,,,,,,,,0,42,42,23,0,0,0,0,,,,,,,f,0,2.691229105,f,1,0.29222202301,moral_self_bias,04,19,60.0070961761,f,001,2018_Apr_02_1029,
,,,,,,,,,,,,,,,,,,,,,,material/124.png,1,冷静,material/24.png,1,material/124.png,理智,1,j,j,j,2,2,2,冷静,,,,,,,,,0,42,42,23,,,,,,,,,,,,,,,,,moral_self_bias,04,19,60.0070961761,f,001,2018_Apr_02_1029,
,,,,,,,,,,,,,,,,,,,,,,material/112.png,1,忠诚,material/12.png,1,material/12.png,忠诚,1,j,j,j,1,1,1,忠心,,,,,,,,,0,43,43,11,,,,,,,,,,,j,1,1.92512798309,,,,moral_self_bias,04,19,60.0070961761,f,001,2018_Apr_02_1029,
,,,,,,,,,,,,,,,,,,,,,,material/178.png,2,窝囊,material/82.png,2,material/82.png,窝囊,2,j,j,j,2,2,2,毛糙,,,,,,,,,0,44,44,78,,,,,,,,,,,j,1,0.707706928253,,,,moral_self_bias,04,19,60.0070961761,f,001,2018_Apr_02_1029,
,,,,,,,,,,,,,,,,,,,,,,material/159.png,2,弱智,material/59.png,2,material/159.png,智障,2,j,j,j,2,2,2,弱智,,,,,,,,,0,45,45,58,,,,,,,,,,,j,1,0.724671840668,,,,moral_self_bias,04,19,60.0070961761,f,001,2018_Apr_02_1029,
,,,,,,,,,,,,,,,,,,,,,,material/149.png,2,白痴,material/49.png,2,material/149.png,痴呆,2,j,j,j,2,2,2,白痴,,,,,,,,,0,46,46,48,,,,,,,,,,,j,1,0.808511018753,,,,moral_self_bias,04,19,60.0070961761,f,001,2018_Apr_02_1029,
,,,,,,,,,,,,,,,,,,,,,,material/35.png,2,冷血,material/135.png,2,material/135.png,冷血,2,f,f,f,1,1,1,冷漠,,,,,,,,,0,47,47,114,,,,,,,,,,,j,0,0.608696937561,,,,moral_self_bias,04,19,60.0070961761,f,001,2018_Apr_02_1029,
,,,,,,,,,,,,,,,,,,,,,,material/131.png,1,笃行,material/31.png,1,material/131.png,笃学,1,j,j,j,2,2,2,笃行,,,,,,,,,0,48,48,30,,,,,,,,,,,j,1,1.94138288498,,,,moral_self_bias,04,19,60.0070961761,f,001,2018_Apr_02_1029,
,,,,,,,,,,,,,,,,,,,,,,material/26.png,1,刻苦,material/126.png,1,material/26.png,勤快,1,f,f,f,2,2,2,刻苦,,,,,,,,,0,49,49,105,0,0,0,0,,,,,,,f,1,1.04070305824,j,0,0.35786819458,moral_self_bias,04,19,60.0070961761,f,001,2018_Apr_02_1029,
,,,,,,,,,,,,,,,,,,,,,,material/26.png,1,刻苦,material/126.png,1,material/26.png,勤快,1,f,f,f,2,2,2,刻苦,,,,,,,,,0,49,49,105,,,,,,,,,,,,,,,,,moral_self_bias,04,19,60.0070961761,f,001,2018_Apr_02_1029,
,,,,,,,,,,,,,,,,,,,,,,material/43.png,2,虚荣,material/143.png,2,material/143.png,虚荣,2,f,f,f,1,1,1,拜金,,,,,,,,,0,50,50,122,0,0,0,0,,,,,,,f,1,3.82433414459,f,1,0.425414085388,moral_self_bias,04,19,60.0070961761,f,001,2018_Apr_02_1029,
,,,,,,,,,,,,,,,,,,,,,,material/43.png,2,虚荣,material/143.png,2,material/143.png,虚荣,2,f,f,f,1,1,1,拜金,,,,,,,,,0,50,50,122,,,,,,,,,,,,,,,,,moral_self_bias,04,19,60.0070961761,f,001,2018_Apr_02_1029,
,,,,,,,,,,,,,,,,,,,,,,material/125.png,1,果敢,material/25.png,1,material/125.png,果断,1,j,j,j,2,2,2,果敢,,,,,,,,,0,51,51,24,0,0,0,0,,,,,,,f,0,1.00002503395,f,1,0.273390054703,moral_self_bias,04,19,60.0070961761,f,001,2018_Apr_02_1029,
,,,,,,,,,,,,,,,,,,,,,,material/125.png,1,果敢,material/25.png,1,material/125.png,果断,1,j,j,j,2,2,2,果敢,,,,,,,,,0,51,51,24,,,,,,,,,,,,,,,,,moral_self_bias,04,19,60.0070961761,f,001,2018_Apr_02_1029,
,,,,,,,,,,,,,,,,,,,,,,material/3.png,1,仁厚,material/103.png,1,material/103.png,仁厚,1,f,f,f,1,1,1,仁慈,,,,,,,,,0,52,52,82,0,0,0,0,,,,,,,f,1,0.740696907043,f,1,0.39081788063,moral_self_bias,04,19,60.0070961761,f,001,2018_Apr_02_1029,
,,,,,,,,,,,,,,,,,,,,,,material/3.png,1,仁厚,material/103.png,1,material/103.png,仁厚,1,f,f,f,1,1,1,仁慈,,,,,,,,,0,52,52,82,,,,,,,,,,,,,,,,,moral_self_bias,04,19,60.0070961761,f,001,2018_Apr_02_1029,
,,,,,,,,,,,,,,,,,,,,,,material/176.png,2,害人,material/75.png,2,material/75.png,害人,2,j,j,j,1,1,1,放纵,,,,,,,,,0,53,53,71,,,,,,,,,,,j,1,2.14075803757,,,,moral_self_bias,04,19,60.0070961761,f,001,2018_Apr_02_1029,
,,,,,,,,,,,,,,,,,,,,,,material/141.png,2,歹毒,material/41.png,2,material/41.png,歹毒,2,j,j,j,1,1,1,残忍,,,,,,,,,0,54,54,40,,,,,,,,,,,j,1,0.675071954727,,,,moral_self_bias,04,19,60.0070961761,f,001,2018_Apr_02_1029,
,,,,,,,,,,,,,,,,,,,,,,material/16.png,1,睿智,material/116.png,1,material/16.png,机智,1,f,f,f,2,2,2,睿智,,,,,,,,,0,55,55,95,,,,,,,,,,,j,0,1.52382302284,,,,moral_self_bias,04,19,60.0070961761,f,001,2018_Apr_02_1029,
,,,,,,,,,,,,,,,,,,,,,,material/45.png,2,小人,material/145.png,2,material/145.png,小人,2,f,f,f,1,1,1,下流,,,,,,,,,0,56,56,124,0,0,0,0,,,,,,,f,1,0.940340042114,f,1,0.241426944733,moral_self_bias,04,19,60.0070961761,f,001,2018_Apr_02_1029,
,,,,,,,,,,,,,,,,,,,,,,material/45.png,2,小人,material/145.png,2,material/145.png,小人,2,f,f,f,1,1,1,下流,,,,,,,,,0,56,56,124,,,,,,,,,,,,,,,,,moral_self_bias,04,19,60.0070961761,f,001,2018_Apr_02_1029,
,,,,,,,,,,,,,,,,,,,,,,material/33.png,2,贪污,material/133.png,2,material/133.png,贪污,2,f,f,f,1,1,1,腐败,,,,,,,,,0,57,57,112,,,,,,,,,,,j,0,1.05865502357,,,,moral_self_bias,04,19,60.0070961761,f,001,2018_Apr_02_1029,
,,,,,,,,,,,,,,,,,,,,,,material/50.png,2,愚笨,material/150.png,2,material/50.png,鲁钝,2,f,f,f,2,2,2,愚笨,,,,,,,,,0,58,58,129,,,,,,,,,,,j,0,0.933028936386,,,,moral_self_bias,04,19,60.0070961761,f,001,2018_Apr_02_1029,
,,,,,,,,,,,,,,,,,,,,,,material/122.png,1,博学,material/22.png,1,material/122.png,才学,1,j,j,j,2,2,2,博学,,,,,,,,,0,59,59,21,,,,,,,,,,,j,1,0.941066980362,,,,moral_self_bias,04,19,60.0070961761,f,001,2018_Apr_02_1029,
,,,,,,,,,,,,,,,,,,,,,,material/169.png,1,颖悟,material/171.png,1,material/169.png,高效,1,f,f,f,2,2,2,颖悟,,,,,,,,,0,60,60,150,,,,,,,,,,,j,0,1.10759496689,,,,moral_self_bias,04,19,60.0070961761,f,001,2018_Apr_02_1029,
,,,,,,,,,,,,,,,,,,,,,,material/174.png,2,虚伪,material/76.png,2,material/76.png,虚伪,2,j,j,j,1,1,1,不义,,,,,,,,,0,61,61,72,,,,,,,,,,,j,1,0.901221036911,,,,moral_self_bias,04,19,60.0070961761,f,001,2018_Apr_02_1029,
,,,,,,,,,,,,,,,,,,,,,,material/143.png,2,拜金,material/43.png,2,material/43.png,拜金,2,j,j,j,1,1,1,虚荣,,,,,,,,,0,62,62,42,,,,,,,,,,,j,1,0.740346908569,,,,moral_self_bias,04,19,60.0070961761,f,001,2018_Apr_02_1029,
,,,,,,,,,,,,,,,,,,,,,,material/158.png,2,浅薄,material/58.png,2,material/158.png,肤浅,2,j,j,j,2,2,2,浅薄,,,,,,,,,0,63,63,57,,,,,,,,,,,j,1,0.541604995728,,,,moral_self_bias,04,19,60.0070961761,f,001,2018_Apr_02_1029,
,,,,,,,,,,,,,,,,,,,,,,material/82.png,2,毛糙,material/183.png,2,material/178.png,薄弱,2,f,f,f,2,2,2,窝囊,,,,,,,,,0,64,64,162,,,,,,,,,,,j,0,1.000882864,,,,moral_self_bias,04,19,60.0070961761,f,001,2018_Apr_02_1029,
,,,,,,,,,,,,,,,,,,,,,,material/1.png,1,博爱,material/101.png,1,material/101.png,博爱,1,f,f,f,1,1,1,善良,,,,,,,,,0,65,65,80,,,,,,,,,,,j,0,0.733610868454,,,,moral_self_bias,04,19,60.0070961761,f,001,2018_Apr_02_1029,
,,,,,,,,,,,,,,,,,,,,,,material/129.png,1,好问,material/29.png,1,material/129.png,好学,1,j,j,j,2,2,2,好问,,,,,,,,,0,66,66,28,,,,,,,,,,,j,1,1.15720105171,,,,moral_self_bias,04,19,60.0070961761,f,001,2018_Apr_02_1029,
,,,,,,,,,,,,,,,,,,,,,,material/64.png,1,谦虚,material/165.png,1,material/65.png,独立,1,f,f,f,1,1,1,奉献,,,,,,,,,0,67,67,144,0,0,0,0,,,,,,,f,1,2.3744468689,f,1,0.240847110748,moral_self_bias,04,19,60.0070961761,f,001,2018_Apr_02_1029,
,,,,,,,,,,,,,,,,,,,,,,material/64.png,1,谦虚,material/165.png,1,material/65.png,独立,1,f,f,f,1,1,1,奉献,,,,,,,,,0,67,67,144,,,,,,,,,,,,,,,,,moral_self_bias,04,19,60.0070961761,f,001,2018_Apr_02_1029,
,,,,,,,,,,,,,,,,,,,,,,material/18.png,1,敏锐,material/118.png,1,material/18.png,机敏,1,f,f,f,2,2,2,敏锐,,,,,,,,,0,68,68,97,,,,,,,,,,,j,0,2.4069609642,,,,moral_self_bias,04,19,60.0070961761,f,001,2018_Apr_02_1029,
,,,,,,,,,,,,,,,,,,,,,,material/172.png,2,无情,material/175.png,2,material/175.png,无情,2,f,f,f,1,1,1,浮夸,,,,,,,,,0,69,69,154,,,,,,,,,,,j,0,0.757859945297,,,,moral_self_bias,04,19,60.0070961761,f,001,2018_Apr_02_1029,
,,,,,,,,,,,,,,,,,,,,,,material/2.png,1,爱心,material/102.png,1,material/102.png,爱心,1,f,f,f,1,1,1,善心,,,,,,,,,0,70,70,81,0,0,0,0,,,,,,,f,1,3.30742192268,f,1,0.200742006302,moral_self_bias,04,19,60.0070961761,f,001,2018_Apr_02_1029,
,,,,,,,,,,,,,,,,,,,,,,material/2.png,1,爱心,material/102.png,1,material/102.png,爱心,1,f,f,f,1,1,1,善心,,,,,,,,,0,70,70,81,,,,,,,,,,,,,,,,,moral_self_bias,04,19,60.0070961761,f,001,2018_Apr_02_1029,
,,,,,,,,,,,,,,,,,,,,,,material/104.png,1,友爱,material/4.png,1,material/4.png,友爱,1,j,j,j,1,1,1,友善,,,,,,,,,0,71,71,3,0,0,0,0,,,,,,,f,0,1.27522516251,f,1,0.241003036499,moral_self_bias,04,19,60.0070961761,f,001,2018_Apr_02_1029,
,,,,,,,,,,,,,,,,,,,,,,material/104.png,1,友爱,material/4.png,1,material/4.png,友爱,1,j,j,j,1,1,1,友善,,,,,,,,,0,71,71,3,,,,,,,,,,,,,,,,,moral_self_bias,04,19,60.0070961761,f,001,2018_Apr_02_1029,
,,,,,,,,,,,,,,,,,,,,,,material/6.png,1,厚道,material/106.png,1,material/106.png,厚道,1,f,f,f,1,1,1,诚实,,,,,,,,,0,72,72,85,,,,,,,,,,,j,0,1.02445101738,,,,moral_self_bias,04,19,60.0070961761,f,001,2018_Apr_02_1029,
,,,,,,,,,,,,,,,,,,,,,,material/171.png,1,高效,material/67.png,1,material/171.png,骁勇,1,j,j,j,2,2,2,高效,,,,,,,,,0,73,73,65,,,,,,,,,,,j,1,0.740807056427,,,,moral_self_bias,04,19,60.0070961761,f,001,2018_Apr_02_1029,
,,,,,,,,,,,,,,,,,,,,,,material/136.png,2,说谎,material/36.png,2,material/36.png,说谎,2,j,j,j,1,1,1,撒谎,,,,,,,,,0,74,74,35,,,,,,,,,,,j,1,5.35874795914,,,,moral_self_bias,04,19,60.0070961761,f,001,2018_Apr_02_1029,
,,,,,,,,,,,,,,,,,,,,,,material/184.png,2,草率,material/80.png,2,material/78.png,健忘,2,j,j,j,2,2,2,厌学,,,,,,,,,0,75,75,76,,,,,,,,,,,j,1,0.7409760952,,,,moral_self_bias,04,19,60.0070961761,f,001,2018_Apr_02_1029,
,,,,,,,,,,,,,,,,,,,,,,material/161.png,1,奉献,material/164.png,1,material/64.png,孝顺,1,f,f,f,1,1,1,勇敢,,,,,,,,,0,76,76,143,0,0,0,0,,,,,,,f,1,0.949929952621,f,1,0.624479055405,moral_self_bias,04,19,60.0070961761,f,001,2018_Apr_02_1029,
,,,,,,,,,,,,,,,,,,,,,,material/161.png,1,奉献,material/164.png,1,material/64.png,孝顺,1,f,f,f,1,1,1,勇敢,,,,,,,,,0,76,76,143,,,,,,,,,,,,,,,,,moral_self_bias,04,19,60.0070961761,f,001,2018_Apr_02_1029,
,,,,,,,,,,,,,,,,,,,,,,material/71.png,1,严谨,material/68.png,1,material/71.png,广博,1,j,j,j,2,2,2,严谨,,,,,,,,,0,77,77,66,,,,,,,,,,,j,1,1.95876002312,,,,moral_self_bias,04,19,60.0070961761,f,001,2018_Apr_02_1029,
,,,,,,,,,,,,,,,,,,,,,,material/25.png,1,果断,material/125.png,1,material/25.png,果敢,1,f,f,f,2,2,2,果断,,,,,,,,,0,78,78,104,0,0,0,0,,,,,,,f,1,1.45806384087,f,1,0.267453193665,moral_self_bias,04,19,60.0070961761,f,001,2018_Apr_02_1029,
,,,,,,,,,,,,,,,,,,,,,,material/25.png,1,果断,material/125.png,1,material/25.png,果敢,1,f,f,f,2,2,2,果断,,,,,,,,,0,78,78,104,,,,,,,,,,,,,,,,,moral_self_bias,04,19,60.0070961761,f,001,2018_Apr_02_1029,
,,,,,,,,,,,,,,,,,,,,,,material/10.png,1,坚毅,material/110.png,1,material/110.png,坚毅,1,f,f,f,1,1,1,顽强,,,,,,,,,0,79,79,89,0,0,0,0,,,,,,,f,1,1.12377405167,j,0,0.274003982544,moral_self_bias,04,19,60.0070961761,f,001,2018_Apr_02_1029,
,,,,,,,,,,,,,,,,,,,,,,material/10.png,1,坚毅,material/110.png,1,material/110.png,坚毅,1,f,f,f,1,1,1,顽强,,,,,,,,,0,79,79,89,,,,,,,,,,,,,,,,,moral_self_bias,04,19,60.0070961761,f,001,2018_Apr_02_1029,
,,,,,,,,,,,,,,,,,,,,,,material/59.png,2,智障,material/159.png,2,material/59.png,弱智,2,f,f,f,2,2,2,智障,,,,,,,,,0,80,80,138,0,0,0,0,,,,,,,f,1,3.9075050354,j,0,0.15877699852,moral_self_bias,04,19,60.0070961761,f,001,2018_Apr_02_1029,
,,,,,,,,,,,,,,,,,,,,,,material/59.png,2,智障,material/159.png,2,material/59.png,弱智,2,f,f,f,2,2,2,智障,,,,,,,,,0,80,80,138,,,,,,,,,,,,,,,,,moral_self_bias,04,19,60.0070961761,f,001,2018_Apr_02_1029,
,,,,,,,,,,,,,,,,,,,,,,material/103.png,1,仁慈,material/3.png,1,material/3.png,仁慈,1,j,j,j,1,1,1,仁厚,,,,,,,,,0,81,81,2,,,,,,,,,,,j,1,0.825072050095,,,,moral_self_bias,04,19,60.0070961761,f,001,2018_Apr_02_1029,
,,,,,,,,,,,,,,,,,,,,,,material/138.png,2,无德,material/38.png,2,material/38.png,无德,2,j,j,j,1,1,1,缺德,,,,,,,,,0,82,82,37,,,,,,,,,,,j,1,0.78264093399,,,,moral_self_bias,04,19,60.0070961761,f,001,2018_Apr_02_1029,
,,,,,,,,,,,,,,,,,,,,,,material/28.png,1,克己,material/128.png,1,material/28.png,自律,1,f,f,f,2,2,2,克己,,,,,,,,,0,83,83,107,0,0,0,0,,,,,,,f,1,1.34076189995,j,0,0.284791946411,moral_self_bias,04,19,60.0070961761,f,001,2018_Apr_02_1029,
,,,,,,,,,,,,,,,,,,,,,,material/28.png,1,克己,material/128.png,1,material/28.png,自律,1,f,f,f,2,2,2,克己,,,,,,,,,0,83,83,107,,,,,,,,,,,,,,,,,moral_self_bias,04,19,60.0070961761,f,001,2018_Apr_02_1029,
,,,,,,,,,,,,,,,,,,,,,,material/147.png,2,刻板,material/47.png,2,material/147.png,死板,2,j,j,j,2,2,2,刻板,,,,,,,,,0,84,84,46,0,0,0,0,,,,,,,f,0,1.17529201508,j,0,0.258046150208,moral_self_bias,04,19,60.0070961761,f,001,2018_Apr_02_1029,
,,,,,,,,,,,,,,,,,,,,,,material/147.png,2,刻板,material/47.png,2,material/147.png,死板,2,j,j,j,2,2,2,刻板,,,,,,,,,0,84,84,46,,,,,,,,,,,,,,,,,moral_self_bias,04,19,60.0070961761,f,001,2018_Apr_02_1029,
,,,,,,,,,,,,,,,,,,,,,,material/132.png,2,不忠,material/32.png,2,material/32.png,不忠,2,j,j,j,1,1,1,背叛,,,,,,,,,0,85,85,31,,,,,,,,,,,j,1,1.32519602776,,,,moral_self_bias,04,19,60.0070961761,f,001,2018_Apr_02_1029,
,,,,,,,,,,,,,,,,,,,,,,material/13.png,1,廉明,material/113.png,1,material/113.png,廉明,1,f,f,f,1,1,1,廉洁,,,,,,,,,0,86,86,92,0,0,0,0,,,,,,,f,1,1.02460098267,j,0,0.274558067322,moral_self_bias,04,19,60.0070961761,f,001,2018_Apr_02_1029,
,,,,,,,,,,,,,,,,,,,,,,material/13.png,1,廉明,material/113.png,1,material/113.png,廉明,1,f,f,f,1,1,1,廉洁,,,,,,,,,0,86,86,92,,,,,,,,,,,,,,,,,moral_self_bias,04,19,60.0070961761,f,001,2018_Apr_02_1029,
,,,,,,,,,,,,,,,,,,,,,,material/75.png,2,卑劣,material/74.png,2,material/74.png,卑劣,2,j,j,j,1,1,1,害人,,,,,,,,,0,87,87,70,,,,,,,,,,,j,1,1.40821003914,,,,moral_self_bias,04,19,60.0070961761,f,001,2018_Apr_02_1029,
,,,,,,,,,,,,,,,,,,,,,,material/111.png,1,高雅,material/11.png,1,material/11.png,高雅,1,j,j,j,1,1,1,高尚,,,,,,,,,0,88,88,10,,,,,,,,,,,j,1,0.741703033447,,,,moral_self_bias,04,19,60.0070961761,f,001,2018_Apr_02_1029,
,,,,,,,,,,,,,,,,,,,,,,material/57.png,2,无知,material/157.png,2,material/57.png,无能,2,f,f,f,2,2,2,无知,,,,,,,,,0,89,89,136,,,,,,,,,,,j,0,1.01704716682,,,,moral_self_bias,04,19,60.0070961761,f,001,2018_Apr_02_1029,
,,,,,,,,,,,,,,,,,,,,,,material/23.png,1,有才,material/123.png,1,material/23.png,多才,1,f,f,f,2,2,2,有才,,,,,,,,,0,90,90,102,,,,,,,,,,,j,0,1.0747218132,,,,moral_self_bias,04,19,60.0070961761,f,001,2018_Apr_02_1029,
,,,,,,,,,,,,,,,,,,,,,,material/39.png,2,恶毒,material/139.png,2,material/139.png,恶毒,2,f,f,f,1,1,1,凶残,,,,,,,,,0,91,91,118,,,,,,,,,,,j,0,0.858031988144,,,,moral_self_bias,04,19,60.0070961761,f,001,2018_Apr_02_1029,
,,,,,,,,,,,,,,,,,,,,,,material/11.png,1,高尚,material/111.png,1,material/111.png,高尚,1,f,f,f,1,1,1,高雅,,,,,,,,,0,92,92,90,,,,,,,,,,,j,0,1.56684994698,,,,moral_self_bias,04,19,60.0070961761,f,001,2018_Apr_02_1029,
,,,,,,,,,,,,,,,,,,,,,,material/4.png,1,友善,material/104.png,1,material/104.png,友善,1,f,f,f,1,1,1,友爱,,,,,,,,,0,93,93,83,0,0,0,0,,,,,,,f,1,1.4245929718,f,1,0.258721113205,moral_self_bias,04,19,60.0070961761,f,001,2018_Apr_02_1029,
,,,,,,,,,,,,,,,,,,,,,,material/4.png,1,友善,material/104.png,1,material/104.png,友善,1,f,f,f,1,1,1,友爱,,,,,,,,,0,93,93,83,,,,,,,,,,,,,,,,,moral_self_bias,04,19,60.0070961761,f,001,2018_Apr_02_1029,
,,,,,,,,,,,,,,,,,,,,,,material/54.png,2,依赖,material/154.png,2,material/54.png,依靠,2,f,f,f,2,2,2,依赖,,,,,,,,,0,94,94,133,0,0,0,0,,,,,,,f,1,0.97462105751,f,1,0.317507982254,moral_self_bias,04,19,60.0070961761,f,001,2018_Apr_02_1029,
,,,,,,,,,,,,,,,,,,,,,,material/54.png,2,依赖,material/154.png,2,material/54.png,依靠,2,f,f,f,2,2,2,依赖,,,,,,,,,0,94,94,133,,,,,,,,,,,,,,,,,moral_self_bias,04,19,60.0070961761,f,001,2018_Apr_02_1029,
,,,,,,,,,,,,,,,,,,,,,,material/154.png,2,依靠,material/54.png,2,material/154.png,依赖,2,j,j,j,2,2,2,依靠,,,,,,,,,0,95,95,53,0,0,0,0,,,,,,,f,0,3.65791082382,f,1,0.259121179581,moral_self_bias,04,19,60.0070961761,f,001,2018_Apr_02_1029,
,,,,,,,,,,,,,,,,,,,,,,material/154.png,2,依靠,material/54.png,2,material/154.png,依赖,2,j,j,j,2,2,2,依靠,,,,,,,,,0,95,95,53,,,,,,,,,,,,,,,,,moral_self_bias,04,19,60.0070961761,f,001,2018_Apr_02_1029,
,,,,,,,,,,,,,,,,,,,,,,material/106.png,1,诚实,material/6.png,1,material/6.png,诚实,1,j,j,j,1,1,1,厚道,,,,,,,,,0,96,96,5,,,,,,,,,,,j,1,0.790740966797,,,,moral_self_bias,04,19,60.0070961761,f,001,2018_Apr_02_1029,
,,,,,,,,,,,,,,,,,,,,,,material/108.png,1,公道,material/8.png,1,material/8.png,公道,1,j,j,j,1,1,1,无私,,,,,,,,,0,97,97,7,,,,,,,,,,,j,1,1.35830402374,,,,moral_self_bias,04,19,60.0070961761,f,001,2018_Apr_02_1029,
,,,,,,,,,,,,,,,,,,,,,,material/139.png,2,凶残,material/39.png,2,material/39.png,凶残,2,j,j,j,1,1,1,恶毒,,,,,,,,,0,98,98,38,,,,,,,,,,,j,1,1.57445502281,,,,moral_self_bias,04,19,60.0070961761,f,001,2018_Apr_02_1029,
,,,,,,,,,,,,,,,,,,,,,,material/55.png,2,盲从,material/155.png,2,material/55.png,盲目,2,f,f,f,2,2,2,盲从,,,,,,,,,0,99,99,134,,,,,,,,,,,j,0,0.657818078995,,,,moral_self_bias,04,19,60.0070961761,f,001,2018_Apr_02_1029,
,,,,,,,,,,,,,,,,,,,,,,material/24.png,1,理智,material/124.png,1,material/24.png,冷静,1,f,f,f,2,2,2,理智,,,,,,,,,0,100,100,103,0,0,0,0,,,,,,,f,1,3.92453408241,f,1,0.274818897247,moral_self_bias,04,19,60.0070961761,f,001,2018_Apr_02_1029,
,,,,,,,,,,,,,,,,,,,,,,material/24.png,1,理智,material/124.png,1,material/24.png,冷静,1,f,f,f,2,2,2,理智,,,,,,,,,0,100,100,103,,,,,,,,,,,,,,,,,moral_self_bias,04,19,60.0070961761,f,001,2018_Apr_02_1029,
,,,,,,,,,,,,,,,,,,,,,,material/162.png,1,敬业,material/62.png,1,material/162.png,坚韧,1,j,j,j,1,1,1,敬业,,,,,,,,,0,101,101,61,0,0,0,0,,,,,,,f,0,1.57468605042,j,0,0.225064992905,moral_self_bias,04,19,60.0070961761,f,001,2018_Apr_02_1029,
,,,,,,,,,,,,,,,,,,,,,,material/162.png,1,敬业,material/62.png,1,material/162.png,坚韧,1,j,j,j,1,1,1,敬业,,,,,,,,,0,101,101,61,,,,,,,,,,,,,,,,,moral_self_bias,04,19,60.0070961761,f,001,2018_Apr_02_1029,
,,,,,,,,,,,,,,,,,,,,,,material/113.png,1,廉洁,material/13.png,1,material/13.png,廉洁,1,j,j,j,1,1,1,廉明,,,,,,,,,0,102,102,12,0,0,0,0,,,,,,,f,0,1.05771207809,j,0,0.192312002182,moral_self_bias,04,19,60.0070961761,f,001,2018_Apr_02_1029,
,,,,,,,,,,,,,,,,,,,,,,material/113.png,1,廉洁,material/13.png,1,material/13.png,廉洁,1,j,j,j,1,1,1,廉明,,,,,,,,,0,102,102,12,,,,,,,,,,,,,,,,,moral_self_bias,04,19,60.0070961761,f,001,2018_Apr_02_1029,
,,,,,,,,,,,,,,,,,,,,,,material/142.png,2,阴险,material/42.png,2,material/42.png,阴险,2,j,j,j,1,1,1,奸诈,,,,,,,,,0,103,103,41,,,,,,,,,,,j,1,1.18405890465,,,,moral_self_bias,04,19,60.0070961761,f,001,2018_Apr_02_1029,
,,,,,,,,,,,,,,,,,,,,,,material/19.png,1,灵活,material/119.png,1,material/19.png,机灵,1,f,f,f,2,2,2,灵活,,,,,,,,,0,104,104,98,0,0,0,0,,,,,,,f,1,1.13347697258,j,0,0.207284927368,moral_self_bias,04,19,60.0070961761,f,001,2018_Apr_02_1029,
,,,,,,,,,,,,,,,,,,,,,,material/19.png,1,灵活,material/119.png,1,material/19.png,机灵,1,f,f,f,2,2,2,灵活,,,,,,,,,0,104,104,98,,,,,,,,,,,,,,,,,moral_self_bias,04,19,60.0070961761,f,001,2018_Apr_02_1029,
,,,,,,,,,,,,,,,,,,,,,,material/119.png,1,机灵,material/19.png,1,material/119.png,灵活,1,j,j,j,2,2,2,机灵,,,,,,,,,0,105,105,18,,,,,,,,,,,j,1,0.874693155289,,,,moral_self_bias,04,19,60.0070961761,f,001,2018_Apr_02_1029,
,,,,,,,,,,,,,,,,,,,,,,material/5.png,1,诚信,material/105.png,1,material/105.png,诚信,1,f,f,f,1,1,1,守信,,,,,,,,,0,106,106,84,,,,,,,,,,,j,0,1.49133992195,,,,moral_self_bias,04,19,60.0070961761,f,001,2018_Apr_02_1029,
,,,,,,,,,,,,,,,,,,,,,,material/83.png,2,差生,material/78.png,2,material/179.png,草率,2,j,j,j,2,2,2,呆笨,,,,,,,,,0,107,107,74,,,,,,,,,,,j,1,1.49159288406,,,,moral_self_bias,04,19,60.0070961761,f,001,2018_Apr_02_1029,
,,,,,,,,,,,,,,,,,,,,,,material/48.png,2,愚蠢,material/148.png,2,material/48.png,笨蛋,2,f,f,f,2,2,2,愚蠢,,,,,,,,,0,108,108,127,,,,,,,,,,,j,0,0.758574962616,,,,moral_self_bias,04,19,60.0070961761,f,001,2018_Apr_02_1029,
,,,,,,,,,,,,,,,,,,,,,,material/12.png,1,忠心,material/112.png,1,material/112.png,忠心,1,f,f,f,1,1,1,忠诚,,,,,,,,,0,109,109,91,0,0,0,0,,,,,,,f,1,1.05823993683,f,1,0.208844900131,moral_self_bias,04,19,60.0070961761,f,001,2018_Apr_02_1029,
,,,,,,,,,,,,,,,,,,,,,,material/12.png,1,忠心,material/112.png,1,material/112.png,忠心,1,f,f,f,1,1,1,忠诚,,,,,,,,,0,109,109,91,,,,,,,,,,,,,,,,,moral_self_bias,04,19,60.0070961761,f,001,2018_Apr_02_1029,
,,,,,,,,,,,,,,,,,,,,,,material/74.png,2,黑心,material/173.png,2,material/173.png,黑心,2,f,f,f,1,1,1,卑劣,,,,,,,,,0,110,110,152,,,,,,,,,,,j,0,0.891679048538,,,,moral_self_bias,04,19,60.0070961761,f,001,2018_Apr_02_1029,
,,,,,,,,,,,,,,,,,,,,,,material/164.png,1,宽容,material/63.png,1,material/163.png,文明,1,j,j,j,1,1,1,孝顺,,,,,,,,,0,111,111,62,,,,,,,,,,,j,1,4.30817294121,,,,moral_self_bias,04,19,60.0070961761,f,001,2018_Apr_02_1029,
,,,,,,,,,,,,,,,,,,,,,,material/65.png,1,勇敢,material/61.png,1,material/161.png,平等,1,j,j,j,1,1,1,谦虚,,,,,,,,,0,112,112,60,,,,,,,,,,,j,1,1.59157395363,,,,moral_self_bias,04,19,60.0070961761,f,001,2018_Apr_02_1029,
,,,,,,,,,,,,,,,,,,,,,,material/8.png,1,无私,material/108.png,1,material/108.png,无私,1,f,f,f,1,1,1,公道,,,,,,,,,0,113,113,87,0,0,0,0,,,,,,,f,1,2.50777816772,j,0,0.273979902267,moral_self_bias,04,19,60.0070961761,f,001,2018_Apr_02_1029,
,,,,,,,,,,,,,,,,,,,,,,material/8.png,1,无私,material/108.png,1,material/108.png,无私,1,f,f,f,1,1,1,公道,,,,,,,,,0,113,113,87,,,,,,,,,,,,,,,,,moral_self_bias,04,19,60.0070961761,f,001,2018_Apr_02_1029,
,,,,,,,,,,,,,,,,,,,,,,material/101.png,1,善良,material/1.png,1,material/1.png,善良,1,j,j,j,1,1,1,博爱,,,,,,,,,0,114,114,0,,,,,,,,,,,j,1,3.33809804916,,,,moral_self_bias,04,19,60.0070961761,f,001,2018_Apr_02_1029,
,,,,,,,,,,,,,,,,,,,,,,material/51.png,2,糊涂,material/151.png,2,material/51.png,迷糊,2,f,f,f,2,2,2,糊涂,,,,,,,,,0,115,115,130,0,0,0,0,,,,,,,f,1,0.934208154678,j,0,0.258131027222,moral_self_bias,04,19,60.0070961761,f,001,2018_Apr_02_1029,
,,,,,,,,,,,,,,,,,,,,,,material/51.png,2,糊涂,material/151.png,2,material/51.png,迷糊,2,f,f,f,2,2,2,糊涂,,,,,,,,,0,115,115,130,,,,,,,,,,,,,,,,,moral_self_bias,04,19,60.0070961761,f,001,2018_Apr_02_1029,
,,,,,,,,,,,,,,,,,,,,,,material/155.png,2,盲目,material/55.png,2,material/155.png,盲从,2,j,j,j,2,2,2,盲目,,,,,,,,,0,116,116,54,,,,,,,,,,,j,1,1.4577190876,,,,moral_self_bias,04,19,60.0070961761,f,001,2018_Apr_02_1029,
,,,,,,,,,,,,,,,,,,,,,,material/27.png,1,卓越,material/127.png,1,material/27.png,超群,1,f,f,f,2,2,2,卓越,,,,,,,,,0,117,117,106,0,0,0,0,,,,,,,f,1,1.39206504822,j,0,0.374727964401,moral_self_bias,04,19,60.0070961761,f,001,2018_Apr_02_1029,
,,,,,,,,,,,,,,,,,,,,,,material/27.png,1,卓越,material/127.png,1,material/27.png,超群,1,f,f,f,2,2,2,卓越,,,,,,,,,0,117,117,106,,,,,,,,,,,,,,,,,moral_self_bias,04,19,60.0070961761,f,001,2018_Apr_02_1029,
,,,,,,,,,,,,,,,,,,,,,,material/180.png,2,无助,material/79.png,2,material/81.png,颓废,2,j,j,j,2,2,2,怠惰,,,,,,,,,0,118,118,75,,,,,,,,,,,j,1,1.43378901482,,,,moral_self_bias,04,19,60.0070961761,f,001,2018_Apr_02_1029,
,,,,,,,,,,,,,,,,,,,,,,material/157.png,2,无能,material/57.png,2,material/157.png,无知,2,j,j,j,2,2,2,无能,,,,,,,,,0,119,119,56,,,,,,,,,,,j,1,1.90790390968,,,,moral_self_bias,04,19,60.0070961761,f,001,2018_Apr_02_1029,
,,,,,,,,,,,,,,,,,,,,,,material/46.png,2,自私,material/146.png,2,material/146.png,自私,2,f,f,f,1,1,1,小气,,,,,,,,,0,120,120,125,0,0,0,0,,,,,,,f,1,1.78998184204,j,0,0.299758911133,moral_self_bias,04,19,60.0070961761,f,001,2018_Apr_02_1029,
,,,,,,,,,,,,,,,,,,,,,,material/46.png,2,自私,material/146.png,2,material/146.png,自私,2,f,f,f,1,1,1,小气,,,,,,,,,0,120,120,125,,,,,,,,,,,,,,,,,moral_self_bias,04,19,60.0070961761,f,001,2018_Apr_02_1029,
,,,,,,,,,,,,,,,,,,,,,,material/80.png,2,才尽,material/83.png,2,material/182.png,呆笨,2,j,j,j,2,2,2,健忘,,,,,,,,,0,121,121,79,,,,,,,,,,,j,1,0.874149799347,,,,moral_self_bias,04,19,60.0070961761,f,001,2018_Apr_02_1029,
,,,,,,,,,,,,,,,,,,,,,,material/70.png,1,全面,material/168.png,1,material/70.png,机变,1,f,f,f,2,2,2,全面,,,,,,,,,0,122,122,147,,,,,,,,,,,j,0,0.690943956375,,,,moral_self_bias,04,19,60.0070961761,f,001,2018_Apr_02_1029,
,,,,,,,,,,,,,,,,,,,,,,material/151.png,2,迷糊,material/51.png,2,material/151.png,糊涂,2,j,j,j,2,2,2,迷糊,,,,,,,,,0,123,123,50,,,,,,,,,,,j,1,0.807952880859,,,,moral_self_bias,04,19,60.0070961761,f,001,2018_Apr_02_1029,
,,,,,,,,,,,,,,,,,,,,,,material/61.png,1,仗义,material/65.png,1,material/166.png,谦虚,1,j,j,j,1,1,1,平等,,,,,,,,,0,124,124,64,0,0,0,0,,,,,,,f,0,1.25818586349,j,0,0.191478967667,moral_self_bias,04,19,60.0070961761,f,001,2018_Apr_02_1029,
,,,,,,,,,,,,,,,,,,,,,,material/61.png,1,仗义,material/65.png,1,material/166.png,谦虚,1,j,j,j,1,1,1,平等,,,,,,,,,0,124,124,64,,,,,,,,,,,,,,,,,moral_self_bias,04,19,60.0070961761,f,001,2018_Apr_02_1029,
,,,,,,,,,,,,,,,,,,,,,,material/36.png,2,撒谎,material/136.png,2,material/136.png,撒谎,2,f,f,f,1,1,1,说谎,,,,,,,,,0,125,125,115,,,,,,,,,,,j,0,0.700345039368,,,,moral_self_bias,04,19,60.0070961761,f,001,2018_Apr_02_1029,
,,,,,,,,,,,,,,,,,,,,,,material/72.png,2,软弱,material/77.png,2,material/77.png,软弱,2,j,j,j,1,1,1,谄媚,,,,,,,,,0,126,126,73,,,,,,,,,,,j,1,1.6919670105,,,,moral_self_bias,04,19,60.0070961761,f,001,2018_Apr_02_1029,
,,,,,,,,,,,,,,,,,,,,,,material/150.png,2,鲁钝,material/50.png,2,material/150.png,愚笨,2,j,j,j,2,2,2,鲁钝,,,,,,,,,0,127,127,49,,,,,,,,,,,j,1,1.24171090126,,,,moral_self_bias,04,19,60.0070961761,f,001,2018_Apr_02_1029,
,,,,,,,,,,,,,,,,,,,,,,material/168.png,1,机变,material/170.png,1,material/168.png,坚忍,1,f,f,f,2,2,2,机变,,,,,,,,,0,128,128,149,,,,,,,,,,,j,0,1.77433991432,,,,moral_self_bias,04,19,60.0070961761,f,001,2018_Apr_02_1029,
,,,,,,,,,,,,,,,,,,,,,,material/118.png,1,机敏,material/18.png,1,material/118.png,敏锐,1,j,j,j,2,2,2,机敏,,,,,,,,,0,129,129,17,,,,,,,,,,,j,1,1.20760512352,,,,moral_self_bias,04,19,60.0070961761,f,001,2018_Apr_02_1029,
,,,,,,,,,,,,,,,,,,,,,,material/165.png,1,平等,material/161.png,1,material/61.png,勇敢,1,f,f,f,1,1,1,独立,,,,,,,,,0,130,130,140,0,0,0,0,,,,,,,f,1,0.991109132767,f,1,0.24206495285,moral_self_bias,04,19,60.0070961761,f,001,2018_Apr_02_1029,
,,,,,,,,,,,,,,,,,,,,,,material/165.png,1,平等,material/161.png,1,material/61.png,勇敢,1,f,f,f,1,1,1,独立,,,,,,,,,0,130,130,140,,,,,,,,,,,,,,,,,moral_self_bias,04,19,60.0070961761,f,001,2018_Apr_02_1029,
,,,,,,,,,,,,,,,,,,,,,,material/14.png,1,忠贞,material/114.png,1,material/114.png,忠贞,1,f,f,f,1,1,1,爱国,,,,,,,,,0,131,131,93,,,,,,,,,,,j,0,1.72531795502,,,,moral_self_bias,04,19,60.0070961761,f,001,2018_Apr_02_1029,
,,,,,,,,,,,,,,,,,,,,,,material/152.png,2,缓慢,material/52.png,2,material/152.png,拖延,2,j,j,j,2,2,2,缓慢,,,,,,,,,0,132,132,51,,,,,,,,,,,j,1,0.883640050888,,,,moral_self_bias,04,19,60.0070961761,f,001,2018_Apr_02_1029,
,,,,,,,,,,,,,,,,,,,,,,material/128.png,1,自律,material/28.png,1,material/128.png,克己,1,j,j,j,2,2,2,自律,,,,,,,,,0,133,133,27,,,,,,,,,,,j,1,0.607742071152,,,,moral_self_bias,04,19,60.0070961761,f,001,2018_Apr_02_1029,
,,,,,,,,,,,,,,,,,,,,,,material/7.png,1,公平,material/107.png,1,material/107.png,公平,1,f,f,f,1,1,1,公正,,,,,,,,,0,134,134,86,0,0,0,0,,,,,,,f,1,1.10078692436,j,0,0.158667802811,moral_self_bias,04,19,60.0070961761,f,001,2018_Apr_02_1029,
,,,,,,,,,,,,,,,,,,,,,,material/7.png,1,公平,material/107.png,1,material/107.png,公平,1,f,f,f,1,1,1,公正,,,,,,,,,0,134,134,86,,,,,,,,,,,,,,,,,moral_self_bias,04,19,60.0070961761,f,001,2018_Apr_02_1029,
,,,,,,,,,,,,,,,,,,,,,,material/78.png,2,厌学,material/181.png,2,material/184.png,犹豫,2,f,f,f,2,2,2,草率,,,,,,,,,0,135,135,160,,,,,,,,,,,j,0,0.64192199707,,,,moral_self_bias,04,19,60.0070961761,f,001,2018_Apr_02_1029,
,,,,,,,,,,,,,,,,,,,,,,material/37.png,2,卑鄙,material/137.png,2,material/137.png,卑鄙,2,f,f,f,1,1,1,无耻,,,,,,,,,0,136,136,116,,,,,,,,,,,j,0,3.00832891464,,,,moral_self_bias,04,19,60.0070961761,f,001,2018_Apr_02_1029,
,,,,,,,,,,,,,,,,,,,,,,material/21.png,1,干练,material/121.png,1,material/21.png,精干,1,f,f,f,2,2,2,干练,,,,,,,,,0,137,137,100,,,,,,,,,,,j,0,1.42501783371,,,,moral_self_bias,04,19,60.0070961761,f,001,2018_Apr_02_1029,
,,,,,,,,,,,,,,,,,,,,,,material/30.png,1,上进,material/130.png,1,material/30.png,进取,1,f,f,f,2,2,2,上进,,,,,,,,,0,138,138,109,0,0,0,0,,,,,,,f,1,3.12438893318,j,0,0.150372028351,moral_self_bias,04,19,60.0070961761,f,001,2018_Apr_02_1029,
,,,,,,,,,,,,,,,,,,,,,,material/30.png,1,上进,material/130.png,1,material/30.png,进取,1,f,f,f,2,2,2,上进,,,,,,,,,0,138,138,109,,,,,,,,,,,,,,,,,moral_self_bias,04,19,60.0070961761,f,001,2018_Apr_02_1029,
,,,,,,,,,,,,,,,,,,,,,,material/41.png,2,残忍,material/141.png,2,material/141.png,残忍,2,f,f,f,1,1,1,歹毒,,,,,,,,,0,139,139,120,,,,,,,,,,,j,0,1.40001511574,,,,moral_self_bias,04,19,60.0070961761,f,001,2018_Apr_02_1029,
,,,,,,,,,,,,,,,,,,,,,,material/177.png,2,谄媚,material/72.png,2,material/72.png,谄媚,2,j,j,j,1,1,1,恶心,,,,,,,,,0,140,140,69,,,,,,,,,,,j,1,1.02522492409,,,,moral_self_bias,04,19,60.0070961761,f,001,2018_Apr_02_1029,
,,,,,,,,,,,,,,,,,,,,,,material/175.png,2,残虐,material/73.png,2,material/73.png,残虐,2,f,f,f,1,1,1,无情,,,,,,,,,0,141,141,165,0,0,0,0,,,,,,,f,1,3.64164280891,f,1,0.291160106659,moral_self_bias,04,19,60.0070961761,f,001,2018_Apr_02_1029,
,,,,,,,,,,,,,,,,,,,,,,material/175.png,2,残虐,material/73.png,2,material/73.png,残虐,2,f,f,f,1,1,1,无情,,,,,,,,,0,141,141,165,,,,,,,,,,,,,,,,,moral_self_bias,04,19,60.0070961761,f,001,2018_Apr_02_1029,
,,,,,,,,,,,,,,,,,,,,,,material/156.png,2,愚钝,material/56.png,2,material/156.png,愚昧,2,j,j,j,2,2,2,愚钝,,,,,,,,,0,142,142,55,,,,,,,,,,,j,1,1.52461004257,,,,moral_self_bias,04,19,60.0070961761,f,001,2018_Apr_02_1029,
,,,,,,,,,,,,,,,,,,,,,,material/130.png,1,进取,material/30.png,1,material/130.png,上进,1,j,j,j,2,2,2,进取,,,,,,,,,0,143,143,29,,,,,,,,,,,j,1,0.658429145813,,,,moral_self_bias,04,19,60.0070961761,f,001,2018_Apr_02_1029,
,,,,,,,,,,,,,,,,,,,,,,material/34.png,2,可恶,material/134.png,2,material/134.png,可恶,2,f,f,f,1,1,1,可恨,,,,,,,,,0,144,144,113,,,,,,,,,,,j,0,0.707986831665,,,,moral_self_bias,04,19,60.0070961761,f,001,2018_Apr_02_1029,
,,,,,,,,,,,,,,,,,,,,,,material/102.png,1,善心,material/2.png,1,material/2.png,善心,1,j,j,j,1,1,1,爱心,,,,,,,,,0,145,145,1,,,,,,,,,,,j,1,1.45781302452,,,,moral_self_bias,04,19,60.0070961761,f,001,2018_Apr_02_1029,
,,,,,,,,,,,,,,,,,,,,,,material/47.png,2,死板,material/147.png,2,material/47.png,刻板,2,f,f,f,2,2,2,死板,,,,,,,,,0,146,146,126,0,0,0,0,,,,,,,f,1,1.7414791584,j,0,0.290861129761,moral_self_bias,04,19,60.0070961761,f,001,2018_Apr_02_1029,
,,,,,,,,,,,,,,,,,,,,,,material/47.png,2,死板,material/147.png,2,material/47.png,刻板,2,f,f,f,2,2,2,死板,,,,,,,,,0,146,146,126,,,,,,,,,,,,,,,,,moral_self_bias,04,19,60.0070961761,f,001,2018_Apr_02_1029,
,,,,,,,,,,,,,,,,,,,,,,material/52.png,2,拖延,material/152.png,2,material/52.png,缓慢,2,f,f,f,2,2,2,拖延,,,,,,,,,0,147,147,131,,,,,,,,,,,j,0,0.715807199478,,,,moral_self_bias,04,19,60.0070961761,f,001,2018_Apr_02_1029,
,,,,,,,,,,,,,,,,,,,,,,material/60.png,2,粗拙,material/160.png,2,material/60.png,笨拙,2,f,f,f,2,2,2,粗拙,,,,,,,,,0,148,148,139,,,,,,,,,,,j,0,1.26668405533,,,,moral_self_bias,04,19,60.0070961761,f,001,2018_Apr_02_1029,
,,,,,,,,,,,,,,,,,,,,,,material/135.png,2,冷漠,material/35.png,2,material/35.png,冷漠,2,j,j,j,1,1,1,冷血,,,,,,,,,0,149,149,34,,,,,,,,,,,j,1,0.858393907547,,,,moral_self_bias,04,19,60.0070961761,f,001,2018_Apr_02_1029,
,,,,,,,,,,,,,,,,,,,,,,material/170.png,1,坚忍,material/71.png,1,material/170.png,严谨,1,j,j,j,2,2,2,坚忍,,,,,,,,,0,150,150,68,,,,,,,,,,,j,1,0.875042200089,,,,moral_self_bias,04,19,60.0070961761,f,001,2018_Apr_02_1029,
,,,,,,,,,,,,,,,,,,,,,,material/84.png,2,犹豫,material/84.png,2,material/181.png,顽愚,2,f,f,f,2,2,2,顽愚,,,,,,,,,0,151,151,167,0,0,0,0,,,,,,,f,1,1.10749411583,f,1,0.333469867706,moral_self_bias,04,19,60.0070961761,f,001,2018_Apr_02_1029,
,,,,,,,,,,,,,,,,,,,,,,material/84.png,2,犹豫,material/84.png,2,material/181.png,顽愚,2,f,f,f,2,2,2,顽愚,,,,,,,,,0,151,151,167,,,,,,,,,,,,,,,,,moral_self_bias,04,19,60.0070961761,f,001,2018_Apr_02_1029,
,,,,,,,,,,,,,,,,,,,,,,material/115.png,1,清白,material/15.png,1,material/15.png,清白,1,j,j,j,1,1,1,纯洁,,,,,,,,,0,152,152,14,,,,,,,,,,,j,1,1.52425789833,,,,moral_self_bias,04,19,60.0070961761,f,001,2018_Apr_02_1029,
,,,,,,,,,,,,,,,,,,,,,,material/79.png,2,薄弱,material/81.png,2,material/183.png,无助,2,j,j,j,2,2,2,颓废,,,,,,,,,0,153,153,77,,,,,,,,,,,j,1,0.641000986099,,,,moral_self_bias,04,19,60.0070961761,f,001,2018_Apr_02_1029,
,,,,,,,,,,,,,,,,,,,,,,material/123.png,1,多才,material/23.png,1,material/123.png,有才,1,j,j,j,2,2,2,多才,,,,,,,,,0,154,154,22,,,,,,,,,,,j,1,1.0237288475,,,,moral_self_bias,04,19,60.0070961761,f,001,2018_Apr_02_1029,
,,,,,,,,,,,,,,,,,,,,,,material/77.png,2,浮夸,material/172.png,2,material/172.png,浮夸,2,f,f,f,1,1,1,软弱,,,,,,,,,0,155,155,151,,,,,,,,,,,j,0,0.724173069,,,,moral_self_bias,04,19,60.0070961761,f,001,2018_Apr_02_1029,
,,,,,,,,,,,,,,,,,,,,,,material/134.png,2,可恨,material/34.png,2,material/34.png,可恨,2,j,j,j,1,1,1,可恶,,,,,,,,,0,156,156,33,,,,,,,,,,,j,1,0.692260026932,,,,moral_self_bias,04,19,60.0070961761,f,001,2018_Apr_02_1029,
,,,,,,,,,,,,,,,,,,,,,,material/110.png,1,顽强,material/10.png,1,material/10.png,顽强,1,j,j,j,1,1,1,坚毅,,,,,,,,,0,157,157,9,,,,,,,,,,,j,1,1.17422699928,,,,moral_self_bias,04,19,60.0070961761,f,001,2018_Apr_02_1029,
,,,,,,,,,,,,,,,,,,,,,,material/148.png,2,笨蛋,material/48.png,2,material/148.png,愚蠢,2,j,j,j,2,2,2,笨蛋,,,,,,,,,0,158,158,47,,,,,,,,,,,j,1,0.808773994446,,,,moral_self_bias,04,19,60.0070961761,f,001,2018_Apr_02_1029,
,,,,,,,,,,,,,,,,,,,,,,material/163.png,1,文明,material/163.png,1,material/63.png,宽容,1,f,f,f,1,1,1,宽容,,,,,,,,,0,159,159,142,,,,,,,,,,,j,0,0.707629919052,,,,moral_self_bias,04,19,60.0070961761,f,001,2018_Apr_02_1029,
,,,,,,,,,,,,,,,,,,,,,,material/40.png,2,狠毒,material/140.png,2,material/140.png,狠毒,2,f,f,f,1,1,1,邪恶,,,,,,,,,0,160,160,119,0,0,0,0,,,,,,,f,1,1.34077191353,f,1,0.307652950287,moral_self_bias,04,19,60.0070961761,f,001,2018_Apr_02_1029,
,,,,,,,,,,,,,,,,,,,,,,material/40.png,2,狠毒,material/140.png,2,material/140.png,狠毒,2,f,f,f,1,1,1,邪恶,,,,,,,,,0,160,160,119,,,,,,,,,,,,,,,,,moral_self_bias,04,19,60.0070961761,f,001,2018_Apr_02_1029,
,,,,,,,,,,,,,,,,,,,,,,material/137.png,2,无耻,material/37.png,2,material/37.png,无耻,2,j,j,j,1,1,1,卑鄙,,,,,,,,,0,161,161,36,,,,,,,,,,,j,1,0.841392993927,,,,moral_self_bias,04,19,60.0070961761,f,001,2018_Apr_02_1029,
,,,,,,,,,,,,,,,,,,,,,,material/173.png,2,不义,material/174.png,2,material/174.png,不义,2,f,f,f,1,1,1,黑心,,,,,,,,,0,162,162,153,,,,,,,,,,,j,0,1.17463803291,,,,moral_self_bias,04,19,60.0070961761,f,001,2018_Apr_02_1029,
,,,,,,,,,,,,,,,,,,,,,,material/69.png,1,高明,material/69.png,1,material/69.png,高明,1,f,f,f,2,2,2,高明,,,,,,,,,0,163,163,166,,,,,,,,,,,j,0,1.07447600365,,,,moral_self_bias,04,19,60.0070961761,f,001,2018_Apr_02_1029,
,,,,,,,,,,,,,,,,,,,,,,material/73.png,2,恶心,material/177.png,2,material/177.png,恶心,2,f,f,f,1,1,1,残虐,,,,,,,,,0,164,164,156,0,0,0,0,,,,,,,f,1,1.21702313423,j,0,0.333603143692,moral_self_bias,04,19,60.0070961761,f,001,2018_Apr_02_1029,
,,,,,,,,,,,,,,,,,,,,,,material/73.png,2,恶心,material/177.png,2,material/177.png,恶心,2,f,f,f,1,1,1,残虐,,,,,,,,,0,164,164,156,,,,,,,,,,,,,,,,,moral_self_bias,04,19,60.0070961761,f,001,2018_Apr_02_1029,
,,,,,,,,,,,,,,,,,,,,,,material/114.png,1,爱国,material/14.png,1,material/14.png,爱国,1,j,j,j,1,1,1,忠贞,,,,,,,,,0,165,165,13,,,,,,,,,,,j,1,0.673867940903,,,,moral_self_bias,04,19,60.0070961761,f,001,2018_Apr_02_1029,
,,,,,,,,,,,,,,,,,,,,,,material/32.png,2,背叛,material/132.png,2,material/132.png,背叛,2,f,f,f,1,1,1,不忠,,,,,,,,,0,166,166,111,0,0,0,0,,,,,,,f,1,1.0329990387,j,0,0.274391889572,moral_self_bias,04,19,60.0070961761,f,001,2018_Apr_02_1029,
,,,,,,,,,,,,,,,,,,,,,,material/32.png,2,背叛,material/132.png,2,material/132.png,背叛,2,f,f,f,1,1,1,不忠,,,,,,,,,0,166,166,111,,,,,,,,,,,,,,,,,moral_self_bias,04,19,60.0070961761,f,001,2018_Apr_02_1029,
,,,,,,,,,,,,,,,,,,,,,,material/66.png,1,独立,material/66.png,1,material/165.png,正义,1,f,f,f,1,1,1,正义,,,,,,,,,0,167,167,164,0,0,0,0,,,,,,,f,1,1.73372888565,f,1,0.391358137131,moral_self_bias,04,19,60.0070961761,f,001,2018_Apr_02_1029,
,,,,,,,,,,,,,,,,,,,,,,material/66.png,1,独立,material/66.png,1,material/165.png,正义,1,f,f,f,1,1,1,正义,,,,,,,,,0,167,167,164,,,,,,,,,,,,,,,,,moral_self_bias,04,19,60.0070961761,f,001,2018_Apr_02_1029,
