Block1_Old,Num_Source3,Num_Source2,Num_Source1,valence1,valence2,valence3,Num_Old2,Corr_S1,Num_Old1,Corr_S3,Corr_S2,Block3_Old,Block2_Old,Source_2,Source_3,Source_1,domain3,domain2,domain1,Num_Old3,math,Num_All2,valence_all1,All_Words3,Num_All1,valence_all2,Num_All3,All_Words1,valence_all3,Corr_Rec2,Corr_Rec3,Corr_Rec1,domian_all3,domian_all2,domian_all1,All_Words2,trials.thisRepN,trials.thisTrialN,trials.thisN,trials.thisIndex,trials_2.thisRepN,trials_2.thisTrialN,trials_2.thisN,trials_2.thisIndex,trials_4.thisRepN,trials_4.thisTrialN,trials_4.thisN,trials_4.thisIndex,trials_3.thisRepN,trials_3.thisTrialN,trials_3.thisN,trials_3.thisIndex,block_resp_1.keys,block_resp_1.rt,words_rating.keys,words_rating.rt,block_resp_2.keys,block_resp_2.rt,Rec_resp.keys,Rec_resp.corr,Rec_resp.rt,Source_resp.keys,Source_resp.corr,Source_resp.rt,expName,participant,Age,frameRate,Sex,session,date,
,,,,,,,,,,,,,,,,,,,,,,,,,,,,,,,,,,,,,,,,,,,,,,,,,,,,,2,4.39285087585,,,,,,,,,,,moral_self_bias,05,19,60.0322610656,f,001,2018_Apr_02_1046,
机变,material/instr2_2.png,material/instr2_2.png,material/instr2_2.png,1,1,1,material/70.png,j,material/168.png,j,j,全面,全面,friend,friend,friend,2,2,2,material/70.png,,,,,,,,,,,,,,,,,0,0,0,67,,,,,,,,,,,,,,,None,,,,,,,,,,moral_self_bias,05,19,60.0322610656,f,001,2018_Apr_02_1046,
白痴,material/instr2_2.png,material/instr2_2.png,material/instr2_2.png,2,2,2,material/49.png,j,material/149.png,j,j,痴呆,痴呆,friend,friend,friend,2,2,2,material/49.png,,,,,,,,,,,,,,,,,0,1,1,48,,,,,,,,,,,,,,,3,2.20913815498,,,,,,,,,moral_self_bias,05,19,60.0322610656,f,001,2018_Apr_02_1046,
笃行,material/instr2_1.png,material/instr2_1.png,material/instr2_1.png,1,1,1,material/31.png,f,material/131.png,f,f,笃学,笃学,self,self,self,2,2,2,material/31.png,,,,,,,,,,,,,,,,,0,2,2,30,,,,,,,,,,,,,,,3,1.47459101677,,,,,,,,,moral_self_bias,05,19,60.0322610656,f,001,2018_Apr_02_1046,
高手,material/instr2_2.png,material/instr2_2.png,material/instr2_2.png,1,1,1,material/68.png,j,material/167.png,j,j,广博,广博,friend,friend,friend,2,2,2,material/68.png,,,,,,,,,,,,,,,,,0,3,3,66,,,,,,,,,,,,,,,3,1.89226603508,,,,,,,,,moral_self_bias,05,19,60.0322610656,f,001,2018_Apr_02_1046,
无私,material/instr2_2.png,material/instr2_2.png,material/instr2_2.png,1,1,1,material/8.png,j,material/108.png,j,j,无私,公道,friend,friend,friend,1,1,1,material/108.png,,,,,,,,,,,,,,,,,0,4,4,7,,,,,,,,,,,,,,,4,1.57209610939,,,,,,,,,moral_self_bias,05,19,60.0322610656,f,001,2018_Apr_02_1046,
进取,material/instr2_1.png,material/instr2_1.png,material/instr2_1.png,1,1,1,material/30.png,f,material/130.png,f,f,上进,上进,self,self,self,2,2,2,material/30.png,,,,,,,,,,,,,,,,,0,5,5,29,,,,,,,,,,,,,,,3,1.07555294037,,,,,,,,,moral_self_bias,05,19,60.0322610656,f,001,2018_Apr_02_1046,
机智,material/instr2_2.png,material/instr2_2.png,material/instr2_2.png,1,1,1,material/16.png,j,material/116.png,j,j,睿智,睿智,friend,friend,friend,2,2,2,material/16.png,,,,,,,,,,,,,,,,,0,6,6,15,,,,,,,,,,,,,,,3,1.42567396164,,,,,,,,,moral_self_bias,05,19,60.0322610656,f,001,2018_Apr_02_1046,
宽容,material/instr2_2.png,material/instr2_2.png,material/instr2_2.png,1,1,1,material/163.png,j,material/163.png,j,j,文明,宽容,friend,friend,friend,1,1,1,material/63.png,,,,,,,,,,,,,,,,,0,7,7,62,,,,,,,,,,,,,,,4,1.95907902718,,,,,,,,,moral_self_bias,05,19,60.0322610656,f,001,2018_Apr_02_1046,
冷静,material/instr2_1.png,material/instr2_1.png,material/instr2_1.png,1,1,1,material/24.png,f,material/124.png,f,f,理智,理智,self,self,self,2,2,2,material/24.png,,,,,,,,,,,,,,,,,0,8,8,23,,,,,,,,,,,,,,,3,0.759062051773,,,,,,,,,moral_self_bias,05,19,60.0322610656,f,001,2018_Apr_02_1046,
浅薄,material/instr2_2.png,material/instr2_2.png,material/instr2_2.png,2,2,2,material/58.png,j,material/158.png,j,j,肤浅,肤浅,friend,friend,friend,2,2,2,material/58.png,,,,,,,,,,,,,,,,,0,9,9,57,,,,,,,,,,,,,,,3,1.37546181679,,,,,,,,,moral_self_bias,05,19,60.0322610656,f,001,2018_Apr_02_1046,
笨拙,material/instr2_1.png,material/instr2_1.png,material/instr2_1.png,2,2,2,material/60.png,f,material/160.png,f,f,粗拙,粗拙,self,self,self,2,2,2,material/60.png,,,,,,,,,,,,,,,,,0,10,10,59,,,,,,,,,,,,,,,3,1.6919798851,,,,,,,,,moral_self_bias,05,19,60.0322610656,f,001,2018_Apr_02_1046,
廉明,material/instr2_2.png,material/instr2_2.png,material/instr2_2.png,1,1,1,material/13.png,j,material/113.png,j,j,廉明,廉洁,friend,friend,friend,1,1,1,material/113.png,,,,,,,,,,,,,,,,,0,11,11,12,,,,,,,,,,,,,,,3,2.0089070797,,,,,,,,,moral_self_bias,05,19,60.0322610656,f,001,2018_Apr_02_1046,
迟钝,material/instr2_1.png,material/instr2_1.png,material/instr2_1.png,2,2,2,material/53.png,f,material/153.png,f,f,迟缓,迟缓,self,self,self,2,2,2,material/53.png,,,,,,,,,,,,,,,,,0,12,12,52,,,,,,,,,,,,,,,2,1.29233312607,,,,,,,,,moral_self_bias,05,19,60.0322610656,f,001,2018_Apr_02_1046,
高尚,material/instr2_1.png,material/instr2_1.png,material/instr2_1.png,1,1,1,material/11.png,f,material/111.png,f,f,高尚,高雅,self,self,self,1,1,1,material/111.png,,,,,,,,,,,,,,,,,0,13,13,10,,,,,,,,,,,,,,,3,1.35837078094,,,,,,,,,moral_self_bias,05,19,60.0322610656,f,001,2018_Apr_02_1046,
差生,material/instr2_2.png,material/instr2_2.png,material/instr2_2.png,2,2,2,material/81.png,j,material/179.png,j,j,呆笨,无助,friend,friend,friend,2,2,2,material/83.png,,,,,,,,,,,,,,,,,0,14,14,78,,,,,,,,,,,,,,,3,2.88695192337,,,,,,,,,moral_self_bias,05,19,60.0322610656,f,001,2018_Apr_02_1046,
高效,material/instr2_1.png,material/instr2_1.png,material/instr2_1.png,1,1,1,material/169.png,f,material/171.png,f,f,颖悟,颖悟,self,self,self,2,2,2,material/169.png,,,,,,,,,,,,,,,,,0,15,15,70,,,,,,,,,,,,,,,3,1.58795499802,,,,,,,,,moral_self_bias,05,19,60.0322610656,f,001,2018_Apr_02_1046,
公平,material/instr2_2.png,material/instr2_2.png,material/instr2_2.png,1,1,1,material/7.png,j,material/107.png,j,j,公平,公正,friend,friend,friend,1,1,1,material/107.png,,,,,,,,,,,,,,,,,0,16,16,6,,,,,,,,,,,,,,,4,1.3086669445,,,,,,,,,moral_self_bias,05,19,60.0322610656,f,001,2018_Apr_02_1046,
勤快,material/instr2_2.png,material/instr2_2.png,material/instr2_2.png,1,1,1,material/26.png,j,material/126.png,j,j,刻苦,刻苦,friend,friend,friend,2,2,2,material/26.png,,,,,,,,,,,,,,,,,0,17,17,25,,,,,,,,,,,,,,,3,1.44148397446,,,,,,,,,moral_self_bias,05,19,60.0322610656,f,001,2018_Apr_02_1046,
诚信,material/instr2_1.png,material/instr2_1.png,material/instr2_1.png,1,1,1,material/5.png,f,material/105.png,f,f,诚信,守信,self,self,self,1,1,1,material/105.png,,,,,,,,,,,,,,,,,0,18,18,4,,,,,,,,,,,,,,,4,1.0422399044,,,,,,,,,moral_self_bias,05,19,60.0322610656,f,001,2018_Apr_02_1046,
浮夸,material/instr2_2.png,material/instr2_2.png,material/instr2_2.png,2,2,2,material/77.png,j,material/172.png,j,j,浮夸,软弱,friend,friend,friend,1,1,1,material/172.png,,,,,,,,,,,,,,,,,0,19,19,71,,,,,,,,,,,,,,,2,2.50875997543,,,,,,,,,moral_self_bias,05,19,60.0322610656,f,001,2018_Apr_02_1046,
自律,material/instr2_2.png,material/instr2_2.png,material/instr2_2.png,1,1,1,material/28.png,j,material/128.png,j,j,克己,克己,friend,friend,friend,2,2,2,material/28.png,,,,,,,,,,,,,,,,,0,20,20,27,,,,,,,,,,,,,,,None,,,,,,,,,,moral_self_bias,05,19,60.0322610656,f,001,2018_Apr_02_1046,
依靠,material/instr2_1.png,material/instr2_1.png,material/instr2_1.png,2,2,2,material/54.png,f,material/154.png,f,f,依赖,依赖,self,self,self,2,2,2,material/54.png,,,,,,,,,,,,,,,,,0,21,21,53,,,,,,,,,,,,,,,4,1.8585960865,,,,,,,,,moral_self_bias,05,19,60.0322610656,f,001,2018_Apr_02_1046,
可恶,material/instr2_1.png,material/instr2_1.png,material/instr2_1.png,2,2,2,material/34.png,f,material/134.png,f,f,可恶,可恨,self,self,self,1,1,1,material/134.png,,,,,,,,,,,,,,,,,0,22,22,33,,,,,,,,,,,,,,,3,1.25814795494,,,,,,,,,moral_self_bias,05,19,60.0322610656,f,001,2018_Apr_02_1046,
背叛,material/instr2_1.png,material/instr2_1.png,material/instr2_1.png,2,2,2,material/32.png,f,material/132.png,f,f,背叛,不忠,self,self,self,1,1,1,material/132.png,,,,,,,,,,,,,,,,,0,23,23,31,,,,,,,,,,,,,,,2,1.20888996124,,,,,,,,,moral_self_bias,05,19,60.0322610656,f,001,2018_Apr_02_1046,
厌学,material/instr2_2.png,material/instr2_2.png,material/instr2_2.png,2,2,2,material/182.png,j,material/184.png,j,j,健忘,才尽,friend,friend,friend,2,2,2,material/80.png,,,,,,,,,,,,,,,,,0,24,24,83,,,,,,,,,,,,,,,3,1.53309798241,,,,,,,,,moral_self_bias,05,19,60.0322610656,f,001,2018_Apr_02_1046,
精干,material/instr2_1.png,material/instr2_1.png,material/instr2_1.png,1,1,1,material/21.png,f,material/121.png,f,f,干练,干练,self,self,self,2,2,2,material/21.png,,,,,,,,,,,,,,,,,0,25,25,20,,,,,,,,,,,,,,,2,1.10946798325,,,,,,,,,moral_self_bias,05,19,60.0322610656,f,001,2018_Apr_02_1046,
怠惰,material/instr2_2.png,material/instr2_2.png,material/instr2_2.png,2,2,2,material/181.png,j,material/180.png,j,j,怠惰,犹豫,friend,friend,friend,2,2,2,material/180.png,,,,,,,,,,,,,,,,,0,26,26,79,,,,,,,,,,,,,,,4,0.991907119751,,,,,,,,,moral_self_bias,05,19,60.0322610656,f,001,2018_Apr_02_1046,
爱心,material/instr2_1.png,material/instr2_1.png,material/instr2_1.png,1,1,1,material/2.png,f,material/102.png,f,f,爱心,善心,self,self,self,1,1,1,material/102.png,,,,,,,,,,,,,,,,,0,27,27,1,,,,,,,,,,,,,,,4,0.856287002563,,,,,,,,,moral_self_bias,05,19,60.0322610656,f,001,2018_Apr_02_1046,
独立,material/instr2_1.png,material/instr2_1.png,material/instr2_1.png,1,1,1,material/64.png,f,material/165.png,f,f,谦虚,奉献,self,self,self,1,1,1,material/65.png,,,,,,,,,,,,,,,,,0,28,28,64,,,,,,,,,,,,,,,4,0.825299024582,,,,,,,,,moral_self_bias,05,19,60.0322610656,f,001,2018_Apr_02_1046,
恶心,material/instr2_1.png,material/instr2_1.png,material/instr2_1.png,2,2,2,material/73.png,f,material/177.png,f,f,恶心,残虐,self,self,self,1,1,1,material/177.png,,,,,,,,,,,,,,,,,0,29,29,76,,,,,,,,,,,,,,,2,0.943228960037,,,,,,,,,moral_self_bias,05,19,60.0322610656,f,001,2018_Apr_02_1046,
缓慢,material/instr2_1.png,material/instr2_1.png,material/instr2_1.png,2,2,2,material/52.png,f,material/152.png,f,f,拖延,拖延,self,self,self,2,2,2,material/52.png,,,,,,,,,,,,,,,,,0,30,30,51,,,,,,,,,,,,,,,4,1.27547597885,,,,,,,,,moral_self_bias,05,19,60.0322610656,f,001,2018_Apr_02_1046,
弱智,material/instr2_1.png,material/instr2_1.png,material/instr2_1.png,2,2,2,material/59.png,f,material/159.png,f,f,智障,智障,self,self,self,2,2,2,material/59.png,,,,,,,,,,,,,,,,,0,31,31,58,,,,,,,,,,,,,,,2,1.37571716309,,,,,,,,,moral_self_bias,05,19,60.0322610656,f,001,2018_Apr_02_1046,
顽愚,material/instr2_1.png,material/instr2_1.png,material/instr2_1.png,2,2,2,material/84.png,f,material/84.png,f,f,犹豫,顽愚,self,self,self,2,2,2,material/181.png,,,,,,,,,,,,,,,,,0,32,32,87,,,,,,,,,,,,,,,2,1.60856509209,,,,,,,,,moral_self_bias,05,19,60.0322610656,f,001,2018_Apr_02_1046,
贪污,material/instr2_1.png,material/instr2_1.png,material/instr2_1.png,2,2,2,material/33.png,f,material/133.png,f,f,贪污,腐败,self,self,self,1,1,1,material/133.png,,,,,,,,,,,,,,,,,0,33,33,32,,,,,,,,,,,,,,,2,1.14247202873,,,,,,,,,moral_self_bias,05,19,60.0322610656,f,001,2018_Apr_02_1046,
缺德,material/instr2_2.png,material/instr2_2.png,material/instr2_2.png,2,2,2,material/38.png,j,material/138.png,j,j,缺德,无德,friend,friend,friend,1,1,1,material/138.png,,,,,,,,,,,,,,,,,0,34,34,37,,,,,,,,,,,,,,,2,1.45862197876,,,,,,,,,moral_self_bias,05,19,60.0322610656,f,001,2018_Apr_02_1046,
笨蛋,material/instr2_2.png,material/instr2_2.png,material/instr2_2.png,2,2,2,material/48.png,j,material/148.png,j,j,愚蠢,愚蠢,friend,friend,friend,2,2,2,material/48.png,,,,,,,,,,,,,,,,,0,35,35,47,,,,,,,,,,,,,,,2,1.63749408722,,,,,,,,,moral_self_bias,05,19,60.0322610656,f,001,2018_Apr_02_1046,
机灵,material/instr2_2.png,material/instr2_2.png,material/instr2_2.png,1,1,1,material/19.png,j,material/119.png,j,j,灵活,灵活,friend,friend,friend,2,2,2,material/19.png,,,,,,,,,,,,,,,,,0,36,36,18,,,,,,,,,,,,,,,4,1.55845403671,,,,,,,,,moral_self_bias,05,19,60.0322610656,f,001,2018_Apr_02_1046,
小人,material/instr2_2.png,material/instr2_2.png,material/instr2_2.png,2,2,2,material/45.png,j,material/145.png,j,j,小人,下流,friend,friend,friend,1,1,1,material/145.png,,,,,,,,,,,,,,,,,0,37,37,44,,,,,,,,,,,,,,,2,0.708709001541,,,,,,,,,moral_self_bias,05,19,60.0322610656,f,001,2018_Apr_02_1046,
无能,material/instr2_2.png,material/instr2_2.png,material/instr2_2.png,2,2,2,material/57.png,j,material/157.png,j,j,无知,无知,friend,friend,friend,2,2,2,material/57.png,,,,,,,,,,,,,,,,,0,38,38,56,,,,,,,,,,,,,,,1,1.39220499992,,,,,,,,,moral_self_bias,05,19,60.0322610656,f,001,2018_Apr_02_1046,
能干,material/instr2_2.png,material/instr2_2.png,material/instr2_2.png,1,1,1,material/20.png,j,material/120.png,j,j,厉害,厉害,friend,friend,friend,2,2,2,material/20.png,,,,,,,,,,,,,,,,,0,39,39,19,,,,,,,,,,,,,,,4,0.775254011154,,,,,,,,,moral_self_bias,05,19,60.0322610656,f,001,2018_Apr_02_1046,
仗义,material/instr2_1.png,material/instr2_1.png,material/instr2_1.png,1,1,1,material/63.png,f,material/166.png,f,f,正义,文明,self,self,self,1,1,1,material/66.png,,,,,,,,,,,,,,,,,0,40,40,65,,,,,,,,,,,,,,,5,1.17513513565,,,,,,,,,moral_self_bias,05,19,60.0322610656,f,001,2018_Apr_02_1046,
博学,material/instr2_1.png,material/instr2_1.png,material/instr2_1.png,1,1,1,material/22.png,f,material/122.png,f,f,才学,才学,self,self,self,2,2,2,material/22.png,,,,,,,,,,,,,,,,,0,41,41,21,,,,,,,,,,,,,,,3,1.25870203972,,,,,,,,,moral_self_bias,05,19,60.0322610656,f,001,2018_Apr_02_1046,
机敏,material/instr2_2.png,material/instr2_2.png,material/instr2_2.png,1,1,1,material/18.png,j,material/118.png,j,j,敏锐,敏锐,friend,friend,friend,2,2,2,material/18.png,,,,,,,,,,,,,,,,,0,42,42,17,,,,,,,,,,,,,,,3,1.64187908173,,,,,,,,,moral_self_bias,05,19,60.0322610656,f,001,2018_Apr_02_1046,
毛糙,material/instr2_2.png,material/instr2_2.png,material/instr2_2.png,2,2,2,material/179.png,j,material/178.png,j,j,顽愚,差生,friend,friend,friend,2,2,2,material/84.png,,,,,,,,,,,,,,,,,0,43,43,77,,,,,,,,,,,,,,,2,1.17530798912,,,,,,,,,moral_self_bias,05,19,60.0322610656,f,001,2018_Apr_02_1046,
残虐,material/instr2_1.png,material/instr2_1.png,material/instr2_1.png,2,2,2,material/175.png,f,material/73.png,f,f,残虐,无情,self,self,self,1,1,1,material/73.png,,,,,,,,,,,,,,,,,0,44,44,85,,,,,,,,,,,,,,,3,1.45929908752,,,,,,,,,moral_self_bias,05,19,60.0322610656,f,001,2018_Apr_02_1046,
孝顺,material/instr2_1.png,material/instr2_1.png,material/instr2_1.png,1,1,1,material/161.png,f,material/164.png,f,f,奉献,勇敢,self,self,self,1,1,1,material/64.png,,,,,,,,,,,,,,,,,0,45,45,63,,,,,,,,,,,,,,,3,1.39219307899,,,,,,,,,moral_self_bias,05,19,60.0322610656,f,001,2018_Apr_02_1046,
撒谎,material/instr2_1.png,material/instr2_1.png,material/instr2_1.png,2,2,2,material/36.png,f,material/136.png,f,f,撒谎,说谎,self,self,self,1,1,1,material/136.png,,,,,,,,,,,,,,,,,0,46,46,35,,,,,,,,,,,,,,,2,1.24301600456,,,,,,,,,moral_self_bias,05,19,60.0322610656,f,001,2018_Apr_02_1046,
薄弱,material/instr2_1.png,material/instr2_1.png,material/instr2_1.png,2,2,2,material/82.png,f,material/183.png,f,f,毛糙,窝囊,self,self,self,2,2,2,material/178.png,,,,,,,,,,,,,,,,,0,47,47,82,,,,,,,,,,,,,,,3,1.14209318161,,,,,,,,,moral_self_bias,05,19,60.0322610656,f,001,2018_Apr_02_1046,
博爱,material/instr2_1.png,material/instr2_1.png,material/instr2_1.png,1,1,1,material/1.png,f,material/101.png,f,f,博爱,善良,self,self,self,1,1,1,material/101.png,,,,,,,,,,,,,,,,,0,48,48,0,,,,,,,,,,,,,,,5,0.99090218544,,,,,,,,,moral_self_bias,05,19,60.0322610656,f,001,2018_Apr_02_1046,
果敢,material/instr2_1.png,material/instr2_1.png,material/instr2_1.png,1,1,1,material/25.png,f,material/125.png,f,f,果断,果断,self,self,self,2,2,2,material/25.png,,,,,,,,,,,,,,,,,0,49,49,24,,,,,,,,,,,,,,,3,1.19215798378,,,,,,,,,moral_self_bias,05,19,60.0322610656,f,001,2018_Apr_02_1046,
好问,material/instr2_1.png,material/instr2_1.png,material/instr2_1.png,1,1,1,material/29.png,f,material/129.png,f,f,好学,好学,self,self,self,2,2,2,material/29.png,,,,,,,,,,,,,,,,,0,50,50,28,,,,,,,,,,,,,,,3,1.10918807983,,,,,,,,,moral_self_bias,05,19,60.0322610656,f,001,2018_Apr_02_1046,
才尽,material/instr2_1.png,material/instr2_1.png,material/instr2_1.png,2,2,2,material/183.png,f,material/182.png,f,f,颓废,薄弱,self,self,self,2,2,2,material/79.png,,,,,,,,,,,,,,,,,0,51,51,81,,,,,,,,,,,,,,,3,1.0088391304,,,,,,,,,moral_self_bias,05,19,60.0322610656,f,001,2018_Apr_02_1046,
黑心,material/instr2_2.png,material/instr2_2.png,material/instr2_2.png,2,2,2,material/74.png,j,material/173.png,j,j,黑心,卑劣,friend,friend,friend,1,1,1,material/173.png,,,,,,,,,,,,,,,,,0,52,52,72,,,,,,,,,,,,,,,2,2.2259349823,,,,,,,,,moral_self_bias,05,19,60.0322610656,f,001,2018_Apr_02_1046,
放纵,material/instr2_1.png,material/instr2_1.png,material/instr2_1.png,2,2,2,material/76.png,f,material/176.png,f,f,放纵,虚伪,self,self,self,1,1,1,material/176.png,,,,,,,,,,,,,,,,,0,53,53,75,,,,,,,,,,,,,,,3,1.64239501953,,,,,,,,,moral_self_bias,05,19,60.0322610656,f,001,2018_Apr_02_1046,
颖悟,material/instr2_2.png,material/instr2_2.png,material/instr2_2.png,1,1,1,material/167.png,j,material/169.png,j,j,高手,高手,friend,friend,friend,2,2,2,material/167.png,,,,,,,,,,,,,,,,,0,54,54,68,,,,,,,,,,,,,,,2,1.02591705322,,,,,,,,,moral_self_bias,05,19,60.0322610656,f,001,2018_Apr_02_1046,
高明,material/instr2_1.png,material/instr2_1.png,material/instr2_1.png,1,1,1,material/69.png,f,material/69.png,f,f,高明,高明,self,self,self,2,2,2,material/69.png,,,,,,,,,,,,,,,,,0,55,55,86,,,,,,,,,,,,,,,3,0.825110912323,,,,,,,,,moral_self_bias,05,19,60.0322610656,f,001,2018_Apr_02_1046,
无情,material/instr2_1.png,material/instr2_1.png,material/instr2_1.png,2,2,2,material/172.png,f,material/175.png,f,f,无情,浮夸,self,self,self,1,1,1,material/175.png,,,,,,,,,,,,,,,,,0,56,56,74,,,,,,,,,,,,,,,2,1.1085588932,,,,,,,,,moral_self_bias,05,19,60.0322610656,f,001,2018_Apr_02_1046,
犹豫,material/instr2_1.png,material/instr2_1.png,material/instr2_1.png,2,2,2,material/78.png,f,material/181.png,f,f,厌学,草率,self,self,self,2,2,2,material/184.png,,,,,,,,,,,,,,,,,0,57,57,80,,,,,,,,,,,,,,,2,0.842887878418,,,,,,,,,moral_self_bias,05,19,60.0322610656,f,001,2018_Apr_02_1046,
虚荣,material/instr2_1.png,material/instr2_1.png,material/instr2_1.png,2,2,2,material/43.png,f,material/143.png,f,f,虚荣,拜金,self,self,self,1,1,1,material/143.png,,,,,,,,,,,,,,,,,0,58,58,42,,,,,,,,,,,,,,,2,0.833611011505,,,,,,,,,moral_self_bias,05,19,60.0322610656,f,001,2018_Apr_02_1046,
坚毅,material/instr2_2.png,material/instr2_2.png,material/instr2_2.png,1,1,1,material/10.png,j,material/110.png,j,j,坚毅,顽强,friend,friend,friend,1,1,1,material/110.png,,,,,,,,,,,,,,,,,0,59,59,9,,,,,,,,,,,,,,,4,1.15959978104,,,,,,,,,moral_self_bias,05,19,60.0322610656,f,001,2018_Apr_02_1046,
超群,material/instr2_2.png,material/instr2_2.png,material/instr2_2.png,1,1,1,material/27.png,j,material/127.png,j,j,卓越,卓越,friend,friend,friend,2,2,2,material/27.png,,,,,,,,,,,,,,,,,0,60,60,26,,,,,,,,,,,,,,,3,1.4092130661,,,,,,,,,moral_self_bias,05,19,60.0322610656,f,001,2018_Apr_02_1046,
聪颖,material/instr2_2.png,material/instr2_2.png,material/instr2_2.png,1,1,1,material/17.png,j,material/117.png,j,j,聪明,聪明,friend,friend,friend,2,2,2,material/17.png,,,,,,,,,,,,,,,,,0,61,61,16,,,,,,,,,,,,,,,3,1.30880904198,,,,,,,,,moral_self_bias,05,19,60.0322610656,f,001,2018_Apr_02_1046,
忠贞,material/instr2_2.png,material/instr2_2.png,material/instr2_2.png,1,1,1,material/14.png,j,material/114.png,j,j,忠贞,爱国,friend,friend,friend,1,1,1,material/114.png,,,,,,,,,,,,,,,,,0,62,62,13,,,,,,,,,,,,,,,3,1.09181880951,,,,,,,,,moral_self_bias,05,19,60.0322610656,f,001,2018_Apr_02_1046,
刻板,material/instr2_2.png,material/instr2_2.png,material/instr2_2.png,2,2,2,material/47.png,j,material/147.png,j,j,死板,死板,friend,friend,friend,2,2,2,material/47.png,,,,,,,,,,,,,,,,,0,63,63,46,,,,,,,,,,,,,,,2,2.5923409462,,,,,,,,,moral_self_bias,05,19,60.0322610656,f,001,2018_Apr_02_1046,
正直,material/instr2_2.png,material/instr2_2.png,material/instr2_2.png,1,1,1,material/9.png,j,material/109.png,j,j,正直,秉直,friend,friend,friend,1,1,1,material/109.png,,,,,,,,,,,,,,,,,0,64,64,8,,,,,,,,,,,,,,,3,0.983556985855,,,,,,,,,moral_self_bias,05,19,60.0322610656,f,001,2018_Apr_02_1046,
不义,material/instr2_2.png,material/instr2_2.png,material/instr2_2.png,2,2,2,material/173.png,j,material/174.png,j,j,不义,黑心,friend,friend,friend,1,1,1,material/174.png,,,,,,,,,,,,,,,,,0,65,65,73,,,,,,,,,,,,,,,2,0.892162084579,,,,,,,,,moral_self_bias,05,19,60.0322610656,f,001,2018_Apr_02_1046,
纯洁,material/instr2_2.png,material/instr2_2.png,material/instr2_2.png,1,1,1,material/15.png,j,material/115.png,j,j,纯洁,清白,friend,friend,friend,1,1,1,material/115.png,,,,,,,,,,,,,,,,,0,66,66,14,,,,,,,,,,,,,,,3,1.79252099991,,,,,,,,,moral_self_bias,05,19,60.0322610656,f,001,2018_Apr_02_1046,
恶毒,material/instr2_2.png,material/instr2_2.png,material/instr2_2.png,2,2,2,material/39.png,j,material/139.png,j,j,恶毒,凶残,friend,friend,friend,1,1,1,material/139.png,,,,,,,,,,,,,,,,,0,67,67,38,,,,,,,,,,,,,,,2,0.7585978508,,,,,,,,,moral_self_bias,05,19,60.0322610656,f,001,2018_Apr_02_1046,
迷糊,material/instr2_2.png,material/instr2_2.png,material/instr2_2.png,2,2,2,material/51.png,j,material/151.png,j,j,糊涂,糊涂,friend,friend,friend,2,2,2,material/51.png,,,,,,,,,,,,,,,,,0,68,68,50,,,,,,,,,,,,,,,3,1.22564220428,,,,,,,,,moral_self_bias,05,19,60.0322610656,f,001,2018_Apr_02_1046,
盲目,material/instr2_1.png,material/instr2_1.png,material/instr2_1.png,2,2,2,material/55.png,f,material/155.png,f,f,盲从,盲从,self,self,self,2,2,2,material/55.png,,,,,,,,,,,,,,,,,0,69,69,54,,,,,,,,,,,,,,,4,1.72493910789,,,,,,,,,moral_self_bias,05,19,60.0322610656,f,001,2018_Apr_02_1046,
友善,material/instr2_1.png,material/instr2_1.png,material/instr2_1.png,1,1,1,material/4.png,f,material/104.png,f,f,友善,友爱,self,self,self,1,1,1,material/104.png,,,,,,,,,,,,,,,,,0,70,70,3,,,,,,,,,,,,,,,4,0.733606100082,,,,,,,,,moral_self_bias,05,19,60.0322610656,f,001,2018_Apr_02_1046,
鲁钝,material/instr2_2.png,material/instr2_2.png,material/instr2_2.png,2,2,2,material/50.png,j,material/150.png,j,j,愚笨,愚笨,friend,friend,friend,2,2,2,material/50.png,,,,,,,,,,,,,,,,,0,71,71,49,,,,,,,,,,,,,,,2,0.942143917084,,,,,,,,,moral_self_bias,05,19,60.0322610656,f,001,2018_Apr_02_1046,
愚钝,material/instr2_1.png,material/instr2_1.png,material/instr2_1.png,2,2,2,material/56.png,f,material/156.png,f,f,愚昧,愚昧,self,self,self,2,2,2,material/56.png,,,,,,,,,,,,,,,,,0,72,72,55,,,,,,,,,,,,,,,2,0.925001144409,,,,,,,,,moral_self_bias,05,19,60.0322610656,f,001,2018_Apr_02_1046,
爽约,material/instr2_2.png,material/instr2_2.png,material/instr2_2.png,2,2,2,material/44.png,j,material/144.png,j,j,爽约,失信,friend,friend,friend,1,1,1,material/144.png,,,,,,,,,,,,,,,,,0,73,73,43,,,,,,,,,,,,,,,3,1.22164988518,,,,,,,,,moral_self_bias,05,19,60.0322610656,f,001,2018_Apr_02_1046,
仁厚,material/instr2_1.png,material/instr2_1.png,material/instr2_1.png,1,1,1,material/3.png,f,material/103.png,f,f,仁厚,仁慈,self,self,self,1,1,1,material/103.png,,,,,,,,,,,,,,,,,0,74,74,2,,,,,,,,,,,,,,,5,0.975549221039,,,,,,,,,moral_self_bias,05,19,60.0322610656,f,001,2018_Apr_02_1046,
狠毒,material/instr2_2.png,material/instr2_2.png,material/instr2_2.png,2,2,2,material/40.png,j,material/140.png,j,j,狠毒,邪恶,friend,friend,friend,1,1,1,material/140.png,,,,,,,,,,,,,,,,,0,75,75,39,,,,,,,,,,,,,,,2,1.09388279915,,,,,,,,,moral_self_bias,05,19,60.0322610656,f,001,2018_Apr_02_1046,
勇敢,material/instr2_2.png,material/instr2_2.png,material/instr2_2.png,1,1,1,material/165.png,j,material/161.png,j,j,平等,独立,friend,friend,friend,1,1,1,material/61.png,,,,,,,,,,,,,,,,,0,76,76,60,,,,,,,,,,,,,,,3,1.14244580269,,,,,,,,,moral_self_bias,05,19,60.0322610656,f,001,2018_Apr_02_1046,
正义,material/instr2_1.png,material/instr2_1.png,material/instr2_1.png,1,1,1,material/66.png,f,material/66.png,f,f,独立,正义,self,self,self,1,1,1,material/165.png,,,,,,,,,,,,,,,,,0,77,77,84,,,,,,,,,,,,,,,3,1.10886287689,,,,,,,,,moral_self_bias,05,19,60.0322610656,f,001,2018_Apr_02_1046,
冷血,material/instr2_1.png,material/instr2_1.png,material/instr2_1.png,2,2,2,material/35.png,f,material/135.png,f,f,冷血,冷漠,self,self,self,1,1,1,material/135.png,,,,,,,,,,,,,,,,,0,78,78,34,,,,,,,,,,,,,,,3,0.97468495369,,,,,,,,,moral_self_bias,05,19,60.0322610656,f,001,2018_Apr_02_1046,
敬业,material/instr2_2.png,material/instr2_2.png,material/instr2_2.png,1,1,1,material/62.png,j,material/162.png,j,j,坚韧,坚韧,friend,friend,friend,1,1,1,material/62.png,,,,,,,,,,,,,,,,,0,79,79,61,,,,,,,,,,,,,,,3,1.00873088837,,,,,,,,,moral_self_bias,05,19,60.0322610656,f,001,2018_Apr_02_1046,
自私,material/instr2_2.png,material/instr2_2.png,material/instr2_2.png,2,2,2,material/46.png,j,material/146.png,j,j,自私,小气,friend,friend,friend,1,1,1,material/146.png,,,,,,,,,,,,,,,,,0,80,80,45,,,,,,,,,,,,,,,1,1.08384108543,,,,,,,,,moral_self_bias,05,19,60.0322610656,f,001,2018_Apr_02_1046,
坚忍,material/instr2_1.png,material/instr2_1.png,material/instr2_1.png,1,1,1,material/168.png,f,material/170.png,f,f,机变,机变,self,self,self,2,2,2,material/168.png,,,,,,,,,,,,,,,,,0,81,81,69,,,,,,,,,,,,,,,2,0.959261894226,,,,,,,,,moral_self_bias,05,19,60.0322610656,f,001,2018_Apr_02_1046,
卑鄙,material/instr2_2.png,material/instr2_2.png,material/instr2_2.png,2,2,2,material/37.png,j,material/137.png,j,j,卑鄙,无耻,friend,friend,friend,1,1,1,material/137.png,,,,,,,,,,,,,,,,,0,82,82,36,,,,,,,,,,,,,,,1,1.00021505356,,,,,,,,,moral_self_bias,05,19,60.0322610656,f,001,2018_Apr_02_1046,
忠心,material/instr2_1.png,material/instr2_1.png,material/instr2_1.png,1,1,1,material/12.png,f,material/112.png,f,f,忠心,忠诚,self,self,self,1,1,1,material/112.png,,,,,,,,,,,,,,,,,0,83,83,11,,,,,,,,,,,,,,,4,1.12588310242,,,,,,,,,moral_self_bias,05,19,60.0322610656,f,001,2018_Apr_02_1046,
残忍,material/instr2_2.png,material/instr2_2.png,material/instr2_2.png,2,2,2,material/41.png,j,material/141.png,j,j,残忍,歹毒,friend,friend,friend,1,1,1,material/141.png,,,,,,,,,,,,,,,,,0,84,84,40,,,,,,,,,,,,,,,1,1.02579188347,,,,,,,,,moral_self_bias,05,19,60.0322610656,f,001,2018_Apr_02_1046,
厚道,material/instr2_2.png,material/instr2_2.png,material/instr2_2.png,1,1,1,material/6.png,j,material/106.png,j,j,厚道,诚实,friend,friend,friend,1,1,1,material/106.png,,,,,,,,,,,,,,,,,0,85,85,5,,,,,,,,,,,,,,,2,0.992616891861,,,,,,,,,moral_self_bias,05,19,60.0322610656,f,001,2018_Apr_02_1046,
多才,material/instr2_1.png,material/instr2_1.png,material/instr2_1.png,1,1,1,material/23.png,f,material/123.png,f,f,有才,有才,self,self,self,2,2,2,material/23.png,,,,,,,,,,,,,,,,,0,86,86,22,,,,,,,,,,,,,,,2,1.2763979435,,,,,,,,,moral_self_bias,05,19,60.0322610656,f,001,2018_Apr_02_1046,
奸诈,material/instr2_1.png,material/instr2_1.png,material/instr2_1.png,2,2,2,material/42.png,f,material/142.png,f,f,奸诈,阴险,self,self,self,1,1,1,material/142.png,,,,,,,,,,,,,,,,,0,87,87,41,,,,,,,,,,,,,,,2,0.875789880753,,,,,,,,,moral_self_bias,05,19,60.0322610656,f,001,2018_Apr_02_1046,
,,,,,,,,,,,,,,,,,,,,,8-2= ?,,,,,,,,,,,,,,,,,,,,0,0,0,38,,,,,,,,,,,,,,,,,,,,,moral_self_bias,05,19,60.0322610656,f,001,2018_Apr_02_1046,
,,,,,,,,,,,,,,,,,,,,,1+9= ?,,,,,,,,,,,,,,,,,,,,0,1,1,3,,,,,,,,,,,,,,,,,,,,,moral_self_bias,05,19,60.0322610656,f,001,2018_Apr_02_1046,
,,,,,,,,,,,,,,,,,,,,,8*1= ?,,,,,,,,,,,,,,,,,,,,0,2,2,111,,,,,,,,,,,,,,,,,,,,,moral_self_bias,05,19,60.0322610656,f,001,2018_Apr_02_1046,
,,,,,,,,,,,,,,,,,,,,,7+2= ?,,,,,,,,,,,,,,,,,,,,0,3,3,47,,,,,,,,,,,,,,,,,,,,,moral_self_bias,05,19,60.0322610656,f,001,2018_Apr_02_1046,
,,,,,,,,,,,,,,,,,,,,,4+5= ?,,,,,,,,,,,,,,,,,,,,0,4,4,29,,,,,,,,,,,,,,,,,,,,,moral_self_bias,05,19,60.0322610656,f,001,2018_Apr_02_1046,
,,,,,,,,,,,,,,,,,,,,,5-3= ?,,,,,,,,,,,,,,,,,,,,0,5,5,116,,,,,,,,,,,,,,,,,,,,,moral_self_bias,05,19,60.0322610656,f,001,2018_Apr_02_1046,
,,,,,,,,,,,,,,,,,,,,,1+6= ?,,,,,,,,,,,,,,,,,,,,0,6,6,5,,,,,,,,,,,,,,,,,,,,,moral_self_bias,05,19,60.0322610656,f,001,2018_Apr_02_1046,
,,,,,,,,,,,,,,,,,,,,,9-5= ?,,,,,,,,,,,,,,,,,,,,0,7,7,23,,,,,,,,,,,,,,,,,,,,,moral_self_bias,05,19,60.0322610656,f,001,2018_Apr_02_1046,
,,,,,,,,,,,,,,,,,,,,,29-27= ?,,,,,,,,,,,,,,,,,,,,0,8,8,72,,,,,,,,,,,,,,,,,,,,,moral_self_bias,05,19,60.0322610656,f,001,2018_Apr_02_1046,
,,,,,,,,,,,,,,,,,,,,,43-34= ?,,,,,,,,,,,,,,,,,,,,0,9,9,79,,,,,,,,,,,,,,,,,,,,,moral_self_bias,05,19,60.0322610656,f,001,2018_Apr_02_1046,
,,,,,,,,,,,,,,,,,,,,,5+4= ?,,,,,,,,,,,,,,,,,,,,0,10,10,37,,,,,,,,,,,,,,,,,,,,,moral_self_bias,05,19,60.0322610656,f,001,2018_Apr_02_1046,
,,,,,,,,,,,,,,,,,,,,,12-12= ?,,,,,,,,,,,,,,,,,,,,0,11,11,99,,,,,,,,,,,,,,,,,,,,,moral_self_bias,05,19,60.0322610656,f,001,2018_Apr_02_1046,
,,,,,,,,,,,,,,,,,,,,,9-8= ?,,,,,,,,,,,,,,,,,,,,0,12,12,31,,,,,,,,,,,,,,,,,,,,,moral_self_bias,05,19,60.0322610656,f,001,2018_Apr_02_1046,
,,,,,,,,,,,,,,,,,,,,,19-17= ?,,,,,,,,,,,,,,,,,,,,0,13,13,100,,,,,,,,,,,,,,,,,,,,,moral_self_bias,05,19,60.0322610656,f,001,2018_Apr_02_1046,
,,,,,,,,,,,,,,,,,,,,,8-5= ?,,,,,,,,,,,,,,,,,,,,0,14,14,41,,,,,,,,,,,,,,,,,,,,,moral_self_bias,05,19,60.0322610656,f,001,2018_Apr_02_1046,
,,,,,,,,,,,,,,,,,,,,,2+5= ?,,,,,,,,,,,,,,,,,,,,0,15,15,11,,,,,,,,,,,,,,,,,,,,,moral_self_bias,05,19,60.0322610656,f,001,2018_Apr_02_1046,
,,,,,,,,,,,,,,,,,,,,,13-9= ?,,,,,,,,,,,,,,,,,,,,0,16,16,92,,,,,,,,,,,,,,,,,,,,,moral_self_bias,05,19,60.0322610656,f,001,2018_Apr_02_1046,
,,,,,,,,,,,,,,,,,,,,,20/5=？,,,,,,,,,,,,,,,,,,,,0,17,17,69,,,,,,,,,,,,,,,,,,,,,moral_self_bias,05,19,60.0322610656,f,001,2018_Apr_02_1046,
,,,,,,,,,,,,,,,,,,,,,12/4= ?,,,,,,,,,,,,,,,,,,,,0,18,18,89,,,,,,,,,,,,,,,,,,,,,moral_self_bias,05,19,60.0322610656,f,001,2018_Apr_02_1046,
,,,,,,,,,,,,,,,,,,,,,21/3= ? ,,,,,,,,,,,,,,,,,,,,0,19,19,95,,,,,,,,,,,,,,,,,,,,,moral_self_bias,05,19,60.0322610656,f,001,2018_Apr_02_1046,
,,,,,,,,,,,,,,,,,,,,,10-5=？,,,,,,,,,,,,,,,,,,,,0,20,20,67,,,,,,,,,,,,,,,,,,,,,moral_self_bias,05,19,60.0322610656,f,001,2018_Apr_02_1046,
,,,,,,,,,,,,,,,,,,,,,14-9=？,,,,,,,,,,,,,,,,,,,,0,21,21,63,,,,,,,,,,,,,,,,,,,,,moral_self_bias,05,19,60.0322610656,f,001,2018_Apr_02_1046,
,,,,,,,,,,,,,,,,,,,,,5+3= ?,,,,,,,,,,,,,,,,,,,,0,22,22,36,,,,,,,,,,,,,,,,,,,,,moral_self_bias,05,19,60.0322610656,f,001,2018_Apr_02_1046,
,,,,,,,,,,,,,,,,,,,,,6*0= ?,,,,,,,,,,,,,,,,,,,,0,23,23,87,,,,,,,,,,,,,,,,,,,,,moral_self_bias,05,19,60.0322610656,f,001,2018_Apr_02_1046,
,,,,,,,,,,,,,,,,,,,,,21/7= ?,,,,,,,,,,,,,,,,,,,,0,24,24,70,,,,,,,,,,,,,,,,,,,,,moral_self_bias,05,19,60.0322610656,f,001,2018_Apr_02_1046,
,,,,,,,,,,,,,,,,,,,,,6+1= ?,,,,,,,,,,,,,,,,,,,,0,25,25,43,,,,,,,,,,,,,,,,,,,,,moral_self_bias,05,19,60.0322610656,f,001,2018_Apr_02_1046,
,,,,,,,,,,,,,,,,,,,,,1*9= ?,,,,,,,,,,,,,,,,,,,,0,26,26,109,,,,,,,,,,,,,,,,,,,,,moral_self_bias,05,19,60.0322610656,f,001,2018_Apr_02_1046,
,,,,,,,,,,,,,,,,,,,,,5+1= ?,,,,,,,,,,,,,,,,,,,,0,27,27,34,,,,,,,,,,,,,,,,,,,,,moral_self_bias,05,19,60.0322610656,f,001,2018_Apr_02_1046,
,,,,,,,,,,,,,,,,,,,,,22-22= ?,,,,,,,,,,,,,,,,,,,,0,28,28,93,,,,,,,,,,,,,,,,,,,,,moral_self_bias,05,19,60.0322610656,f,001,2018_Apr_02_1046,
,,,,,,,,,,,,,,,,,,,,,12-7= ?,,,,,,,,,,,,,,,,,,,,0,29,29,115,,,,,,,,,,,,,,,,,,,,,moral_self_bias,05,19,60.0322610656,f,001,2018_Apr_02_1046,
,,,,,,,,,,,,,,,,,,,,,7*0= ?,,,,,,,,,,,,,,,,,,,,0,30,30,88,,,,,,,,,,,,,,,,,,,,,moral_self_bias,05,19,60.0322610656,f,001,2018_Apr_02_1046,
,,,,,,,,,,,,,,,,,,,,,3+3= ?,,,,,,,,,,,,,,,,,,,,0,31,31,18,,,,,,,,,,,,,,,,,,,,,moral_self_bias,05,19,60.0322610656,f,001,2018_Apr_02_1046,
,,,,,,,,,,,,,,,,,,,,,56/7= ?,,,,,,,,,,,,,,,,,,,,0,32,32,77,,,,,,,,,,,,,,,,,,,,,moral_self_bias,05,19,60.0322610656,f,001,2018_Apr_02_1046,
,,,,,,,,,,,,,,,,,,,,,32-23=？,,,,,,,,,,,,,,,,,,,,0,33,33,60,,,,,,,,,,,,,,,,,,,,,moral_self_bias,05,19,60.0322610656,f,001,2018_Apr_02_1046,
,,,,,,,,,,,,,,,,,,,,,6+2= ?,,,,,,,,,,,,,,,,,,,,0,34,34,44,,,,,,,,,,,,,,,,,,,,,moral_self_bias,05,19,60.0322610656,f,001,2018_Apr_02_1046,
,,,,,,,,,,,,,,,,,,,,,11-11= ?,,,,,,,,,,,,,,,,,,,,0,35,35,119,,,,,,,,,,,,,,,,,,,,,moral_self_bias,05,19,60.0322610656,f,001,2018_Apr_02_1046,
,,,,,,,,,,,,,,,,,,,,,4+4= ?,,,,,,,,,,,,,,,,,,,,0,36,36,28,,,,,,,,,,,,,,,,,,,,,moral_self_bias,05,19,60.0322610656,f,001,2018_Apr_02_1046,
,,,,,,,,,,,,,,,,,,,,,2^2= ?,,,,,,,,,,,,,,,,,,,,0,37,37,49,,,,,,,,,,,,,,,,,,,,,moral_self_bias,05,19,60.0322610656,f,001,2018_Apr_02_1046,
,,,,,,,,,,,,,,,,,,,,,3+2= ?,,,,,,,,,,,,,,,,,,,,0,38,38,17,,,,,,,,,,,,,,,,,,,,,moral_self_bias,05,19,60.0322610656,f,001,2018_Apr_02_1046,
,,,,,,,,,,,,,,,,,,,,,90/45= ?,,,,,,,,,,,,,,,,,,,,0,39,39,74,,,,,,,,,,,,,,,,,,,,,moral_self_bias,05,19,60.0322610656,f,001,2018_Apr_02_1046,
,,,,,,,,,,,,,,,,,,,,,5*0= ?,,,,,,,,,,,,,,,,,,,,0,40,40,86,,,,,,,,,,,,,,,,,,,,,moral_self_bias,05,19,60.0322610656,f,001,2018_Apr_02_1046,
,,,,,,,,,,,,,,,,,,,,,22/11= ?,,,,,,,,,,,,,,,,,,,,0,41,41,71,,,,,,,,,,,,,,,,,,,,,moral_self_bias,05,19,60.0322610656,f,001,2018_Apr_02_1046,
,,,,,,,,,,,,,,,,,,,,,3+4= ?,,,,,,,,,,,,,,,,,,,,0,42,42,19,,,,,,,,,,,,,,,,,,,,,moral_self_bias,05,19,60.0322610656,f,001,2018_Apr_02_1046,
,,,,,,,,,,,,,,,,,,,,,72/9= ?,,,,,,,,,,,,,,,,,,,,0,43,43,76,,,,,,,,,,,,,,,,,,,,,moral_self_bias,05,19,60.0322610656,f,001,2018_Apr_02_1046,
,,,,,,,,,,,,,,,,,,,,,5/1= ?,,,,,,,,,,,,,,,,,,,,0,44,44,59,,,,,,,,,,,,,,,,,,,,,moral_self_bias,05,19,60.0322610656,f,001,2018_Apr_02_1046,
,,,,,,,,,,,,,,,,,,,,,3*2= ?,,,,,,,,,,,,,,,,,,,,0,45,45,53,,,,,,,,,,,,,,,,,,,,,moral_self_bias,05,19,60.0322610656,f,001,2018_Apr_02_1046,
,,,,,,,,,,,,,,,,,,,,,8-4= ?,,,,,,,,,,,,,,,,,,,,0,46,46,40,,,,,,,,,,,,,,,,,,,,,moral_self_bias,05,19,60.0322610656,f,001,2018_Apr_02_1046,
,,,,,,,,,,,,,,,,,,,,,2+2= ?,,,,,,,,,,,,,,,,,,,,0,47,47,8,,,,,,,,,,,,,,,,,,,,,moral_self_bias,05,19,60.0322610656,f,001,2018_Apr_02_1046,
,,,,,,,,,,,,,,,,,,,,,13-5= ?,,,,,,,,,,,,,,,,,,,,0,48,48,98,,,,,,,,,,,,,,,,,,,,,moral_self_bias,05,19,60.0322610656,f,001,2018_Apr_02_1046,
,,,,,,,,,,,,,,,,,,,,,8-3= ?,,,,,,,,,,,,,,,,,,,,0,49,49,39,,,,,,,,,,,,,,,,,,,,,moral_self_bias,05,19,60.0322610656,f,001,2018_Apr_02_1046,
,,,,,,,,,,,,,,,,,,,,,9-1=?,,,,,,,,,,,,,,,,,,,,0,50,50,2,,,,,,,,,,,,,,,,,,,,,moral_self_bias,05,19,60.0322610656,f,001,2018_Apr_02_1046,
,,,,,,,,,,,,,,,,,,,,,1+7= ?,,,,,,,,,,,,,,,,,,,,0,51,51,4,,,,,,,,,,,,,,,,,,,,,moral_self_bias,05,19,60.0322610656,f,001,2018_Apr_02_1046,
,,,,,,,,,,,,,,,,,,,,,10-9= ?,,,,,,,,,,,,,,,,,,,,0,52,52,112,,,,,,,,,,,,,,,,,,,,,moral_self_bias,05,19,60.0322610656,f,001,2018_Apr_02_1046,
,,,,,,,,,,,,,,,,,,,,,6^0= ?,,,,,,,,,,,,,,,,,,,,0,53,53,114,,,,,,,,,,,,,,,,,,,,,moral_self_bias,05,19,60.0322610656,f,001,2018_Apr_02_1046,
,,,,,,,,,,,,,,,,,,,,,17-12= ? ,,,,,,,,,,,,,,,,,,,,0,54,54,104,,,,,,,,,,,,,,,,,,,,,moral_self_bias,05,19,60.0322610656,f,001,2018_Apr_02_1046,
,,,,,,,,,,,,,,,,,,,,,1+1= ?,,,,,,,,,,,,,,,,,,,,0,55,55,0,,,,,,,,,,,,,,,,,,,,,moral_self_bias,05,19,60.0322610656,f,001,2018_Apr_02_1046,
,,,,,,,,,,,,,,,,,,,,,7+1= ?,,,,,,,,,,,,,,,,,,,,0,56,56,46,,,,,,,,,,,,,,,,,,,,,moral_self_bias,05,19,60.0322610656,f,001,2018_Apr_02_1046,
,,,,,,,,,,,,,,,,,,,,,6/2= ?,,,,,,,,,,,,,,,,,,,,0,57,57,58,,,,,,,,,,,,,,,,,,,,,moral_self_bias,05,19,60.0322610656,f,001,2018_Apr_02_1046,
,,,,,,,,,,,,,,,,,,,,,1-1= ?,,,,,,,,,,,,,,,,,,,,0,58,58,52,,,,,,,,,,,,,,,,,,,,,moral_self_bias,05,19,60.0322610656,f,001,2018_Apr_02_1046,
,,,,,,,,,,,,,,,,,,,,,1+8= ?,,,,,,,,,,,,,,,,,,,,0,59,59,6,,,,,,,,,,,,,,,,,,,,,moral_self_bias,05,19,60.0322610656,f,001,2018_Apr_02_1046,
,,,,,,,,,,,,,,,,,,,,,4/4= ?,,,,,,,,,,,,,,,,,,,,0,60,60,55,,,,,,,,,,,,,,,,,,,,,moral_self_bias,05,19,60.0322610656,f,001,2018_Apr_02_1046,
,,,,,,,,,,,,,,,,,,,,,3*1= ?,,,,,,,,,,,,,,,,,,,,0,61,61,83,,,,,,,,,,,,,,,,,,,,,moral_self_bias,05,19,60.0322610656,f,001,2018_Apr_02_1046,
,,,,,,,,,,,,,,,,,,,,,2+4= ?,,,,,,,,,,,,,,,,,,,,0,62,62,10,,,,,,,,,,,,,,,,,,,,,moral_self_bias,05,19,60.0322610656,f,001,2018_Apr_02_1046,
,,,,,,,,,,,,,,,,,,,,,30-29= ?,,,,,,,,,,,,,,,,,,,,0,63,63,73,,,,,,,,,,,,,,,,,,,,,moral_self_bias,05,19,60.0322610656,f,001,2018_Apr_02_1046,
,,,,,,,,,,,,,,,,,,,,,3*3= ?,,,,,,,,,,,,,,,,,,,,0,64,64,54,,,,,,,,,,,,,,,,,,,,,moral_self_bias,05,19,60.0322610656,f,001,2018_Apr_02_1046,
,,,,,,,,,,,,,,,,,,,,,8-6= ?,,,,,,,,,,,,,,,,,,,,0,65,65,42,,,,,,,,,,,,,,,,,,,,,moral_self_bias,05,19,60.0322610656,f,001,2018_Apr_02_1046,
,,,,,,,,,,,,,,,,,,,,,2+3= ?,,,,,,,,,,,,,,,,,,,,0,66,66,9,,,,,,,,,,,,,,,,,,,,,moral_self_bias,05,19,60.0322610656,f,001,2018_Apr_02_1046,
,,,,,,,,,,,,,,,,,,,,,2+6= ?,,,,,,,,,,,,,,,,,,,,0,67,67,12,,,,,,,,,,,,,,,,,,,,,moral_self_bias,05,19,60.0322610656,f,001,2018_Apr_02_1046,
,,,,,,,,,,,,,,,,,,,,,9+0= ?,,,,,,,,,,,,,,,,,,,,0,68,68,118,,,,,,,,,,,,,,,,,,,,,moral_self_bias,05,19,60.0322610656,f,001,2018_Apr_02_1046,
,,,,,,,,,,,,,,,,,,,,,12-5=？,,,,,,,,,,,,,,,,,,,,0,69,69,65,,,,,,,,,,,,,,,,,,,,,moral_self_bias,05,19,60.0322610656,f,001,2018_Apr_02_1046,
,,,,,,,,,,,,,,,,,,,,,3+1= ?,,,,,,,,,,,,,,,,,,,,0,70,70,16,,,,,,,,,,,,,,,,,,,,,moral_self_bias,05,19,60.0322610656,f,001,2018_Apr_02_1046,
,,,,,,,,,,,,,,,,,,,,,18/2= ?,,,,,,,,,,,,,,,,,,,,0,71,71,97,,,,,,,,,,,,,,,,,,,,,moral_self_bias,05,19,60.0322610656,f,001,2018_Apr_02_1046,
,,,,,,,,,,,,,,,,,,,,,13-6=？,,,,,,,,,,,,,,,,,,,,0,72,72,64,,,,,,,,,,,,,,,,,,,,,moral_self_bias,05,19,60.0322610656,f,001,2018_Apr_02_1046,
,,,,,,,,,,,,,,,,,,,,,16-11=？,,,,,,,,,,,,,,,,,,,,0,73,73,62,,,,,,,,,,,,,,,,,,,,,moral_self_bias,05,19,60.0322610656,f,001,2018_Apr_02_1046,
,,,,,,,,,,,,,,,,,,,,,9-3= ?,,,,,,,,,,,,,,,,,,,,0,74,74,15,,,,,,,,,,,,,,,,,,,,,moral_self_bias,05,19,60.0322610656,f,001,2018_Apr_02_1046,
,,,,,,,,,,,,,,,,,,,,,4+3= ?,,,,,,,,,,,,,,,,,,,,0,75,75,27,,,,,,,,,,,,,,,,,,,,,moral_self_bias,05,19,60.0322610656,f,001,2018_Apr_02_1046,
,,,,,,,,,,,,,,,,,,,,,2*4= ?,,,,,,,,,,,,,,,,,,,,0,76,76,84,,,,,,,,,,,,,,,,,,,,,moral_self_bias,05,19,60.0322610656,f,001,2018_Apr_02_1046,
,,,,,,,,,,,,,,,,,,,,,23^0= ?,,,,,,,,,,,,,,,,,,,,0,77,77,94,,,,,,,,,,,,,,,,,,,,,moral_self_bias,05,19,60.0322610656,f,001,2018_Apr_02_1046,
,,,,,,,,,,,,,,,,,,,,,3^2= ?,,,,,,,,,,,,,,,,,,,,0,78,78,50,,,,,,,,,,,,,,,,,,,,,moral_self_bias,05,19,60.0322610656,f,001,2018_Apr_02_1046,
,,,,,,,,,,,,,,,,,,,,,8-1= ?,,,,,,,,,,,,,,,,,,,,0,79,79,33,,,,,,,,,,,,,,,,,,,,,moral_self_bias,05,19,60.0322610656,f,001,2018_Apr_02_1046,
,,,,,,,,,,,,,,,,,,,,,11-8= ?,,,,,,,,,,,,,,,,,,,,0,80,80,106,,,,,,,,,,,,,,,,,,,,,moral_self_bias,05,19,60.0322610656,f,001,2018_Apr_02_1046,
,,,,,,,,,,,,,,,,,,,,,1^2= ?,,,,,,,,,,,,,,,,,,,,0,81,81,51,,,,,,,,,,,,,,,,,,,,,moral_self_bias,05,19,60.0322610656,f,001,2018_Apr_02_1046,
,,,,,,,,,,,,,,,,,,,,,12/12= ?,,,,,,,,,,,,,,,,,,,,0,82,82,91,,,,,,,,,,,,,,,,,,,,,moral_self_bias,05,19,60.0322610656,f,001,2018_Apr_02_1046,
,,,,,,,,,,,,,,,,,,,,,8/4= ?,,,,,,,,,,,,,,,,,,,,0,83,83,57,,,,,,,,,,,,,,,,,,,,,moral_self_bias,05,19,60.0322610656,f,001,2018_Apr_02_1046,
,,,,,,,,,,,,,,,,,,,,,81/9= ?,,,,,,,,,,,,,,,,,,,,0,84,84,75,,,,,,,,,,,,,,,,,,,,,moral_self_bias,05,19,60.0322610656,f,001,2018_Apr_02_1046,
,,,,,,,,,,,,,,,,,,,,,32-32= ?,,,,,,,,,,,,,,,,,,,,0,85,85,80,,,,,,,,,,,,,,,,,,,,,moral_self_bias,05,19,60.0322610656,f,001,2018_Apr_02_1046,
,,,,,,,,,,,,,,,,,,,,,2+1= ?,,,,,,,,,,,,,,,,,,,,0,86,86,7,,,,,,,,,,,,,,,,,,,,,moral_self_bias,05,19,60.0322610656,f,001,2018_Apr_02_1046,
,,,,,,,,,,,,,,,,,,,,,7*1= ?,,,,,,,,,,,,,,,,,,,,0,87,87,113,,,,,,,,,,,,,,,,,,,,,moral_self_bias,05,19,60.0322610656,f,001,2018_Apr_02_1046,
,,,,,,,,,,,,,,,,,,,,,5+2= ?,,,,,,,,,,,,,,,,,,,,0,88,88,35,,,,,,,,,,,,,,,,,,,,,moral_self_bias,05,19,60.0322610656,f,001,2018_Apr_02_1046,
,,,,,,,,,,,,,,,,,,,,,3+6= ?,,,,,,,,,,,,,,,,,,,,0,89,89,21,,,,,,,,,,,,,,,,,,,,,moral_self_bias,05,19,60.0322610656,f,001,2018_Apr_02_1046,
,,,,,,,,,,,,,,,,,,,,,11-4=？,,,,,,,,,,,,,,,,,,,,0,90,90,66,,,,,,,,,,,,,,,,,,,,,moral_self_bias,05,19,60.0322610656,f,001,2018_Apr_02_1046,
,,,,,,,,,,,,,,,,,,,,,9-7= ?,,,,,,,,,,,,,,,,,,,,0,91,91,30,,,,,,,,,,,,,,,,,,,,,moral_self_bias,05,19,60.0322610656,f,001,2018_Apr_02_1046,
,,,,,,,,,,,,,,,,,,,,,2+7= ?,,,,,,,,,,,,,,,,,,,,0,92,92,13,,,,,,,,,,,,,,,,,,,,,moral_self_bias,05,19,60.0322610656,f,001,2018_Apr_02_1046,
,,,,,,,,,,,,,,,,,,,,,7-0= ?,,,,,,,,,,,,,,,,,,,,0,93,93,117,,,,,,,,,,,,,,,,,,,,,moral_self_bias,05,19,60.0322610656,f,001,2018_Apr_02_1046,
,,,,,,,,,,,,,,,,,,,,,9/3= ?,,,,,,,,,,,,,,,,,,,,0,94,94,56,,,,,,,,,,,,,,,,,,,,,moral_self_bias,05,19,60.0322610656,f,001,2018_Apr_02_1046,
,,,,,,,,,,,,,,,,,,,,,4^1= ?,,,,,,,,,,,,,,,,,,,,0,95,95,102,,,,,,,,,,,,,,,,,,,,,moral_self_bias,05,19,60.0322610656,f,001,2018_Apr_02_1046,
,,,,,,,,,,,,,,,,,,,,,12/6= ?,,,,,,,,,,,,,,,,,,,,0,96,96,90,,,,,,,,,,,,,,,,,,,,,moral_self_bias,05,19,60.0322610656,f,001,2018_Apr_02_1046,
,,,,,,,,,,,,,,,,,,,,,8+1= ?,,,,,,,,,,,,,,,,,,,,0,97,97,48,,,,,,,,,,,,,,,,,,,,,moral_self_bias,05,19,60.0322610656,f,001,2018_Apr_02_1046,
,,,,,,,,,,,,,,,,,,,,,15-10=？,,,,,,,,,,,,,,,,,,,,0,98,98,61,,,,,,,,,,,,,,,,,,,,,moral_self_bias,05,19,60.0322610656,f,001,2018_Apr_02_1046,
,,,,,,,,,,,,,,,,,,,,,2*3= ?,,,,,,,,,,,,,,,,,,,,0,99,99,108,,,,,,,,,,,,,,,,,,,,,moral_self_bias,05,19,60.0322610656,f,001,2018_Apr_02_1046,
,,,,,,,,,,,,,,,,,,,,,11-5= ?,,,,,,,,,,,,,,,,,,,,0,100,100,107,,,,,,,,,,,,,,,,,,,,,moral_self_bias,05,19,60.0322610656,f,001,2018_Apr_02_1046,
,,,,,,,,,,,,,,,,,,,,,4+1= ?,,,,,,,,,,,,,,,,,,,,0,101,101,25,,,,,,,,,,,,,,,,,,,,,moral_self_bias,05,19,60.0322610656,f,001,2018_Apr_02_1046,
,,,,,,,,,,,,,,,,,,,,,3+0= ?,,,,,,,,,,,,,,,,,,,,0,102,102,105,,,,,,,,,,,,,,,,,,,,,moral_self_bias,05,19,60.0322610656,f,001,2018_Apr_02_1046,
,,,,,,,,,,,,,,,,,,,,,49/7 = ?,,,,,,,,,,,,,,,,,,,,0,103,103,78,,,,,,,,,,,,,,,,,,,,,moral_self_bias,05,19,60.0322610656,f,001,2018_Apr_02_1046,
,,,,,,,,,,,,,,,,,,,,,6^0= ?,,,,,,,,,,,,,,,,,,,,0,104,104,103,,,,,,,,,,,,,,,,,,,,,moral_self_bias,05,19,60.0322610656,f,001,2018_Apr_02_1046,
,,,,,,,,,,,,,,,,,,,,,11-3=？,,,,,,,,,,,,,,,,,,,,0,105,105,68,,,,,,,,,,,,,,,,,,,,,moral_self_bias,05,19,60.0322610656,f,001,2018_Apr_02_1046,
,,,,,,,,,,,,,,,,,,,,,3^1= ?,,,,,,,,,,,,,,,,,,,,0,106,106,101,,,,,,,,,,,,,,,,,,,,,moral_self_bias,05,19,60.0322610656,f,001,2018_Apr_02_1046,
,,,,,,,,,,,,,,,,,,,,,9-9= ?,,,,,,,,,,,,,,,,,,,,0,107,107,32,,,,,,,,,,,,,,,,,,,,,moral_self_bias,05,19,60.0322610656,f,001,2018_Apr_02_1046,
,,,,,,,,,,,,,,,,,,,,,1+2= ?,,,,,,,,,,,,,,,,,,,,0,108,108,1,,,,,,,,,,,,,,,,,,,,,moral_self_bias,05,19,60.0322610656,f,001,2018_Apr_02_1046,
,,,,,,,,,,,,,,,,,,,,,4*2= ?,,,,,,,,,,,,,,,,,,,,0,109,109,82,,,,,,,,,,,,,,,,,,,,,moral_self_bias,05,19,60.0322610656,f,001,2018_Apr_02_1046,
,,,,,,,,,,,,,,,,,,,,,9-6= ?,,,,,,,,,,,,,,,,,,,,0,110,110,24,,,,,,,,,,,,,,,,,,,,,moral_self_bias,05,19,60.0322610656,f,001,2018_Apr_02_1046,
,,,,,,,,,,,,,,,,,,,,,3+5= ?,,,,,,,,,,,,,,,,,,,,0,111,111,20,,,,,,,,,,,,,,,,,,,,,moral_self_bias,05,19,60.0322610656,f,001,2018_Apr_02_1046,
,,,,,,,,,,,,,,,,,,,,,6+3= ?,,,,,,,,,,,,,,,,,,,,0,112,112,45,,,,,,,,,,,,,,,,,,,,,moral_self_bias,05,19,60.0322610656,f,001,2018_Apr_02_1046,
,,,,,,,,,,,,,,,,,,,,,4*1= ?,,,,,,,,,,,,,,,,,,,,0,113,113,85,,,,,,,,,,,,,,,,,,,,,moral_self_bias,05,19,60.0322610656,f,001,2018_Apr_02_1046,
,,,,,,,,,,,,,,,,,,,,,9-4= ?,,,,,,,,,,,,,,,,,,,,0,114,114,22,,,,,,,,,,,,,,,,,,,,,moral_self_bias,05,19,60.0322610656,f,001,2018_Apr_02_1046,
,,,,,,,,,,,,,,,,,,,,,4+2= ?,,,,,,,,,,,,,,,,,,,,0,115,115,26,,,,,,,,,,,,,,,,,,,,,moral_self_bias,05,19,60.0322610656,f,001,2018_Apr_02_1046,
,,,,,,,,,,,,,,,,,,,,,50-42= ?,,,,,,,,,,,,,,,,,,,,0,116,116,81,,,,,,,,,,,,,,,,,,,,,moral_self_bias,05,19,60.0322610656,f,001,2018_Apr_02_1046,
,,,,,,,,,,,,,,,,,,,,,9-2= ?,,,,,,,,,,,,,,,,,,,,0,117,117,14,,,,,,,,,,,,,,,,,,,,,moral_self_bias,05,19,60.0322610656,f,001,2018_Apr_02_1046,
,,,,,,,,,,,,,,,,,,,,,1*8= ?,,,,,,,,,,,,,,,,,,,,0,118,118,110,,,,,,,,,,,,,,,,,,,,,moral_self_bias,05,19,60.0322610656,f,001,2018_Apr_02_1046,
,,,,,,,,,,,,,,,,,,,,,18/9= ?,,,,,,,,,,,,,,,,,,,,0,119,119,96,,,,,,,,,,,,,,,,,,,,,moral_self_bias,05,19,60.0322610656,f,001,2018_Apr_02_1046,
,,,,,,,,,,,,,,,,,,,,,,,,,,,,,,,,,,,,,,,,,,,,,,,,,,,,,,,,,2,6.32679390907,,,,,,,moral_self_bias,05,19,60.0322610656,f,001,2018_Apr_02_1046,
,,,,,,,,,,,,,,,,,,,,,,material/47.png,2,死板,material/147.png,2,material/47.png,刻板,2,f,f,f,2,2,2,死板,,,,,,,,,0,0,0,126,,,,,,,,,,,j,0,4.10852789879,,,,moral_self_bias,05,19,60.0322610656,f,001,2018_Apr_02_1046,
,,,,,,,,,,,,,,,,,,,,,,material/38.png,2,缺德,material/138.png,2,material/138.png,缺德,2,f,f,f,1,1,1,无德,,,,,,,,,0,1,1,117,0,0,0,0,,,,,,,f,1,2.49057102203,j,0,4.19218206406,moral_self_bias,05,19,60.0322610656,f,001,2018_Apr_02_1046,
,,,,,,,,,,,,,,,,,,,,,,material/38.png,2,缺德,material/138.png,2,material/138.png,缺德,2,f,f,f,1,1,1,无德,,,,,,,,,0,1,1,117,,,,,,,,,,,,,,,,,moral_self_bias,05,19,60.0322610656,f,001,2018_Apr_02_1046,
,,,,,,,,,,,,,,,,,,,,,,material/179.png,2,顽愚,material/178.png,2,material/84.png,毛糙,2,f,f,f,2,2,2,差生,,,,,,,,,0,2,2,157,,,,,,,,,,,j,0,2.32055711746,,,,moral_self_bias,05,19,60.0322610656,f,001,2018_Apr_02_1046,
,,,,,,,,,,,,,,,,,,,,,,material/78.png,2,厌学,material/181.png,2,material/184.png,犹豫,2,f,f,f,2,2,2,草率,,,,,,,,,0,3,3,160,0,0,0,0,,,,,,,f,1,1.25923991203,f,1,1.05803799629,moral_self_bias,05,19,60.0322610656,f,001,2018_Apr_02_1046,
,,,,,,,,,,,,,,,,,,,,,,material/78.png,2,厌学,material/181.png,2,material/184.png,犹豫,2,f,f,f,2,2,2,草率,,,,,,,,,0,3,3,160,,,,,,,,,,,,,,,,,moral_self_bias,05,19,60.0322610656,f,001,2018_Apr_02_1046,
,,,,,,,,,,,,,,,,,,,,,,material/72.png,2,软弱,material/77.png,2,material/77.png,软弱,2,j,j,j,1,1,1,谄媚,,,,,,,,,0,4,4,73,0,0,0,0,,,,,,,f,0,1.6208729744,j,0,0.941565990448,moral_self_bias,05,19,60.0322610656,f,001,2018_Apr_02_1046,
,,,,,,,,,,,,,,,,,,,,,,material/72.png,2,软弱,material/77.png,2,material/77.png,软弱,2,j,j,j,1,1,1,谄媚,,,,,,,,,0,4,4,73,,,,,,,,,,,,,,,,,moral_self_bias,05,19,60.0322610656,f,001,2018_Apr_02_1046,
,,,,,,,,,,,,,,,,,,,,,,material/22.png,1,才学,material/122.png,1,material/22.png,博学,1,f,f,f,2,2,2,才学,,,,,,,,,0,5,5,101,0,0,0,0,,,,,,,f,1,0.874531030655,f,1,0.942323923111,moral_self_bias,05,19,60.0322610656,f,001,2018_Apr_02_1046,
,,,,,,,,,,,,,,,,,,,,,,material/22.png,1,才学,material/122.png,1,material/22.png,博学,1,f,f,f,2,2,2,才学,,,,,,,,,0,5,5,101,,,,,,,,,,,,,,,,,moral_self_bias,05,19,60.0322610656,f,001,2018_Apr_02_1046,
,,,,,,,,,,,,,,,,,,,,,,material/70.png,1,全面,material/168.png,1,material/70.png,机变,1,f,f,f,2,2,2,全面,,,,,,,,,0,6,6,147,0,0,0,0,,,,,,,f,1,2.90798616409,j,0,0.924521923065,moral_self_bias,05,19,60.0322610656,f,001,2018_Apr_02_1046,
,,,,,,,,,,,,,,,,,,,,,,material/70.png,1,全面,material/168.png,1,material/70.png,机变,1,f,f,f,2,2,2,全面,,,,,,,,,0,6,6,147,,,,,,,,,,,,,,,,,moral_self_bias,05,19,60.0322610656,f,001,2018_Apr_02_1046,
,,,,,,,,,,,,,,,,,,,,,,material/127.png,1,超群,material/27.png,1,material/127.png,卓越,1,j,j,j,2,2,2,超群,,,,,,,,,0,7,7,26,,,,,,,,,,,j,1,1.44054222107,,,,moral_self_bias,05,19,60.0322610656,f,001,2018_Apr_02_1046,
,,,,,,,,,,,,,,,,,,,,,,material/109.png,1,秉直,material/9.png,1,material/9.png,秉直,1,j,j,j,1,1,1,正直,,,,,,,,,0,8,8,8,0,0,0,0,,,,,,,f,0,1.55757117271,j,0,0.633328914642,moral_self_bias,05,19,60.0322610656,f,001,2018_Apr_02_1046,
,,,,,,,,,,,,,,,,,,,,,,material/109.png,1,秉直,material/9.png,1,material/9.png,秉直,1,j,j,j,1,1,1,正直,,,,,,,,,0,8,8,8,,,,,,,,,,,,,,,,,moral_self_bias,05,19,60.0322610656,f,001,2018_Apr_02_1046,
,,,,,,,,,,,,,,,,,,,,,,material/41.png,2,残忍,material/141.png,2,material/141.png,残忍,2,f,f,f,1,1,1,歹毒,,,,,,,,,0,9,9,120,0,0,0,0,,,,,,,f,1,1.22434210777,j,0,4.27449989319,moral_self_bias,05,19,60.0322610656,f,001,2018_Apr_02_1046,
,,,,,,,,,,,,,,,,,,,,,,material/41.png,2,残忍,material/141.png,2,material/141.png,残忍,2,f,f,f,1,1,1,歹毒,,,,,,,,,0,9,9,120,,,,,,,,,,,,,,,,,moral_self_bias,05,19,60.0322610656,f,001,2018_Apr_02_1046,
,,,,,,,,,,,,,,,,,,,,,,material/139.png,2,凶残,material/39.png,2,material/39.png,凶残,2,j,j,j,1,1,1,恶毒,,,,,,,,,0,10,10,38,,,,,,,,,,,j,1,1.04159593582,,,,moral_self_bias,05,19,60.0322610656,f,001,2018_Apr_02_1046,
,,,,,,,,,,,,,,,,,,,,,,material/125.png,1,果敢,material/25.png,1,material/125.png,果断,1,j,j,j,2,2,2,果敢,,,,,,,,,0,11,11,24,0,0,0,0,,,,,,,f,0,1.1903219223,j,0,0.557496786118,moral_self_bias,05,19,60.0322610656,f,001,2018_Apr_02_1046,
,,,,,,,,,,,,,,,,,,,,,,material/125.png,1,果敢,material/25.png,1,material/125.png,果断,1,j,j,j,2,2,2,果敢,,,,,,,,,0,11,11,24,,,,,,,,,,,,,,,,,moral_self_bias,05,19,60.0322610656,f,001,2018_Apr_02_1046,
,,,,,,,,,,,,,,,,,,,,,,material/49.png,2,痴呆,material/149.png,2,material/49.png,白痴,2,f,f,f,2,2,2,痴呆,,,,,,,,,0,12,12,128,,,,,,,,,,,j,0,1.14168095589,,,,moral_self_bias,05,19,60.0322610656,f,001,2018_Apr_02_1046,
,,,,,,,,,,,,,,,,,,,,,,material/156.png,2,愚钝,material/56.png,2,material/156.png,愚昧,2,j,j,j,2,2,2,愚钝,,,,,,,,,0,13,13,55,0,0,0,0,,,,,,,f,0,1.65121507645,j,0,0.258250951767,moral_self_bias,05,19,60.0322610656,f,001,2018_Apr_02_1046,
,,,,,,,,,,,,,,,,,,,,,,material/156.png,2,愚钝,material/56.png,2,material/156.png,愚昧,2,j,j,j,2,2,2,愚钝,,,,,,,,,0,13,13,55,,,,,,,,,,,,,,,,,moral_self_bias,05,19,60.0322610656,f,001,2018_Apr_02_1046,
,,,,,,,,,,,,,,,,,,,,,,material/172.png,2,无情,material/175.png,2,material/175.png,无情,2,f,f,f,1,1,1,浮夸,,,,,,,,,0,14,14,154,0,0,0,0,,,,,,,f,1,1.39122796059,f,1,0.408250808716,moral_self_bias,05,19,60.0322610656,f,001,2018_Apr_02_1046,
,,,,,,,,,,,,,,,,,,,,,,material/172.png,2,无情,material/175.png,2,material/175.png,无情,2,f,f,f,1,1,1,浮夸,,,,,,,,,0,14,14,154,,,,,,,,,,,,,,,,,moral_self_bias,05,19,60.0322610656,f,001,2018_Apr_02_1046,
,,,,,,,,,,,,,,,,,,,,,,material/112.png,1,忠诚,material/12.png,1,material/12.png,忠诚,1,j,j,j,1,1,1,忠心,,,,,,,,,0,15,15,11,0,0,0,0,,,,,,,f,0,1.10851597786,f,1,0.290969848633,moral_self_bias,05,19,60.0322610656,f,001,2018_Apr_02_1046,
,,,,,,,,,,,,,,,,,,,,,,material/112.png,1,忠诚,material/12.png,1,material/12.png,忠诚,1,j,j,j,1,1,1,忠心,,,,,,,,,0,15,15,11,,,,,,,,,,,,,,,,,moral_self_bias,05,19,60.0322610656,f,001,2018_Apr_02_1046,
,,,,,,,,,,,,,,,,,,,,,,material/56.png,2,愚昧,material/156.png,2,material/56.png,愚钝,2,f,f,f,2,2,2,愚昧,,,,,,,,,0,16,16,135,0,0,0,0,,,,,,,f,1,0.741096019745,j,0,0.291169881821,moral_self_bias,05,19,60.0322610656,f,001,2018_Apr_02_1046,
,,,,,,,,,,,,,,,,,,,,,,material/56.png,2,愚昧,material/156.png,2,material/56.png,愚钝,2,f,f,f,2,2,2,愚昧,,,,,,,,,0,16,16,135,,,,,,,,,,,,,,,,,moral_self_bias,05,19,60.0322610656,f,001,2018_Apr_02_1046,
,,,,,,,,,,,,,,,,,,,,,,material/120.png,1,能干,material/20.png,1,material/120.png,厉害,1,j,j,j,2,2,2,能干,,,,,,,,,0,17,17,19,0,0,0,0,,,,,,,f,0,0.741499900818,j,0,0.274673938751,moral_self_bias,05,19,60.0322610656,f,001,2018_Apr_02_1046,
,,,,,,,,,,,,,,,,,,,,,,material/120.png,1,能干,material/20.png,1,material/120.png,厉害,1,j,j,j,2,2,2,能干,,,,,,,,,0,17,17,19,,,,,,,,,,,,,,,,,moral_self_bias,05,19,60.0322610656,f,001,2018_Apr_02_1046,
,,,,,,,,,,,,,,,,,,,,,,material/82.png,2,毛糙,material/183.png,2,material/178.png,薄弱,2,f,f,f,2,2,2,窝囊,,,,,,,,,0,18,18,162,0,0,0,0,,,,,,,f,1,1.60865616798,f,1,0.241548061371,moral_self_bias,05,19,60.0322610656,f,001,2018_Apr_02_1046,
,,,,,,,,,,,,,,,,,,,,,,material/82.png,2,毛糙,material/183.png,2,material/178.png,薄弱,2,f,f,f,2,2,2,窝囊,,,,,,,,,0,18,18,162,,,,,,,,,,,,,,,,,moral_self_bias,05,19,60.0322610656,f,001,2018_Apr_02_1046,
,,,,,,,,,,,,,,,,,,,,,,material/173.png,2,不义,material/174.png,2,material/174.png,不义,2,f,f,f,1,1,1,黑心,,,,,,,,,0,19,19,153,,,,,,,,,,,j,0,0.976083040237,,,,moral_self_bias,05,19,60.0322610656,f,001,2018_Apr_02_1046,
,,,,,,,,,,,,,,,,,,,,,,material/176.png,2,害人,material/75.png,2,material/75.png,害人,2,j,j,j,1,1,1,放纵,,,,,,,,,0,20,20,71,,,,,,,,,,,j,1,0.975329875946,,,,moral_self_bias,05,19,60.0322610656,f,001,2018_Apr_02_1046,
,,,,,,,,,,,,,,,,,,,,,,material/168.png,1,机变,material/170.png,1,material/168.png,坚忍,1,f,f,f,2,2,2,机变,,,,,,,,,0,21,21,149,0,0,0,0,,,,,,,f,1,0.857852935791,j,0,0.268731117249,moral_self_bias,05,19,60.0322610656,f,001,2018_Apr_02_1046,
,,,,,,,,,,,,,,,,,,,,,,material/168.png,1,机变,material/170.png,1,material/168.png,坚忍,1,f,f,f,2,2,2,机变,,,,,,,,,0,21,21,149,,,,,,,,,,,,,,,,,moral_self_bias,05,19,60.0322610656,f,001,2018_Apr_02_1046,
,,,,,,,,,,,,,,,,,,,,,,material/24.png,1,理智,material/124.png,1,material/24.png,冷静,1,f,f,f,2,2,2,理智,,,,,,,,,0,22,22,103,0,0,0,0,,,,,,,f,1,0.99079990387,j,0,0.224640846252,moral_self_bias,05,19,60.0322610656,f,001,2018_Apr_02_1046,
,,,,,,,,,,,,,,,,,,,,,,material/24.png,1,理智,material/124.png,1,material/24.png,冷静,1,f,f,f,2,2,2,理智,,,,,,,,,0,22,22,103,,,,,,,,,,,,,,,,,moral_self_bias,05,19,60.0322610656,f,001,2018_Apr_02_1046,
,,,,,,,,,,,,,,,,,,,,,,material/48.png,2,愚蠢,material/148.png,2,material/48.png,笨蛋,2,f,f,f,2,2,2,愚蠢,,,,,,,,,0,23,23,127,,,,,,,,,,,j,0,1.12442398071,,,,moral_self_bias,05,19,60.0322610656,f,001,2018_Apr_02_1046,
,,,,,,,,,,,,,,,,,,,,,,material/145.png,2,下流,material/45.png,2,material/45.png,下流,2,j,j,j,1,1,1,小人,,,,,,,,,0,24,24,44,,,,,,,,,,,j,1,0.884253025055,,,,moral_self_bias,05,19,60.0322610656,f,001,2018_Apr_02_1046,
,,,,,,,,,,,,,,,,,,,,,,material/84.png,2,犹豫,material/84.png,2,material/181.png,顽愚,2,f,f,f,2,2,2,顽愚,,,,,,,,,0,25,25,167,0,0,0,0,,,,,,,f,1,3.05775213242,f,1,0.357511043549,moral_self_bias,05,19,60.0322610656,f,001,2018_Apr_02_1046,
,,,,,,,,,,,,,,,,,,,,,,material/84.png,2,犹豫,material/84.png,2,material/181.png,顽愚,2,f,f,f,2,2,2,顽愚,,,,,,,,,0,25,25,167,,,,,,,,,,,,,,,,,moral_self_bias,05,19,60.0322610656,f,001,2018_Apr_02_1046,
,,,,,,,,,,,,,,,,,,,,,,material/8.png,1,无私,material/108.png,1,material/108.png,无私,1,f,f,f,1,1,1,公道,,,,,,,,,0,26,26,87,,,,,,,,,,,j,0,1.25868201256,,,,moral_self_bias,05,19,60.0322610656,f,001,2018_Apr_02_1046,
,,,,,,,,,,,,,,,,,,,,,,material/180.png,2,无助,material/79.png,2,material/81.png,颓废,2,j,j,j,2,2,2,怠惰,,,,,,,,,0,27,27,75,,,,,,,,,,,j,1,1.56732821465,,,,moral_self_bias,05,19,60.0322610656,f,001,2018_Apr_02_1046,
,,,,,,,,,,,,,,,,,,,,,,material/108.png,1,公道,material/8.png,1,material/8.png,公道,1,j,j,j,1,1,1,无私,,,,,,,,,0,28,28,7,0,0,0,0,,,,,,,f,0,1.07500314713,j,0,0.758883953094,moral_self_bias,05,19,60.0322610656,f,001,2018_Apr_02_1046,
,,,,,,,,,,,,,,,,,,,,,,material/108.png,1,公道,material/8.png,1,material/8.png,公道,1,j,j,j,1,1,1,无私,,,,,,,,,0,28,28,7,,,,,,,,,,,,,,,,,moral_self_bias,05,19,60.0322610656,f,001,2018_Apr_02_1046,
,,,,,,,,,,,,,,,,,,,,,,material/148.png,2,笨蛋,material/48.png,2,material/148.png,愚蠢,2,j,j,j,2,2,2,笨蛋,,,,,,,,,0,29,29,47,,,,,,,,,,,j,1,0.841969013214,,,,moral_self_bias,05,19,60.0322610656,f,001,2018_Apr_02_1046,
,,,,,,,,,,,,,,,,,,,,,,material/23.png,1,有才,material/123.png,1,material/23.png,多才,1,f,f,f,2,2,2,有才,,,,,,,,,0,30,30,102,0,0,0,0,,,,,,,f,1,0.808166027069,j,0,0.226100921631,moral_self_bias,05,19,60.0322610656,f,001,2018_Apr_02_1046,
,,,,,,,,,,,,,,,,,,,,,,material/23.png,1,有才,material/123.png,1,material/23.png,多才,1,f,f,f,2,2,2,有才,,,,,,,,,0,30,30,102,,,,,,,,,,,,,,,,,moral_self_bias,05,19,60.0322610656,f,001,2018_Apr_02_1046,
,,,,,,,,,,,,,,,,,,,,,,material/170.png,1,坚忍,material/71.png,1,material/170.png,严谨,1,j,j,j,2,2,2,坚忍,,,,,,,,,0,31,31,68,0,0,0,0,,,,,,,f,0,1.22499585152,f,1,0.24188709259,moral_self_bias,05,19,60.0322610656,f,001,2018_Apr_02_1046,
,,,,,,,,,,,,,,,,,,,,,,material/170.png,1,坚忍,material/71.png,1,material/170.png,严谨,1,j,j,j,2,2,2,坚忍,,,,,,,,,0,31,31,68,,,,,,,,,,,,,,,,,moral_self_bias,05,19,60.0322610656,f,001,2018_Apr_02_1046,
,,,,,,,,,,,,,,,,,,,,,,material/117.png,1,聪颖,material/17.png,1,material/117.png,聪明,1,j,j,j,2,2,2,聪颖,,,,,,,,,0,32,32,16,0,0,0,0,,,,,,,f,0,0.790863037109,j,0,0.242280960083,moral_self_bias,05,19,60.0322610656,f,001,2018_Apr_02_1046,
,,,,,,,,,,,,,,,,,,,,,,material/117.png,1,聪颖,material/17.png,1,material/117.png,聪明,1,j,j,j,2,2,2,聪颖,,,,,,,,,0,32,32,16,,,,,,,,,,,,,,,,,moral_self_bias,05,19,60.0322610656,f,001,2018_Apr_02_1046,
,,,,,,,,,,,,,,,,,,,,,,material/13.png,1,廉明,material/113.png,1,material/113.png,廉明,1,f,f,f,1,1,1,廉洁,,,,,,,,,0,33,33,92,,,,,,,,,,,j,0,0.890940904617,,,,moral_self_bias,05,19,60.0322610656,f,001,2018_Apr_02_1046,
,,,,,,,,,,,,,,,,,,,,,,material/161.png,1,奉献,material/164.png,1,material/64.png,孝顺,1,f,f,f,1,1,1,勇敢,,,,,,,,,0,34,34,143,0,0,0,0,,,,,,,f,1,0.841959953308,f,1,0.507962942123,moral_self_bias,05,19,60.0322610656,f,001,2018_Apr_02_1046,
,,,,,,,,,,,,,,,,,,,,,,material/161.png,1,奉献,material/164.png,1,material/64.png,孝顺,1,f,f,f,1,1,1,勇敢,,,,,,,,,0,34,34,143,,,,,,,,,,,,,,,,,moral_self_bias,05,19,60.0322610656,f,001,2018_Apr_02_1046,
,,,,,,,,,,,,,,,,,,,,,,material/143.png,2,拜金,material/43.png,2,material/43.png,拜金,2,j,j,j,1,1,1,虚荣,,,,,,,,,0,35,35,42,,,,,,,,,,,j,1,1.192497015,,,,moral_self_bias,05,19,60.0322610656,f,001,2018_Apr_02_1046,
,,,,,,,,,,,,,,,,,,,,,,material/167.png,1,高手,material/169.png,1,material/167.png,颖悟,1,f,f,f,2,2,2,高手,,,,,,,,,0,36,36,148,0,0,0,0,,,,,,,f,1,0.950968980789,j,0,0.358615875244,moral_self_bias,05,19,60.0322610656,f,001,2018_Apr_02_1046,
,,,,,,,,,,,,,,,,,,,,,,material/167.png,1,高手,material/169.png,1,material/167.png,颖悟,1,f,f,f,2,2,2,高手,,,,,,,,,0,36,36,148,,,,,,,,,,,,,,,,,moral_self_bias,05,19,60.0322610656,f,001,2018_Apr_02_1046,
,,,,,,,,,,,,,,,,,,,,,,material/55.png,2,盲从,material/155.png,2,material/55.png,盲目,2,f,f,f,2,2,2,盲从,,,,,,,,,0,37,37,134,,,,,,,,,,,j,0,1.09157109261,,,,moral_self_bias,05,19,60.0322610656,f,001,2018_Apr_02_1046,
,,,,,,,,,,,,,,,,,,,,,,material/4.png,1,友善,material/104.png,1,material/104.png,友善,1,f,f,f,1,1,1,友爱,,,,,,,,,0,38,38,83,0,0,0,0,,,,,,,f,1,0.58423781395,f,1,0.375002145767,moral_self_bias,05,19,60.0322610656,f,001,2018_Apr_02_1046,
,,,,,,,,,,,,,,,,,,,,,,material/4.png,1,友善,material/104.png,1,material/104.png,友善,1,f,f,f,1,1,1,友爱,,,,,,,,,0,38,38,83,,,,,,,,,,,,,,,,,moral_self_bias,05,19,60.0322610656,f,001,2018_Apr_02_1046,
,,,,,,,,,,,,,,,,,,,,,,material/12.png,1,忠心,material/112.png,1,material/112.png,忠心,1,f,f,f,1,1,1,忠诚,,,,,,,,,0,39,39,91,0,0,0,0,,,,,,,f,1,0.908399105072,j,0,0.458674907684,moral_self_bias,05,19,60.0322610656,f,001,2018_Apr_02_1046,
,,,,,,,,,,,,,,,,,,,,,,material/12.png,1,忠心,material/112.png,1,material/112.png,忠心,1,f,f,f,1,1,1,忠诚,,,,,,,,,0,39,39,91,,,,,,,,,,,,,,,,,moral_self_bias,05,19,60.0322610656,f,001,2018_Apr_02_1046,
,,,,,,,,,,,,,,,,,,,,,,material/1.png,1,博爱,material/101.png,1,material/101.png,博爱,1,f,f,f,1,1,1,善良,,,,,,,,,0,40,40,80,0,0,0,0,,,,,,,f,1,0.908049821854,j,0,0.256821155548,moral_self_bias,05,19,60.0322610656,f,001,2018_Apr_02_1046,
,,,,,,,,,,,,,,,,,,,,,,material/1.png,1,博爱,material/101.png,1,material/101.png,博爱,1,f,f,f,1,1,1,善良,,,,,,,,,0,40,40,80,,,,,,,,,,,,,,,,,moral_self_bias,05,19,60.0322610656,f,001,2018_Apr_02_1046,
,,,,,,,,,,,,,,,,,,,,,,material/166.png,1,孝顺,material/64.png,1,material/164.png,奉献,1,j,j,j,1,1,1,仗义,,,,,,,,,0,41,41,63,0,0,0,0,,,,,,,f,0,0.856520175934,f,1,0.491493940353,moral_self_bias,05,19,60.0322610656,f,001,2018_Apr_02_1046,
,,,,,,,,,,,,,,,,,,,,,,material/166.png,1,孝顺,material/64.png,1,material/164.png,奉献,1,j,j,j,1,1,1,仗义,,,,,,,,,0,41,41,63,,,,,,,,,,,,,,,,,moral_self_bias,05,19,60.0322610656,f,001,2018_Apr_02_1046,
,,,,,,,,,,,,,,,,,,,,,,material/58.png,2,肤浅,material/158.png,2,material/58.png,浅薄,2,f,f,f,2,2,2,肤浅,,,,,,,,,0,42,42,137,,,,,,,,,,,j,0,0.858770847321,,,,moral_self_bias,05,19,60.0322610656,f,001,2018_Apr_02_1046,
,,,,,,,,,,,,,,,,,,,,,,material/121.png,1,精干,material/21.png,1,material/121.png,干练,1,j,j,j,2,2,2,精干,,,,,,,,,0,43,43,20,0,0,0,0,,,,,,,f,0,1.05100393295,j,0,0.256764888763,moral_self_bias,05,19,60.0322610656,f,001,2018_Apr_02_1046,
,,,,,,,,,,,,,,,,,,,,,,material/121.png,1,精干,material/21.png,1,material/121.png,干练,1,j,j,j,2,2,2,精干,,,,,,,,,0,43,43,20,,,,,,,,,,,,,,,,,moral_self_bias,05,19,60.0322610656,f,001,2018_Apr_02_1046,
,,,,,,,,,,,,,,,,,,,,,,material/6.png,1,厚道,material/106.png,1,material/106.png,厚道,1,f,f,f,1,1,1,诚实,,,,,,,,,0,44,44,85,0,0,0,0,,,,,,,f,1,0.941744089127,j,0,0.658460140228,moral_self_bias,05,19,60.0322610656,f,001,2018_Apr_02_1046,
,,,,,,,,,,,,,,,,,,,,,,material/6.png,1,厚道,material/106.png,1,material/106.png,厚道,1,f,f,f,1,1,1,诚实,,,,,,,,,0,44,44,85,,,,,,,,,,,,,,,,,moral_self_bias,05,19,60.0322610656,f,001,2018_Apr_02_1046,
,,,,,,,,,,,,,,,,,,,,,,material/19.png,1,灵活,material/119.png,1,material/19.png,机灵,1,f,f,f,2,2,2,灵活,,,,,,,,,0,45,45,98,0,0,0,0,,,,,,,f,1,0.974422931671,j,0,0.424831867218,moral_self_bias,05,19,60.0322610656,f,001,2018_Apr_02_1046,
,,,,,,,,,,,,,,,,,,,,,,material/19.png,1,灵活,material/119.png,1,material/19.png,机灵,1,f,f,f,2,2,2,灵活,,,,,,,,,0,45,45,98,,,,,,,,,,,,,,,,,moral_self_bias,05,19,60.0322610656,f,001,2018_Apr_02_1046,
,,,,,,,,,,,,,,,,,,,,,,material/102.png,1,善心,material/2.png,1,material/2.png,善心,1,j,j,j,1,1,1,爱心,,,,,,,,,0,46,46,1,0,0,0,0,,,,,,,f,0,1.04155397415,f,1,0.375266075134,moral_self_bias,05,19,60.0322610656,f,001,2018_Apr_02_1046,
,,,,,,,,,,,,,,,,,,,,,,material/102.png,1,善心,material/2.png,1,material/2.png,善心,1,j,j,j,1,1,1,爱心,,,,,,,,,0,46,46,1,,,,,,,,,,,,,,,,,moral_self_bias,05,19,60.0322610656,f,001,2018_Apr_02_1046,
,,,,,,,,,,,,,,,,,,,,,,material/142.png,2,阴险,material/42.png,2,material/42.png,阴险,2,j,j,j,1,1,1,奸诈,,,,,,,,,0,47,47,41,0,0,0,0,,,,,,,f,0,2.02523708344,j,0,0.275472164154,moral_self_bias,05,19,60.0322610656,f,001,2018_Apr_02_1046,
,,,,,,,,,,,,,,,,,,,,,,material/142.png,2,阴险,material/42.png,2,material/42.png,阴险,2,j,j,j,1,1,1,奸诈,,,,,,,,,0,47,47,41,,,,,,,,,,,,,,,,,moral_self_bias,05,19,60.0322610656,f,001,2018_Apr_02_1046,
,,,,,,,,,,,,,,,,,,,,,,material/119.png,1,机灵,material/19.png,1,material/119.png,灵活,1,j,j,j,2,2,2,机灵,,,,,,,,,0,48,48,18,,,,,,,,,,,j,1,2.07449197769,,,,moral_self_bias,05,19,60.0322610656,f,001,2018_Apr_02_1046,
,,,,,,,,,,,,,,,,,,,,,,material/129.png,1,好问,material/29.png,1,material/129.png,好学,1,j,j,j,2,2,2,好问,,,,,,,,,0,49,49,28,0,0,0,0,,,,,,,f,0,0.625412940979,j,0,0.859069108963,moral_self_bias,05,19,60.0322610656,f,001,2018_Apr_02_1046,
,,,,,,,,,,,,,,,,,,,,,,material/129.png,1,好问,material/29.png,1,material/129.png,好学,1,j,j,j,2,2,2,好问,,,,,,,,,0,49,49,28,,,,,,,,,,,,,,,,,moral_self_bias,05,19,60.0322610656,f,001,2018_Apr_02_1046,
,,,,,,,,,,,,,,,,,,,,,,material/154.png,2,依靠,material/54.png,2,material/154.png,依赖,2,j,j,j,2,2,2,依靠,,,,,,,,,0,50,50,53,0,0,0,0,,,,,,,f,0,0.891465902328,f,1,0.257910013199,moral_self_bias,05,19,60.0322610656,f,001,2018_Apr_02_1046,
,,,,,,,,,,,,,,,,,,,,,,material/154.png,2,依靠,material/54.png,2,material/154.png,依赖,2,j,j,j,2,2,2,依靠,,,,,,,,,0,50,50,53,,,,,,,,,,,,,,,,,moral_self_bias,05,19,60.0322610656,f,001,2018_Apr_02_1046,
,,,,,,,,,,,,,,,,,,,,,,material/104.png,1,友爱,material/4.png,1,material/4.png,友爱,1,j,j,j,1,1,1,友善,,,,,,,,,0,51,51,3,0,0,0,0,,,,,,,f,0,0.634063005447,j,0,0.391316175461,moral_self_bias,05,19,60.0322610656,f,001,2018_Apr_02_1046,
,,,,,,,,,,,,,,,,,,,,,,material/104.png,1,友爱,material/4.png,1,material/4.png,友爱,1,j,j,j,1,1,1,友善,,,,,,,,,0,51,51,3,,,,,,,,,,,,,,,,,moral_self_bias,05,19,60.0322610656,f,001,2018_Apr_02_1046,
,,,,,,,,,,,,,,,,,,,,,,material/52.png,2,拖延,material/152.png,2,material/52.png,缓慢,2,f,f,f,2,2,2,拖延,,,,,,,,,0,52,52,131,,,,,,,,,,,j,0,0.950722932816,,,,moral_self_bias,05,19,60.0322610656,f,001,2018_Apr_02_1046,
,,,,,,,,,,,,,,,,,,,,,,material/131.png,1,笃行,material/31.png,1,material/131.png,笃学,1,j,j,j,2,2,2,笃行,,,,,,,,,0,53,53,30,0,0,0,0,,,,,,,f,0,0.658498048782,j,0,0.392051935196,moral_self_bias,05,19,60.0322610656,f,001,2018_Apr_02_1046,
,,,,,,,,,,,,,,,,,,,,,,material/131.png,1,笃行,material/31.png,1,material/131.png,笃学,1,j,j,j,2,2,2,笃行,,,,,,,,,0,53,53,30,,,,,,,,,,,,,,,,,moral_self_bias,05,19,60.0322610656,f,001,2018_Apr_02_1046,
,,,,,,,,,,,,,,,,,,,,,,material/110.png,1,顽强,material/10.png,1,material/10.png,顽强,1,j,j,j,1,1,1,坚毅,,,,,,,,,0,54,54,9,0,0,0,0,,,,,,,f,0,1.05809998512,j,0,0.308603048325,moral_self_bias,05,19,60.0322610656,f,001,2018_Apr_02_1046,
,,,,,,,,,,,,,,,,,,,,,,material/110.png,1,顽强,material/10.png,1,material/10.png,顽强,1,j,j,j,1,1,1,坚毅,,,,,,,,,0,54,54,9,,,,,,,,,,,,,,,,,moral_self_bias,05,19,60.0322610656,f,001,2018_Apr_02_1046,
,,,,,,,,,,,,,,,,,,,,,,material/128.png,1,自律,material/28.png,1,material/128.png,克己,1,j,j,j,2,2,2,自律,,,,,,,,,0,55,55,27,,,,,,,,,,,j,1,0.750663042068,,,,moral_self_bias,05,19,60.0322610656,f,001,2018_Apr_02_1046,
,,,,,,,,,,,,,,,,,,,,,,material/178.png,2,窝囊,material/82.png,2,material/82.png,窝囊,2,j,j,j,2,2,2,毛糙,,,,,,,,,0,56,56,78,0,0,0,0,,,,,,,f,0,1.34148693085,f,1,0.368175029755,moral_self_bias,05,19,60.0322610656,f,001,2018_Apr_02_1046,
,,,,,,,,,,,,,,,,,,,,,,material/178.png,2,窝囊,material/82.png,2,material/82.png,窝囊,2,j,j,j,2,2,2,毛糙,,,,,,,,,0,56,56,78,,,,,,,,,,,,,,,,,moral_self_bias,05,19,60.0322610656,f,001,2018_Apr_02_1046,
,,,,,,,,,,,,,,,,,,,,,,material/135.png,2,冷漠,material/35.png,2,material/35.png,冷漠,2,j,j,j,1,1,1,冷血,,,,,,,,,0,57,57,34,0,0,0,0,,,,,,,f,0,1.40798592567,f,1,0.275451183319,moral_self_bias,05,19,60.0322610656,f,001,2018_Apr_02_1046,
,,,,,,,,,,,,,,,,,,,,,,material/135.png,2,冷漠,material/35.png,2,material/35.png,冷漠,2,j,j,j,1,1,1,冷血,,,,,,,,,0,57,57,34,,,,,,,,,,,,,,,,,moral_self_bias,05,19,60.0322610656,f,001,2018_Apr_02_1046,
,,,,,,,,,,,,,,,,,,,,,,material/114.png,1,爱国,material/14.png,1,material/14.png,爱国,1,j,j,j,1,1,1,忠贞,,,,,,,,,0,58,58,13,0,0,0,0,,,,,,,f,0,0.974236011505,j,0,0.225281000137,moral_self_bias,05,19,60.0322610656,f,001,2018_Apr_02_1046,
,,,,,,,,,,,,,,,,,,,,,,material/114.png,1,爱国,material/14.png,1,material/14.png,爱国,1,j,j,j,1,1,1,忠贞,,,,,,,,,0,58,58,13,,,,,,,,,,,,,,,,,moral_self_bias,05,19,60.0322610656,f,001,2018_Apr_02_1046,
,,,,,,,,,,,,,,,,,,,,,,material/141.png,2,歹毒,material/41.png,2,material/41.png,歹毒,2,j,j,j,1,1,1,残忍,,,,,,,,,0,59,59,40,,,,,,,,,,,j,1,0.823879003525,,,,moral_self_bias,05,19,60.0322610656,f,001,2018_Apr_02_1046,
,,,,,,,,,,,,,,,,,,,,,,material/42.png,2,奸诈,material/142.png,2,material/142.png,奸诈,2,f,f,f,1,1,1,阴险,,,,,,,,,0,60,60,121,,,,,,,,,,,j,0,2.37474918365,,,,moral_self_bias,05,19,60.0322610656,f,001,2018_Apr_02_1046,
,,,,,,,,,,,,,,,,,,,,,,material/80.png,2,才尽,material/83.png,2,material/182.png,呆笨,2,j,j,j,2,2,2,健忘,,,,,,,,,0,61,61,79,0,0,0,0,,,,,,,f,0,0.809194087982,j,0,0.458845853806,moral_self_bias,05,19,60.0322610656,f,001,2018_Apr_02_1046,
,,,,,,,,,,,,,,,,,,,,,,material/80.png,2,才尽,material/83.png,2,material/182.png,呆笨,2,j,j,j,2,2,2,健忘,,,,,,,,,0,61,61,79,,,,,,,,,,,,,,,,,moral_self_bias,05,19,60.0322610656,f,001,2018_Apr_02_1046,
,,,,,,,,,,,,,,,,,,,,,,material/103.png,1,仁慈,material/3.png,1,material/3.png,仁慈,1,j,j,j,1,1,1,仁厚,,,,,,,,,0,62,62,2,0,0,0,0,,,,,,,f,0,3.34051609039,f,1,0.408066034317,moral_self_bias,05,19,60.0322610656,f,001,2018_Apr_02_1046,
,,,,,,,,,,,,,,,,,,,,,,material/103.png,1,仁慈,material/3.png,1,material/3.png,仁慈,1,j,j,j,1,1,1,仁厚,,,,,,,,,0,62,62,2,,,,,,,,,,,,,,,,,moral_self_bias,05,19,60.0322610656,f,001,2018_Apr_02_1046,
,,,,,,,,,,,,,,,,,,,,,,material/54.png,2,依赖,material/154.png,2,material/54.png,依靠,2,f,f,f,2,2,2,依赖,,,,,,,,,0,63,63,133,0,0,0,0,,,,,,,f,1,0.808594942093,f,1,0.274793148041,moral_self_bias,05,19,60.0322610656,f,001,2018_Apr_02_1046,
,,,,,,,,,,,,,,,,,,,,,,material/54.png,2,依赖,material/154.png,2,material/54.png,依靠,2,f,f,f,2,2,2,依赖,,,,,,,,,0,63,63,133,,,,,,,,,,,,,,,,,moral_self_bias,05,19,60.0322610656,f,001,2018_Apr_02_1046,
,,,,,,,,,,,,,,,,,,,,,,material/10.png,1,坚毅,material/110.png,1,material/110.png,坚毅,1,f,f,f,1,1,1,顽强,,,,,,,,,0,64,64,89,0,0,0,0,,,,,,,f,1,0.641331195831,j,0,0.242346048355,moral_self_bias,05,19,60.0322610656,f,001,2018_Apr_02_1046,
,,,,,,,,,,,,,,,,,,,,,,material/10.png,1,坚毅,material/110.png,1,material/110.png,坚毅,1,f,f,f,1,1,1,顽强,,,,,,,,,0,64,64,89,,,,,,,,,,,,,,,,,moral_self_bias,05,19,60.0322610656,f,001,2018_Apr_02_1046,
,,,,,,,,,,,,,,,,,,,,,,material/36.png,2,撒谎,material/136.png,2,material/136.png,撒谎,2,f,f,f,1,1,1,说谎,,,,,,,,,0,65,65,115,,,,,,,,,,,j,0,0.724371910095,,,,moral_self_bias,05,19,60.0322610656,f,001,2018_Apr_02_1046,
,,,,,,,,,,,,,,,,,,,,,,material/32.png,2,背叛,material/132.png,2,material/132.png,背叛,2,f,f,f,1,1,1,不忠,,,,,,,,,0,66,66,111,0,0,0,0,,,,,,,f,1,1.34230995178,j,0,0.508486032486,moral_self_bias,05,19,60.0322610656,f,001,2018_Apr_02_1046,
,,,,,,,,,,,,,,,,,,,,,,material/32.png,2,背叛,material/132.png,2,material/132.png,背叛,2,f,f,f,1,1,1,不忠,,,,,,,,,0,66,66,111,,,,,,,,,,,,,,,,,moral_self_bias,05,19,60.0322610656,f,001,2018_Apr_02_1046,
,,,,,,,,,,,,,,,,,,,,,,material/132.png,2,不忠,material/32.png,2,material/32.png,不忠,2,j,j,j,1,1,1,背叛,,,,,,,,,0,67,67,31,,,,,,,,,,,j,1,0.757833957672,,,,moral_self_bias,05,19,60.0322610656,f,001,2018_Apr_02_1046,
,,,,,,,,,,,,,,,,,,,,,,material/116.png,1,机智,material/16.png,1,material/116.png,睿智,1,j,j,j,2,2,2,机智,,,,,,,,,0,68,68,15,0,0,0,0,,,,,,,f,0,0.574497938156,j,0,0.358796834946,moral_self_bias,05,19,60.0322610656,f,001,2018_Apr_02_1046,
,,,,,,,,,,,,,,,,,,,,,,material/116.png,1,机智,material/16.png,1,material/116.png,睿智,1,j,j,j,2,2,2,机智,,,,,,,,,0,68,68,15,,,,,,,,,,,,,,,,,moral_self_bias,05,19,60.0322610656,f,001,2018_Apr_02_1046,
,,,,,,,,,,,,,,,,,,,,,,material/113.png,1,廉洁,material/13.png,1,material/13.png,廉洁,1,j,j,j,1,1,1,廉明,,,,,,,,,0,69,69,12,0,0,0,0,,,,,,,f,0,0.708575963974,j,0,0.258179187775,moral_self_bias,05,19,60.0322610656,f,001,2018_Apr_02_1046,
,,,,,,,,,,,,,,,,,,,,,,material/113.png,1,廉洁,material/13.png,1,material/13.png,廉洁,1,j,j,j,1,1,1,廉明,,,,,,,,,0,69,69,12,,,,,,,,,,,,,,,,,moral_self_bias,05,19,60.0322610656,f,001,2018_Apr_02_1046,
,,,,,,,,,,,,,,,,,,,,,,material/25.png,1,果断,material/125.png,1,material/25.png,果敢,1,f,f,f,2,2,2,果断,,,,,,,,,0,70,70,104,0,0,0,0,,,,,,,f,1,0.724535942078,j,0,0.342328071594,moral_self_bias,05,19,60.0322610656,f,001,2018_Apr_02_1046,
,,,,,,,,,,,,,,,,,,,,,,material/25.png,1,果断,material/125.png,1,material/25.png,果敢,1,f,f,f,2,2,2,果断,,,,,,,,,0,70,70,104,,,,,,,,,,,,,,,,,moral_self_bias,05,19,60.0322610656,f,001,2018_Apr_02_1046,
,,,,,,,,,,,,,,,,,,,,,,material/77.png,2,浮夸,material/172.png,2,material/172.png,浮夸,2,f,f,f,1,1,1,软弱,,,,,,,,,0,71,71,151,,,,,,,,,,,j,0,0.700189113617,,,,moral_self_bias,05,19,60.0322610656,f,001,2018_Apr_02_1046,
,,,,,,,,,,,,,,,,,,,,,,material/175.png,2,残虐,material/73.png,2,material/73.png,残虐,2,f,f,f,1,1,1,无情,,,,,,,,,0,72,72,165,,,,,,,,,,,j,0,1.04216504097,,,,moral_self_bias,05,19,60.0322610656,f,001,2018_Apr_02_1046,
,,,,,,,,,,,,,,,,,,,,,,material/157.png,2,无能,material/57.png,2,material/157.png,无知,2,j,j,j,2,2,2,无能,,,,,,,,,0,73,73,56,0,0,0,0,,,,,,,f,0,1.15886592865,f,1,0.341576099396,moral_self_bias,05,19,60.0322610656,f,001,2018_Apr_02_1046,
,,,,,,,,,,,,,,,,,,,,,,material/157.png,2,无能,material/57.png,2,material/157.png,无知,2,j,j,j,2,2,2,无能,,,,,,,,,0,73,73,56,,,,,,,,,,,,,,,,,moral_self_bias,05,19,60.0322610656,f,001,2018_Apr_02_1046,
,,,,,,,,,,,,,,,,,,,,,,material/174.png,2,虚伪,material/76.png,2,material/76.png,虚伪,2,j,j,j,1,1,1,不义,,,,,,,,,0,74,74,72,,,,,,,,,,,j,1,1.67414498329,,,,moral_self_bias,05,19,60.0322610656,f,001,2018_Apr_02_1046,
,,,,,,,,,,,,,,,,,,,,,,material/2.png,1,爱心,material/102.png,1,material/102.png,爱心,1,f,f,f,1,1,1,善心,,,,,,,,,0,75,75,81,0,0,0,0,,,,,,,f,1,0.608202219009,f,1,0.324896812439,moral_self_bias,05,19,60.0322610656,f,001,2018_Apr_02_1046,
,,,,,,,,,,,,,,,,,,,,,,material/2.png,1,爱心,material/102.png,1,material/102.png,爱心,1,f,f,f,1,1,1,善心,,,,,,,,,0,75,75,81,,,,,,,,,,,,,,,,,moral_self_bias,05,19,60.0322610656,f,001,2018_Apr_02_1046,
,,,,,,,,,,,,,,,,,,,,,,material/79.png,2,薄弱,material/81.png,2,material/183.png,无助,2,j,j,j,2,2,2,颓废,,,,,,,,,0,76,76,77,0,0,0,0,,,,,,,f,0,1.16697382927,f,1,0.240857839584,moral_self_bias,05,19,60.0322610656,f,001,2018_Apr_02_1046,
,,,,,,,,,,,,,,,,,,,,,,material/79.png,2,薄弱,material/81.png,2,material/183.png,无助,2,j,j,j,2,2,2,颓废,,,,,,,,,0,76,76,77,,,,,,,,,,,,,,,,,moral_self_bias,05,19,60.0322610656,f,001,2018_Apr_02_1046,
,,,,,,,,,,,,,,,,,,,,,,material/60.png,2,粗拙,material/160.png,2,material/60.png,笨拙,2,f,f,f,2,2,2,粗拙,,,,,,,,,0,77,77,139,0,0,0,0,,,,,,,f,1,0.874729156494,j,0,0.341559886932,moral_self_bias,05,19,60.0322610656,f,001,2018_Apr_02_1046,
,,,,,,,,,,,,,,,,,,,,,,material/60.png,2,粗拙,material/160.png,2,material/60.png,笨拙,2,f,f,f,2,2,2,粗拙,,,,,,,,,0,77,77,139,,,,,,,,,,,,,,,,,moral_self_bias,05,19,60.0322610656,f,001,2018_Apr_02_1046,
,,,,,,,,,,,,,,,,,,,,,,material/136.png,2,说谎,material/36.png,2,material/36.png,说谎,2,j,j,j,1,1,1,撒谎,,,,,,,,,0,78,78,35,,,,,,,,,,,j,1,0.858000040054,,,,moral_self_bias,05,19,60.0322610656,f,001,2018_Apr_02_1046,
,,,,,,,,,,,,,,,,,,,,,,material/17.png,1,聪明,material/117.png,1,material/17.png,聪颖,1,f,f,f,2,2,2,聪明,,,,,,,,,0,79,79,96,0,0,0,0,,,,,,,f,1,0.491070985794,j,0,0.592010974884,moral_self_bias,05,19,60.0322610656,f,001,2018_Apr_02_1046,
,,,,,,,,,,,,,,,,,,,,,,material/17.png,1,聪明,material/117.png,1,material/17.png,聪颖,1,f,f,f,2,2,2,聪明,,,,,,,,,0,79,79,96,,,,,,,,,,,,,,,,,moral_self_bias,05,19,60.0322610656,f,001,2018_Apr_02_1046,
,,,,,,,,,,,,,,,,,,,,,,material/7.png,1,公平,material/107.png,1,material/107.png,公平,1,f,f,f,1,1,1,公正,,,,,,,,,0,80,80,86,0,0,0,0,,,,,,,f,1,0.608804941177,f,1,0.308173894882,moral_self_bias,05,19,60.0322610656,f,001,2018_Apr_02_1046,
,,,,,,,,,,,,,,,,,,,,,,material/7.png,1,公平,material/107.png,1,material/107.png,公平,1,f,f,f,1,1,1,公正,,,,,,,,,0,80,80,86,,,,,,,,,,,,,,,,,moral_self_bias,05,19,60.0322610656,f,001,2018_Apr_02_1046,
,,,,,,,,,,,,,,,,,,,,,,material/181.png,2,怠惰,material/180.png,2,material/180.png,怠惰,2,f,f,f,2,2,2,犹豫,,,,,,,,,0,81,81,159,0,0,0,0,,,,,,,f,1,0.808386802673,j,0,0.250624895096,moral_self_bias,05,19,60.0322610656,f,001,2018_Apr_02_1046,
,,,,,,,,,,,,,,,,,,,,,,material/181.png,2,怠惰,material/180.png,2,material/180.png,怠惰,2,f,f,f,2,2,2,犹豫,,,,,,,,,0,81,81,159,,,,,,,,,,,,,,,,,moral_self_bias,05,19,60.0322610656,f,001,2018_Apr_02_1046,
,,,,,,,,,,,,,,,,,,,,,,material/144.png,2,失信,material/44.png,2,material/44.png,失信,2,j,j,j,1,1,1,爽约,,,,,,,,,0,82,82,43,0,0,0,0,,,,,,,f,0,0.841001033783,j,0,0.190047979355,moral_self_bias,05,19,60.0322610656,f,001,2018_Apr_02_1046,
,,,,,,,,,,,,,,,,,,,,,,material/144.png,2,失信,material/44.png,2,material/44.png,失信,2,j,j,j,1,1,1,爽约,,,,,,,,,0,82,82,43,,,,,,,,,,,,,,,,,moral_self_bias,05,19,60.0322610656,f,001,2018_Apr_02_1046,
,,,,,,,,,,,,,,,,,,,,,,material/53.png,2,迟缓,material/153.png,2,material/53.png,迟钝,2,f,f,f,2,2,2,迟缓,,,,,,,,,0,83,83,132,0,0,0,0,,,,,,,f,1,0.740606069565,f,1,0.308054924011,moral_self_bias,05,19,60.0322610656,f,001,2018_Apr_02_1046,
,,,,,,,,,,,,,,,,,,,,,,material/53.png,2,迟缓,material/153.png,2,material/53.png,迟钝,2,f,f,f,2,2,2,迟缓,,,,,,,,,0,83,83,132,,,,,,,,,,,,,,,,,moral_self_bias,05,19,60.0322610656,f,001,2018_Apr_02_1046,
,,,,,,,,,,,,,,,,,,,,,,material/162.png,1,敬业,material/62.png,1,material/162.png,坚韧,1,j,j,j,1,1,1,敬业,,,,,,,,,0,84,84,61,0,0,0,0,,,,,,,f,0,0.592008113861,j,0,0.308445930481,moral_self_bias,05,19,60.0322610656,f,001,2018_Apr_02_1046,
,,,,,,,,,,,,,,,,,,,,,,material/162.png,1,敬业,material/62.png,1,material/162.png,坚韧,1,j,j,j,1,1,1,敬业,,,,,,,,,0,84,84,61,,,,,,,,,,,,,,,,,moral_self_bias,05,19,60.0322610656,f,001,2018_Apr_02_1046,
,,,,,,,,,,,,,,,,,,,,,,material/34.png,2,可恶,material/134.png,2,material/134.png,可恶,2,f,f,f,1,1,1,可恨,,,,,,,,,0,85,85,113,,,,,,,,,,,j,0,0.775202989578,,,,moral_self_bias,05,19,60.0322610656,f,001,2018_Apr_02_1046,
,,,,,,,,,,,,,,,,,,,,,,material/105.png,1,守信,material/5.png,1,material/5.png,守信,1,j,j,j,1,1,1,诚信,,,,,,,,,0,86,86,4,0,0,0,0,,,,,,,f,0,0.574565887451,f,1,0.391314029694,moral_self_bias,05,19,60.0322610656,f,001,2018_Apr_02_1046,
,,,,,,,,,,,,,,,,,,,,,,material/105.png,1,守信,material/5.png,1,material/5.png,守信,1,j,j,j,1,1,1,诚信,,,,,,,,,0,86,86,4,,,,,,,,,,,,,,,,,moral_self_bias,05,19,60.0322610656,f,001,2018_Apr_02_1046,
,,,,,,,,,,,,,,,,,,,,,,material/177.png,2,谄媚,material/72.png,2,material/72.png,谄媚,2,j,j,j,1,1,1,恶心,,,,,,,,,0,87,87,69,,,,,,,,,,,j,1,1.30844020844,,,,moral_self_bias,05,19,60.0322610656,f,001,2018_Apr_02_1046,
,,,,,,,,,,,,,,,,,,,,,,material/50.png,2,愚笨,material/150.png,2,material/50.png,鲁钝,2,f,f,f,2,2,2,愚笨,,,,,,,,,0,88,88,129,,,,,,,,,,,j,0,2.12528991699,,,,moral_self_bias,05,19,60.0322610656,f,001,2018_Apr_02_1046,
,,,,,,,,,,,,,,,,,,,,,,material/133.png,2,腐败,material/33.png,2,material/33.png,腐败,2,j,j,j,1,1,1,贪污,,,,,,,,,0,89,89,32,0,0,0,0,,,,,,,f,0,0.507560968399,j,0,0.758870124817,moral_self_bias,05,19,60.0322610656,f,001,2018_Apr_02_1046,
,,,,,,,,,,,,,,,,,,,,,,material/133.png,2,腐败,material/33.png,2,material/33.png,腐败,2,j,j,j,1,1,1,贪污,,,,,,,,,0,89,89,32,,,,,,,,,,,,,,,,,moral_self_bias,05,19,60.0322610656,f,001,2018_Apr_02_1046,
,,,,,,,,,,,,,,,,,,,,,,material/65.png,1,勇敢,material/61.png,1,material/161.png,平等,1,j,j,j,1,1,1,谦虚,,,,,,,,,0,90,90,60,0,0,0,0,,,,,,,f,0,0.725713014603,j,0,0.373985052109,moral_self_bias,05,19,60.0322610656,f,001,2018_Apr_02_1046,
,,,,,,,,,,,,,,,,,,,,,,material/65.png,1,勇敢,material/61.png,1,material/161.png,平等,1,j,j,j,1,1,1,谦虚,,,,,,,,,0,90,90,60,,,,,,,,,,,,,,,,,moral_self_bias,05,19,60.0322610656,f,001,2018_Apr_02_1046,
,,,,,,,,,,,,,,,,,,,,,,material/59.png,2,智障,material/159.png,2,material/59.png,弱智,2,f,f,f,2,2,2,智障,,,,,,,,,0,91,91,138,0,0,0,0,,,,,,,f,1,1.10849785805,j,0,0.841932058334,moral_self_bias,05,19,60.0322610656,f,001,2018_Apr_02_1046,
,,,,,,,,,,,,,,,,,,,,,,material/59.png,2,智障,material/159.png,2,material/59.png,弱智,2,f,f,f,2,2,2,智障,,,,,,,,,0,91,91,138,,,,,,,,,,,,,,,,,moral_self_bias,05,19,60.0322610656,f,001,2018_Apr_02_1046,
,,,,,,,,,,,,,,,,,,,,,,material/153.png,2,迟钝,material/53.png,2,material/153.png,迟缓,2,j,j,j,2,2,2,迟钝,,,,,,,,,0,92,92,52,,,,,,,,,,,j,1,0.774759054184,,,,moral_self_bias,05,19,60.0322610656,f,001,2018_Apr_02_1046,
,,,,,,,,,,,,,,,,,,,,,,material/159.png,2,弱智,material/59.png,2,material/159.png,智障,2,j,j,j,2,2,2,弱智,,,,,,,,,0,93,93,58,,,,,,,,,,,j,1,1.10859084129,,,,moral_self_bias,05,19,60.0322610656,f,001,2018_Apr_02_1046,
,,,,,,,,,,,,,,,,,,,,,,material/171.png,1,高效,material/67.png,1,material/171.png,骁勇,1,j,j,j,2,2,2,高效,,,,,,,,,0,94,94,65,0,0,0,0,,,,,,,f,0,0.824263095856,f,1,0.257928848267,moral_self_bias,05,19,60.0322610656,f,001,2018_Apr_02_1046,
,,,,,,,,,,,,,,,,,,,,,,material/171.png,1,高效,material/67.png,1,material/171.png,骁勇,1,j,j,j,2,2,2,高效,,,,,,,,,0,94,94,65,,,,,,,,,,,,,,,,,moral_self_bias,05,19,60.0322610656,f,001,2018_Apr_02_1046,
,,,,,,,,,,,,,,,,,,,,,,material/63.png,1,正义,material/166.png,1,material/66.png,仗义,1,f,f,f,1,1,1,文明,,,,,,,,,0,95,95,145,0,0,0,0,,,,,,,f,1,0.608340978622,j,0,0.283914089203,moral_self_bias,05,19,60.0322610656,f,001,2018_Apr_02_1046,
,,,,,,,,,,,,,,,,,,,,,,material/63.png,1,正义,material/166.png,1,material/66.png,仗义,1,f,f,f,1,1,1,文明,,,,,,,,,0,95,95,145,,,,,,,,,,,,,,,,,moral_self_bias,05,19,60.0322610656,f,001,2018_Apr_02_1046,
,,,,,,,,,,,,,,,,,,,,,,material/69.png,1,高明,material/69.png,1,material/69.png,高明,1,f,f,f,2,2,2,高明,,,,,,,,,0,96,96,166,0,0,0,0,,,,,,,f,1,0.541244029999,j,0,0.191663980484,moral_self_bias,05,19,60.0322610656,f,001,2018_Apr_02_1046,
,,,,,,,,,,,,,,,,,,,,,,material/69.png,1,高明,material/69.png,1,material/69.png,高明,1,f,f,f,2,2,2,高明,,,,,,,,,0,96,96,166,,,,,,,,,,,,,,,,,moral_self_bias,05,19,60.0322610656,f,001,2018_Apr_02_1046,
,,,,,,,,,,,,,,,,,,,,,,material/123.png,1,多才,material/23.png,1,material/123.png,有才,1,j,j,j,2,2,2,多才,,,,,,,,,0,97,97,22,0,0,0,0,,,,,,,f,0,0.691550016403,j,0,0.225072860718,moral_self_bias,05,19,60.0322610656,f,001,2018_Apr_02_1046,
,,,,,,,,,,,,,,,,,,,,,,material/123.png,1,多才,material/23.png,1,material/123.png,有才,1,j,j,j,2,2,2,多才,,,,,,,,,0,97,97,22,,,,,,,,,,,,,,,,,moral_self_bias,05,19,60.0322610656,f,001,2018_Apr_02_1046,
,,,,,,,,,,,,,,,,,,,,,,material/151.png,2,迷糊,material/51.png,2,material/151.png,糊涂,2,j,j,j,2,2,2,迷糊,,,,,,,,,0,98,98,50,0,0,0,0,,,,,,,f,0,1.00824713707,f,1,0.492379903793,moral_self_bias,05,19,60.0322610656,f,001,2018_Apr_02_1046,
,,,,,,,,,,,,,,,,,,,,,,material/151.png,2,迷糊,material/51.png,2,material/151.png,糊涂,2,j,j,j,2,2,2,迷糊,,,,,,,,,0,98,98,50,,,,,,,,,,,,,,,,,moral_self_bias,05,19,60.0322610656,f,001,2018_Apr_02_1046,
,,,,,,,,,,,,,,,,,,,,,,material/115.png,1,清白,material/15.png,1,material/15.png,清白,1,j,j,j,1,1,1,纯洁,,,,,,,,,0,99,99,14,0,0,0,0,,,,,,,f,0,0.64096903801,j,0,0.241461992264,moral_self_bias,05,19,60.0322610656,f,001,2018_Apr_02_1046,
,,,,,,,,,,,,,,,,,,,,,,material/115.png,1,清白,material/15.png,1,material/15.png,清白,1,j,j,j,1,1,1,纯洁,,,,,,,,,0,99,99,14,,,,,,,,,,,,,,,,,moral_self_bias,05,19,60.0322610656,f,001,2018_Apr_02_1046,
,,,,,,,,,,,,,,,,,,,,,,material/184.png,2,草率,material/80.png,2,material/78.png,健忘,2,j,j,j,2,2,2,厌学,,,,,,,,,0,100,100,76,0,0,0,0,,,,,,,f,0,0.506871938705,f,1,0.324661016464,moral_self_bias,05,19,60.0322610656,f,001,2018_Apr_02_1046,
,,,,,,,,,,,,,,,,,,,,,,material/184.png,2,草率,material/80.png,2,material/78.png,健忘,2,j,j,j,2,2,2,厌学,,,,,,,,,0,100,100,76,,,,,,,,,,,,,,,,,moral_self_bias,05,19,60.0322610656,f,001,2018_Apr_02_1046,
,,,,,,,,,,,,,,,,,,,,,,material/3.png,1,仁厚,material/103.png,1,material/103.png,仁厚,1,f,f,f,1,1,1,仁慈,,,,,,,,,0,101,101,82,0,0,0,0,,,,,,,f,1,0.574596881866,j,0,0.258054018021,moral_self_bias,05,19,60.0322610656,f,001,2018_Apr_02_1046,
,,,,,,,,,,,,,,,,,,,,,,material/3.png,1,仁厚,material/103.png,1,material/103.png,仁厚,1,f,f,f,1,1,1,仁慈,,,,,,,,,0,101,101,82,,,,,,,,,,,,,,,,,moral_self_bias,05,19,60.0322610656,f,001,2018_Apr_02_1046,
,,,,,,,,,,,,,,,,,,,,,,material/40.png,2,狠毒,material/140.png,2,material/140.png,狠毒,2,f,f,f,1,1,1,邪恶,,,,,,,,,0,102,102,119,,,,,,,,,,,j,0,0.725211143494,,,,moral_self_bias,05,19,60.0322610656,f,001,2018_Apr_02_1046,
,,,,,,,,,,,,,,,,,,,,,,material/111.png,1,高雅,material/11.png,1,material/11.png,高雅,1,j,j,j,1,1,1,高尚,,,,,,,,,0,103,103,10,0,0,0,0,,,,,,,f,0,0.574367046356,j,0,0.473806142807,moral_self_bias,05,19,60.0322610656,f,001,2018_Apr_02_1046,
,,,,,,,,,,,,,,,,,,,,,,material/111.png,1,高雅,material/11.png,1,material/11.png,高雅,1,j,j,j,1,1,1,高尚,,,,,,,,,0,103,103,10,,,,,,,,,,,,,,,,,moral_self_bias,05,19,60.0322610656,f,001,2018_Apr_02_1046,
,,,,,,,,,,,,,,,,,,,,,,material/46.png,2,自私,material/146.png,2,material/146.png,自私,2,f,f,f,1,1,1,小气,,,,,,,,,0,104,104,125,0,0,0,0,,,,,,,f,1,2.44151496887,j,0,0.324677944183,moral_self_bias,05,19,60.0322610656,f,001,2018_Apr_02_1046,
,,,,,,,,,,,,,,,,,,,,,,material/46.png,2,自私,material/146.png,2,material/146.png,自私,2,f,f,f,1,1,1,小气,,,,,,,,,0,104,104,125,,,,,,,,,,,,,,,,,moral_self_bias,05,19,60.0322610656,f,001,2018_Apr_02_1046,
,,,,,,,,,,,,,,,,,,,,,,material/147.png,2,刻板,material/47.png,2,material/147.png,死板,2,j,j,j,2,2,2,刻板,,,,,,,,,0,105,105,46,0,0,0,0,,,,,,,f,0,1.34207081795,f,1,0.324117183685,moral_self_bias,05,19,60.0322610656,f,001,2018_Apr_02_1046,
,,,,,,,,,,,,,,,,,,,,,,material/147.png,2,刻板,material/47.png,2,material/147.png,死板,2,j,j,j,2,2,2,刻板,,,,,,,,,0,105,105,46,,,,,,,,,,,,,,,,,moral_self_bias,05,19,60.0322610656,f,001,2018_Apr_02_1046,
,,,,,,,,,,,,,,,,,,,,,,material/73.png,2,恶心,material/177.png,2,material/177.png,恶心,2,f,f,f,1,1,1,残虐,,,,,,,,,0,106,106,156,,,,,,,,,,,j,0,0.783682823181,,,,moral_self_bias,05,19,60.0322610656,f,001,2018_Apr_02_1046,
,,,,,,,,,,,,,,,,,,,,,,material/66.png,1,独立,material/66.png,1,material/165.png,正义,1,f,f,f,1,1,1,正义,,,,,,,,,0,107,107,164,0,0,0,0,,,,,,,f,1,0.657677173615,j,0,0.292043924332,moral_self_bias,05,19,60.0322610656,f,001,2018_Apr_02_1046,
,,,,,,,,,,,,,,,,,,,,,,material/66.png,1,独立,material/66.png,1,material/165.png,正义,1,f,f,f,1,1,1,正义,,,,,,,,,0,107,107,164,,,,,,,,,,,,,,,,,moral_self_bias,05,19,60.0322610656,f,001,2018_Apr_02_1046,
,,,,,,,,,,,,,,,,,,,,,,material/26.png,1,刻苦,material/126.png,1,material/26.png,勤快,1,f,f,f,2,2,2,刻苦,,,,,,,,,0,108,108,105,0,0,0,0,,,,,,,f,1,0.841935873032,j,0,0.258229970932,moral_self_bias,05,19,60.0322610656,f,001,2018_Apr_02_1046,
,,,,,,,,,,,,,,,,,,,,,,material/26.png,1,刻苦,material/126.png,1,material/26.png,勤快,1,f,f,f,2,2,2,刻苦,,,,,,,,,0,108,108,105,,,,,,,,,,,,,,,,,moral_self_bias,05,19,60.0322610656,f,001,2018_Apr_02_1046,
,,,,,,,,,,,,,,,,,,,,,,material/126.png,1,勤快,material/26.png,1,material/126.png,刻苦,1,j,j,j,2,2,2,勤快,,,,,,,,,0,109,109,25,0,0,0,0,,,,,,,f,0,0.857434988022,j,0,0.424919128418,moral_self_bias,05,19,60.0322610656,f,001,2018_Apr_02_1046,
,,,,,,,,,,,,,,,,,,,,,,material/126.png,1,勤快,material/26.png,1,material/126.png,刻苦,1,j,j,j,2,2,2,勤快,,,,,,,,,0,109,109,25,,,,,,,,,,,,,,,,,moral_self_bias,05,19,60.0322610656,f,001,2018_Apr_02_1046,
,,,,,,,,,,,,,,,,,,,,,,material/68.png,1,广博,material/167.png,1,material/68.png,高手,1,f,f,f,2,2,2,广博,,,,,,,,,0,110,110,146,,,,,,,,,,,j,0,0.875332117081,,,,moral_self_bias,05,19,60.0322610656,f,001,2018_Apr_02_1046,
,,,,,,,,,,,,,,,,,,,,,,material/75.png,2,卑劣,material/74.png,2,material/74.png,卑劣,2,j,j,j,1,1,1,害人,,,,,,,,,0,111,111,70,,,,,,,,,,,j,1,1.04173994064,,,,moral_self_bias,05,19,60.0322610656,f,001,2018_Apr_02_1046,
,,,,,,,,,,,,,,,,,,,,,,material/101.png,1,善良,material/1.png,1,material/1.png,善良,1,j,j,j,1,1,1,博爱,,,,,,,,,0,112,112,0,0,0,0,0,,,,,,,f,0,0.474900960922,f,1,0.342000961304,moral_self_bias,05,19,60.0322610656,f,001,2018_Apr_02_1046,
,,,,,,,,,,,,,,,,,,,,,,material/101.png,1,善良,material/1.png,1,material/1.png,善良,1,j,j,j,1,1,1,博爱,,,,,,,,,0,112,112,0,,,,,,,,,,,,,,,,,moral_self_bias,05,19,60.0322610656,f,001,2018_Apr_02_1046,
,,,,,,,,,,,,,,,,,,,,,,material/83.png,2,差生,material/78.png,2,material/179.png,草率,2,j,j,j,2,2,2,呆笨,,,,,,,,,0,113,113,74,0,0,0,0,,,,,,,f,0,1.19152188301,f,1,0.374675989151,moral_self_bias,05,19,60.0322610656,f,001,2018_Apr_02_1046,
,,,,,,,,,,,,,,,,,,,,,,material/83.png,2,差生,material/78.png,2,material/179.png,草率,2,j,j,j,2,2,2,呆笨,,,,,,,,,0,113,113,74,,,,,,,,,,,,,,,,,moral_self_bias,05,19,60.0322610656,f,001,2018_Apr_02_1046,
,,,,,,,,,,,,,,,,,,,,,,material/149.png,2,白痴,material/49.png,2,material/149.png,痴呆,2,j,j,j,2,2,2,白痴,,,,,,,,,0,114,114,48,0,0,0,0,,,,,,,f,0,0.891332149506,j,0,0.258780956268,moral_self_bias,05,19,60.0322610656,f,001,2018_Apr_02_1046,
,,,,,,,,,,,,,,,,,,,,,,material/149.png,2,白痴,material/49.png,2,material/149.png,痴呆,2,j,j,j,2,2,2,白痴,,,,,,,,,0,114,114,48,,,,,,,,,,,,,,,,,moral_self_bias,05,19,60.0322610656,f,001,2018_Apr_02_1046,
,,,,,,,,,,,,,,,,,,,,,,material/118.png,1,机敏,material/18.png,1,material/118.png,敏锐,1,j,j,j,2,2,2,机敏,,,,,,,,,0,115,115,17,0,0,0,0,,,,,,,f,0,0.649738073349,f,1,0.259063005447,moral_self_bias,05,19,60.0322610656,f,001,2018_Apr_02_1046,
,,,,,,,,,,,,,,,,,,,,,,material/118.png,1,机敏,material/18.png,1,material/118.png,敏锐,1,j,j,j,2,2,2,机敏,,,,,,,,,0,115,115,17,,,,,,,,,,,,,,,,,moral_self_bias,05,19,60.0322610656,f,001,2018_Apr_02_1046,
,,,,,,,,,,,,,,,,,,,,,,material/182.png,2,健忘,material/184.png,2,material/80.png,厌学,2,f,f,f,2,2,2,才尽,,,,,,,,,0,116,116,163,,,,,,,,,,,j,0,1.22416400909,,,,moral_self_bias,05,19,60.0322610656,f,001,2018_Apr_02_1046,
,,,,,,,,,,,,,,,,,,,,,,material/28.png,1,克己,material/128.png,1,material/28.png,自律,1,f,f,f,2,2,2,克己,,,,,,,,,0,117,117,107,0,0,0,0,,,,,,,f,1,0.658299922943,j,0,0.458046913147,moral_self_bias,05,19,60.0322610656,f,001,2018_Apr_02_1046,
,,,,,,,,,,,,,,,,,,,,,,material/28.png,1,克己,material/128.png,1,material/28.png,自律,1,f,f,f,2,2,2,克己,,,,,,,,,0,117,117,107,,,,,,,,,,,,,,,,,moral_self_bias,05,19,60.0322610656,f,001,2018_Apr_02_1046,
,,,,,,,,,,,,,,,,,,,,,,material/107.png,1,公正,material/7.png,1,material/7.png,公正,1,j,j,j,1,1,1,公平,,,,,,,,,0,118,118,6,0,0,0,0,,,,,,,f,0,0.674507856369,f,1,0.291805028915,moral_self_bias,05,19,60.0322610656,f,001,2018_Apr_02_1046,
,,,,,,,,,,,,,,,,,,,,,,material/107.png,1,公正,material/7.png,1,material/7.png,公正,1,j,j,j,1,1,1,公平,,,,,,,,,0,118,118,6,,,,,,,,,,,,,,,,,moral_self_bias,05,19,60.0322610656,f,001,2018_Apr_02_1046,
,,,,,,,,,,,,,,,,,,,,,,material/61.png,1,仗义,material/65.png,1,material/166.png,谦虚,1,j,j,j,1,1,1,平等,,,,,,,,,0,119,119,64,0,0,0,0,,,,,,,f,0,0.541713953018,f,1,0.291051864624,moral_self_bias,05,19,60.0322610656,f,001,2018_Apr_02_1046,
,,,,,,,,,,,,,,,,,,,,,,material/61.png,1,仗义,material/65.png,1,material/166.png,谦虚,1,j,j,j,1,1,1,平等,,,,,,,,,0,119,119,64,,,,,,,,,,,,,,,,,moral_self_bias,05,19,60.0322610656,f,001,2018_Apr_02_1046,
,,,,,,,,,,,,,,,,,,,,,,material/146.png,2,小气,material/46.png,2,material/46.png,小气,2,j,j,j,1,1,1,自私,,,,,,,,,0,120,120,45,0,0,0,0,,,,,,,f,0,0.825496912003,j,0,0.207902908325,moral_self_bias,05,19,60.0322610656,f,001,2018_Apr_02_1046,
,,,,,,,,,,,,,,,,,,,,,,material/146.png,2,小气,material/46.png,2,material/46.png,小气,2,j,j,j,1,1,1,自私,,,,,,,,,0,120,120,45,,,,,,,,,,,,,,,,,moral_self_bias,05,19,60.0322610656,f,001,2018_Apr_02_1046,
,,,,,,,,,,,,,,,,,,,,,,material/21.png,1,干练,material/121.png,1,material/21.png,精干,1,f,f,f,2,2,2,干练,,,,,,,,,0,121,121,100,0,0,0,0,,,,,,,f,1,0.675054788589,f,1,0.991460084915,moral_self_bias,05,19,60.0322610656,f,001,2018_Apr_02_1046,
,,,,,,,,,,,,,,,,,,,,,,material/21.png,1,干练,material/121.png,1,material/21.png,精干,1,f,f,f,2,2,2,干练,,,,,,,,,0,121,121,100,,,,,,,,,,,,,,,,,moral_self_bias,05,19,60.0322610656,f,001,2018_Apr_02_1046,
,,,,,,,,,,,,,,,,,,,,,,material/137.png,2,无耻,material/37.png,2,material/37.png,无耻,2,j,j,j,1,1,1,卑鄙,,,,,,,,,0,122,122,36,,,,,,,,,,,j,1,1.05797386169,,,,moral_self_bias,05,19,60.0322610656,f,001,2018_Apr_02_1046,
,,,,,,,,,,,,,,,,,,,,,,material/158.png,2,浅薄,material/58.png,2,material/158.png,肤浅,2,j,j,j,2,2,2,浅薄,,,,,,,,,0,123,123,57,0,0,0,0,,,,,,,f,0,0.508509159088,j,0,0.608680009842,moral_self_bias,05,19,60.0322610656,f,001,2018_Apr_02_1046,
,,,,,,,,,,,,,,,,,,,,,,material/158.png,2,浅薄,material/58.png,2,material/158.png,肤浅,2,j,j,j,2,2,2,浅薄,,,,,,,,,0,123,123,57,,,,,,,,,,,,,,,,,moral_self_bias,05,19,60.0322610656,f,001,2018_Apr_02_1046,
,,,,,,,,,,,,,,,,,,,,,,material/165.png,1,平等,material/161.png,1,material/61.png,勇敢,1,f,f,f,1,1,1,独立,,,,,,,,,0,124,124,140,0,0,0,0,,,,,,,f,1,0.87531208992,j,0,0.757857084274,moral_self_bias,05,19,60.0322610656,f,001,2018_Apr_02_1046,
,,,,,,,,,,,,,,,,,,,,,,material/165.png,1,平等,material/161.png,1,material/61.png,勇敢,1,f,f,f,1,1,1,独立,,,,,,,,,0,124,124,140,,,,,,,,,,,,,,,,,moral_self_bias,05,19,60.0322610656,f,001,2018_Apr_02_1046,
,,,,,,,,,,,,,,,,,,,,,,material/33.png,2,贪污,material/133.png,2,material/133.png,贪污,2,f,f,f,1,1,1,腐败,,,,,,,,,0,125,125,112,,,,,,,,,,,j,0,1.40794110298,,,,moral_self_bias,05,19,60.0322610656,f,001,2018_Apr_02_1046,
,,,,,,,,,,,,,,,,,,,,,,material/67.png,1,骁勇,material/70.png,1,material/67.png,全面,1,j,j,j,2,2,2,骁勇,,,,,,,,,0,126,126,67,0,0,0,0,,,,,,,f,0,0.558135986328,j,0,0.541413068771,moral_self_bias,05,19,60.0322610656,f,001,2018_Apr_02_1046,
,,,,,,,,,,,,,,,,,,,,,,material/67.png,1,骁勇,material/70.png,1,material/67.png,全面,1,j,j,j,2,2,2,骁勇,,,,,,,,,0,126,126,67,,,,,,,,,,,,,,,,,moral_self_bias,05,19,60.0322610656,f,001,2018_Apr_02_1046,
,,,,,,,,,,,,,,,,,,,,,,material/81.png,2,呆笨,material/179.png,2,material/83.png,差生,2,f,f,f,2,2,2,无助,,,,,,,,,0,127,127,158,,,,,,,,,,,j,0,1.19074988365,,,,moral_self_bias,05,19,60.0322610656,f,001,2018_Apr_02_1046,
,,,,,,,,,,,,,,,,,,,,,,material/163.png,1,文明,material/163.png,1,material/63.png,宽容,1,f,f,f,1,1,1,宽容,,,,,,,,,0,128,128,142,0,0,0,0,,,,,,,f,1,1.05798602104,f,1,1.09179496765,moral_self_bias,05,19,60.0322610656,f,001,2018_Apr_02_1046,
,,,,,,,,,,,,,,,,,,,,,,material/163.png,1,文明,material/163.png,1,material/63.png,宽容,1,f,f,f,1,1,1,宽容,,,,,,,,,0,128,128,142,,,,,,,,,,,,,,,,,moral_self_bias,05,19,60.0322610656,f,001,2018_Apr_02_1046,
,,,,,,,,,,,,,,,,,,,,,,material/31.png,1,笃学,material/131.png,1,material/31.png,笃行,1,f,f,f,2,2,2,笃学,,,,,,,,,0,129,129,110,0,0,0,0,,,,,,,f,1,0.925246953964,j,0,0.258618116379,moral_self_bias,05,19,60.0322610656,f,001,2018_Apr_02_1046,
,,,,,,,,,,,,,,,,,,,,,,material/31.png,1,笃学,material/131.png,1,material/31.png,笃行,1,f,f,f,2,2,2,笃学,,,,,,,,,0,129,129,110,,,,,,,,,,,,,,,,,moral_self_bias,05,19,60.0322610656,f,001,2018_Apr_02_1046,
,,,,,,,,,,,,,,,,,,,,,,material/164.png,1,宽容,material/63.png,1,material/163.png,文明,1,j,j,j,1,1,1,孝顺,,,,,,,,,0,130,130,62,0,0,0,0,,,,,,,f,0,0.908437013626,j,0,0.242074012756,moral_self_bias,05,19,60.0322610656,f,001,2018_Apr_02_1046,
,,,,,,,,,,,,,,,,,,,,,,material/164.png,1,宽容,material/63.png,1,material/163.png,文明,1,j,j,j,1,1,1,孝顺,,,,,,,,,0,130,130,62,,,,,,,,,,,,,,,,,moral_self_bias,05,19,60.0322610656,f,001,2018_Apr_02_1046,
,,,,,,,,,,,,,,,,,,,,,,material/43.png,2,虚荣,material/143.png,2,material/143.png,虚荣,2,f,f,f,1,1,1,拜金,,,,,,,,,0,131,131,122,0,0,0,0,,,,,,,f,1,1.29928207397,j,0,0.174653053284,moral_self_bias,05,19,60.0322610656,f,001,2018_Apr_02_1046,
,,,,,,,,,,,,,,,,,,,,,,material/43.png,2,虚荣,material/143.png,2,material/143.png,虚荣,2,f,f,f,1,1,1,拜金,,,,,,,,,0,131,131,122,,,,,,,,,,,,,,,,,moral_self_bias,05,19,60.0322610656,f,001,2018_Apr_02_1046,
,,,,,,,,,,,,,,,,,,,,,,material/29.png,1,好学,material/129.png,1,material/29.png,好问,1,f,f,f,2,2,2,好学,,,,,,,,,0,132,132,108,0,0,0,0,,,,,,,f,1,0.491894006729,j,0,0.791553974152,moral_self_bias,05,19,60.0322610656,f,001,2018_Apr_02_1046,
,,,,,,,,,,,,,,,,,,,,,,material/29.png,1,好学,material/129.png,1,material/29.png,好问,1,f,f,f,2,2,2,好学,,,,,,,,,0,132,132,108,,,,,,,,,,,,,,,,,moral_self_bias,05,19,60.0322610656,f,001,2018_Apr_02_1046,
,,,,,,,,,,,,,,,,,,,,,,material/30.png,1,上进,material/130.png,1,material/30.png,进取,1,f,f,f,2,2,2,上进,,,,,,,,,0,133,133,109,0,0,0,0,,,,,,,f,1,0.723386049271,j,0,0.26775598526,moral_self_bias,05,19,60.0322610656,f,001,2018_Apr_02_1046,
,,,,,,,,,,,,,,,,,,,,,,material/30.png,1,上进,material/130.png,1,material/30.png,进取,1,f,f,f,2,2,2,上进,,,,,,,,,0,133,133,109,,,,,,,,,,,,,,,,,moral_self_bias,05,19,60.0322610656,f,001,2018_Apr_02_1046,
,,,,,,,,,,,,,,,,,,,,,,material/140.png,2,邪恶,material/40.png,2,material/40.png,邪恶,2,j,j,j,1,1,1,狠毒,,,,,,,,,0,134,134,39,,,,,,,,,,,j,1,0.724045038223,,,,moral_self_bias,05,19,60.0322610656,f,001,2018_Apr_02_1046,
,,,,,,,,,,,,,,,,,,,,,,material/122.png,1,博学,material/22.png,1,material/122.png,才学,1,j,j,j,2,2,2,博学,,,,,,,,,0,135,135,21,0,0,0,0,,,,,,,f,0,0.508705854416,j,0,0.341815948486,moral_self_bias,05,19,60.0322610656,f,001,2018_Apr_02_1046,
,,,,,,,,,,,,,,,,,,,,,,material/122.png,1,博学,material/22.png,1,material/122.png,才学,1,j,j,j,2,2,2,博学,,,,,,,,,0,135,135,21,,,,,,,,,,,,,,,,,moral_self_bias,05,19,60.0322610656,f,001,2018_Apr_02_1046,
,,,,,,,,,,,,,,,,,,,,,,material/39.png,2,恶毒,material/139.png,2,material/139.png,恶毒,2,f,f,f,1,1,1,凶残,,,,,,,,,0,136,136,118,,,,,,,,,,,j,0,0.792309045792,,,,moral_self_bias,05,19,60.0322610656,f,001,2018_Apr_02_1046,
,,,,,,,,,,,,,,,,,,,,,,material/11.png,1,高尚,material/111.png,1,material/111.png,高尚,1,f,f,f,1,1,1,高雅,,,,,,,,,0,137,137,90,0,0,0,0,,,,,,,f,1,1.27464795113,f,1,0.257329940796,moral_self_bias,05,19,60.0322610656,f,001,2018_Apr_02_1046,
,,,,,,,,,,,,,,,,,,,,,,material/11.png,1,高尚,material/111.png,1,material/111.png,高尚,1,f,f,f,1,1,1,高雅,,,,,,,,,0,137,137,90,,,,,,,,,,,,,,,,,moral_self_bias,05,19,60.0322610656,f,001,2018_Apr_02_1046,
,,,,,,,,,,,,,,,,,,,,,,material/169.png,1,颖悟,material/171.png,1,material/169.png,高效,1,f,f,f,2,2,2,颖悟,,,,,,,,,0,138,138,150,0,0,0,0,,,,,,,f,1,0.965963840485,j,0,0.307882070541,moral_self_bias,05,19,60.0322610656,f,001,2018_Apr_02_1046,
,,,,,,,,,,,,,,,,,,,,,,material/169.png,1,颖悟,material/171.png,1,material/169.png,高效,1,f,f,f,2,2,2,颖悟,,,,,,,,,0,138,138,150,,,,,,,,,,,,,,,,,moral_self_bias,05,19,60.0322610656,f,001,2018_Apr_02_1046,
,,,,,,,,,,,,,,,,,,,,,,material/16.png,1,睿智,material/116.png,1,material/16.png,机智,1,f,f,f,2,2,2,睿智,,,,,,,,,0,139,139,95,0,0,0,0,,,,,,,f,1,0.691284894943,j,0,0.325763940811,moral_self_bias,05,19,60.0322610656,f,001,2018_Apr_02_1046,
,,,,,,,,,,,,,,,,,,,,,,material/16.png,1,睿智,material/116.png,1,material/16.png,机智,1,f,f,f,2,2,2,睿智,,,,,,,,,0,139,139,95,,,,,,,,,,,,,,,,,moral_self_bias,05,19,60.0322610656,f,001,2018_Apr_02_1046,
,,,,,,,,,,,,,,,,,,,,,,material/5.png,1,诚信,material/105.png,1,material/105.png,诚信,1,f,f,f,1,1,1,守信,,,,,,,,,0,140,140,84,0,0,0,0,,,,,,,f,1,0.675091028214,f,1,0.266992092133,moral_self_bias,05,19,60.0322610656,f,001,2018_Apr_02_1046,
,,,,,,,,,,,,,,,,,,,,,,material/5.png,1,诚信,material/105.png,1,material/105.png,诚信,1,f,f,f,1,1,1,守信,,,,,,,,,0,140,140,84,,,,,,,,,,,,,,,,,moral_self_bias,05,19,60.0322610656,f,001,2018_Apr_02_1046,
,,,,,,,,,,,,,,,,,,,,,,material/124.png,1,冷静,material/24.png,1,material/124.png,理智,1,j,j,j,2,2,2,冷静,,,,,,,,,0,141,141,23,0,0,0,0,,,,,,,f,0,0.558820962906,f,1,0.23814201355,moral_self_bias,05,19,60.0322610656,f,001,2018_Apr_02_1046,
,,,,,,,,,,,,,,,,,,,,,,material/124.png,1,冷静,material/24.png,1,material/124.png,理智,1,j,j,j,2,2,2,冷静,,,,,,,,,0,141,141,23,,,,,,,,,,,,,,,,,moral_self_bias,05,19,60.0322610656,f,001,2018_Apr_02_1046,
,,,,,,,,,,,,,,,,,,,,,,material/74.png,2,黑心,material/173.png,2,material/173.png,黑心,2,f,f,f,1,1,1,卑劣,,,,,,,,,0,142,142,152,,,,,,,,,,,j,0,0.804530858994,,,,moral_self_bias,05,19,60.0322610656,f,001,2018_Apr_02_1046,
,,,,,,,,,,,,,,,,,,,,,,material/14.png,1,忠贞,material/114.png,1,material/114.png,忠贞,1,f,f,f,1,1,1,爱国,,,,,,,,,0,143,143,93,0,0,0,0,,,,,,,f,1,0.524428844452,j,0,0.474511861801,moral_self_bias,05,19,60.0322610656,f,001,2018_Apr_02_1046,
,,,,,,,,,,,,,,,,,,,,,,material/14.png,1,忠贞,material/114.png,1,material/114.png,忠贞,1,f,f,f,1,1,1,爱国,,,,,,,,,0,143,143,93,,,,,,,,,,,,,,,,,moral_self_bias,05,19,60.0322610656,f,001,2018_Apr_02_1046,
,,,,,,,,,,,,,,,,,,,,,,material/62.png,1,坚韧,material/162.png,1,material/62.png,敬业,1,f,f,f,1,1,1,坚韧,,,,,,,,,0,144,144,141,0,0,0,0,,,,,,,f,1,0.937859773636,f,1,0.291064977646,moral_self_bias,05,19,60.0322610656,f,001,2018_Apr_02_1046,
,,,,,,,,,,,,,,,,,,,,,,material/62.png,1,坚韧,material/162.png,1,material/62.png,敬业,1,f,f,f,1,1,1,坚韧,,,,,,,,,0,144,144,141,,,,,,,,,,,,,,,,,moral_self_bias,05,19,60.0322610656,f,001,2018_Apr_02_1046,
,,,,,,,,,,,,,,,,,,,,,,material/35.png,2,冷血,material/135.png,2,material/135.png,冷血,2,f,f,f,1,1,1,冷漠,,,,,,,,,0,145,145,114,0,0,0,0,,,,,,,f,1,0.766731023788,f,1,0.274508953094,moral_self_bias,05,19,60.0322610656,f,001,2018_Apr_02_1046,
,,,,,,,,,,,,,,,,,,,,,,material/35.png,2,冷血,material/135.png,2,material/135.png,冷血,2,f,f,f,1,1,1,冷漠,,,,,,,,,0,145,145,114,,,,,,,,,,,,,,,,,moral_self_bias,05,19,60.0322610656,f,001,2018_Apr_02_1046,
,,,,,,,,,,,,,,,,,,,,,,material/106.png,1,诚实,material/6.png,1,material/6.png,诚实,1,j,j,j,1,1,1,厚道,,,,,,,,,0,146,146,5,0,0,0,0,,,,,,,f,0,0.558326005936,f,1,0.2917740345,moral_self_bias,05,19,60.0322610656,f,001,2018_Apr_02_1046,
,,,,,,,,,,,,,,,,,,,,,,material/106.png,1,诚实,material/6.png,1,material/6.png,诚实,1,j,j,j,1,1,1,厚道,,,,,,,,,0,146,146,5,,,,,,,,,,,,,,,,,moral_self_bias,05,19,60.0322610656,f,001,2018_Apr_02_1046,
,,,,,,,,,,,,,,,,,,,,,,material/20.png,1,厉害,material/120.png,1,material/20.png,能干,1,f,f,f,2,2,2,厉害,,,,,,,,,0,147,147,99,0,0,0,0,,,,,,,f,1,0.657465934753,j,0,0.25928401947,moral_self_bias,05,19,60.0322610656,f,001,2018_Apr_02_1046,
,,,,,,,,,,,,,,,,,,,,,,material/20.png,1,厉害,material/120.png,1,material/20.png,能干,1,f,f,f,2,2,2,厉害,,,,,,,,,0,147,147,99,,,,,,,,,,,,,,,,,moral_self_bias,05,19,60.0322610656,f,001,2018_Apr_02_1046,
,,,,,,,,,,,,,,,,,,,,,,material/45.png,2,小人,material/145.png,2,material/145.png,小人,2,f,f,f,1,1,1,下流,,,,,,,,,0,148,148,124,,,,,,,,,,,j,0,1.07433795929,,,,moral_self_bias,05,19,60.0322610656,f,001,2018_Apr_02_1046,
,,,,,,,,,,,,,,,,,,,,,,material/76.png,2,放纵,material/176.png,2,material/176.png,放纵,2,f,f,f,1,1,1,虚伪,,,,,,,,,0,149,149,155,0,0,0,0,,,,,,,f,1,0.841482162476,j,0,0.408374786377,moral_self_bias,05,19,60.0322610656,f,001,2018_Apr_02_1046,
,,,,,,,,,,,,,,,,,,,,,,material/76.png,2,放纵,material/176.png,2,material/176.png,放纵,2,f,f,f,1,1,1,虚伪,,,,,,,,,0,149,149,155,,,,,,,,,,,,,,,,,moral_self_bias,05,19,60.0322610656,f,001,2018_Apr_02_1046,
,,,,,,,,,,,,,,,,,,,,,,material/160.png,2,笨拙,material/60.png,2,material/160.png,粗拙,2,j,j,j,2,2,2,笨拙,,,,,,,,,0,150,150,59,0,0,0,0,,,,,,,f,0,0.82529091835,f,1,0.292143106461,moral_self_bias,05,19,60.0322610656,f,001,2018_Apr_02_1046,
,,,,,,,,,,,,,,,,,,,,,,material/160.png,2,笨拙,material/60.png,2,material/160.png,粗拙,2,j,j,j,2,2,2,笨拙,,,,,,,,,0,150,150,59,,,,,,,,,,,,,,,,,moral_self_bias,05,19,60.0322610656,f,001,2018_Apr_02_1046,
,,,,,,,,,,,,,,,,,,,,,,material/57.png,2,无知,material/157.png,2,material/57.png,无能,2,f,f,f,2,2,2,无知,,,,,,,,,0,151,151,136,0,0,0,0,,,,,,,f,1,0.658356904984,j,0,1.04176878929,moral_self_bias,05,19,60.0322610656,f,001,2018_Apr_02_1046,
,,,,,,,,,,,,,,,,,,,,,,material/57.png,2,无知,material/157.png,2,material/57.png,无能,2,f,f,f,2,2,2,无知,,,,,,,,,0,151,151,136,,,,,,,,,,,,,,,,,moral_self_bias,05,19,60.0322610656,f,001,2018_Apr_02_1046,
,,,,,,,,,,,,,,,,,,,,,,material/9.png,1,正直,material/109.png,1,material/109.png,正直,1,f,f,f,1,1,1,秉直,,,,,,,,,0,152,152,88,0,0,0,0,,,,,,,f,1,0.808918952942,j,0,0.242386102676,moral_self_bias,05,19,60.0322610656,f,001,2018_Apr_02_1046,
,,,,,,,,,,,,,,,,,,,,,,material/9.png,1,正直,material/109.png,1,material/109.png,正直,1,f,f,f,1,1,1,秉直,,,,,,,,,0,152,152,88,,,,,,,,,,,,,,,,,moral_self_bias,05,19,60.0322610656,f,001,2018_Apr_02_1046,
,,,,,,,,,,,,,,,,,,,,,,material/150.png,2,鲁钝,material/50.png,2,material/150.png,愚笨,2,j,j,j,2,2,2,鲁钝,,,,,,,,,0,153,153,49,0,0,0,0,,,,,,,f,0,0.758425951004,j,0,0.291645050049,moral_self_bias,05,19,60.0322610656,f,001,2018_Apr_02_1046,
,,,,,,,,,,,,,,,,,,,,,,material/150.png,2,鲁钝,material/50.png,2,material/150.png,愚笨,2,j,j,j,2,2,2,鲁钝,,,,,,,,,0,153,153,49,,,,,,,,,,,,,,,,,moral_self_bias,05,19,60.0322610656,f,001,2018_Apr_02_1046,
,,,,,,,,,,,,,,,,,,,,,,material/138.png,2,无德,material/38.png,2,material/38.png,无德,2,j,j,j,1,1,1,缺德,,,,,,,,,0,154,154,37,0,0,0,0,,,,,,,f,0,0.492247104645,j,0,1.55024194717,moral_self_bias,05,19,60.0322610656,f,001,2018_Apr_02_1046,
,,,,,,,,,,,,,,,,,,,,,,material/138.png,2,无德,material/38.png,2,material/38.png,无德,2,j,j,j,1,1,1,缺德,,,,,,,,,0,154,154,37,,,,,,,,,,,,,,,,,moral_self_bias,05,19,60.0322610656,f,001,2018_Apr_02_1046,
,,,,,,,,,,,,,,,,,,,,,,material/155.png,2,盲目,material/55.png,2,material/155.png,盲从,2,j,j,j,2,2,2,盲目,,,,,,,,,0,155,155,54,0,0,0,0,,,,,,,f,0,1.09154510498,j,0,0.25795507431,moral_self_bias,05,19,60.0322610656,f,001,2018_Apr_02_1046,
,,,,,,,,,,,,,,,,,,,,,,material/155.png,2,盲目,material/55.png,2,material/155.png,盲从,2,j,j,j,2,2,2,盲目,,,,,,,,,0,155,155,54,,,,,,,,,,,,,,,,,moral_self_bias,05,19,60.0322610656,f,001,2018_Apr_02_1046,
,,,,,,,,,,,,,,,,,,,,,,material/71.png,1,严谨,material/68.png,1,material/71.png,广博,1,j,j,j,2,2,2,严谨,,,,,,,,,0,156,156,66,0,0,0,0,,,,,,,f,0,0.675146102905,j,0,0.384212017059,moral_self_bias,05,19,60.0322610656,f,001,2018_Apr_02_1046,
