Block1_Old,Num_Source3,Num_Source2,Num_Source1,valence1,valence2,valence3,Num_Old2,Corr_S1,Num_Old1,Corr_S3,Corr_S2,Block3_Old,Block2_Old,Source_2,Source_3,Source_1,domain3,domain2,domain1,Num_Old3,math,Num_All2,valence_all1,All_Words3,Num_All1,valence_all2,Num_All3,All_Words1,valence_all3,Corr_Rec2,Corr_Rec3,Corr_Rec1,domian_all3,domian_all2,domian_all1,All_Words2,trials.thisRepN,trials.thisTrialN,trials.thisN,trials.thisIndex,trials_2.thisRepN,trials_2.thisTrialN,trials_2.thisN,trials_2.thisIndex,trials_4.thisRepN,trials_4.thisTrialN,trials_4.thisN,trials_4.thisIndex,trials_3.thisRepN,trials_3.thisTrialN,trials_3.thisN,trials_3.thisIndex,block_resp_1.keys,block_resp_1.rt,words_rating.keys,words_rating.rt,block_resp_2.keys,block_resp_2.rt,Rec_resp.keys,Rec_resp.corr,Rec_resp.rt,Source_resp.keys,Source_resp.corr,Source_resp.rt,expName,participant,Age,frameRate,Sex,session,date,
,,,,,,,,,,,,,,,,,,,,,,,,,,,,,,,,,,,,,,,,,,,,,,,,,,,,,1,2.82564592361,,,,,,,,,,,moral_self_bias,07,20,59.9829817418,f,001,2018_Apr_02_1249,
笃行,material/instr2_1.png,material/instr2_1.png,material/instr2_1.png,1,1,1,material/31.png,f,material/131.png,f,f,笃学,笃学,self,self,self,2,2,2,material/31.png,,,,,,,,,,,,,,,,,0,0,0,30,,,,,,,,,,,,,,,None,,,,,,,,,,moral_self_bias,07,20,59.9829817418,f,001,2018_Apr_02_1249,
纯洁,material/instr2_2.png,material/instr2_2.png,material/instr2_2.png,1,1,1,material/15.png,j,material/115.png,j,j,纯洁,清白,friend,friend,friend,1,1,1,material/115.png,,,,,,,,,,,,,,,,,0,1,1,14,,,,,,,,,,,,,,,3,0.909314155579,,,,,,,,,moral_self_bias,07,20,59.9829817418,f,001,2018_Apr_02_1249,
冷静,material/instr2_1.png,material/instr2_1.png,material/instr2_1.png,1,1,1,material/24.png,f,material/124.png,f,f,理智,理智,self,self,self,2,2,2,material/24.png,,,,,,,,,,,,,,,,,0,2,2,23,,,,,,,,,,,,,,,4,1.54990506172,,,,,,,,,moral_self_bias,07,20,59.9829817418,f,001,2018_Apr_02_1249,
虚荣,material/instr2_1.png,material/instr2_1.png,material/instr2_1.png,2,2,2,material/43.png,f,material/143.png,f,f,虚荣,拜金,self,self,self,1,1,1,material/143.png,,,,,,,,,,,,,,,,,0,3,3,42,,,,,,,,,,,,,,,2,1.69352889061,,,,,,,,,moral_self_bias,07,20,59.9829817418,f,001,2018_Apr_02_1249,
白痴,material/instr2_2.png,material/instr2_2.png,material/instr2_2.png,2,2,2,material/49.png,j,material/149.png,j,j,痴呆,痴呆,friend,friend,friend,2,2,2,material/49.png,,,,,,,,,,,,,,,,,0,4,4,48,,,,,,,,,,,,,,,1,1.95844101906,,,,,,,,,moral_self_bias,07,20,59.9829817418,f,001,2018_Apr_02_1249,
坚毅,material/instr2_2.png,material/instr2_2.png,material/instr2_2.png,1,1,1,material/10.png,j,material/110.png,j,j,坚毅,顽强,friend,friend,friend,1,1,1,material/110.png,,,,,,,,,,,,,,,,,0,5,5,9,,,,,,,,,,,,,,,4,1.62418889999,,,,,,,,,moral_self_bias,07,20,59.9829817418,f,001,2018_Apr_02_1249,
狠毒,material/instr2_2.png,material/instr2_2.png,material/instr2_2.png,2,2,2,material/40.png,j,material/140.png,j,j,狠毒,邪恶,friend,friend,friend,1,1,1,material/140.png,,,,,,,,,,,,,,,,,0,6,6,39,,,,,,,,,,,,,,,2,1.19089198112,,,,,,,,,moral_self_bias,07,20,59.9829817418,f,001,2018_Apr_02_1249,
无私,material/instr2_2.png,material/instr2_2.png,material/instr2_2.png,1,1,1,material/8.png,j,material/108.png,j,j,无私,公道,friend,friend,friend,1,1,1,material/108.png,,,,,,,,,,,,,,,,,0,7,7,7,,,,,,,,,,,,,,,3,1.49156594276,,,,,,,,,moral_self_bias,07,20,59.9829817418,f,001,2018_Apr_02_1249,
缓慢,material/instr2_1.png,material/instr2_1.png,material/instr2_1.png,2,2,2,material/52.png,f,material/152.png,f,f,拖延,拖延,self,self,self,2,2,2,material/52.png,,,,,,,,,,,,,,,,,0,8,8,51,,,,,,,,,,,,,,,4,1.95010590553,,,,,,,,,moral_self_bias,07,20,59.9829817418,f,001,2018_Apr_02_1249,
廉明,material/instr2_2.png,material/instr2_2.png,material/instr2_2.png,1,1,1,material/13.png,j,material/113.png,j,j,廉明,廉洁,friend,friend,friend,1,1,1,material/113.png,,,,,,,,,,,,,,,,,0,9,9,12,,,,,,,,,,,,,,,4,1.80902791023,,,,,,,,,moral_self_bias,07,20,59.9829817418,f,001,2018_Apr_02_1249,
多才,material/instr2_1.png,material/instr2_1.png,material/instr2_1.png,1,1,1,material/23.png,f,material/123.png,f,f,有才,有才,self,self,self,2,2,2,material/23.png,,,,,,,,,,,,,,,,,0,10,10,22,,,,,,,,,,,,,,,3,1.83416390419,,,,,,,,,moral_self_bias,07,20,59.9829817418,f,001,2018_Apr_02_1249,
独立,material/instr2_1.png,material/instr2_1.png,material/instr2_1.png,1,1,1,material/64.png,f,material/165.png,f,f,谦虚,奉献,self,self,self,1,1,1,material/65.png,,,,,,,,,,,,,,,,,0,11,11,64,,,,,,,,,,,,,,,5,1.1415810585,,,,,,,,,moral_self_bias,07,20,59.9829817418,f,001,2018_Apr_02_1249,
忠心,material/instr2_1.png,material/instr2_1.png,material/instr2_1.png,1,1,1,material/12.png,f,material/112.png,f,f,忠心,忠诚,self,self,self,1,1,1,material/112.png,,,,,,,,,,,,,,,,,0,12,12,11,,,,,,,,,,,,,,,4,1.32507300377,,,,,,,,,moral_self_bias,07,20,59.9829817418,f,001,2018_Apr_02_1249,
放纵,material/instr2_1.png,material/instr2_1.png,material/instr2_1.png,2,2,2,material/76.png,f,material/176.png,f,f,放纵,虚伪,self,self,self,1,1,1,material/176.png,,,,,,,,,,,,,,,,,0,13,13,75,,,,,,,,,,,,,,,3,1.46611809731,,,,,,,,,moral_self_bias,07,20,59.9829817418,f,001,2018_Apr_02_1249,
高效,material/instr2_1.png,material/instr2_1.png,material/instr2_1.png,1,1,1,material/169.png,f,material/171.png,f,f,颖悟,颖悟,self,self,self,2,2,2,material/169.png,,,,,,,,,,,,,,,,,0,14,14,70,,,,,,,,,,,,,,,4,0.875195026398,,,,,,,,,moral_self_bias,07,20,59.9829817418,f,001,2018_Apr_02_1249,
仁厚,material/instr2_1.png,material/instr2_1.png,material/instr2_1.png,1,1,1,material/3.png,f,material/103.png,f,f,仁厚,仁慈,self,self,self,1,1,1,material/103.png,,,,,,,,,,,,,,,,,0,15,15,2,,,,,,,,,,,,,,,4,1.47634482384,,,,,,,,,moral_self_bias,07,20,59.9829817418,f,001,2018_Apr_02_1249,
仗义,material/instr2_1.png,material/instr2_1.png,material/instr2_1.png,1,1,1,material/63.png,f,material/166.png,f,f,正义,文明,self,self,self,1,1,1,material/66.png,,,,,,,,,,,,,,,,,0,16,16,65,,,,,,,,,,,,,,,3,1.97555398941,,,,,,,,,moral_self_bias,07,20,59.9829817418,f,001,2018_Apr_02_1249,
公平,material/instr2_2.png,material/instr2_2.png,material/instr2_2.png,1,1,1,material/7.png,j,material/107.png,j,j,公平,公正,friend,friend,friend,1,1,1,material/107.png,,,,,,,,,,,,,,,,,0,17,17,6,,,,,,,,,,,,,,,4,2.00814294815,,,,,,,,,moral_self_bias,07,20,59.9829817418,f,001,2018_Apr_02_1249,
厌学,material/instr2_2.png,material/instr2_2.png,material/instr2_2.png,2,2,2,material/182.png,j,material/184.png,j,j,健忘,才尽,friend,friend,friend,2,2,2,material/80.png,,,,,,,,,,,,,,,,,0,18,18,83,,,,,,,,,,,,,,,2,1.82551407814,,,,,,,,,moral_self_bias,07,20,59.9829817418,f,001,2018_Apr_02_1249,
宽容,material/instr2_2.png,material/instr2_2.png,material/instr2_2.png,1,1,1,material/163.png,j,material/163.png,j,j,文明,宽容,friend,friend,friend,1,1,1,material/63.png,,,,,,,,,,,,,,,,,0,19,19,62,,,,,,,,,,,,,,,4,2.12540221214,,,,,,,,,moral_self_bias,07,20,59.9829817418,f,001,2018_Apr_02_1249,
机变,material/instr2_2.png,material/instr2_2.png,material/instr2_2.png,1,1,1,material/70.png,j,material/168.png,j,j,全面,全面,friend,friend,friend,2,2,2,material/70.png,,,,,,,,,,,,,,,,,0,20,20,67,,,,,,,,,,,,,,,3,1.40886616707,,,,,,,,,moral_self_bias,07,20,59.9829817418,f,001,2018_Apr_02_1249,
正直,material/instr2_2.png,material/instr2_2.png,material/instr2_2.png,1,1,1,material/9.png,j,material/109.png,j,j,正直,秉直,friend,friend,friend,1,1,1,material/109.png,,,,,,,,,,,,,,,,,0,21,21,8,,,,,,,,,,,,,,,5,1.49200201035,,,,,,,,,moral_self_bias,07,20,59.9829817418,f,001,2018_Apr_02_1249,
迟钝,material/instr2_1.png,material/instr2_1.png,material/instr2_1.png,2,2,2,material/53.png,f,material/153.png,f,f,迟缓,迟缓,self,self,self,2,2,2,material/53.png,,,,,,,,,,,,,,,,,0,22,22,52,,,,,,,,,,,,,,,2,1.9257338047,,,,,,,,,moral_self_bias,07,20,59.9829817418,f,001,2018_Apr_02_1249,
爱心,material/instr2_1.png,material/instr2_1.png,material/instr2_1.png,1,1,1,material/2.png,f,material/102.png,f,f,爱心,善心,self,self,self,1,1,1,material/102.png,,,,,,,,,,,,,,,,,0,23,23,1,,,,,,,,,,,,,,,3,1.30835580826,,,,,,,,,moral_self_bias,07,20,59.9829817418,f,001,2018_Apr_02_1249,
顽愚,material/instr2_1.png,material/instr2_1.png,material/instr2_1.png,2,2,2,material/84.png,f,material/84.png,f,f,犹豫,顽愚,self,self,self,2,2,2,material/181.png,,,,,,,,,,,,,,,,,0,24,24,87,,,,,,,,,,,,,,,3,1.62579798698,,,,,,,,,moral_self_bias,07,20,59.9829817418,f,001,2018_Apr_02_1249,
能干,material/instr2_2.png,material/instr2_2.png,material/instr2_2.png,1,1,1,material/20.png,j,material/120.png,j,j,厉害,厉害,friend,friend,friend,2,2,2,material/20.png,,,,,,,,,,,,,,,,,0,25,25,19,,,,,,,,,,,,,,,4,1.84194397926,,,,,,,,,moral_self_bias,07,20,59.9829817418,f,001,2018_Apr_02_1249,
诚信,material/instr2_1.png,material/instr2_1.png,material/instr2_1.png,1,1,1,material/5.png,f,material/105.png,f,f,诚信,守信,self,self,self,1,1,1,material/105.png,,,,,,,,,,,,,,,,,0,26,26,4,,,,,,,,,,,,,,,5,2.02492904663,,,,,,,,,moral_self_bias,07,20,59.9829817418,f,001,2018_Apr_02_1249,
敬业,material/instr2_2.png,material/instr2_2.png,material/instr2_2.png,1,1,1,material/62.png,j,material/162.png,j,j,坚韧,坚韧,friend,friend,friend,1,1,1,material/62.png,,,,,,,,,,,,,,,,,0,27,27,61,,,,,,,,,,,,,,,5,1.70861911774,,,,,,,,,moral_self_bias,07,20,59.9829817418,f,001,2018_Apr_02_1249,
自律,material/instr2_2.png,material/instr2_2.png,material/instr2_2.png,1,1,1,material/28.png,j,material/128.png,j,j,克己,克己,friend,friend,friend,2,2,2,material/28.png,,,,,,,,,,,,,,,,,0,28,28,27,,,,,,,,,,,,,,,4,1.27563381195,,,,,,,,,moral_self_bias,07,20,59.9829817418,f,001,2018_Apr_02_1249,
可恶,material/instr2_1.png,material/instr2_1.png,material/instr2_1.png,2,2,2,material/34.png,f,material/134.png,f,f,可恶,可恨,self,self,self,1,1,1,material/134.png,,,,,,,,,,,,,,,,,0,29,29,33,,,,,,,,,,,,,,,2,1.52524614334,,,,,,,,,moral_self_bias,07,20,59.9829817418,f,001,2018_Apr_02_1249,
贪污,material/instr2_1.png,material/instr2_1.png,material/instr2_1.png,2,2,2,material/33.png,f,material/133.png,f,f,贪污,腐败,self,self,self,1,1,1,material/133.png,,,,,,,,,,,,,,,,,0,30,30,32,,,,,,,,,,,,,,,1,1.37513899803,,,,,,,,,moral_self_bias,07,20,59.9829817418,f,001,2018_Apr_02_1249,
恶毒,material/instr2_2.png,material/instr2_2.png,material/instr2_2.png,2,2,2,material/39.png,j,material/139.png,j,j,恶毒,凶残,friend,friend,friend,1,1,1,material/139.png,,,,,,,,,,,,,,,,,0,31,31,38,,,,,,,,,,,,,,,1,1.69131112099,,,,,,,,,moral_self_bias,07,20,59.9829817418,f,001,2018_Apr_02_1249,
厚道,material/instr2_2.png,material/instr2_2.png,material/instr2_2.png,1,1,1,material/6.png,j,material/106.png,j,j,厚道,诚实,friend,friend,friend,1,1,1,material/106.png,,,,,,,,,,,,,,,,,0,32,32,5,,,,,,,,,,,,,,,4,1.15864181519,,,,,,,,,moral_self_bias,07,20,59.9829817418,f,001,2018_Apr_02_1249,
残虐,material/instr2_1.png,material/instr2_1.png,material/instr2_1.png,2,2,2,material/175.png,f,material/73.png,f,f,残虐,无情,self,self,self,1,1,1,material/73.png,,,,,,,,,,,,,,,,,0,33,33,85,,,,,,,,,,,,,,,1,1.27302694321,,,,,,,,,moral_self_bias,07,20,59.9829817418,f,001,2018_Apr_02_1249,
小人,material/instr2_2.png,material/instr2_2.png,material/instr2_2.png,2,2,2,material/45.png,j,material/145.png,j,j,小人,下流,friend,friend,friend,1,1,1,material/145.png,,,,,,,,,,,,,,,,,0,34,34,44,,,,,,,,,,,,,,,1,1.15837287903,,,,,,,,,moral_self_bias,07,20,59.9829817418,f,001,2018_Apr_02_1249,
才尽,material/instr2_1.png,material/instr2_1.png,material/instr2_1.png,2,2,2,material/183.png,f,material/182.png,f,f,颓废,薄弱,self,self,self,2,2,2,material/79.png,,,,,,,,,,,,,,,,,0,35,35,81,,,,,,,,,,,,,,,2,2.47542095184,,,,,,,,,moral_self_bias,07,20,59.9829817418,f,001,2018_Apr_02_1249,
好问,material/instr2_1.png,material/instr2_1.png,material/instr2_1.png,1,1,1,material/29.png,f,material/129.png,f,f,好学,好学,self,self,self,2,2,2,material/29.png,,,,,,,,,,,,,,,,,0,36,36,28,,,,,,,,,,,,,,,4,1.85871911049,,,,,,,,,moral_self_bias,07,20,59.9829817418,f,001,2018_Apr_02_1249,
博爱,material/instr2_1.png,material/instr2_1.png,material/instr2_1.png,1,1,1,material/1.png,f,material/101.png,f,f,博爱,善良,self,self,self,1,1,1,material/101.png,,,,,,,,,,,,,,,,,0,37,37,0,,,,,,,,,,,,,,,3,1.7421631813,,,,,,,,,moral_self_bias,07,20,59.9829817418,f,001,2018_Apr_02_1249,
浮夸,material/instr2_2.png,material/instr2_2.png,material/instr2_2.png,2,2,2,material/77.png,j,material/172.png,j,j,浮夸,软弱,friend,friend,friend,1,1,1,material/172.png,,,,,,,,,,,,,,,,,0,38,38,71,,,,,,,,,,,,,,,1,1.09158110619,,,,,,,,,moral_self_bias,07,20,59.9829817418,f,001,2018_Apr_02_1249,
卑鄙,material/instr2_2.png,material/instr2_2.png,material/instr2_2.png,2,2,2,material/37.png,j,material/137.png,j,j,卑鄙,无耻,friend,friend,friend,1,1,1,material/137.png,,,,,,,,,,,,,,,,,0,39,39,36,,,,,,,,,,,,,,,1,0.875334978104,,,,,,,,,moral_self_bias,07,20,59.9829817418,f,001,2018_Apr_02_1249,
勤快,material/instr2_2.png,material/instr2_2.png,material/instr2_2.png,1,1,1,material/26.png,j,material/126.png,j,j,刻苦,刻苦,friend,friend,friend,2,2,2,material/26.png,,,,,,,,,,,,,,,,,0,40,40,25,,,,,,,,,,,,,,,5,1.58340716362,,,,,,,,,moral_self_bias,07,20,59.9829817418,f,001,2018_Apr_02_1249,
自私,material/instr2_2.png,material/instr2_2.png,material/instr2_2.png,2,2,2,material/46.png,j,material/146.png,j,j,自私,小气,friend,friend,friend,1,1,1,material/146.png,,,,,,,,,,,,,,,,,0,41,41,45,,,,,,,,,,,,,,,2,1.89225792885,,,,,,,,,moral_self_bias,07,20,59.9829817418,f,001,2018_Apr_02_1249,
刻板,material/instr2_2.png,material/instr2_2.png,material/instr2_2.png,2,2,2,material/47.png,j,material/147.png,j,j,死板,死板,friend,friend,friend,2,2,2,material/47.png,,,,,,,,,,,,,,,,,0,42,42,46,,,,,,,,,,,,,,,2,2.42627000809,,,,,,,,,moral_self_bias,07,20,59.9829817418,f,001,2018_Apr_02_1249,
高明,material/instr2_1.png,material/instr2_1.png,material/instr2_1.png,1,1,1,material/69.png,f,material/69.png,f,f,高明,高明,self,self,self,2,2,2,material/69.png,,,,,,,,,,,,,,,,,0,43,43,86,,,,,,,,,,,,,,,2,2.18338608742,,,,,,,,,moral_self_bias,07,20,59.9829817418,f,001,2018_Apr_02_1249,
机智,material/instr2_2.png,material/instr2_2.png,material/instr2_2.png,1,1,1,material/16.png,j,material/116.png,j,j,睿智,睿智,friend,friend,friend,2,2,2,material/16.png,,,,,,,,,,,,,,,,,0,44,44,15,,,,,,,,,,,,,,,3,1.55821895599,,,,,,,,,moral_self_bias,07,20,59.9829817418,f,001,2018_Apr_02_1249,
不义,material/instr2_2.png,material/instr2_2.png,material/instr2_2.png,2,2,2,material/173.png,j,material/174.png,j,j,不义,黑心,friend,friend,friend,1,1,1,material/174.png,,,,,,,,,,,,,,,,,0,45,45,73,,,,,,,,,,,,,,,2,1.82468795776,,,,,,,,,moral_self_bias,07,20,59.9829817418,f,001,2018_Apr_02_1249,
勇敢,material/instr2_2.png,material/instr2_2.png,material/instr2_2.png,1,1,1,material/165.png,j,material/161.png,j,j,平等,独立,friend,friend,friend,1,1,1,material/61.png,,,,,,,,,,,,,,,,,0,46,46,60,,,,,,,,,,,,,,,3,1.64280390739,,,,,,,,,moral_self_bias,07,20,59.9829817418,f,001,2018_Apr_02_1249,
犹豫,material/instr2_1.png,material/instr2_1.png,material/instr2_1.png,2,2,2,material/78.png,f,material/181.png,f,f,厌学,草率,self,self,self,2,2,2,material/184.png,,,,,,,,,,,,,,,,,0,47,47,80,,,,,,,,,,,,,,,2,1.32534885406,,,,,,,,,moral_self_bias,07,20,59.9829817418,f,001,2018_Apr_02_1249,
孝顺,material/instr2_1.png,material/instr2_1.png,material/instr2_1.png,1,1,1,material/161.png,f,material/164.png,f,f,奉献,勇敢,self,self,self,1,1,1,material/64.png,,,,,,,,,,,,,,,,,0,48,48,63,,,,,,,,,,,,,,,4,1.35913300514,,,,,,,,,moral_self_bias,07,20,59.9829817418,f,001,2018_Apr_02_1249,
依靠,material/instr2_1.png,material/instr2_1.png,material/instr2_1.png,2,2,2,material/54.png,f,material/154.png,f,f,依赖,依赖,self,self,self,2,2,2,material/54.png,,,,,,,,,,,,,,,,,0,49,49,53,,,,,,,,,,,,,,,3,1.49194717407,,,,,,,,,moral_self_bias,07,20,59.9829817418,f,001,2018_Apr_02_1249,
鲁钝,material/instr2_2.png,material/instr2_2.png,material/instr2_2.png,2,2,2,material/50.png,j,material/150.png,j,j,愚笨,愚笨,friend,friend,friend,2,2,2,material/50.png,,,,,,,,,,,,,,,,,0,50,50,49,,,,,,,,,,,,,,,2,1.30867099762,,,,,,,,,moral_self_bias,07,20,59.9829817418,f,001,2018_Apr_02_1249,
爽约,material/instr2_2.png,material/instr2_2.png,material/instr2_2.png,2,2,2,material/44.png,j,material/144.png,j,j,爽约,失信,friend,friend,friend,1,1,1,material/144.png,,,,,,,,,,,,,,,,,0,51,51,43,,,,,,,,,,,,,,,5,1.62531805038,,,,,,,,,moral_self_bias,07,20,59.9829817418,f,001,2018_Apr_02_1249,
残忍,material/instr2_2.png,material/instr2_2.png,material/instr2_2.png,2,2,2,material/41.png,j,material/141.png,j,j,残忍,歹毒,friend,friend,friend,1,1,1,material/141.png,,,,,,,,,,,,,,,,,0,52,52,40,,,,,,,,,,,,,,,1,1.06737303734,,,,,,,,,moral_self_bias,07,20,59.9829817418,f,001,2018_Apr_02_1249,
笨蛋,material/instr2_2.png,material/instr2_2.png,material/instr2_2.png,2,2,2,material/48.png,j,material/148.png,j,j,愚蠢,愚蠢,friend,friend,friend,2,2,2,material/48.png,,,,,,,,,,,,,,,,,0,53,53,47,,,,,,,,,,,,,,,1,0.675234079361,,,,,,,,,moral_self_bias,07,20,59.9829817418,f,001,2018_Apr_02_1249,
黑心,material/instr2_2.png,material/instr2_2.png,material/instr2_2.png,2,2,2,material/74.png,j,material/173.png,j,j,黑心,卑劣,friend,friend,friend,1,1,1,material/173.png,,,,,,,,,,,,,,,,,0,54,54,72,,,,,,,,,,,,,,,1,1.14257979393,,,,,,,,,moral_self_bias,07,20,59.9829817418,f,001,2018_Apr_02_1249,
机灵,material/instr2_2.png,material/instr2_2.png,material/instr2_2.png,1,1,1,material/19.png,j,material/119.png,j,j,灵活,灵活,friend,friend,friend,2,2,2,material/19.png,,,,,,,,,,,,,,,,,0,55,55,18,,,,,,,,,,,,,,,4,1.4087460041,,,,,,,,,moral_self_bias,07,20,59.9829817418,f,001,2018_Apr_02_1249,
无能,material/instr2_2.png,material/instr2_2.png,material/instr2_2.png,2,2,2,material/57.png,j,material/157.png,j,j,无知,无知,friend,friend,friend,2,2,2,material/57.png,,,,,,,,,,,,,,,,,0,56,56,56,,,,,,,,,,,,,,,1,0.99268078804,,,,,,,,,moral_self_bias,07,20,59.9829817418,f,001,2018_Apr_02_1249,
友善,material/instr2_1.png,material/instr2_1.png,material/instr2_1.png,1,1,1,material/4.png,f,material/104.png,f,f,友善,友爱,self,self,self,1,1,1,material/104.png,,,,,,,,,,,,,,,,,0,57,57,3,,,,,,,,,,,,,,,4,1.57561182976,,,,,,,,,moral_self_bias,07,20,59.9829817418,f,001,2018_Apr_02_1249,
正义,material/instr2_1.png,material/instr2_1.png,material/instr2_1.png,1,1,1,material/66.png,f,material/66.png,f,f,独立,正义,self,self,self,1,1,1,material/165.png,,,,,,,,,,,,,,,,,0,58,58,84,,,,,,,,,,,,,,,4,1.20834708214,,,,,,,,,moral_self_bias,07,20,59.9829817418,f,001,2018_Apr_02_1249,
冷血,material/instr2_1.png,material/instr2_1.png,material/instr2_1.png,2,2,2,material/35.png,f,material/135.png,f,f,冷血,冷漠,self,self,self,1,1,1,material/135.png,,,,,,,,,,,,,,,,,0,59,59,34,,,,,,,,,,,,,,,3,1.55864095688,,,,,,,,,moral_self_bias,07,20,59.9829817418,f,001,2018_Apr_02_1249,
弱智,material/instr2_1.png,material/instr2_1.png,material/instr2_1.png,2,2,2,material/59.png,f,material/159.png,f,f,智障,智障,self,self,self,2,2,2,material/59.png,,,,,,,,,,,,,,,,,0,60,60,58,,,,,,,,,,,,,,,1,1.65690994263,,,,,,,,,moral_self_bias,07,20,59.9829817418,f,001,2018_Apr_02_1249,
超群,material/instr2_2.png,material/instr2_2.png,material/instr2_2.png,1,1,1,material/27.png,j,material/127.png,j,j,卓越,卓越,friend,friend,friend,2,2,2,material/27.png,,,,,,,,,,,,,,,,,0,61,61,26,,,,,,,,,,,,,,,3,2.06688213348,,,,,,,,,moral_self_bias,07,20,59.9829817418,f,001,2018_Apr_02_1249,
背叛,material/instr2_1.png,material/instr2_1.png,material/instr2_1.png,2,2,2,material/32.png,f,material/132.png,f,f,背叛,不忠,self,self,self,1,1,1,material/132.png,,,,,,,,,,,,,,,,,0,62,62,31,,,,,,,,,,,,,,,1,2.53310108185,,,,,,,,,moral_self_bias,07,20,59.9829817418,f,001,2018_Apr_02_1249,
高手,material/instr2_2.png,material/instr2_2.png,material/instr2_2.png,1,1,1,material/68.png,j,material/167.png,j,j,广博,广博,friend,friend,friend,2,2,2,material/68.png,,,,,,,,,,,,,,,,,0,63,63,66,,,,,,,,,,,,,,,4,1.4088101387,,,,,,,,,moral_self_bias,07,20,59.9829817418,f,001,2018_Apr_02_1249,
坚忍,material/instr2_1.png,material/instr2_1.png,material/instr2_1.png,1,1,1,material/168.png,f,material/170.png,f,f,机变,机变,self,self,self,2,2,2,material/168.png,,,,,,,,,,,,,,,,,0,64,64,69,,,,,,,,,,,,,,,None,,,,,,,,,,moral_self_bias,07,20,59.9829817418,f,001,2018_Apr_02_1249,
迷糊,material/instr2_2.png,material/instr2_2.png,material/instr2_2.png,2,2,2,material/51.png,j,material/151.png,j,j,糊涂,糊涂,friend,friend,friend,2,2,2,material/51.png,,,,,,,,,,,,,,,,,0,65,65,50,,,,,,,,,,,,,,,2,1.08298516273,,,,,,,,,moral_self_bias,07,20,59.9829817418,f,001,2018_Apr_02_1249,
浅薄,material/instr2_2.png,material/instr2_2.png,material/instr2_2.png,2,2,2,material/58.png,j,material/158.png,j,j,肤浅,肤浅,friend,friend,friend,2,2,2,material/58.png,,,,,,,,,,,,,,,,,0,66,66,57,,,,,,,,,,,,,,,1,2.02467799187,,,,,,,,,moral_self_bias,07,20,59.9829817418,f,001,2018_Apr_02_1249,
颖悟,material/instr2_2.png,material/instr2_2.png,material/instr2_2.png,1,1,1,material/167.png,j,material/169.png,j,j,高手,高手,friend,friend,friend,2,2,2,material/167.png,,,,,,,,,,,,,,,,,0,67,67,68,,,,,,,,,,,,,,,3,1.84180402756,,,,,,,,,moral_self_bias,07,20,59.9829817418,f,001,2018_Apr_02_1249,
盲目,material/instr2_1.png,material/instr2_1.png,material/instr2_1.png,2,2,2,material/55.png,f,material/155.png,f,f,盲从,盲从,self,self,self,2,2,2,material/55.png,,,,,,,,,,,,,,,,,0,68,68,54,,,,,,,,,,,,,,,2,1.49225497246,,,,,,,,,moral_self_bias,07,20,59.9829817418,f,001,2018_Apr_02_1249,
愚钝,material/instr2_1.png,material/instr2_1.png,material/instr2_1.png,2,2,2,material/56.png,f,material/156.png,f,f,愚昧,愚昧,self,self,self,2,2,2,material/56.png,,,,,,,,,,,,,,,,,0,69,69,55,,,,,,,,,,,,,,,2,1.47610187531,,,,,,,,,moral_self_bias,07,20,59.9829817418,f,001,2018_Apr_02_1249,
果敢,material/instr2_1.png,material/instr2_1.png,material/instr2_1.png,1,1,1,material/25.png,f,material/125.png,f,f,果断,果断,self,self,self,2,2,2,material/25.png,,,,,,,,,,,,,,,,,0,70,70,24,,,,,,,,,,,,,,,4,1.37521505356,,,,,,,,,moral_self_bias,07,20,59.9829817418,f,001,2018_Apr_02_1249,
忠贞,material/instr2_2.png,material/instr2_2.png,material/instr2_2.png,1,1,1,material/14.png,j,material/114.png,j,j,忠贞,爱国,friend,friend,friend,1,1,1,material/114.png,,,,,,,,,,,,,,,,,0,71,71,13,,,,,,,,,,,,,,,5,1.62561798096,,,,,,,,,moral_self_bias,07,20,59.9829817418,f,001,2018_Apr_02_1249,
怠惰,material/instr2_2.png,material/instr2_2.png,material/instr2_2.png,2,2,2,material/181.png,j,material/180.png,j,j,怠惰,犹豫,friend,friend,friend,2,2,2,material/180.png,,,,,,,,,,,,,,,,,0,72,72,79,,,,,,,,,,,,,,,2,1.64193987846,,,,,,,,,moral_self_bias,07,20,59.9829817418,f,001,2018_Apr_02_1249,
聪颖,material/instr2_2.png,material/instr2_2.png,material/instr2_2.png,1,1,1,material/17.png,j,material/117.png,j,j,聪明,聪明,friend,friend,friend,2,2,2,material/17.png,,,,,,,,,,,,,,,,,0,73,73,16,,,,,,,,,,,,,,,3,1.62525296211,,,,,,,,,moral_self_bias,07,20,59.9829817418,f,001,2018_Apr_02_1249,
无情,material/instr2_1.png,material/instr2_1.png,material/instr2_1.png,2,2,2,material/172.png,f,material/175.png,f,f,无情,浮夸,self,self,self,1,1,1,material/175.png,,,,,,,,,,,,,,,,,0,74,74,74,,,,,,,,,,,,,,,2,0.942193031311,,,,,,,,,moral_self_bias,07,20,59.9829817418,f,001,2018_Apr_02_1249,
薄弱,material/instr2_1.png,material/instr2_1.png,material/instr2_1.png,2,2,2,material/82.png,f,material/183.png,f,f,毛糙,窝囊,self,self,self,2,2,2,material/178.png,,,,,,,,,,,,,,,,,0,75,75,82,,,,,,,,,,,,,,,2,2.43336987495,,,,,,,,,moral_self_bias,07,20,59.9829817418,f,001,2018_Apr_02_1249,
毛糙,material/instr2_2.png,material/instr2_2.png,material/instr2_2.png,2,2,2,material/179.png,j,material/178.png,j,j,顽愚,差生,friend,friend,friend,2,2,2,material/84.png,,,,,,,,,,,,,,,,,0,76,76,77,,,,,,,,,,,,,,,3,1.82576298714,,,,,,,,,moral_self_bias,07,20,59.9829817418,f,001,2018_Apr_02_1249,
撒谎,material/instr2_1.png,material/instr2_1.png,material/instr2_1.png,2,2,2,material/36.png,f,material/136.png,f,f,撒谎,说谎,self,self,self,1,1,1,material/136.png,,,,,,,,,,,,,,,,,0,77,77,35,,,,,,,,,,,,,,,2,2.0658800602,,,,,,,,,moral_self_bias,07,20,59.9829817418,f,001,2018_Apr_02_1249,
笨拙,material/instr2_1.png,material/instr2_1.png,material/instr2_1.png,2,2,2,material/60.png,f,material/160.png,f,f,粗拙,粗拙,self,self,self,2,2,2,material/60.png,,,,,,,,,,,,,,,,,0,78,78,59,,,,,,,,,,,,,,,2,1.04237484932,,,,,,,,,moral_self_bias,07,20,59.9829817418,f,001,2018_Apr_02_1249,
差生,material/instr2_2.png,material/instr2_2.png,material/instr2_2.png,2,2,2,material/81.png,j,material/179.png,j,j,呆笨,无助,friend,friend,friend,2,2,2,material/83.png,,,,,,,,,,,,,,,,,0,79,79,78,,,,,,,,,,,,,,,1,1.97492694855,,,,,,,,,moral_self_bias,07,20,59.9829817418,f,001,2018_Apr_02_1249,
缺德,material/instr2_2.png,material/instr2_2.png,material/instr2_2.png,2,2,2,material/38.png,j,material/138.png,j,j,缺德,无德,friend,friend,friend,1,1,1,material/138.png,,,,,,,,,,,,,,,,,0,80,80,37,,,,,,,,,,,,,,,1,1.59258890152,,,,,,,,,moral_self_bias,07,20,59.9829817418,f,001,2018_Apr_02_1249,
奸诈,material/instr2_1.png,material/instr2_1.png,material/instr2_1.png,2,2,2,material/42.png,f,material/142.png,f,f,奸诈,阴险,self,self,self,1,1,1,material/142.png,,,,,,,,,,,,,,,,,0,81,81,41,,,,,,,,,,,,,,,1,1.45591688156,,,,,,,,,moral_self_bias,07,20,59.9829817418,f,001,2018_Apr_02_1249,
进取,material/instr2_1.png,material/instr2_1.png,material/instr2_1.png,1,1,1,material/30.png,f,material/130.png,f,f,上进,上进,self,self,self,2,2,2,material/30.png,,,,,,,,,,,,,,,,,0,82,82,29,,,,,,,,,,,,,,,4,1.20930504799,,,,,,,,,moral_self_bias,07,20,59.9829817418,f,001,2018_Apr_02_1249,
高尚,material/instr2_1.png,material/instr2_1.png,material/instr2_1.png,1,1,1,material/11.png,f,material/111.png,f,f,高尚,高雅,self,self,self,1,1,1,material/111.png,,,,,,,,,,,,,,,,,0,83,83,10,,,,,,,,,,,,,,,2,1.37513899803,,,,,,,,,moral_self_bias,07,20,59.9829817418,f,001,2018_Apr_02_1249,
恶心,material/instr2_1.png,material/instr2_1.png,material/instr2_1.png,2,2,2,material/73.png,f,material/177.png,f,f,恶心,残虐,self,self,self,1,1,1,material/177.png,,,,,,,,,,,,,,,,,0,84,84,76,,,,,,,,,,,,,,,2,1.55898809433,,,,,,,,,moral_self_bias,07,20,59.9829817418,f,001,2018_Apr_02_1249,
精干,material/instr2_1.png,material/instr2_1.png,material/instr2_1.png,1,1,1,material/21.png,f,material/121.png,f,f,干练,干练,self,self,self,2,2,2,material/21.png,,,,,,,,,,,,,,,,,0,85,85,20,,,,,,,,,,,,,,,3,1.34298992157,,,,,,,,,moral_self_bias,07,20,59.9829817418,f,001,2018_Apr_02_1249,
机敏,material/instr2_2.png,material/instr2_2.png,material/instr2_2.png,1,1,1,material/18.png,j,material/118.png,j,j,敏锐,敏锐,friend,friend,friend,2,2,2,material/18.png,,,,,,,,,,,,,,,,,0,86,86,17,,,,,,,,,,,,,,,4,1.29222393036,,,,,,,,,moral_self_bias,07,20,59.9829817418,f,001,2018_Apr_02_1249,
博学,material/instr2_1.png,material/instr2_1.png,material/instr2_1.png,1,1,1,material/22.png,f,material/122.png,f,f,才学,才学,self,self,self,2,2,2,material/22.png,,,,,,,,,,,,,,,,,0,87,87,21,,,,,,,,,,,,,,,2,1.05817103386,,,,,,,,,moral_self_bias,07,20,59.9829817418,f,001,2018_Apr_02_1249,
,,,,,,,,,,,,,,,,,,,,,12-5=？,,,,,,,,,,,,,,,,,,,,0,0,0,65,,,,,,,,,,,,,,,,,,,,,moral_self_bias,07,20,59.9829817418,f,001,2018_Apr_02_1249,
,,,,,,,,,,,,,,,,,,,,,10-9= ?,,,,,,,,,,,,,,,,,,,,0,1,1,112,,,,,,,,,,,,,,,,,,,,,moral_self_bias,07,20,59.9829817418,f,001,2018_Apr_02_1249,
,,,,,,,,,,,,,,,,,,,,,81/9= ?,,,,,,,,,,,,,,,,,,,,0,2,2,75,,,,,,,,,,,,,,,,,,,,,moral_self_bias,07,20,59.9829817418,f,001,2018_Apr_02_1249,
,,,,,,,,,,,,,,,,,,,,,1+6= ?,,,,,,,,,,,,,,,,,,,,0,3,3,5,,,,,,,,,,,,,,,,,,,,,moral_self_bias,07,20,59.9829817418,f,001,2018_Apr_02_1249,
,,,,,,,,,,,,,,,,,,,,,6^0= ?,,,,,,,,,,,,,,,,,,,,0,4,4,103,,,,,,,,,,,,,,,,,,,,,moral_self_bias,07,20,59.9829817418,f,001,2018_Apr_02_1249,
,,,,,,,,,,,,,,,,,,,,,5/1= ?,,,,,,,,,,,,,,,,,,,,0,5,5,59,,,,,,,,,,,,,,,,,,,,,moral_self_bias,07,20,59.9829817418,f,001,2018_Apr_02_1249,
,,,,,,,,,,,,,,,,,,,,,30-29= ?,,,,,,,,,,,,,,,,,,,,0,6,6,73,,,,,,,,,,,,,,,,,,,,,moral_self_bias,07,20,59.9829817418,f,001,2018_Apr_02_1249,
,,,,,,,,,,,,,,,,,,,,,4+2= ?,,,,,,,,,,,,,,,,,,,,0,7,7,26,,,,,,,,,,,,,,,,,,,,,moral_self_bias,07,20,59.9829817418,f,001,2018_Apr_02_1249,
,,,,,,,,,,,,,,,,,,,,,6+2= ?,,,,,,,,,,,,,,,,,,,,0,8,8,44,,,,,,,,,,,,,,,,,,,,,moral_self_bias,07,20,59.9829817418,f,001,2018_Apr_02_1249,
,,,,,,,,,,,,,,,,,,,,,43-34= ?,,,,,,,,,,,,,,,,,,,,0,9,9,79,,,,,,,,,,,,,,,,,,,,,moral_self_bias,07,20,59.9829817418,f,001,2018_Apr_02_1249,
,,,,,,,,,,,,,,,,,,,,,5-3= ?,,,,,,,,,,,,,,,,,,,,0,10,10,116,,,,,,,,,,,,,,,,,,,,,moral_self_bias,07,20,59.9829817418,f,001,2018_Apr_02_1249,
,,,,,,,,,,,,,,,,,,,,,4+3= ?,,,,,,,,,,,,,,,,,,,,0,11,11,27,,,,,,,,,,,,,,,,,,,,,moral_self_bias,07,20,59.9829817418,f,001,2018_Apr_02_1249,
,,,,,,,,,,,,,,,,,,,,,2+3= ?,,,,,,,,,,,,,,,,,,,,0,12,12,9,,,,,,,,,,,,,,,,,,,,,moral_self_bias,07,20,59.9829817418,f,001,2018_Apr_02_1249,
,,,,,,,,,,,,,,,,,,,,,3*3= ?,,,,,,,,,,,,,,,,,,,,0,13,13,54,,,,,,,,,,,,,,,,,,,,,moral_self_bias,07,20,59.9829817418,f,001,2018_Apr_02_1249,
,,,,,,,,,,,,,,,,,,,,,2*3= ?,,,,,,,,,,,,,,,,,,,,0,14,14,108,,,,,,,,,,,,,,,,,,,,,moral_self_bias,07,20,59.9829817418,f,001,2018_Apr_02_1249,
,,,,,,,,,,,,,,,,,,,,,5*0= ?,,,,,,,,,,,,,,,,,,,,0,15,15,86,,,,,,,,,,,,,,,,,,,,,moral_self_bias,07,20,59.9829817418,f,001,2018_Apr_02_1249,
,,,,,,,,,,,,,,,,,,,,,22-22= ?,,,,,,,,,,,,,,,,,,,,0,16,16,93,,,,,,,,,,,,,,,,,,,,,moral_self_bias,07,20,59.9829817418,f,001,2018_Apr_02_1249,
,,,,,,,,,,,,,,,,,,,,,12/6= ?,,,,,,,,,,,,,,,,,,,,0,17,17,90,,,,,,,,,,,,,,,,,,,,,moral_self_bias,07,20,59.9829817418,f,001,2018_Apr_02_1249,
,,,,,,,,,,,,,,,,,,,,,14-9=？,,,,,,,,,,,,,,,,,,,,0,18,18,63,,,,,,,,,,,,,,,,,,,,,moral_self_bias,07,20,59.9829817418,f,001,2018_Apr_02_1249,
,,,,,,,,,,,,,,,,,,,,,3+4= ?,,,,,,,,,,,,,,,,,,,,0,19,19,19,,,,,,,,,,,,,,,,,,,,,moral_self_bias,07,20,59.9829817418,f,001,2018_Apr_02_1249,
,,,,,,,,,,,,,,,,,,,,,8-3= ?,,,,,,,,,,,,,,,,,,,,0,20,20,39,,,,,,,,,,,,,,,,,,,,,moral_self_bias,07,20,59.9829817418,f,001,2018_Apr_02_1249,
,,,,,,,,,,,,,,,,,,,,,12-7= ?,,,,,,,,,,,,,,,,,,,,0,21,21,115,,,,,,,,,,,,,,,,,,,,,moral_self_bias,07,20,59.9829817418,f,001,2018_Apr_02_1249,
,,,,,,,,,,,,,,,,,,,,,23^0= ?,,,,,,,,,,,,,,,,,,,,0,22,22,94,,,,,,,,,,,,,,,,,,,,,moral_self_bias,07,20,59.9829817418,f,001,2018_Apr_02_1249,
,,,,,,,,,,,,,,,,,,,,,8*1= ?,,,,,,,,,,,,,,,,,,,,0,23,23,111,,,,,,,,,,,,,,,,,,,,,moral_self_bias,07,20,59.9829817418,f,001,2018_Apr_02_1249,
,,,,,,,,,,,,,,,,,,,,,8-1= ?,,,,,,,,,,,,,,,,,,,,0,24,24,33,,,,,,,,,,,,,,,,,,,,,moral_self_bias,07,20,59.9829817418,f,001,2018_Apr_02_1249,
,,,,,,,,,,,,,,,,,,,,,16-11=？,,,,,,,,,,,,,,,,,,,,0,25,25,62,,,,,,,,,,,,,,,,,,,,,moral_self_bias,07,20,59.9829817418,f,001,2018_Apr_02_1249,
,,,,,,,,,,,,,,,,,,,,,2+7= ?,,,,,,,,,,,,,,,,,,,,0,26,26,13,,,,,,,,,,,,,,,,,,,,,moral_self_bias,07,20,59.9829817418,f,001,2018_Apr_02_1249,
,,,,,,,,,,,,,,,,,,,,,12-12= ?,,,,,,,,,,,,,,,,,,,,0,27,27,99,,,,,,,,,,,,,,,,,,,,,moral_self_bias,07,20,59.9829817418,f,001,2018_Apr_02_1249,
,,,,,,,,,,,,,,,,,,,,,9-5= ?,,,,,,,,,,,,,,,,,,,,0,28,28,23,,,,,,,,,,,,,,,,,,,,,moral_self_bias,07,20,59.9829817418,f,001,2018_Apr_02_1249,
,,,,,,,,,,,,,,,,,,,,,4+5= ?,,,,,,,,,,,,,,,,,,,,0,29,29,29,,,,,,,,,,,,,,,,,,,,,moral_self_bias,07,20,59.9829817418,f,001,2018_Apr_02_1249,
,,,,,,,,,,,,,,,,,,,,,90/45= ?,,,,,,,,,,,,,,,,,,,,0,30,30,74,,,,,,,,,,,,,,,,,,,,,moral_self_bias,07,20,59.9829817418,f,001,2018_Apr_02_1249,
,,,,,,,,,,,,,,,,,,,,,7*1= ?,,,,,,,,,,,,,,,,,,,,0,31,31,113,,,,,,,,,,,,,,,,,,,,,moral_self_bias,07,20,59.9829817418,f,001,2018_Apr_02_1249,
,,,,,,,,,,,,,,,,,,,,,50-42= ?,,,,,,,,,,,,,,,,,,,,0,32,32,81,,,,,,,,,,,,,,,,,,,,,moral_self_bias,07,20,59.9829817418,f,001,2018_Apr_02_1249,
,,,,,,,,,,,,,,,,,,,,,4*2= ?,,,,,,,,,,,,,,,,,,,,0,33,33,82,,,,,,,,,,,,,,,,,,,,,moral_self_bias,07,20,59.9829817418,f,001,2018_Apr_02_1249,
,,,,,,,,,,,,,,,,,,,,,20/5=？,,,,,,,,,,,,,,,,,,,,0,34,34,69,,,,,,,,,,,,,,,,,,,,,moral_self_bias,07,20,59.9829817418,f,001,2018_Apr_02_1249,
,,,,,,,,,,,,,,,,,,,,,8-4= ?,,,,,,,,,,,,,,,,,,,,0,35,35,40,,,,,,,,,,,,,,,,,,,,,moral_self_bias,07,20,59.9829817418,f,001,2018_Apr_02_1249,
,,,,,,,,,,,,,,,,,,,,,3+6= ?,,,,,,,,,,,,,,,,,,,,0,36,36,21,,,,,,,,,,,,,,,,,,,,,moral_self_bias,07,20,59.9829817418,f,001,2018_Apr_02_1249,
,,,,,,,,,,,,,,,,,,,,,9-3= ?,,,,,,,,,,,,,,,,,,,,0,37,37,15,,,,,,,,,,,,,,,,,,,,,moral_self_bias,07,20,59.9829817418,f,001,2018_Apr_02_1249,
,,,,,,,,,,,,,,,,,,,,,49/7 = ?,,,,,,,,,,,,,,,,,,,,0,38,38,78,,,,,,,,,,,,,,,,,,,,,moral_self_bias,07,20,59.9829817418,f,001,2018_Apr_02_1249,
,,,,,,,,,,,,,,,,,,,,,4/4= ?,,,,,,,,,,,,,,,,,,,,0,39,39,55,,,,,,,,,,,,,,,,,,,,,moral_self_bias,07,20,59.9829817418,f,001,2018_Apr_02_1249,
,,,,,,,,,,,,,,,,,,,,,2+6= ?,,,,,,,,,,,,,,,,,,,,0,40,40,12,,,,,,,,,,,,,,,,,,,,,moral_self_bias,07,20,59.9829817418,f,001,2018_Apr_02_1249,
,,,,,,,,,,,,,,,,,,,,,9+0= ?,,,,,,,,,,,,,,,,,,,,0,41,41,118,,,,,,,,,,,,,,,,,,,,,moral_self_bias,07,20,59.9829817418,f,001,2018_Apr_02_1249,
,,,,,,,,,,,,,,,,,,,,,11-8= ?,,,,,,,,,,,,,,,,,,,,0,42,42,106,,,,,,,,,,,,,,,,,,,,,moral_self_bias,07,20,59.9829817418,f,001,2018_Apr_02_1249,
,,,,,,,,,,,,,,,,,,,,,7*0= ?,,,,,,,,,,,,,,,,,,,,0,43,43,88,,,,,,,,,,,,,,,,,,,,,moral_self_bias,07,20,59.9829817418,f,001,2018_Apr_02_1249,
,,,,,,,,,,,,,,,,,,,,,8-2= ?,,,,,,,,,,,,,,,,,,,,0,44,44,38,,,,,,,,,,,,,,,,,,,,,moral_self_bias,07,20,59.9829817418,f,001,2018_Apr_02_1249,
,,,,,,,,,,,,,,,,,,,,,1+1= ?,,,,,,,,,,,,,,,,,,,,0,45,45,0,,,,,,,,,,,,,,,,,,,,,moral_self_bias,07,20,59.9829817418,f,001,2018_Apr_02_1249,
,,,,,,,,,,,,,,,,,,,,,7+2= ?,,,,,,,,,,,,,,,,,,,,0,46,46,47,,,,,,,,,,,,,,,,,,,,,moral_self_bias,07,20,59.9829817418,f,001,2018_Apr_02_1249,
,,,,,,,,,,,,,,,,,,,,,6+3= ?,,,,,,,,,,,,,,,,,,,,0,47,47,45,,,,,,,,,,,,,,,,,,,,,moral_self_bias,07,20,59.9829817418,f,001,2018_Apr_02_1249,
,,,,,,,,,,,,,,,,,,,,,11-11= ?,,,,,,,,,,,,,,,,,,,,0,48,48,119,,,,,,,,,,,,,,,,,,,,,moral_self_bias,07,20,59.9829817418,f,001,2018_Apr_02_1249,
,,,,,,,,,,,,,,,,,,,,,11-4=？,,,,,,,,,,,,,,,,,,,,0,49,49,66,,,,,,,,,,,,,,,,,,,,,moral_self_bias,07,20,59.9829817418,f,001,2018_Apr_02_1249,
,,,,,,,,,,,,,,,,,,,,,56/7= ?,,,,,,,,,,,,,,,,,,,,0,50,50,77,,,,,,,,,,,,,,,,,,,,,moral_self_bias,07,20,59.9829817418,f,001,2018_Apr_02_1249,
,,,,,,,,,,,,,,,,,,,,,1-1= ?,,,,,,,,,,,,,,,,,,,,0,51,51,52,,,,,,,,,,,,,,,,,,,,,moral_self_bias,07,20,59.9829817418,f,001,2018_Apr_02_1249,
,,,,,,,,,,,,,,,,,,,,,6/2= ?,,,,,,,,,,,,,,,,,,,,0,52,52,58,,,,,,,,,,,,,,,,,,,,,moral_self_bias,07,20,59.9829817418,f,001,2018_Apr_02_1249,
,,,,,,,,,,,,,,,,,,,,,19-17= ?,,,,,,,,,,,,,,,,,,,,0,53,53,100,,,,,,,,,,,,,,,,,,,,,moral_self_bias,07,20,59.9829817418,f,001,2018_Apr_02_1249,
,,,,,,,,,,,,,,,,,,,,,1+9= ?,,,,,,,,,,,,,,,,,,,,0,54,54,3,,,,,,,,,,,,,,,,,,,,,moral_self_bias,07,20,59.9829817418,f,001,2018_Apr_02_1249,
,,,,,,,,,,,,,,,,,,,,,2+1= ?,,,,,,,,,,,,,,,,,,,,0,55,55,7,,,,,,,,,,,,,,,,,,,,,moral_self_bias,07,20,59.9829817418,f,001,2018_Apr_02_1249,
,,,,,,,,,,,,,,,,,,,,,11-5= ?,,,,,,,,,,,,,,,,,,,,0,56,56,107,,,,,,,,,,,,,,,,,,,,,moral_self_bias,07,20,59.9829817418,f,001,2018_Apr_02_1249,
,,,,,,,,,,,,,,,,,,,,,3*1= ?,,,,,,,,,,,,,,,,,,,,0,57,57,83,,,,,,,,,,,,,,,,,,,,,moral_self_bias,07,20,59.9829817418,f,001,2018_Apr_02_1249,
,,,,,,,,,,,,,,,,,,,,,3^1= ?,,,,,,,,,,,,,,,,,,,,0,58,58,101,,,,,,,,,,,,,,,,,,,,,moral_self_bias,07,20,59.9829817418,f,001,2018_Apr_02_1249,
,,,,,,,,,,,,,,,,,,,,,9-1=?,,,,,,,,,,,,,,,,,,,,0,59,59,2,,,,,,,,,,,,,,,,,,,,,moral_self_bias,07,20,59.9829817418,f,001,2018_Apr_02_1249,
,,,,,,,,,,,,,,,,,,,,,13-6=？,,,,,,,,,,,,,,,,,,,,0,60,60,64,,,,,,,,,,,,,,,,,,,,,moral_self_bias,07,20,59.9829817418,f,001,2018_Apr_02_1249,
,,,,,,,,,,,,,,,,,,,,,22/11= ?,,,,,,,,,,,,,,,,,,,,0,61,61,71,,,,,,,,,,,,,,,,,,,,,moral_self_bias,07,20,59.9829817418,f,001,2018_Apr_02_1249,
,,,,,,,,,,,,,,,,,,,,,72/9= ?,,,,,,,,,,,,,,,,,,,,0,62,62,76,,,,,,,,,,,,,,,,,,,,,moral_self_bias,07,20,59.9829817418,f,001,2018_Apr_02_1249,
,,,,,,,,,,,,,,,,,,,,,3+1= ?,,,,,,,,,,,,,,,,,,,,0,63,63,16,,,,,,,,,,,,,,,,,,,,,moral_self_bias,07,20,59.9829817418,f,001,2018_Apr_02_1249,
,,,,,,,,,,,,,,,,,,,,,9-6= ?,,,,,,,,,,,,,,,,,,,,0,64,64,24,,,,,,,,,,,,,,,,,,,,,moral_self_bias,07,20,59.9829817418,f,001,2018_Apr_02_1249,
,,,,,,,,,,,,,,,,,,,,,1+7= ?,,,,,,,,,,,,,,,,,,,,0,65,65,4,,,,,,,,,,,,,,,,,,,,,moral_self_bias,07,20,59.9829817418,f,001,2018_Apr_02_1249,
,,,,,,,,,,,,,,,,,,,,,6+1= ?,,,,,,,,,,,,,,,,,,,,0,66,66,43,,,,,,,,,,,,,,,,,,,,,moral_self_bias,07,20,59.9829817418,f,001,2018_Apr_02_1249,
,,,,,,,,,,,,,,,,,,,,,17-12= ? ,,,,,,,,,,,,,,,,,,,,0,67,67,104,,,,,,,,,,,,,,,,,,,,,moral_self_bias,07,20,59.9829817418,f,001,2018_Apr_02_1249,
,,,,,,,,,,,,,,,,,,,,,21/7= ?,,,,,,,,,,,,,,,,,,,,0,68,68,70,,,,,,,,,,,,,,,,,,,,,moral_self_bias,07,20,59.9829817418,f,001,2018_Apr_02_1249,
,,,,,,,,,,,,,,,,,,,,,2+5= ?,,,,,,,,,,,,,,,,,,,,0,69,69,11,,,,,,,,,,,,,,,,,,,,,moral_self_bias,07,20,59.9829817418,f,001,2018_Apr_02_1249,
,,,,,,,,,,,,,,,,,,,,,10-5=？,,,,,,,,,,,,,,,,,,,,0,70,70,67,,,,,,,,,,,,,,,,,,,,,moral_self_bias,07,20,59.9829817418,f,001,2018_Apr_02_1249,
,,,,,,,,,,,,,,,,,,,,,3+0= ?,,,,,,,,,,,,,,,,,,,,0,71,71,105,,,,,,,,,,,,,,,,,,,,,moral_self_bias,07,20,59.9829817418,f,001,2018_Apr_02_1249,
,,,,,,,,,,,,,,,,,,,,,2^2= ?,,,,,,,,,,,,,,,,,,,,0,72,72,49,,,,,,,,,,,,,,,,,,,,,moral_self_bias,07,20,59.9829817418,f,001,2018_Apr_02_1249,
,,,,,,,,,,,,,,,,,,,,,1+2= ?,,,,,,,,,,,,,,,,,,,,0,73,73,1,,,,,,,,,,,,,,,,,,,,,moral_self_bias,07,20,59.9829817418,f,001,2018_Apr_02_1249,
,,,,,,,,,,,,,,,,,,,,,29-27= ?,,,,,,,,,,,,,,,,,,,,0,74,74,72,,,,,,,,,,,,,,,,,,,,,moral_self_bias,07,20,59.9829817418,f,001,2018_Apr_02_1249,
,,,,,,,,,,,,,,,,,,,,,9-2= ?,,,,,,,,,,,,,,,,,,,,0,75,75,14,,,,,,,,,,,,,,,,,,,,,moral_self_bias,07,20,59.9829817418,f,001,2018_Apr_02_1249,
,,,,,,,,,,,,,,,,,,,,,4+4= ?,,,,,,,,,,,,,,,,,,,,0,76,76,28,,,,,,,,,,,,,,,,,,,,,moral_self_bias,07,20,59.9829817418,f,001,2018_Apr_02_1249,
,,,,,,,,,,,,,,,,,,,,,12/4= ?,,,,,,,,,,,,,,,,,,,,0,77,77,89,,,,,,,,,,,,,,,,,,,,,moral_self_bias,07,20,59.9829817418,f,001,2018_Apr_02_1249,
,,,,,,,,,,,,,,,,,,,,,5+4= ?,,,,,,,,,,,,,,,,,,,,0,78,78,37,,,,,,,,,,,,,,,,,,,,,moral_self_bias,07,20,59.9829817418,f,001,2018_Apr_02_1249,
,,,,,,,,,,,,,,,,,,,,,8+1= ?,,,,,,,,,,,,,,,,,,,,0,79,79,48,,,,,,,,,,,,,,,,,,,,,moral_self_bias,07,20,59.9829817418,f,001,2018_Apr_02_1249,
,,,,,,,,,,,,,,,,,,,,,7-0= ?,,,,,,,,,,,,,,,,,,,,0,80,80,117,,,,,,,,,,,,,,,,,,,,,moral_self_bias,07,20,59.9829817418,f,001,2018_Apr_02_1249,
,,,,,,,,,,,,,,,,,,,,,18/2= ?,,,,,,,,,,,,,,,,,,,,0,81,81,97,,,,,,,,,,,,,,,,,,,,,moral_self_bias,07,20,59.9829817418,f,001,2018_Apr_02_1249,
,,,,,,,,,,,,,,,,,,,,,2+2= ?,,,,,,,,,,,,,,,,,,,,0,82,82,8,,,,,,,,,,,,,,,,,,,,,moral_self_bias,07,20,59.9829817418,f,001,2018_Apr_02_1249,
,,,,,,,,,,,,,,,,,,,,,13-9= ?,,,,,,,,,,,,,,,,,,,,0,83,83,92,,,,,,,,,,,,,,,,,,,,,moral_self_bias,07,20,59.9829817418,f,001,2018_Apr_02_1249,
,,,,,,,,,,,,,,,,,,,,,3+2= ?,,,,,,,,,,,,,,,,,,,,0,84,84,17,,,,,,,,,,,,,,,,,,,,,moral_self_bias,07,20,59.9829817418,f,001,2018_Apr_02_1249,
,,,,,,,,,,,,,,,,,,,,,6^0= ?,,,,,,,,,,,,,,,,,,,,0,85,85,114,,,,,,,,,,,,,,,,,,,,,moral_self_bias,07,20,59.9829817418,f,001,2018_Apr_02_1249,
,,,,,,,,,,,,,,,,,,,,,1*8= ?,,,,,,,,,,,,,,,,,,,,0,86,86,110,,,,,,,,,,,,,,,,,,,,,moral_self_bias,07,20,59.9829817418,f,001,2018_Apr_02_1249,
,,,,,,,,,,,,,,,,,,,,,3^2= ?,,,,,,,,,,,,,,,,,,,,0,87,87,50,,,,,,,,,,,,,,,,,,,,,moral_self_bias,07,20,59.9829817418,f,001,2018_Apr_02_1249,
,,,,,,,,,,,,,,,,,,,,,4*1= ?,,,,,,,,,,,,,,,,,,,,0,88,88,85,,,,,,,,,,,,,,,,,,,,,moral_self_bias,07,20,59.9829817418,f,001,2018_Apr_02_1249,
,,,,,,,,,,,,,,,,,,,,,12/12= ?,,,,,,,,,,,,,,,,,,,,0,89,89,91,,,,,,,,,,,,,,,,,,,,,moral_self_bias,07,20,59.9829817418,f,001,2018_Apr_02_1249,
,,,,,,,,,,,,,,,,,,,,,1+8= ?,,,,,,,,,,,,,,,,,,,,0,90,90,6,,,,,,,,,,,,,,,,,,,,,moral_self_bias,07,20,59.9829817418,f,001,2018_Apr_02_1249,
,,,,,,,,,,,,,,,,,,,,,9-7= ?,,,,,,,,,,,,,,,,,,,,0,91,91,30,,,,,,,,,,,,,,,,,,,,,moral_self_bias,07,20,59.9829817418,f,001,2018_Apr_02_1249,
,,,,,,,,,,,,,,,,,,,,,1^2= ?,,,,,,,,,,,,,,,,,,,,0,92,92,51,,,,,,,,,,,,,,,,,,,,,moral_self_bias,07,20,59.9829817418,f,001,2018_Apr_02_1249,
,,,,,,,,,,,,,,,,,,,,,2*4= ?,,,,,,,,,,,,,,,,,,,,0,93,93,84,,,,,,,,,,,,,,,,,,,,,moral_self_bias,07,20,59.9829817418,f,001,2018_Apr_02_1249,
,,,,,,,,,,,,,,,,,,,,,9/3= ?,,,,,,,,,,,,,,,,,,,,0,94,94,56,,,,,,,,,,,,,,,,,,,,,moral_self_bias,07,20,59.9829817418,f,001,2018_Apr_02_1249,
,,,,,,,,,,,,,,,,,,,,,1*9= ?,,,,,,,,,,,,,,,,,,,,0,95,95,109,,,,,,,,,,,,,,,,,,,,,moral_self_bias,07,20,59.9829817418,f,001,2018_Apr_02_1249,
,,,,,,,,,,,,,,,,,,,,,4^1= ?,,,,,,,,,,,,,,,,,,,,0,96,96,102,,,,,,,,,,,,,,,,,,,,,moral_self_bias,07,20,59.9829817418,f,001,2018_Apr_02_1249,
,,,,,,,,,,,,,,,,,,,,,3+5= ?,,,,,,,,,,,,,,,,,,,,0,97,97,20,,,,,,,,,,,,,,,,,,,,,moral_self_bias,07,20,59.9829817418,f,001,2018_Apr_02_1249,
,,,,,,,,,,,,,,,,,,,,,15-10=？,,,,,,,,,,,,,,,,,,,,0,98,98,61,,,,,,,,,,,,,,,,,,,,,moral_self_bias,07,20,59.9829817418,f,001,2018_Apr_02_1249,
,,,,,,,,,,,,,,,,,,,,,6*0= ?,,,,,,,,,,,,,,,,,,,,0,99,99,87,,,,,,,,,,,,,,,,,,,,,moral_self_bias,07,20,59.9829817418,f,001,2018_Apr_02_1249,
,,,,,,,,,,,,,,,,,,,,,18/9= ?,,,,,,,,,,,,,,,,,,,,0,100,100,96,,,,,,,,,,,,,,,,,,,,,moral_self_bias,07,20,59.9829817418,f,001,2018_Apr_02_1249,
,,,,,,,,,,,,,,,,,,,,,5+1= ?,,,,,,,,,,,,,,,,,,,,0,101,101,34,,,,,,,,,,,,,,,,,,,,,moral_self_bias,07,20,59.9829817418,f,001,2018_Apr_02_1249,
,,,,,,,,,,,,,,,,,,,,,4+1= ?,,,,,,,,,,,,,,,,,,,,0,102,102,25,,,,,,,,,,,,,,,,,,,,,moral_self_bias,07,20,59.9829817418,f,001,2018_Apr_02_1249,
,,,,,,,,,,,,,,,,,,,,,13-5= ?,,,,,,,,,,,,,,,,,,,,0,103,103,98,,,,,,,,,,,,,,,,,,,,,moral_self_bias,07,20,59.9829817418,f,001,2018_Apr_02_1249,
,,,,,,,,,,,,,,,,,,,,,7+1= ?,,,,,,,,,,,,,,,,,,,,0,104,104,46,,,,,,,,,,,,,,,,,,,,,moral_self_bias,07,20,59.9829817418,f,001,2018_Apr_02_1249,
,,,,,,,,,,,,,,,,,,,,,5+2= ?,,,,,,,,,,,,,,,,,,,,0,105,105,35,,,,,,,,,,,,,,,,,,,,,moral_self_bias,07,20,59.9829817418,f,001,2018_Apr_02_1249,
,,,,,,,,,,,,,,,,,,,,,9-8= ?,,,,,,,,,,,,,,,,,,,,0,106,106,31,,,,,,,,,,,,,,,,,,,,,moral_self_bias,07,20,59.9829817418,f,001,2018_Apr_02_1249,
,,,,,,,,,,,,,,,,,,,,,9-4= ?,,,,,,,,,,,,,,,,,,,,0,107,107,22,,,,,,,,,,,,,,,,,,,,,moral_self_bias,07,20,59.9829817418,f,001,2018_Apr_02_1249,
,,,,,,,,,,,,,,,,,,,,,11-3=？,,,,,,,,,,,,,,,,,,,,0,108,108,68,,,,,,,,,,,,,,,,,,,,,moral_self_bias,07,20,59.9829817418,f,001,2018_Apr_02_1249,
,,,,,,,,,,,,,,,,,,,,,9-9= ?,,,,,,,,,,,,,,,,,,,,0,109,109,32,,,,,,,,,,,,,,,,,,,,,moral_self_bias,07,20,59.9829817418,f,001,2018_Apr_02_1249,
,,,,,,,,,,,,,,,,,,,,,8/4= ?,,,,,,,,,,,,,,,,,,,,0,110,110,57,,,,,,,,,,,,,,,,,,,,,moral_self_bias,07,20,59.9829817418,f,001,2018_Apr_02_1249,
,,,,,,,,,,,,,,,,,,,,,8-5= ?,,,,,,,,,,,,,,,,,,,,0,111,111,41,,,,,,,,,,,,,,,,,,,,,moral_self_bias,07,20,59.9829817418,f,001,2018_Apr_02_1249,
,,,,,,,,,,,,,,,,,,,,,2+4= ?,,,,,,,,,,,,,,,,,,,,0,112,112,10,,,,,,,,,,,,,,,,,,,,,moral_self_bias,07,20,59.9829817418,f,001,2018_Apr_02_1249,
,,,,,,,,,,,,,,,,,,,,,21/3= ? ,,,,,,,,,,,,,,,,,,,,0,113,113,95,,,,,,,,,,,,,,,,,,,,,moral_self_bias,07,20,59.9829817418,f,001,2018_Apr_02_1249,
,,,,,,,,,,,,,,,,,,,,,32-23=？,,,,,,,,,,,,,,,,,,,,0,114,114,60,,,,,,,,,,,,,,,,,,,,,moral_self_bias,07,20,59.9829817418,f,001,2018_Apr_02_1249,
,,,,,,,,,,,,,,,,,,,,,32-32= ?,,,,,,,,,,,,,,,,,,,,0,115,115,80,,,,,,,,,,,,,,,,,,,,,moral_self_bias,07,20,59.9829817418,f,001,2018_Apr_02_1249,
,,,,,,,,,,,,,,,,,,,,,5+3= ?,,,,,,,,,,,,,,,,,,,,0,116,116,36,,,,,,,,,,,,,,,,,,,,,moral_self_bias,07,20,59.9829817418,f,001,2018_Apr_02_1249,
,,,,,,,,,,,,,,,,,,,,,3*2= ?,,,,,,,,,,,,,,,,,,,,0,117,117,53,,,,,,,,,,,,,,,,,,,,,moral_self_bias,07,20,59.9829817418,f,001,2018_Apr_02_1249,
,,,,,,,,,,,,,,,,,,,,,3+3= ?,,,,,,,,,,,,,,,,,,,,0,118,118,18,,,,,,,,,,,,,,,,,,,,,moral_self_bias,07,20,59.9829817418,f,001,2018_Apr_02_1249,
,,,,,,,,,,,,,,,,,,,,,8-6= ?,,,,,,,,,,,,,,,,,,,,0,119,119,42,,,,,,,,,,,,,,,,,,,,,moral_self_bias,07,20,59.9829817418,f,001,2018_Apr_02_1249,
,,,,,,,,,,,,,,,,,,,,,,,,,,,,,,,,,,,,,,,,,,,,,,,,,,,,,,,,,1,6.6548511982,,,,,,,moral_self_bias,07,20,59.9829817418,f,001,2018_Apr_02_1249,
,,,,,,,,,,,,,,,,,,,,,,material/169.png,1,颖悟,material/171.png,1,material/169.png,高效,1,f,f,f,2,2,2,颖悟,,,,,,,,,0,0,0,150,0,0,0,0,,,,,,,f,1,5.1744492054,j,0,12.3747348785,moral_self_bias,07,20,59.9829817418,f,001,2018_Apr_02_1249,
,,,,,,,,,,,,,,,,,,,,,,material/169.png,1,颖悟,material/171.png,1,material/169.png,高效,1,f,f,f,2,2,2,颖悟,,,,,,,,,0,0,0,150,,,,,,,,,,,,,,,,,moral_self_bias,07,20,59.9829817418,f,001,2018_Apr_02_1249,
,,,,,,,,,,,,,,,,,,,,,,material/146.png,2,小气,material/46.png,2,material/46.png,小气,2,j,j,j,1,1,1,自私,,,,,,,,,0,1,1,45,,,,,,,,,,,j,1,4.3871088028,,,,moral_self_bias,07,20,59.9829817418,f,001,2018_Apr_02_1249,
,,,,,,,,,,,,,,,,,,,,,,material/125.png,1,果敢,material/25.png,1,material/125.png,果断,1,j,j,j,2,2,2,果敢,,,,,,,,,0,2,2,24,0,0,0,0,,,,,,,f,0,1.57465195656,f,1,1.7514770031,moral_self_bias,07,20,59.9829817418,f,001,2018_Apr_02_1249,
,,,,,,,,,,,,,,,,,,,,,,material/125.png,1,果敢,material/25.png,1,material/125.png,果断,1,j,j,j,2,2,2,果敢,,,,,,,,,0,2,2,24,,,,,,,,,,,,,,,,,moral_self_bias,07,20,59.9829817418,f,001,2018_Apr_02_1249,
,,,,,,,,,,,,,,,,,,,,,,material/147.png,2,刻板,material/47.png,2,material/147.png,死板,2,j,j,j,2,2,2,刻板,,,,,,,,,0,3,3,46,,,,,,,,,,,j,1,4.32706403732,,,,moral_self_bias,07,20,59.9829817418,f,001,2018_Apr_02_1249,
,,,,,,,,,,,,,,,,,,,,,,material/13.png,1,廉明,material/113.png,1,material/113.png,廉明,1,f,f,f,1,1,1,廉洁,,,,,,,,,0,4,4,92,,,,,,,,,,,j,0,1.90828895569,,,,moral_self_bias,07,20,59.9829817418,f,001,2018_Apr_02_1249,
,,,,,,,,,,,,,,,,,,,,,,material/20.png,1,厉害,material/120.png,1,material/20.png,能干,1,f,f,f,2,2,2,厉害,,,,,,,,,0,5,5,99,0,0,0,0,,,,,,,f,1,1.12595796585,j,0,3.2677090168,moral_self_bias,07,20,59.9829817418,f,001,2018_Apr_02_1249,
,,,,,,,,,,,,,,,,,,,,,,material/20.png,1,厉害,material/120.png,1,material/20.png,能干,1,f,f,f,2,2,2,厉害,,,,,,,,,0,5,5,99,,,,,,,,,,,,,,,,,moral_self_bias,07,20,59.9829817418,f,001,2018_Apr_02_1249,
,,,,,,,,,,,,,,,,,,,,,,material/132.png,2,不忠,material/32.png,2,material/32.png,不忠,2,j,j,j,1,1,1,背叛,,,,,,,,,0,6,6,31,,,,,,,,,,,j,1,3.27481412888,,,,moral_self_bias,07,20,59.9829817418,f,001,2018_Apr_02_1249,
,,,,,,,,,,,,,,,,,,,,,,material/75.png,2,卑劣,material/74.png,2,material/74.png,卑劣,2,j,j,j,1,1,1,害人,,,,,,,,,0,7,7,70,,,,,,,,,,,j,1,1.65921187401,,,,moral_self_bias,07,20,59.9829817418,f,001,2018_Apr_02_1249,
,,,,,,,,,,,,,,,,,,,,,,material/175.png,2,残虐,material/73.png,2,material/73.png,残虐,2,f,f,f,1,1,1,无情,,,,,,,,,0,8,8,165,0,0,0,0,,,,,,,f,1,2.65040278435,f,1,1.73794794083,moral_self_bias,07,20,59.9829817418,f,001,2018_Apr_02_1249,
,,,,,,,,,,,,,,,,,,,,,,material/175.png,2,残虐,material/73.png,2,material/73.png,残虐,2,f,f,f,1,1,1,无情,,,,,,,,,0,8,8,165,,,,,,,,,,,,,,,,,moral_self_bias,07,20,59.9829817418,f,001,2018_Apr_02_1249,
,,,,,,,,,,,,,,,,,,,,,,material/48.png,2,愚蠢,material/148.png,2,material/48.png,笨蛋,2,f,f,f,2,2,2,愚蠢,,,,,,,,,0,9,9,127,,,,,,,,,,,j,0,1.55448412895,,,,moral_self_bias,07,20,59.9829817418,f,001,2018_Apr_02_1249,
,,,,,,,,,,,,,,,,,,,,,,material/154.png,2,依靠,material/54.png,2,material/154.png,依赖,2,j,j,j,2,2,2,依靠,,,,,,,,,0,10,10,53,0,0,0,0,,,,,,,f,0,2.92174100876,f,1,0.704784870148,moral_self_bias,07,20,59.9829817418,f,001,2018_Apr_02_1249,
,,,,,,,,,,,,,,,,,,,,,,material/154.png,2,依靠,material/54.png,2,material/154.png,依赖,2,j,j,j,2,2,2,依靠,,,,,,,,,0,10,10,53,,,,,,,,,,,,,,,,,moral_self_bias,07,20,59.9829817418,f,001,2018_Apr_02_1249,
,,,,,,,,,,,,,,,,,,,,,,material/69.png,1,高明,material/69.png,1,material/69.png,高明,1,f,f,f,2,2,2,高明,,,,,,,,,0,11,11,166,,,,,,,,,,,j,0,2.52497506142,,,,moral_self_bias,07,20,59.9829817418,f,001,2018_Apr_02_1249,
,,,,,,,,,,,,,,,,,,,,,,material/140.png,2,邪恶,material/40.png,2,material/40.png,邪恶,2,j,j,j,1,1,1,狠毒,,,,,,,,,0,12,12,39,0,0,0,0,,,,,,,f,0,2.4169011116,f,1,1.89136695862,moral_self_bias,07,20,59.9829817418,f,001,2018_Apr_02_1249,
,,,,,,,,,,,,,,,,,,,,,,material/140.png,2,邪恶,material/40.png,2,material/40.png,邪恶,2,j,j,j,1,1,1,狠毒,,,,,,,,,0,12,12,39,,,,,,,,,,,,,,,,,moral_self_bias,07,20,59.9829817418,f,001,2018_Apr_02_1249,
,,,,,,,,,,,,,,,,,,,,,,material/29.png,1,好学,material/129.png,1,material/29.png,好问,1,f,f,f,2,2,2,好学,,,,,,,,,0,13,13,108,0,0,0,0,,,,,,,f,1,2.10336494446,f,1,0.754057884216,moral_self_bias,07,20,59.9829817418,f,001,2018_Apr_02_1249,
,,,,,,,,,,,,,,,,,,,,,,material/29.png,1,好学,material/129.png,1,material/29.png,好问,1,f,f,f,2,2,2,好学,,,,,,,,,0,13,13,108,,,,,,,,,,,,,,,,,moral_self_bias,07,20,59.9829817418,f,001,2018_Apr_02_1249,
,,,,,,,,,,,,,,,,,,,,,,material/177.png,2,谄媚,material/72.png,2,material/72.png,谄媚,2,j,j,j,1,1,1,恶心,,,,,,,,,0,14,14,69,,,,,,,,,,,j,1,1.35121393204,,,,moral_self_bias,07,20,59.9829817418,f,001,2018_Apr_02_1249,
,,,,,,,,,,,,,,,,,,,,,,material/23.png,1,有才,material/123.png,1,material/23.png,多才,1,f,f,f,2,2,2,有才,,,,,,,,,0,15,15,102,0,0,0,0,,,,,,,f,1,1.17203307152,j,0,1.6382420063,moral_self_bias,07,20,59.9829817418,f,001,2018_Apr_02_1249,
,,,,,,,,,,,,,,,,,,,,,,material/23.png,1,有才,material/123.png,1,material/23.png,多才,1,f,f,f,2,2,2,有才,,,,,,,,,0,15,15,102,,,,,,,,,,,,,,,,,moral_self_bias,07,20,59.9829817418,f,001,2018_Apr_02_1249,
,,,,,,,,,,,,,,,,,,,,,,material/122.png,1,博学,material/22.png,1,material/122.png,才学,1,j,j,j,2,2,2,博学,,,,,,,,,0,16,16,21,0,0,0,0,,,,,,,f,0,2.90879893303,j,0,0.768094062805,moral_self_bias,07,20,59.9829817418,f,001,2018_Apr_02_1249,
,,,,,,,,,,,,,,,,,,,,,,material/122.png,1,博学,material/22.png,1,material/122.png,才学,1,j,j,j,2,2,2,博学,,,,,,,,,0,16,16,21,,,,,,,,,,,,,,,,,moral_self_bias,07,20,59.9829817418,f,001,2018_Apr_02_1249,
,,,,,,,,,,,,,,,,,,,,,,material/84.png,2,犹豫,material/84.png,2,material/181.png,顽愚,2,f,f,f,2,2,2,顽愚,,,,,,,,,0,17,17,167,0,0,0,0,,,,,,,f,1,1.85098791122,j,0,2.50561594963,moral_self_bias,07,20,59.9829817418,f,001,2018_Apr_02_1249,
,,,,,,,,,,,,,,,,,,,,,,material/84.png,2,犹豫,material/84.png,2,material/181.png,顽愚,2,f,f,f,2,2,2,顽愚,,,,,,,,,0,17,17,167,,,,,,,,,,,,,,,,,moral_self_bias,07,20,59.9829817418,f,001,2018_Apr_02_1249,
,,,,,,,,,,,,,,,,,,,,,,material/176.png,2,害人,material/75.png,2,material/75.png,害人,2,j,j,j,1,1,1,放纵,,,,,,,,,0,18,18,71,,,,,,,,,,,j,1,1.62090587616,,,,moral_self_bias,07,20,59.9829817418,f,001,2018_Apr_02_1249,
,,,,,,,,,,,,,,,,,,,,,,material/123.png,1,多才,material/23.png,1,material/123.png,有才,1,j,j,j,2,2,2,多才,,,,,,,,,0,19,19,22,0,0,0,0,,,,,,,f,0,2.8578710556,j,0,1.90854597092,moral_self_bias,07,20,59.9829817418,f,001,2018_Apr_02_1249,
,,,,,,,,,,,,,,,,,,,,,,material/123.png,1,多才,material/23.png,1,material/123.png,有才,1,j,j,j,2,2,2,多才,,,,,,,,,0,19,19,22,,,,,,,,,,,,,,,,,moral_self_bias,07,20,59.9829817418,f,001,2018_Apr_02_1249,
,,,,,,,,,,,,,,,,,,,,,,material/52.png,2,拖延,material/152.png,2,material/52.png,缓慢,2,f,f,f,2,2,2,拖延,,,,,,,,,0,20,20,131,0,0,0,0,,,,,,,f,1,1.54265403748,f,1,2.0903069973,moral_self_bias,07,20,59.9829817418,f,001,2018_Apr_02_1249,
,,,,,,,,,,,,,,,,,,,,,,material/52.png,2,拖延,material/152.png,2,material/52.png,缓慢,2,f,f,f,2,2,2,拖延,,,,,,,,,0,20,20,131,,,,,,,,,,,,,,,,,moral_self_bias,07,20,59.9829817418,f,001,2018_Apr_02_1249,
,,,,,,,,,,,,,,,,,,,,,,material/80.png,2,才尽,material/83.png,2,material/182.png,呆笨,2,j,j,j,2,2,2,健忘,,,,,,,,,0,21,21,79,,,,,,,,,,,j,1,1.45823097229,,,,moral_self_bias,07,20,59.9829817418,f,001,2018_Apr_02_1249,
,,,,,,,,,,,,,,,,,,,,,,material/102.png,1,善心,material/2.png,1,material/2.png,善心,1,j,j,j,1,1,1,爱心,,,,,,,,,0,22,22,1,,,,,,,,,,,j,1,1.35758209229,,,,moral_self_bias,07,20,59.9829817418,f,001,2018_Apr_02_1249,
,,,,,,,,,,,,,,,,,,,,,,material/27.png,1,卓越,material/127.png,1,material/27.png,超群,1,f,f,f,2,2,2,卓越,,,,,,,,,0,23,23,106,0,0,0,0,,,,,,,f,1,1.80836606026,j,0,3.24151802063,moral_self_bias,07,20,59.9829817418,f,001,2018_Apr_02_1249,
,,,,,,,,,,,,,,,,,,,,,,material/27.png,1,卓越,material/127.png,1,material/27.png,超群,1,f,f,f,2,2,2,卓越,,,,,,,,,0,23,23,106,,,,,,,,,,,,,,,,,moral_self_bias,07,20,59.9829817418,f,001,2018_Apr_02_1249,
,,,,,,,,,,,,,,,,,,,,,,material/64.png,1,谦虚,material/165.png,1,material/65.png,独立,1,f,f,f,1,1,1,奉献,,,,,,,,,0,24,24,144,0,0,0,0,,,,,,,f,1,1.10857796669,f,1,0.992112159729,moral_self_bias,07,20,59.9829817418,f,001,2018_Apr_02_1249,
,,,,,,,,,,,,,,,,,,,,,,material/64.png,1,谦虚,material/165.png,1,material/65.png,独立,1,f,f,f,1,1,1,奉献,,,,,,,,,0,24,24,144,,,,,,,,,,,,,,,,,moral_self_bias,07,20,59.9829817418,f,001,2018_Apr_02_1249,
,,,,,,,,,,,,,,,,,,,,,,material/71.png,1,严谨,material/68.png,1,material/71.png,广博,1,j,j,j,2,2,2,严谨,,,,,,,,,0,25,25,66,,,,,,,,,,,j,1,1.75805497169,,,,moral_self_bias,07,20,59.9829817418,f,001,2018_Apr_02_1249,
,,,,,,,,,,,,,,,,,,,,,,material/114.png,1,爱国,material/14.png,1,material/14.png,爱国,1,j,j,j,1,1,1,忠贞,,,,,,,,,0,26,26,13,,,,,,,,,,,j,1,1.208725214,,,,moral_self_bias,07,20,59.9829817418,f,001,2018_Apr_02_1249,
,,,,,,,,,,,,,,,,,,,,,,material/25.png,1,果断,material/125.png,1,material/25.png,果敢,1,f,f,f,2,2,2,果断,,,,,,,,,0,27,27,104,0,0,0,0,,,,,,,f,1,1.10840010643,f,1,0.658613920212,moral_self_bias,07,20,59.9829817418,f,001,2018_Apr_02_1249,
,,,,,,,,,,,,,,,,,,,,,,material/25.png,1,果断,material/125.png,1,material/25.png,果敢,1,f,f,f,2,2,2,果断,,,,,,,,,0,27,27,104,,,,,,,,,,,,,,,,,moral_self_bias,07,20,59.9829817418,f,001,2018_Apr_02_1249,
,,,,,,,,,,,,,,,,,,,,,,material/18.png,1,敏锐,material/118.png,1,material/18.png,机敏,1,f,f,f,2,2,2,敏锐,,,,,,,,,0,28,28,97,0,0,0,0,,,,,,,f,1,2.33766007423,j,0,0.521856069565,moral_self_bias,07,20,59.9829817418,f,001,2018_Apr_02_1249,
,,,,,,,,,,,,,,,,,,,,,,material/18.png,1,敏锐,material/118.png,1,material/18.png,机敏,1,f,f,f,2,2,2,敏锐,,,,,,,,,0,28,28,97,,,,,,,,,,,,,,,,,moral_self_bias,07,20,59.9829817418,f,001,2018_Apr_02_1249,
,,,,,,,,,,,,,,,,,,,,,,material/164.png,1,宽容,material/63.png,1,material/163.png,文明,1,j,j,j,1,1,1,孝顺,,,,,,,,,0,29,29,62,,,,,,,,,,,j,1,0.950026988983,,,,moral_self_bias,07,20,59.9829817418,f,001,2018_Apr_02_1249,
,,,,,,,,,,,,,,,,,,,,,,material/26.png,1,刻苦,material/126.png,1,material/26.png,勤快,1,f,f,f,2,2,2,刻苦,,,,,,,,,0,30,30,105,0,0,0,0,,,,,,,f,1,2.13417387009,j,0,0.43839097023,moral_self_bias,07,20,59.9829817418,f,001,2018_Apr_02_1249,
,,,,,,,,,,,,,,,,,,,,,,material/26.png,1,刻苦,material/126.png,1,material/26.png,勤快,1,f,f,f,2,2,2,刻苦,,,,,,,,,0,30,30,105,,,,,,,,,,,,,,,,,moral_self_bias,07,20,59.9829817418,f,001,2018_Apr_02_1249,
,,,,,,,,,,,,,,,,,,,,,,material/184.png,2,草率,material/80.png,2,material/78.png,健忘,2,j,j,j,2,2,2,厌学,,,,,,,,,0,31,31,76,,,,,,,,,,,j,1,0.83633685112,,,,moral_self_bias,07,20,59.9829817418,f,001,2018_Apr_02_1249,
,,,,,,,,,,,,,,,,,,,,,,material/128.png,1,自律,material/28.png,1,material/128.png,克己,1,j,j,j,2,2,2,自律,,,,,,,,,0,32,32,27,,,,,,,,,,,j,1,0.724920988083,,,,moral_self_bias,07,20,59.9829817418,f,001,2018_Apr_02_1249,
,,,,,,,,,,,,,,,,,,,,,,material/74.png,2,黑心,material/173.png,2,material/173.png,黑心,2,f,f,f,1,1,1,卑劣,,,,,,,,,0,33,33,152,0,0,0,0,,,,,,,f,1,1.18072390556,f,1,0.888512134552,moral_self_bias,07,20,59.9829817418,f,001,2018_Apr_02_1249,
,,,,,,,,,,,,,,,,,,,,,,material/74.png,2,黑心,material/173.png,2,material/173.png,黑心,2,f,f,f,1,1,1,卑劣,,,,,,,,,0,33,33,152,,,,,,,,,,,,,,,,,moral_self_bias,07,20,59.9829817418,f,001,2018_Apr_02_1249,
,,,,,,,,,,,,,,,,,,,,,,material/28.png,1,克己,material/128.png,1,material/28.png,自律,1,f,f,f,2,2,2,克己,,,,,,,,,0,34,34,107,0,0,0,0,,,,,,,f,1,2.85585904121,f,1,0.355679988861,moral_self_bias,07,20,59.9829817418,f,001,2018_Apr_02_1249,
,,,,,,,,,,,,,,,,,,,,,,material/28.png,1,克己,material/128.png,1,material/28.png,自律,1,f,f,f,2,2,2,克己,,,,,,,,,0,34,34,107,,,,,,,,,,,,,,,,,moral_self_bias,07,20,59.9829817418,f,001,2018_Apr_02_1249,
,,,,,,,,,,,,,,,,,,,,,,material/163.png,1,文明,material/163.png,1,material/63.png,宽容,1,f,f,f,1,1,1,宽容,,,,,,,,,0,35,35,142,,,,,,,,,,,j,0,2.72189593315,,,,moral_self_bias,07,20,59.9829817418,f,001,2018_Apr_02_1249,
,,,,,,,,,,,,,,,,,,,,,,material/83.png,2,差生,material/78.png,2,material/179.png,草率,2,j,j,j,2,2,2,呆笨,,,,,,,,,0,36,36,74,,,,,,,,,,,j,1,1.8039829731,,,,moral_self_bias,07,20,59.9829817418,f,001,2018_Apr_02_1249,
,,,,,,,,,,,,,,,,,,,,,,material/160.png,2,笨拙,material/60.png,2,material/160.png,粗拙,2,j,j,j,2,2,2,笨拙,,,,,,,,,0,37,37,59,,,,,,,,,,,j,1,0.774269104004,,,,moral_self_bias,07,20,59.9829817418,f,001,2018_Apr_02_1249,
,,,,,,,,,,,,,,,,,,,,,,material/143.png,2,拜金,material/43.png,2,material/43.png,拜金,2,j,j,j,1,1,1,虚荣,,,,,,,,,0,38,38,42,,,,,,,,,,,j,1,0.658397912979,,,,moral_self_bias,07,20,59.9829817418,f,001,2018_Apr_02_1249,
,,,,,,,,,,,,,,,,,,,,,,material/4.png,1,友善,material/104.png,1,material/104.png,友善,1,f,f,f,1,1,1,友爱,,,,,,,,,0,39,39,83,0,0,0,0,,,,,,,f,1,1.99149179459,f,1,0.259114027023,moral_self_bias,07,20,59.9829817418,f,001,2018_Apr_02_1249,
,,,,,,,,,,,,,,,,,,,,,,material/4.png,1,友善,material/104.png,1,material/104.png,友善,1,f,f,f,1,1,1,友爱,,,,,,,,,0,39,39,83,,,,,,,,,,,,,,,,,moral_self_bias,07,20,59.9829817418,f,001,2018_Apr_02_1249,
,,,,,,,,,,,,,,,,,,,,,,material/30.png,1,上进,material/130.png,1,material/30.png,进取,1,f,f,f,2,2,2,上进,,,,,,,,,0,40,40,109,0,0,0,0,,,,,,,f,1,1.39230298996,f,1,2.07486009598,moral_self_bias,07,20,59.9829817418,f,001,2018_Apr_02_1249,
,,,,,,,,,,,,,,,,,,,,,,material/30.png,1,上进,material/130.png,1,material/30.png,进取,1,f,f,f,2,2,2,上进,,,,,,,,,0,40,40,109,,,,,,,,,,,,,,,,,moral_self_bias,07,20,59.9829817418,f,001,2018_Apr_02_1249,
,,,,,,,,,,,,,,,,,,,,,,material/155.png,2,盲目,material/55.png,2,material/155.png,盲从,2,j,j,j,2,2,2,盲目,,,,,,,,,0,41,41,54,0,0,0,0,,,,,,,f,0,2.50864386559,j,0,2.51704001427,moral_self_bias,07,20,59.9829817418,f,001,2018_Apr_02_1249,
,,,,,,,,,,,,,,,,,,,,,,material/155.png,2,盲目,material/55.png,2,material/155.png,盲从,2,j,j,j,2,2,2,盲目,,,,,,,,,0,41,41,54,,,,,,,,,,,,,,,,,moral_self_bias,07,20,59.9829817418,f,001,2018_Apr_02_1249,
,,,,,,,,,,,,,,,,,,,,,,material/10.png,1,坚毅,material/110.png,1,material/110.png,坚毅,1,f,f,f,1,1,1,顽强,,,,,,,,,0,42,42,89,0,0,0,0,,,,,,,f,1,0.904945850372,j,0,0.604802846909,moral_self_bias,07,20,59.9829817418,f,001,2018_Apr_02_1249,
,,,,,,,,,,,,,,,,,,,,,,material/10.png,1,坚毅,material/110.png,1,material/110.png,坚毅,1,f,f,f,1,1,1,顽强,,,,,,,,,0,42,42,89,,,,,,,,,,,,,,,,,moral_self_bias,07,20,59.9829817418,f,001,2018_Apr_02_1249,
,,,,,,,,,,,,,,,,,,,,,,material/19.png,1,灵活,material/119.png,1,material/19.png,机灵,1,f,f,f,2,2,2,灵活,,,,,,,,,0,43,43,98,0,0,0,0,,,,,,,f,1,1.07111001015,j,0,3.90094709396,moral_self_bias,07,20,59.9829817418,f,001,2018_Apr_02_1249,
,,,,,,,,,,,,,,,,,,,,,,material/19.png,1,灵活,material/119.png,1,material/19.png,机灵,1,f,f,f,2,2,2,灵活,,,,,,,,,0,43,43,98,,,,,,,,,,,,,,,,,moral_self_bias,07,20,59.9829817418,f,001,2018_Apr_02_1249,
,,,,,,,,,,,,,,,,,,,,,,material/44.png,2,爽约,material/144.png,2,material/144.png,爽约,2,f,f,f,1,1,1,失信,,,,,,,,,0,44,44,123,0,0,0,0,,,,,,,f,1,1.37449502945,j,0,0.408502101898,moral_self_bias,07,20,59.9829817418,f,001,2018_Apr_02_1249,
,,,,,,,,,,,,,,,,,,,,,,material/44.png,2,爽约,material/144.png,2,material/144.png,爽约,2,f,f,f,1,1,1,失信,,,,,,,,,0,44,44,123,,,,,,,,,,,,,,,,,moral_self_bias,07,20,59.9829817418,f,001,2018_Apr_02_1249,
,,,,,,,,,,,,,,,,,,,,,,material/79.png,2,薄弱,material/81.png,2,material/183.png,无助,2,j,j,j,2,2,2,颓废,,,,,,,,,0,45,45,77,,,,,,,,,,,j,1,3.18363189697,,,,moral_self_bias,07,20,59.9829817418,f,001,2018_Apr_02_1249,
,,,,,,,,,,,,,,,,,,,,,,material/159.png,2,弱智,material/59.png,2,material/159.png,智障,2,j,j,j,2,2,2,弱智,,,,,,,,,0,46,46,58,,,,,,,,,,,j,1,4.60662794113,,,,moral_self_bias,07,20,59.9829817418,f,001,2018_Apr_02_1249,
,,,,,,,,,,,,,,,,,,,,,,material/174.png,2,虚伪,material/76.png,2,material/76.png,虚伪,2,j,j,j,1,1,1,不义,,,,,,,,,0,47,47,72,0,0,0,0,,,,,,,f,0,0.78672504425,f,1,2.00481295586,moral_self_bias,07,20,59.9829817418,f,001,2018_Apr_02_1249,
,,,,,,,,,,,,,,,,,,,,,,material/174.png,2,虚伪,material/76.png,2,material/76.png,虚伪,2,j,j,j,1,1,1,不义,,,,,,,,,0,47,47,72,,,,,,,,,,,,,,,,,moral_self_bias,07,20,59.9829817418,f,001,2018_Apr_02_1249,
,,,,,,,,,,,,,,,,,,,,,,material/118.png,1,机敏,material/18.png,1,material/118.png,敏锐,1,j,j,j,2,2,2,机敏,,,,,,,,,0,48,48,17,,,,,,,,,,,j,1,7.20385813713,,,,moral_self_bias,07,20,59.9829817418,f,001,2018_Apr_02_1249,
,,,,,,,,,,,,,,,,,,,,,,material/55.png,2,盲从,material/155.png,2,material/55.png,盲目,2,f,f,f,2,2,2,盲从,,,,,,,,,0,49,49,134,0,0,0,0,,,,,,,f,1,0.722095966339,f,1,0.920684099197,moral_self_bias,07,20,59.9829817418,f,001,2018_Apr_02_1249,
,,,,,,,,,,,,,,,,,,,,,,material/55.png,2,盲从,material/155.png,2,material/55.png,盲目,2,f,f,f,2,2,2,盲从,,,,,,,,,0,49,49,134,,,,,,,,,,,,,,,,,moral_self_bias,07,20,59.9829817418,f,001,2018_Apr_02_1249,
,,,,,,,,,,,,,,,,,,,,,,material/130.png,1,进取,material/30.png,1,material/130.png,上进,1,j,j,j,2,2,2,进取,,,,,,,,,0,50,50,29,,,,,,,,,,,j,1,1.66826105118,,,,moral_self_bias,07,20,59.9829817418,f,001,2018_Apr_02_1249,
,,,,,,,,,,,,,,,,,,,,,,material/70.png,1,全面,material/168.png,1,material/70.png,机变,1,f,f,f,2,2,2,全面,,,,,,,,,0,51,51,147,0,0,0,0,,,,,,,f,1,1.04206180573,j,0,1.76181006432,moral_self_bias,07,20,59.9829817418,f,001,2018_Apr_02_1249,
,,,,,,,,,,,,,,,,,,,,,,material/70.png,1,全面,material/168.png,1,material/70.png,机变,1,f,f,f,2,2,2,全面,,,,,,,,,0,51,51,147,,,,,,,,,,,,,,,,,moral_self_bias,07,20,59.9829817418,f,001,2018_Apr_02_1249,
,,,,,,,,,,,,,,,,,,,,,,material/103.png,1,仁慈,material/3.png,1,material/3.png,仁慈,1,j,j,j,1,1,1,仁厚,,,,,,,,,0,52,52,2,,,,,,,,,,,j,1,4.73801779747,,,,moral_self_bias,07,20,59.9829817418,f,001,2018_Apr_02_1249,
,,,,,,,,,,,,,,,,,,,,,,material/3.png,1,仁厚,material/103.png,1,material/103.png,仁厚,1,f,f,f,1,1,1,仁慈,,,,,,,,,0,53,53,82,0,0,0,0,,,,,,,f,1,0.92190694809,j,0,1.42063093185,moral_self_bias,07,20,59.9829817418,f,001,2018_Apr_02_1249,
,,,,,,,,,,,,,,,,,,,,,,material/3.png,1,仁厚,material/103.png,1,material/103.png,仁厚,1,f,f,f,1,1,1,仁慈,,,,,,,,,0,53,53,82,,,,,,,,,,,,,,,,,moral_self_bias,07,20,59.9829817418,f,001,2018_Apr_02_1249,
,,,,,,,,,,,,,,,,,,,,,,material/117.png,1,聪颖,material/17.png,1,material/117.png,聪明,1,j,j,j,2,2,2,聪颖,,,,,,,,,0,54,54,16,,,,,,,,,,,j,1,2.10679912567,,,,moral_self_bias,07,20,59.9829817418,f,001,2018_Apr_02_1249,
,,,,,,,,,,,,,,,,,,,,,,material/151.png,2,迷糊,material/51.png,2,material/151.png,糊涂,2,j,j,j,2,2,2,迷糊,,,,,,,,,0,55,55,50,,,,,,,,,,,j,1,1.10917401314,,,,moral_self_bias,07,20,59.9829817418,f,001,2018_Apr_02_1249,
,,,,,,,,,,,,,,,,,,,,,,material/172.png,2,无情,material/175.png,2,material/175.png,无情,2,f,f,f,1,1,1,浮夸,,,,,,,,,0,56,56,154,0,0,0,0,,,,,,,f,1,0.792016029358,f,1,1.80924105644,moral_self_bias,07,20,59.9829817418,f,001,2018_Apr_02_1249,
,,,,,,,,,,,,,,,,,,,,,,material/172.png,2,无情,material/175.png,2,material/175.png,无情,2,f,f,f,1,1,1,浮夸,,,,,,,,,0,56,56,154,,,,,,,,,,,,,,,,,moral_self_bias,07,20,59.9829817418,f,001,2018_Apr_02_1249,
,,,,,,,,,,,,,,,,,,,,,,material/33.png,2,贪污,material/133.png,2,material/133.png,贪污,2,f,f,f,1,1,1,腐败,,,,,,,,,0,57,57,112,0,0,0,0,,,,,,,f,1,2.12472295761,f,1,1.45929098129,moral_self_bias,07,20,59.9829817418,f,001,2018_Apr_02_1249,
,,,,,,,,,,,,,,,,,,,,,,material/33.png,2,贪污,material/133.png,2,material/133.png,贪污,2,f,f,f,1,1,1,腐败,,,,,,,,,0,57,57,112,,,,,,,,,,,,,,,,,moral_self_bias,07,20,59.9829817418,f,001,2018_Apr_02_1249,
,,,,,,,,,,,,,,,,,,,,,,material/158.png,2,浅薄,material/58.png,2,material/158.png,肤浅,2,j,j,j,2,2,2,浅薄,,,,,,,,,0,58,58,57,,,,,,,,,,,j,1,1.34157705307,,,,moral_self_bias,07,20,59.9829817418,f,001,2018_Apr_02_1249,
,,,,,,,,,,,,,,,,,,,,,,material/133.png,2,腐败,material/33.png,2,material/33.png,腐败,2,j,j,j,1,1,1,贪污,,,,,,,,,0,59,59,32,,,,,,,,,,,j,1,0.753437042236,,,,moral_self_bias,07,20,59.9829817418,f,001,2018_Apr_02_1249,
,,,,,,,,,,,,,,,,,,,,,,material/67.png,1,骁勇,material/70.png,1,material/67.png,全面,1,j,j,j,2,2,2,骁勇,,,,,,,,,0,60,60,67,,,,,,,,,,,j,1,0.820936918259,,,,moral_self_bias,07,20,59.9829817418,f,001,2018_Apr_02_1249,
,,,,,,,,,,,,,,,,,,,,,,material/124.png,1,冷静,material/24.png,1,material/124.png,理智,1,j,j,j,2,2,2,冷静,,,,,,,,,0,61,61,23,,,,,,,,,,,j,1,1.93743014336,,,,moral_self_bias,07,20,59.9829817418,f,001,2018_Apr_02_1249,
,,,,,,,,,,,,,,,,,,,,,,material/126.png,1,勤快,material/26.png,1,material/126.png,刻苦,1,j,j,j,2,2,2,勤快,,,,,,,,,0,62,62,25,0,0,0,0,,,,,,,f,0,2.37086892128,f,1,0.420613050461,moral_self_bias,07,20,59.9829817418,f,001,2018_Apr_02_1249,
,,,,,,,,,,,,,,,,,,,,,,material/126.png,1,勤快,material/26.png,1,material/126.png,刻苦,1,j,j,j,2,2,2,勤快,,,,,,,,,0,62,62,25,,,,,,,,,,,,,,,,,moral_self_bias,07,20,59.9829817418,f,001,2018_Apr_02_1249,
,,,,,,,,,,,,,,,,,,,,,,material/170.png,1,坚忍,material/71.png,1,material/170.png,严谨,1,j,j,j,2,2,2,坚忍,,,,,,,,,0,63,63,68,,,,,,,,,,,j,1,3.88455295563,,,,moral_self_bias,07,20,59.9829817418,f,001,2018_Apr_02_1249,
,,,,,,,,,,,,,,,,,,,,,,material/36.png,2,撒谎,material/136.png,2,material/136.png,撒谎,2,f,f,f,1,1,1,说谎,,,,,,,,,0,64,64,115,0,0,0,0,,,,,,,f,1,1.05808901787,f,1,1.10409784317,moral_self_bias,07,20,59.9829817418,f,001,2018_Apr_02_1249,
,,,,,,,,,,,,,,,,,,,,,,material/36.png,2,撒谎,material/136.png,2,material/136.png,撒谎,2,f,f,f,1,1,1,说谎,,,,,,,,,0,64,64,115,,,,,,,,,,,,,,,,,moral_self_bias,07,20,59.9829817418,f,001,2018_Apr_02_1249,
,,,,,,,,,,,,,,,,,,,,,,material/65.png,1,勇敢,material/61.png,1,material/161.png,平等,1,j,j,j,1,1,1,谦虚,,,,,,,,,0,65,65,60,,,,,,,,,,,j,1,1.17492985725,,,,moral_self_bias,07,20,59.9829817418,f,001,2018_Apr_02_1249,
,,,,,,,,,,,,,,,,,,,,,,material/8.png,1,无私,material/108.png,1,material/108.png,无私,1,f,f,f,1,1,1,公道,,,,,,,,,0,66,66,87,0,0,0,0,,,,,,,f,1,6.77515888214,j,0,0.62557888031,moral_self_bias,07,20,59.9829817418,f,001,2018_Apr_02_1249,
,,,,,,,,,,,,,,,,,,,,,,material/8.png,1,无私,material/108.png,1,material/108.png,无私,1,f,f,f,1,1,1,公道,,,,,,,,,0,66,66,87,,,,,,,,,,,,,,,,,moral_self_bias,07,20,59.9829817418,f,001,2018_Apr_02_1249,
,,,,,,,,,,,,,,,,,,,,,,material/173.png,2,不义,material/174.png,2,material/174.png,不义,2,f,f,f,1,1,1,黑心,,,,,,,,,0,67,67,153,0,0,0,0,,,,,,,f,1,2.58422207832,j,0,0.373547077179,moral_self_bias,07,20,59.9829817418,f,001,2018_Apr_02_1249,
,,,,,,,,,,,,,,,,,,,,,,material/173.png,2,不义,material/174.png,2,material/174.png,不义,2,f,f,f,1,1,1,黑心,,,,,,,,,0,67,67,153,,,,,,,,,,,,,,,,,moral_self_bias,07,20,59.9829817418,f,001,2018_Apr_02_1249,
,,,,,,,,,,,,,,,,,,,,,,material/119.png,1,机灵,material/19.png,1,material/119.png,灵活,1,j,j,j,2,2,2,机灵,,,,,,,,,0,68,68,18,,,,,,,,,,,j,1,1.16352701187,,,,moral_self_bias,07,20,59.9829817418,f,001,2018_Apr_02_1249,
,,,,,,,,,,,,,,,,,,,,,,material/9.png,1,正直,material/109.png,1,material/109.png,正直,1,f,f,f,1,1,1,秉直,,,,,,,,,0,69,69,88,0,0,0,0,,,,,,,f,1,1.00835299492,j,0,1.6090400219,moral_self_bias,07,20,59.9829817418,f,001,2018_Apr_02_1249,
,,,,,,,,,,,,,,,,,,,,,,material/9.png,1,正直,material/109.png,1,material/109.png,正直,1,f,f,f,1,1,1,秉直,,,,,,,,,0,69,69,88,,,,,,,,,,,,,,,,,moral_self_bias,07,20,59.9829817418,f,001,2018_Apr_02_1249,
,,,,,,,,,,,,,,,,,,,,,,material/63.png,1,正义,material/166.png,1,material/66.png,仗义,1,f,f,f,1,1,1,文明,,,,,,,,,0,70,70,145,0,0,0,0,,,,,,,f,1,2.00817704201,j,0,2.2754471302,moral_self_bias,07,20,59.9829817418,f,001,2018_Apr_02_1249,
,,,,,,,,,,,,,,,,,,,,,,material/63.png,1,正义,material/166.png,1,material/66.png,仗义,1,f,f,f,1,1,1,文明,,,,,,,,,0,70,70,145,,,,,,,,,,,,,,,,,moral_self_bias,07,20,59.9829817418,f,001,2018_Apr_02_1249,
,,,,,,,,,,,,,,,,,,,,,,material/60.png,2,粗拙,material/160.png,2,material/60.png,笨拙,2,f,f,f,2,2,2,粗拙,,,,,,,,,0,71,71,139,0,0,0,0,,,,,,,f,1,1.27576804161,j,0,2.2409799099,moral_self_bias,07,20,59.9829817418,f,001,2018_Apr_02_1249,
,,,,,,,,,,,,,,,,,,,,,,material/60.png,2,粗拙,material/160.png,2,material/60.png,笨拙,2,f,f,f,2,2,2,粗拙,,,,,,,,,0,71,71,139,,,,,,,,,,,,,,,,,moral_self_bias,07,20,59.9829817418,f,001,2018_Apr_02_1249,
,,,,,,,,,,,,,,,,,,,,,,material/54.png,2,依赖,material/154.png,2,material/54.png,依靠,2,f,f,f,2,2,2,依赖,,,,,,,,,0,72,72,133,0,0,0,0,,,,,,,f,1,1.12385296822,f,1,0.574934005737,moral_self_bias,07,20,59.9829817418,f,001,2018_Apr_02_1249,
,,,,,,,,,,,,,,,,,,,,,,material/54.png,2,依赖,material/154.png,2,material/54.png,依靠,2,f,f,f,2,2,2,依赖,,,,,,,,,0,72,72,133,,,,,,,,,,,,,,,,,moral_self_bias,07,20,59.9829817418,f,001,2018_Apr_02_1249,
,,,,,,,,,,,,,,,,,,,,,,material/39.png,2,恶毒,material/139.png,2,material/139.png,恶毒,2,f,f,f,1,1,1,凶残,,,,,,,,,0,73,73,118,0,0,0,0,,,,,,,f,1,1.47419190407,f,1,0.500344991684,moral_self_bias,07,20,59.9829817418,f,001,2018_Apr_02_1249,
,,,,,,,,,,,,,,,,,,,,,,material/39.png,2,恶毒,material/139.png,2,material/139.png,恶毒,2,f,f,f,1,1,1,凶残,,,,,,,,,0,73,73,118,,,,,,,,,,,,,,,,,moral_self_bias,07,20,59.9829817418,f,001,2018_Apr_02_1249,
,,,,,,,,,,,,,,,,,,,,,,material/139.png,2,凶残,material/39.png,2,material/39.png,凶残,2,j,j,j,1,1,1,恶毒,,,,,,,,,0,74,74,38,,,,,,,,,,,j,1,2.09118413925,,,,moral_self_bias,07,20,59.9829817418,f,001,2018_Apr_02_1249,
,,,,,,,,,,,,,,,,,,,,,,material/106.png,1,诚实,material/6.png,1,material/6.png,诚实,1,j,j,j,1,1,1,厚道,,,,,,,,,0,75,75,5,,,,,,,,,,,j,1,4.28734993935,,,,moral_self_bias,07,20,59.9829817418,f,001,2018_Apr_02_1249,
,,,,,,,,,,,,,,,,,,,,,,material/43.png,2,虚荣,material/143.png,2,material/143.png,虚荣,2,f,f,f,1,1,1,拜金,,,,,,,,,0,76,76,122,,,,,,,,,,,j,0,7.54054689407,,,,moral_self_bias,07,20,59.9829817418,f,001,2018_Apr_02_1249,
,,,,,,,,,,,,,,,,,,,,,,material/41.png,2,残忍,material/141.png,2,material/141.png,残忍,2,f,f,f,1,1,1,歹毒,,,,,,,,,0,77,77,120,0,0,0,0,,,,,,,f,1,0.775656223297,f,1,1.14166307449,moral_self_bias,07,20,59.9829817418,f,001,2018_Apr_02_1249,
,,,,,,,,,,,,,,,,,,,,,,material/41.png,2,残忍,material/141.png,2,material/141.png,残忍,2,f,f,f,1,1,1,歹毒,,,,,,,,,0,77,77,120,,,,,,,,,,,,,,,,,moral_self_bias,07,20,59.9829817418,f,001,2018_Apr_02_1249,
,,,,,,,,,,,,,,,,,,,,,,material/77.png,2,浮夸,material/172.png,2,material/172.png,浮夸,2,f,f,f,1,1,1,软弱,,,,,,,,,0,78,78,151,,,,,,,,,,,j,0,0.924479007721,,,,moral_self_bias,07,20,59.9829817418,f,001,2018_Apr_02_1249,
,,,,,,,,,,,,,,,,,,,,,,material/49.png,2,痴呆,material/149.png,2,material/49.png,白痴,2,f,f,f,2,2,2,痴呆,,,,,,,,,0,79,79,128,,,,,,,,,,,j,0,1.4676759243,,,,moral_self_bias,07,20,59.9829817418,f,001,2018_Apr_02_1249,
,,,,,,,,,,,,,,,,,,,,,,material/101.png,1,善良,material/1.png,1,material/1.png,善良,1,j,j,j,1,1,1,博爱,,,,,,,,,0,80,80,0,,,,,,,,,,,j,1,0.937211990356,,,,moral_self_bias,07,20,59.9829817418,f,001,2018_Apr_02_1249,
,,,,,,,,,,,,,,,,,,,,,,material/156.png,2,愚钝,material/56.png,2,material/156.png,愚昧,2,j,j,j,2,2,2,愚钝,,,,,,,,,0,81,81,55,,,,,,,,,,,j,1,0.874701023102,,,,moral_self_bias,07,20,59.9829817418,f,001,2018_Apr_02_1249,
,,,,,,,,,,,,,,,,,,,,,,material/153.png,2,迟钝,material/53.png,2,material/153.png,迟缓,2,j,j,j,2,2,2,迟钝,,,,,,,,,0,82,82,52,,,,,,,,,,,j,1,1.10687994957,,,,moral_self_bias,07,20,59.9829817418,f,001,2018_Apr_02_1249,
,,,,,,,,,,,,,,,,,,,,,,material/135.png,2,冷漠,material/35.png,2,material/35.png,冷漠,2,j,j,j,1,1,1,冷血,,,,,,,,,0,83,83,34,,,,,,,,,,,j,1,1.44161081314,,,,moral_self_bias,07,20,59.9829817418,f,001,2018_Apr_02_1249,
,,,,,,,,,,,,,,,,,,,,,,material/179.png,2,顽愚,material/178.png,2,material/84.png,毛糙,2,f,f,f,2,2,2,差生,,,,,,,,,0,84,84,157,,,,,,,,,,,j,0,1.03975892067,,,,moral_self_bias,07,20,59.9829817418,f,001,2018_Apr_02_1249,
,,,,,,,,,,,,,,,,,,,,,,material/145.png,2,下流,material/45.png,2,material/45.png,下流,2,j,j,j,1,1,1,小人,,,,,,,,,0,85,85,44,,,,,,,,,,,j,1,1.22027206421,,,,moral_self_bias,07,20,59.9829817418,f,001,2018_Apr_02_1249,
,,,,,,,,,,,,,,,,,,,,,,material/137.png,2,无耻,material/37.png,2,material/37.png,无耻,2,j,j,j,1,1,1,卑鄙,,,,,,,,,0,86,86,36,,,,,,,,,,,j,1,1.10367202759,,,,moral_self_bias,07,20,59.9829817418,f,001,2018_Apr_02_1249,
,,,,,,,,,,,,,,,,,,,,,,material/59.png,2,智障,material/159.png,2,material/59.png,弱智,2,f,f,f,2,2,2,智障,,,,,,,,,0,87,87,138,,,,,,,,,,,j,0,1.53769111633,,,,moral_self_bias,07,20,59.9829817418,f,001,2018_Apr_02_1249,
,,,,,,,,,,,,,,,,,,,,,,material/134.png,2,可恨,material/34.png,2,material/34.png,可恨,2,j,j,j,1,1,1,可恶,,,,,,,,,0,88,88,33,,,,,,,,,,,j,1,0.920475959778,,,,moral_self_bias,07,20,59.9829817418,f,001,2018_Apr_02_1249,
,,,,,,,,,,,,,,,,,,,,,,material/1.png,1,博爱,material/101.png,1,material/101.png,博爱,1,f,f,f,1,1,1,善良,,,,,,,,,0,89,89,80,0,0,0,0,,,,,,,f,1,0.871037960052,f,1,0.957956075668,moral_self_bias,07,20,59.9829817418,f,001,2018_Apr_02_1249,
,,,,,,,,,,,,,,,,,,,,,,material/1.png,1,博爱,material/101.png,1,material/101.png,博爱,1,f,f,f,1,1,1,善良,,,,,,,,,0,89,89,80,,,,,,,,,,,,,,,,,moral_self_bias,07,20,59.9829817418,f,001,2018_Apr_02_1249,
,,,,,,,,,,,,,,,,,,,,,,material/181.png,2,怠惰,material/180.png,2,material/180.png,怠惰,2,f,f,f,2,2,2,犹豫,,,,,,,,,0,90,90,159,0,0,0,0,,,,,,,f,1,1.82484388351,j,0,0.475869178772,moral_self_bias,07,20,59.9829817418,f,001,2018_Apr_02_1249,
,,,,,,,,,,,,,,,,,,,,,,material/181.png,2,怠惰,material/180.png,2,material/180.png,怠惰,2,f,f,f,2,2,2,犹豫,,,,,,,,,0,90,90,159,,,,,,,,,,,,,,,,,moral_self_bias,07,20,59.9829817418,f,001,2018_Apr_02_1249,
,,,,,,,,,,,,,,,,,,,,,,material/76.png,2,放纵,material/176.png,2,material/176.png,放纵,2,f,f,f,1,1,1,虚伪,,,,,,,,,0,91,91,155,0,0,0,0,,,,,,,f,1,1.34933495522,f,1,1.19122505188,moral_self_bias,07,20,59.9829817418,f,001,2018_Apr_02_1249,
,,,,,,,,,,,,,,,,,,,,,,material/76.png,2,放纵,material/176.png,2,material/176.png,放纵,2,f,f,f,1,1,1,虚伪,,,,,,,,,0,91,91,155,,,,,,,,,,,,,,,,,moral_self_bias,07,20,59.9829817418,f,001,2018_Apr_02_1249,
,,,,,,,,,,,,,,,,,,,,,,material/42.png,2,奸诈,material/142.png,2,material/142.png,奸诈,2,f,f,f,1,1,1,阴险,,,,,,,,,0,92,92,121,,,,,,,,,,,j,0,0.841315984726,,,,moral_self_bias,07,20,59.9829817418,f,001,2018_Apr_02_1249,
,,,,,,,,,,,,,,,,,,,,,,material/162.png,1,敬业,material/62.png,1,material/162.png,坚韧,1,j,j,j,1,1,1,敬业,,,,,,,,,0,93,93,61,,,,,,,,,,,j,1,1.12495589256,,,,moral_self_bias,07,20,59.9829817418,f,001,2018_Apr_02_1249,
,,,,,,,,,,,,,,,,,,,,,,material/57.png,2,无知,material/157.png,2,material/57.png,无能,2,f,f,f,2,2,2,无知,,,,,,,,,0,94,94,136,0,0,0,0,,,,,,,f,1,1.15804004669,j,0,0.858873128891,moral_self_bias,07,20,59.9829817418,f,001,2018_Apr_02_1249,
,,,,,,,,,,,,,,,,,,,,,,material/57.png,2,无知,material/157.png,2,material/57.png,无能,2,f,f,f,2,2,2,无知,,,,,,,,,0,94,94,136,,,,,,,,,,,,,,,,,moral_self_bias,07,20,59.9829817418,f,001,2018_Apr_02_1249,
,,,,,,,,,,,,,,,,,,,,,,material/68.png,1,广博,material/167.png,1,material/68.png,高手,1,f,f,f,2,2,2,广博,,,,,,,,,0,95,95,146,0,0,0,0,,,,,,,f,1,1.9244530201,j,0,0.457834005356,moral_self_bias,07,20,59.9829817418,f,001,2018_Apr_02_1249,
,,,,,,,,,,,,,,,,,,,,,,material/68.png,1,广博,material/167.png,1,material/68.png,高手,1,f,f,f,2,2,2,广博,,,,,,,,,0,95,95,146,,,,,,,,,,,,,,,,,moral_self_bias,07,20,59.9829817418,f,001,2018_Apr_02_1249,
,,,,,,,,,,,,,,,,,,,,,,material/22.png,1,才学,material/122.png,1,material/22.png,博学,1,f,f,f,2,2,2,才学,,,,,,,,,0,96,96,101,0,0,0,0,,,,,,,f,1,3.32426905632,f,1,1.50938415527,moral_self_bias,07,20,59.9829817418,f,001,2018_Apr_02_1249,
,,,,,,,,,,,,,,,,,,,,,,material/22.png,1,才学,material/122.png,1,material/22.png,博学,1,f,f,f,2,2,2,才学,,,,,,,,,0,96,96,101,,,,,,,,,,,,,,,,,moral_self_bias,07,20,59.9829817418,f,001,2018_Apr_02_1249,
,,,,,,,,,,,,,,,,,,,,,,material/127.png,1,超群,material/27.png,1,material/127.png,卓越,1,j,j,j,2,2,2,超群,,,,,,,,,0,97,97,26,,,,,,,,,,,j,1,0.757812976837,,,,moral_self_bias,07,20,59.9829817418,f,001,2018_Apr_02_1249,
,,,,,,,,,,,,,,,,,,,,,,material/24.png,1,理智,material/124.png,1,material/24.png,冷静,1,f,f,f,2,2,2,理智,,,,,,,,,0,98,98,103,0,0,0,0,,,,,,,f,1,5.02391815186,j,0,0.684862852097,moral_self_bias,07,20,59.9829817418,f,001,2018_Apr_02_1249,
,,,,,,,,,,,,,,,,,,,,,,material/24.png,1,理智,material/124.png,1,material/24.png,冷静,1,f,f,f,2,2,2,理智,,,,,,,,,0,98,98,103,,,,,,,,,,,,,,,,,moral_self_bias,07,20,59.9829817418,f,001,2018_Apr_02_1249,
,,,,,,,,,,,,,,,,,,,,,,material/53.png,2,迟缓,material/153.png,2,material/53.png,迟钝,2,f,f,f,2,2,2,迟缓,,,,,,,,,0,99,99,132,,,,,,,,,,,j,0,2.01776099205,,,,moral_self_bias,07,20,59.9829817418,f,001,2018_Apr_02_1249,
,,,,,,,,,,,,,,,,,,,,,,material/138.png,2,无德,material/38.png,2,material/38.png,无德,2,j,j,j,1,1,1,缺德,,,,,,,,,0,100,100,37,,,,,,,,,,,j,1,0.875227928162,,,,moral_self_bias,07,20,59.9829817418,f,001,2018_Apr_02_1249,
,,,,,,,,,,,,,,,,,,,,,,material/15.png,1,纯洁,material/115.png,1,material/115.png,纯洁,1,f,f,f,1,1,1,清白,,,,,,,,,0,101,101,94,,,,,,,,,,,j,0,0.642134904861,,,,moral_self_bias,07,20,59.9829817418,f,001,2018_Apr_02_1249,
,,,,,,,,,,,,,,,,,,,,,,material/32.png,2,背叛,material/132.png,2,material/132.png,背叛,2,f,f,f,1,1,1,不忠,,,,,,,,,0,102,102,111,0,0,0,0,,,,,,,f,1,1.01639580727,f,1,1.94148087502,moral_self_bias,07,20,59.9829817418,f,001,2018_Apr_02_1249,
,,,,,,,,,,,,,,,,,,,,,,material/32.png,2,背叛,material/132.png,2,material/132.png,背叛,2,f,f,f,1,1,1,不忠,,,,,,,,,0,102,102,111,,,,,,,,,,,,,,,,,moral_self_bias,07,20,59.9829817418,f,001,2018_Apr_02_1249,
,,,,,,,,,,,,,,,,,,,,,,material/21.png,1,干练,material/121.png,1,material/21.png,精干,1,f,f,f,2,2,2,干练,,,,,,,,,0,103,103,100,0,0,0,0,,,,,,,f,1,2.4419708252,j,0,2.77514004707,moral_self_bias,07,20,59.9829817418,f,001,2018_Apr_02_1249,
,,,,,,,,,,,,,,,,,,,,,,material/21.png,1,干练,material/121.png,1,material/21.png,精干,1,f,f,f,2,2,2,干练,,,,,,,,,0,103,103,100,,,,,,,,,,,,,,,,,moral_self_bias,07,20,59.9829817418,f,001,2018_Apr_02_1249,
,,,,,,,,,,,,,,,,,,,,,,material/168.png,1,机变,material/170.png,1,material/168.png,坚忍,1,f,f,f,2,2,2,机变,,,,,,,,,0,104,104,149,0,0,0,0,,,,,,,f,1,2.07474589348,f,1,0.467574119568,moral_self_bias,07,20,59.9829817418,f,001,2018_Apr_02_1249,
,,,,,,,,,,,,,,,,,,,,,,material/168.png,1,机变,material/170.png,1,material/168.png,坚忍,1,f,f,f,2,2,2,机变,,,,,,,,,0,104,104,149,,,,,,,,,,,,,,,,,moral_self_bias,07,20,59.9829817418,f,001,2018_Apr_02_1249,
,,,,,,,,,,,,,,,,,,,,,,material/171.png,1,高效,material/67.png,1,material/171.png,骁勇,1,j,j,j,2,2,2,高效,,,,,,,,,0,105,105,65,,,,,,,,,,,j,1,0.691269874573,,,,moral_self_bias,07,20,59.9829817418,f,001,2018_Apr_02_1249,
,,,,,,,,,,,,,,,,,,,,,,material/38.png,2,缺德,material/138.png,2,material/138.png,缺德,2,f,f,f,1,1,1,无德,,,,,,,,,0,106,106,117,0,0,0,0,,,,,,,f,1,1.68382000923,j,0,0.391310930252,moral_self_bias,07,20,59.9829817418,f,001,2018_Apr_02_1249,
,,,,,,,,,,,,,,,,,,,,,,material/38.png,2,缺德,material/138.png,2,material/138.png,缺德,2,f,f,f,1,1,1,无德,,,,,,,,,0,106,106,117,,,,,,,,,,,,,,,,,moral_self_bias,07,20,59.9829817418,f,001,2018_Apr_02_1249,
,,,,,,,,,,,,,,,,,,,,,,material/141.png,2,歹毒,material/41.png,2,material/41.png,歹毒,2,j,j,j,1,1,1,残忍,,,,,,,,,0,107,107,40,,,,,,,,,,,j,1,1.09149098396,,,,moral_self_bias,07,20,59.9829817418,f,001,2018_Apr_02_1249,
,,,,,,,,,,,,,,,,,,,,,,material/46.png,2,自私,material/146.png,2,material/146.png,自私,2,f,f,f,1,1,1,小气,,,,,,,,,0,108,108,125,,,,,,,,,,,j,0,0.750731945038,,,,moral_self_bias,07,20,59.9829817418,f,001,2018_Apr_02_1249,
,,,,,,,,,,,,,,,,,,,,,,material/82.png,2,毛糙,material/183.png,2,material/178.png,薄弱,2,f,f,f,2,2,2,窝囊,,,,,,,,,0,109,109,162,,,,,,,,,,,j,0,0.837159872055,,,,moral_self_bias,07,20,59.9829817418,f,001,2018_Apr_02_1249,
,,,,,,,,,,,,,,,,,,,,,,material/2.png,1,爱心,material/102.png,1,material/102.png,爱心,1,f,f,f,1,1,1,善心,,,,,,,,,0,110,110,81,,,,,,,,,,,j,0,1.22504687309,,,,moral_self_bias,07,20,59.9829817418,f,001,2018_Apr_02_1249,
,,,,,,,,,,,,,,,,,,,,,,material/113.png,1,廉洁,material/13.png,1,material/13.png,廉洁,1,j,j,j,1,1,1,廉明,,,,,,,,,0,111,111,12,,,,,,,,,,,j,1,2.26645207405,,,,moral_self_bias,07,20,59.9829817418,f,001,2018_Apr_02_1249,
,,,,,,,,,,,,,,,,,,,,,,material/56.png,2,愚昧,material/156.png,2,material/56.png,愚钝,2,f,f,f,2,2,2,愚昧,,,,,,,,,0,112,112,135,0,0,0,0,,,,,,,f,1,2.73818898201,j,0,0.389908075333,moral_self_bias,07,20,59.9829817418,f,001,2018_Apr_02_1249,
,,,,,,,,,,,,,,,,,,,,,,material/56.png,2,愚昧,material/156.png,2,material/56.png,愚钝,2,f,f,f,2,2,2,愚昧,,,,,,,,,0,112,112,135,,,,,,,,,,,,,,,,,moral_self_bias,07,20,59.9829817418,f,001,2018_Apr_02_1249,
,,,,,,,,,,,,,,,,,,,,,,material/121.png,1,精干,material/21.png,1,material/121.png,干练,1,j,j,j,2,2,2,精干,,,,,,,,,0,113,113,20,,,,,,,,,,,j,1,0.822308063507,,,,moral_self_bias,07,20,59.9829817418,f,001,2018_Apr_02_1249,
,,,,,,,,,,,,,,,,,,,,,,material/58.png,2,肤浅,material/158.png,2,material/58.png,浅薄,2,f,f,f,2,2,2,肤浅,,,,,,,,,0,114,114,137,,,,,,,,,,,j,0,0.59236907959,,,,moral_self_bias,07,20,59.9829817418,f,001,2018_Apr_02_1249,
,,,,,,,,,,,,,,,,,,,,,,material/105.png,1,守信,material/5.png,1,material/5.png,守信,1,j,j,j,1,1,1,诚信,,,,,,,,,0,115,115,4,,,,,,,,,,,j,1,2.59224009514,,,,moral_self_bias,07,20,59.9829817418,f,001,2018_Apr_02_1249,
,,,,,,,,,,,,,,,,,,,,,,material/61.png,1,仗义,material/65.png,1,material/166.png,谦虚,1,j,j,j,1,1,1,平等,,,,,,,,,0,116,116,64,,,,,,,,,,,j,1,0.975345849991,,,,moral_self_bias,07,20,59.9829817418,f,001,2018_Apr_02_1249,
,,,,,,,,,,,,,,,,,,,,,,material/7.png,1,公平,material/107.png,1,material/107.png,公平,1,f,f,f,1,1,1,公正,,,,,,,,,0,117,117,86,,,,,,,,,,,j,0,0.76686501503,,,,moral_self_bias,07,20,59.9829817418,f,001,2018_Apr_02_1249,
,,,,,,,,,,,,,,,,,,,,,,material/111.png,1,高雅,material/11.png,1,material/11.png,高雅,1,j,j,j,1,1,1,高尚,,,,,,,,,0,118,118,10,,,,,,,,,,,j,1,0.657689094543,,,,moral_self_bias,07,20,59.9829817418,f,001,2018_Apr_02_1249,
,,,,,,,,,,,,,,,,,,,,,,material/34.png,2,可恶,material/134.png,2,material/134.png,可恶,2,f,f,f,1,1,1,可恨,,,,,,,,,0,119,119,113,,,,,,,,,,,j,0,0.916410923004,,,,moral_self_bias,07,20,59.9829817418,f,001,2018_Apr_02_1249,
,,,,,,,,,,,,,,,,,,,,,,material/108.png,1,公道,material/8.png,1,material/8.png,公道,1,j,j,j,1,1,1,无私,,,,,,,,,0,120,120,7,,,,,,,,,,,j,1,1.00380396843,,,,moral_self_bias,07,20,59.9829817418,f,001,2018_Apr_02_1249,
,,,,,,,,,,,,,,,,,,,,,,material/149.png,2,白痴,material/49.png,2,material/149.png,痴呆,2,j,j,j,2,2,2,白痴,,,,,,,,,0,121,121,48,,,,,,,,,,,j,1,0.791344165802,,,,moral_self_bias,07,20,59.9829817418,f,001,2018_Apr_02_1249,
,,,,,,,,,,,,,,,,,,,,,,material/66.png,1,独立,material/66.png,1,material/165.png,正义,1,f,f,f,1,1,1,正义,,,,,,,,,0,122,122,164,0,0,0,0,,,,,,,f,1,1.94185590744,j,0,0.625277996063,moral_self_bias,07,20,59.9829817418,f,001,2018_Apr_02_1249,
,,,,,,,,,,,,,,,,,,,,,,material/66.png,1,独立,material/66.png,1,material/165.png,正义,1,f,f,f,1,1,1,正义,,,,,,,,,0,122,122,164,,,,,,,,,,,,,,,,,moral_self_bias,07,20,59.9829817418,f,001,2018_Apr_02_1249,
,,,,,,,,,,,,,,,,,,,,,,material/167.png,1,高手,material/169.png,1,material/167.png,颖悟,1,f,f,f,2,2,2,高手,,,,,,,,,0,123,123,148,0,0,0,0,,,,,,,f,1,3.13734817505,j,0,0.288414001465,moral_self_bias,07,20,59.9829817418,f,001,2018_Apr_02_1249,
,,,,,,,,,,,,,,,,,,,,,,material/167.png,1,高手,material/169.png,1,material/167.png,颖悟,1,f,f,f,2,2,2,高手,,,,,,,,,0,123,123,148,,,,,,,,,,,,,,,,,moral_self_bias,07,20,59.9829817418,f,001,2018_Apr_02_1249,
,,,,,,,,,,,,,,,,,,,,,,material/116.png,1,机智,material/16.png,1,material/116.png,睿智,1,j,j,j,2,2,2,机智,,,,,,,,,0,124,124,15,,,,,,,,,,,j,1,1.02102398872,,,,moral_self_bias,07,20,59.9829817418,f,001,2018_Apr_02_1249,
,,,,,,,,,,,,,,,,,,,,,,material/50.png,2,愚笨,material/150.png,2,material/50.png,鲁钝,2,f,f,f,2,2,2,愚笨,,,,,,,,,0,125,125,129,,,,,,,,,,,j,0,0.855755090714,,,,moral_self_bias,07,20,59.9829817418,f,001,2018_Apr_02_1249,
,,,,,,,,,,,,,,,,,,,,,,material/45.png,2,小人,material/145.png,2,material/145.png,小人,2,f,f,f,1,1,1,下流,,,,,,,,,0,126,126,124,,,,,,,,,,,j,0,1.12364411354,,,,moral_self_bias,07,20,59.9829817418,f,001,2018_Apr_02_1249,
,,,,,,,,,,,,,,,,,,,,,,material/150.png,2,鲁钝,material/50.png,2,material/150.png,愚笨,2,j,j,j,2,2,2,鲁钝,,,,,,,,,0,127,127,49,0,0,0,0,,,,,,,f,0,2.65471291542,j,0,0.936274051666,moral_self_bias,07,20,59.9829817418,f,001,2018_Apr_02_1249,
,,,,,,,,,,,,,,,,,,,,,,material/150.png,2,鲁钝,material/50.png,2,material/150.png,愚笨,2,j,j,j,2,2,2,鲁钝,,,,,,,,,0,127,127,49,,,,,,,,,,,,,,,,,moral_self_bias,07,20,59.9829817418,f,001,2018_Apr_02_1249,
,,,,,,,,,,,,,,,,,,,,,,material/16.png,1,睿智,material/116.png,1,material/16.png,机智,1,f,f,f,2,2,2,睿智,,,,,,,,,0,128,128,95,0,0,0,0,,,,,,,f,1,1.55860590935,j,0,0.824908018112,moral_self_bias,07,20,59.9829817418,f,001,2018_Apr_02_1249,
,,,,,,,,,,,,,,,,,,,,,,material/16.png,1,睿智,material/116.png,1,material/16.png,机智,1,f,f,f,2,2,2,睿智,,,,,,,,,0,128,128,95,,,,,,,,,,,,,,,,,moral_self_bias,07,20,59.9829817418,f,001,2018_Apr_02_1249,
,,,,,,,,,,,,,,,,,,,,,,material/14.png,1,忠贞,material/114.png,1,material/114.png,忠贞,1,f,f,f,1,1,1,爱国,,,,,,,,,0,129,129,93,0,0,0,0,,,,,,,f,1,2.60765099525,j,0,0.391018152237,moral_self_bias,07,20,59.9829817418,f,001,2018_Apr_02_1249,
,,,,,,,,,,,,,,,,,,,,,,material/14.png,1,忠贞,material/114.png,1,material/114.png,忠贞,1,f,f,f,1,1,1,爱国,,,,,,,,,0,129,129,93,,,,,,,,,,,,,,,,,moral_self_bias,07,20,59.9829817418,f,001,2018_Apr_02_1249,
,,,,,,,,,,,,,,,,,,,,,,material/12.png,1,忠心,material/112.png,1,material/112.png,忠心,1,f,f,f,1,1,1,忠诚,,,,,,,,,0,130,130,91,,,,,,,,,,,j,0,1.09137201309,,,,moral_self_bias,07,20,59.9829817418,f,001,2018_Apr_02_1249,
,,,,,,,,,,,,,,,,,,,,,,material/157.png,2,无能,material/57.png,2,material/157.png,无知,2,j,j,j,2,2,2,无能,,,,,,,,,0,131,131,56,,,,,,,,,,,j,1,1.05869603157,,,,moral_self_bias,07,20,59.9829817418,f,001,2018_Apr_02_1249,
,,,,,,,,,,,,,,,,,,,,,,material/107.png,1,公正,material/7.png,1,material/7.png,公正,1,j,j,j,1,1,1,公平,,,,,,,,,0,132,132,6,,,,,,,,,,,j,1,1.00798392296,,,,moral_self_bias,07,20,59.9829817418,f,001,2018_Apr_02_1249,
,,,,,,,,,,,,,,,,,,,,,,material/136.png,2,说谎,material/36.png,2,material/36.png,说谎,2,j,j,j,1,1,1,撒谎,,,,,,,,,0,133,133,35,,,,,,,,,,,j,1,2.52085208893,,,,moral_self_bias,07,20,59.9829817418,f,001,2018_Apr_02_1249,
,,,,,,,,,,,,,,,,,,,,,,material/131.png,1,笃行,material/31.png,1,material/131.png,笃学,1,j,j,j,2,2,2,笃行,,,,,,,,,0,134,134,30,,,,,,,,,,,j,1,0.89226102829,,,,moral_self_bias,07,20,59.9829817418,f,001,2018_Apr_02_1249,
,,,,,,,,,,,,,,,,,,,,,,material/144.png,2,失信,material/44.png,2,material/44.png,失信,2,j,j,j,1,1,1,爽约,,,,,,,,,0,135,135,43,,,,,,,,,,,j,1,3.10365390778,,,,moral_self_bias,07,20,59.9829817418,f,001,2018_Apr_02_1249,
,,,,,,,,,,,,,,,,,,,,,,material/129.png,1,好问,material/29.png,1,material/129.png,好学,1,j,j,j,2,2,2,好问,,,,,,,,,0,136,136,28,0,0,0,0,,,,,,,f,0,1.3010468483,j,0,1.1417298317,moral_self_bias,07,20,59.9829817418,f,001,2018_Apr_02_1249,
,,,,,,,,,,,,,,,,,,,,,,material/129.png,1,好问,material/29.png,1,material/129.png,好学,1,j,j,j,2,2,2,好问,,,,,,,,,0,136,136,28,,,,,,,,,,,,,,,,,moral_self_bias,07,20,59.9829817418,f,001,2018_Apr_02_1249,
,,,,,,,,,,,,,,,,,,,,,,material/62.png,1,坚韧,material/162.png,1,material/62.png,敬业,1,f,f,f,1,1,1,坚韧,,,,,,,,,0,137,137,141,,,,,,,,,,,j,0,0.975474119186,,,,moral_self_bias,07,20,59.9829817418,f,001,2018_Apr_02_1249,
,,,,,,,,,,,,,,,,,,,,,,material/72.png,2,软弱,material/77.png,2,material/77.png,软弱,2,j,j,j,1,1,1,谄媚,,,,,,,,,0,138,138,73,,,,,,,,,,,j,1,3.94107508659,,,,moral_self_bias,07,20,59.9829817418,f,001,2018_Apr_02_1249,
,,,,,,,,,,,,,,,,,,,,,,material/11.png,1,高尚,material/111.png,1,material/111.png,高尚,1,f,f,f,1,1,1,高雅,,,,,,,,,0,139,139,90,,,,,,,,,,,j,0,1.35863995552,,,,moral_self_bias,07,20,59.9829817418,f,001,2018_Apr_02_1249,
,,,,,,,,,,,,,,,,,,,,,,material/178.png,2,窝囊,material/82.png,2,material/82.png,窝囊,2,j,j,j,2,2,2,毛糙,,,,,,,,,0,140,140,78,,,,,,,,,,,j,1,0.591974020004,,,,moral_self_bias,07,20,59.9829817418,f,001,2018_Apr_02_1249,
,,,,,,,,,,,,,,,,,,,,,,material/152.png,2,缓慢,material/52.png,2,material/152.png,拖延,2,j,j,j,2,2,2,缓慢,,,,,,,,,0,141,141,51,0,0,0,0,,,,,,,f,0,1.64247488976,j,0,0.458854913712,moral_self_bias,07,20,59.9829817418,f,001,2018_Apr_02_1249,
,,,,,,,,,,,,,,,,,,,,,,material/152.png,2,缓慢,material/52.png,2,material/152.png,拖延,2,j,j,j,2,2,2,缓慢,,,,,,,,,0,141,141,51,,,,,,,,,,,,,,,,,moral_self_bias,07,20,59.9829817418,f,001,2018_Apr_02_1249,
,,,,,,,,,,,,,,,,,,,,,,material/40.png,2,狠毒,material/140.png,2,material/140.png,狠毒,2,f,f,f,1,1,1,邪恶,,,,,,,,,0,142,142,119,,,,,,,,,,,j,0,1.0011780262,,,,moral_self_bias,07,20,59.9829817418,f,001,2018_Apr_02_1249,
,,,,,,,,,,,,,,,,,,,,,,material/182.png,2,健忘,material/184.png,2,material/80.png,厌学,2,f,f,f,2,2,2,才尽,,,,,,,,,0,143,143,163,,,,,,,,,,,j,0,5.45473790169,,,,moral_self_bias,07,20,59.9829817418,f,001,2018_Apr_02_1249,
,,,,,,,,,,,,,,,,,,,,,,material/17.png,1,聪明,material/117.png,1,material/17.png,聪颖,1,f,f,f,2,2,2,聪明,,,,,,,,,0,144,144,96,0,0,0,0,,,,,,,f,1,2.85623311996,j,0,0.621742010117,moral_self_bias,07,20,59.9829817418,f,001,2018_Apr_02_1249,
,,,,,,,,,,,,,,,,,,,,,,material/17.png,1,聪明,material/117.png,1,material/17.png,聪颖,1,f,f,f,2,2,2,聪明,,,,,,,,,0,144,144,96,,,,,,,,,,,,,,,,,moral_self_bias,07,20,59.9829817418,f,001,2018_Apr_02_1249,
,,,,,,,,,,,,,,,,,,,,,,material/73.png,2,恶心,material/177.png,2,material/177.png,恶心,2,f,f,f,1,1,1,残虐,,,,,,,,,0,145,145,156,0,0,0,0,,,,,,,f,1,1.65391206741,f,1,0.504260063171,moral_self_bias,07,20,59.9829817418,f,001,2018_Apr_02_1249,
,,,,,,,,,,,,,,,,,,,,,,material/73.png,2,恶心,material/177.png,2,material/177.png,恶心,2,f,f,f,1,1,1,残虐,,,,,,,,,0,145,145,156,,,,,,,,,,,,,,,,,moral_self_bias,07,20,59.9829817418,f,001,2018_Apr_02_1249,
,,,,,,,,,,,,,,,,,,,,,,material/165.png,1,平等,material/161.png,1,material/61.png,勇敢,1,f,f,f,1,1,1,独立,,,,,,,,,0,146,146,140,,,,,,,,,,,j,0,2.97178292274,,,,moral_self_bias,07,20,59.9829817418,f,001,2018_Apr_02_1249,
,,,,,,,,,,,,,,,,,,,,,,material/112.png,1,忠诚,material/12.png,1,material/12.png,忠诚,1,j,j,j,1,1,1,忠心,,,,,,,,,0,147,147,11,0,0,0,0,,,,,,,f,0,7.27513408661,j,0,0.974364995956,moral_self_bias,07,20,59.9829817418,f,001,2018_Apr_02_1249,
,,,,,,,,,,,,,,,,,,,,,,material/112.png,1,忠诚,material/12.png,1,material/12.png,忠诚,1,j,j,j,1,1,1,忠心,,,,,,,,,0,147,147,11,,,,,,,,,,,,,,,,,moral_self_bias,07,20,59.9829817418,f,001,2018_Apr_02_1249,
,,,,,,,,,,,,,,,,,,,,,,material/148.png,2,笨蛋,material/48.png,2,material/148.png,愚蠢,2,j,j,j,2,2,2,笨蛋,,,,,,,,,0,148,148,47,0,0,0,0,,,,,,,f,0,1.77488899231,f,1,0.52497792244,moral_self_bias,07,20,59.9829817418,f,001,2018_Apr_02_1249,
,,,,,,,,,,,,,,,,,,,,,,material/148.png,2,笨蛋,material/48.png,2,material/148.png,愚蠢,2,j,j,j,2,2,2,笨蛋,,,,,,,,,0,148,148,47,,,,,,,,,,,,,,,,,moral_self_bias,07,20,59.9829817418,f,001,2018_Apr_02_1249,
,,,,,,,,,,,,,,,,,,,,,,material/5.png,1,诚信,material/105.png,1,material/105.png,诚信,1,f,f,f,1,1,1,守信,,,,,,,,,0,149,149,84,0,0,0,0,,,,,,,f,1,1.70767116547,f,1,5.74216198921,moral_self_bias,07,20,59.9829817418,f,001,2018_Apr_02_1249,
,,,,,,,,,,,,,,,,,,,,,,material/5.png,1,诚信,material/105.png,1,material/105.png,诚信,1,f,f,f,1,1,1,守信,,,,,,,,,0,149,149,84,,,,,,,,,,,,,,,,,moral_self_bias,07,20,59.9829817418,f,001,2018_Apr_02_1249,
,,,,,,,,,,,,,,,,,,,,,,material/47.png,2,死板,material/147.png,2,material/47.png,刻板,2,f,f,f,2,2,2,死板,,,,,,,,,0,150,150,126,0,0,0,0,,,,,,,f,1,3.24155497551,f,1,0.417214870453,moral_self_bias,07,20,59.9829817418,f,001,2018_Apr_02_1249,
,,,,,,,,,,,,,,,,,,,,,,material/47.png,2,死板,material/147.png,2,material/47.png,刻板,2,f,f,f,2,2,2,死板,,,,,,,,,0,150,150,126,,,,,,,,,,,,,,,,,moral_self_bias,07,20,59.9829817418,f,001,2018_Apr_02_1249,
,,,,,,,,,,,,,,,,,,,,,,material/166.png,1,孝顺,material/64.png,1,material/164.png,奉献,1,j,j,j,1,1,1,仗义,,,,,,,,,0,151,151,63,,,,,,,,,,,j,1,0.889720916748,,,,moral_self_bias,07,20,59.9829817418,f,001,2018_Apr_02_1249,
,,,,,,,,,,,,,,,,,,,,,,material/51.png,2,糊涂,material/151.png,2,material/51.png,迷糊,2,f,f,f,2,2,2,糊涂,,,,,,,,,0,152,152,130,,,,,,,,,,,j,0,0.784069061279,,,,moral_self_bias,07,20,59.9829817418,f,001,2018_Apr_02_1249,
,,,,,,,,,,,,,,,,,,,,,,material/81.png,2,呆笨,material/179.png,2,material/83.png,差生,2,f,f,f,2,2,2,无助,,,,,,,,,0,153,153,158,0,0,0,0,,,,,,,f,1,2.17055487633,f,1,1.87161684036,moral_self_bias,07,20,59.9829817418,f,001,2018_Apr_02_1249,
,,,,,,,,,,,,,,,,,,,,,,material/81.png,2,呆笨,material/179.png,2,material/83.png,差生,2,f,f,f,2,2,2,无助,,,,,,,,,0,153,153,158,,,,,,,,,,,,,,,,,moral_self_bias,07,20,59.9829817418,f,001,2018_Apr_02_1249,
,,,,,,,,,,,,,,,,,,,,,,material/142.png,2,阴险,material/42.png,2,material/42.png,阴险,2,j,j,j,1,1,1,奸诈,,,,,,,,,0,154,154,41,,,,,,,,,,,j,1,1.89221000671,,,,moral_self_bias,07,20,59.9829817418,f,001,2018_Apr_02_1249,
,,,,,,,,,,,,,,,,,,,,,,material/37.png,2,卑鄙,material/137.png,2,material/137.png,卑鄙,2,f,f,f,1,1,1,无耻,,,,,,,,,0,155,155,116,,,,,,,,,,,j,0,0.774612188339,,,,moral_self_bias,07,20,59.9829817418,f,001,2018_Apr_02_1249,
,,,,,,,,,,,,,,,,,,,,,,material/109.png,1,秉直,material/9.png,1,material/9.png,秉直,1,j,j,j,1,1,1,正直,,,,,,,,,0,156,156,8,,,,,,,,,,,j,1,0.774437904358,,,,moral_self_bias,07,20,59.9829817418,f,001,2018_Apr_02_1249,
,,,,,,,,,,,,,,,,,,,,,,material/104.png,1,友爱,material/4.png,1,material/4.png,友爱,1,j,j,j,1,1,1,友善,,,,,,,,,0,157,157,3,,,,,,,,,,,j,1,2.40832710266,,,,moral_self_bias,07,20,59.9829817418,f,001,2018_Apr_02_1249,
,,,,,,,,,,,,,,,,,,,,,,material/110.png,1,顽强,material/10.png,1,material/10.png,顽强,1,j,j,j,1,1,1,坚毅,,,,,,,,,0,158,158,9,,,,,,,,,,,j,1,1.27103686333,,,,moral_self_bias,07,20,59.9829817418,f,001,2018_Apr_02_1249,
,,,,,,,,,,,,,,,,,,,,,,material/120.png,1,能干,material/20.png,1,material/120.png,厉害,1,j,j,j,2,2,2,能干,,,,,,,,,0,159,159,19,,,,,,,,,,,j,1,1.08909106255,,,,moral_self_bias,07,20,59.9829817418,f,001,2018_Apr_02_1249,
,,,,,,,,,,,,,,,,,,,,,,material/6.png,1,厚道,material/106.png,1,material/106.png,厚道,1,f,f,f,1,1,1,诚实,,,,,,,,,0,160,160,85,0,0,0,0,,,,,,,f,1,3.18797302246,j,0,0.388900995255,moral_self_bias,07,20,59.9829817418,f,001,2018_Apr_02_1249,
,,,,,,,,,,,,,,,,,,,,,,material/6.png,1,厚道,material/106.png,1,material/106.png,厚道,1,f,f,f,1,1,1,诚实,,,,,,,,,0,160,160,85,,,,,,,,,,,,,,,,,moral_self_bias,07,20,59.9829817418,f,001,2018_Apr_02_1249,
,,,,,,,,,,,,,,,,,,,,,,material/78.png,2,厌学,material/181.png,2,material/184.png,犹豫,2,f,f,f,2,2,2,草率,,,,,,,,,0,161,161,160,,,,,,,,,,,j,0,2.02163600922,,,,moral_self_bias,07,20,59.9829817418,f,001,2018_Apr_02_1249,
,,,,,,,,,,,,,,,,,,,,,,material/115.png,1,清白,material/15.png,1,material/15.png,清白,1,j,j,j,1,1,1,纯洁,,,,,,,,,0,162,162,14,,,,,,,,,,,j,1,0.653487920761,,,,moral_self_bias,07,20,59.9829817418,f,001,2018_Apr_02_1249,
,,,,,,,,,,,,,,,,,,,,,,material/31.png,1,笃学,material/131.png,1,material/31.png,笃行,1,f,f,f,2,2,2,笃学,,,,,,,,,0,163,163,110,,,,,,,,,,,j,0,0.820873022079,,,,moral_self_bias,07,20,59.9829817418,f,001,2018_Apr_02_1249,
,,,,,,,,,,,,,,,,,,,,,,material/183.png,2,颓废,material/182.png,2,material/79.png,才尽,2,f,f,f,2,2,2,薄弱,,,,,,,,,0,164,164,161,0,0,0,0,,,,,,,f,1,2.14183497429,f,1,1.02562689781,moral_self_bias,07,20,59.9829817418,f,001,2018_Apr_02_1249,
,,,,,,,,,,,,,,,,,,,,,,material/183.png,2,颓废,material/182.png,2,material/79.png,才尽,2,f,f,f,2,2,2,薄弱,,,,,,,,,0,164,164,161,,,,,,,,,,,,,,,,,moral_self_bias,07,20,59.9829817418,f,001,2018_Apr_02_1249,
,,,,,,,,,,,,,,,,,,,,,,material/35.png,2,冷血,material/135.png,2,material/135.png,冷血,2,f,f,f,1,1,1,冷漠,,,,,,,,,0,165,165,114,0,0,0,0,,,,,,,f,1,0.925250053406,f,1,0.608076095581,moral_self_bias,07,20,59.9829817418,f,001,2018_Apr_02_1249,
,,,,,,,,,,,,,,,,,,,,,,material/35.png,2,冷血,material/135.png,2,material/135.png,冷血,2,f,f,f,1,1,1,冷漠,,,,,,,,,0,165,165,114,,,,,,,,,,,,,,,,,moral_self_bias,07,20,59.9829817418,f,001,2018_Apr_02_1249,
,,,,,,,,,,,,,,,,,,,,,,material/161.png,1,奉献,material/164.png,1,material/64.png,孝顺,1,f,f,f,1,1,1,勇敢,,,,,,,,,0,166,166,143,,,,,,,,,,,j,0,3.10800099373,,,,moral_self_bias,07,20,59.9829817418,f,001,2018_Apr_02_1249,
,,,,,,,,,,,,,,,,,,,,,,material/180.png,2,无助,material/79.png,2,material/81.png,颓废,2,j,j,j,2,2,2,怠惰,,,,,,,,,0,167,167,75,,,,,,,,,,,j,1,0.673563957214,,,,moral_self_bias,07,20,59.9829817418,f,001,2018_Apr_02_1249,
