Block1_Old,Num_Source3,Num_Source2,Num_Source1,valence1,valence2,valence3,Num_Old2,Corr_S1,Num_Old1,Corr_S3,Corr_S2,Block3_Old,Block2_Old,Source_2,Source_3,Source_1,domain3,domain2,domain1,Num_Old3,math,Num_All2,valence_all1,All_Words3,Num_All1,valence_all2,Num_All3,All_Words1,valence_all3,Corr_Rec2,Corr_Rec3,Corr_Rec1,domian_all3,domian_all2,domian_all1,All_Words2,trials.thisRepN,trials.thisTrialN,trials.thisN,trials.thisIndex,trials_2.thisRepN,trials_2.thisTrialN,trials_2.thisN,trials_2.thisIndex,trials_4.thisRepN,trials_4.thisTrialN,trials_4.thisN,trials_4.thisIndex,trials_3.thisRepN,trials_3.thisTrialN,trials_3.thisN,trials_3.thisIndex,block_resp_1.keys,block_resp_1.rt,words_rating.keys,words_rating.rt,block_resp_2.keys,block_resp_2.rt,Rec_resp.keys,Rec_resp.corr,Rec_resp.rt,Source_resp.keys,Source_resp.corr,Source_resp.rt,expName,participant,Age,frameRate,Sex,session,date,
,,,,,,,,,,,,,,,,,,,,,,,,,,,,,,,,,,,,,,,,,,,,,,,,,,,,,3,7.81637907028,,,,,,,,,,,moral_self_bias,09,18,59.9214534399,m,001,2018_Apr_02_1341,
冷静,material/instr2_1.png,material/instr2_1.png,material/instr2_1.png,1,1,1,material/24.png,f,material/124.png,f,f,理智,理智,self,self,self,2,2,2,material/24.png,,,,,,,,,,,,,,,,,0,0,0,23,,,,,,,,,,,,,,,4,2.092659235,,,,,,,,,moral_self_bias,09,18,59.9214534399,m,001,2018_Apr_02_1341,
差生,material/instr2_2.png,material/instr2_2.png,material/instr2_2.png,2,2,2,material/81.png,j,material/179.png,j,j,呆笨,无助,friend,friend,friend,2,2,2,material/83.png,,,,,,,,,,,,,,,,,0,1,1,78,,,,,,,,,,,,,,,4,2.0045568943,,,,,,,,,moral_self_bias,09,18,59.9214534399,m,001,2018_Apr_02_1341,
毛糙,material/instr2_2.png,material/instr2_2.png,material/instr2_2.png,2,2,2,material/179.png,j,material/178.png,j,j,顽愚,差生,friend,friend,friend,2,2,2,material/84.png,,,,,,,,,,,,,,,,,0,2,2,77,,,,,,,,,,,,,,,2,1.77178001404,,,,,,,,,moral_self_bias,09,18,59.9214534399,m,001,2018_Apr_02_1341,
高手,material/instr2_2.png,material/instr2_2.png,material/instr2_2.png,1,1,1,material/68.png,j,material/167.png,j,j,广博,广博,friend,friend,friend,2,2,2,material/68.png,,,,,,,,,,,,,,,,,0,3,3,66,,,,,,,,,,,,,,,4,1.60900712013,,,,,,,,,moral_self_bias,09,18,59.9214534399,m,001,2018_Apr_02_1341,
虚荣,material/instr2_1.png,material/instr2_1.png,material/instr2_1.png,2,2,2,material/43.png,f,material/143.png,f,f,虚荣,拜金,self,self,self,1,1,1,material/143.png,,,,,,,,,,,,,,,,,0,4,4,42,,,,,,,,,,,,,,,4,1.74274802208,,,,,,,,,moral_self_bias,09,18,59.9214534399,m,001,2018_Apr_02_1341,
无私,material/instr2_2.png,material/instr2_2.png,material/instr2_2.png,1,1,1,material/8.png,j,material/108.png,j,j,无私,公道,friend,friend,friend,1,1,1,material/108.png,,,,,,,,,,,,,,,,,0,5,5,7,,,,,,,,,,,,,,,4,2.03281807899,,,,,,,,,moral_self_bias,09,18,59.9214534399,m,001,2018_Apr_02_1341,
缓慢,material/instr2_1.png,material/instr2_1.png,material/instr2_1.png,2,2,2,material/52.png,f,material/152.png,f,f,拖延,拖延,self,self,self,2,2,2,material/52.png,,,,,,,,,,,,,,,,,0,6,6,51,,,,,,,,,,,,,,,4,1.14403104782,,,,,,,,,moral_self_bias,09,18,59.9214534399,m,001,2018_Apr_02_1341,
正直,material/instr2_2.png,material/instr2_2.png,material/instr2_2.png,1,1,1,material/9.png,j,material/109.png,j,j,正直,秉直,friend,friend,friend,1,1,1,material/109.png,,,,,,,,,,,,,,,,,0,7,7,8,,,,,,,,,,,,,,,4,0.858937978745,,,,,,,,,moral_self_bias,09,18,59.9214534399,m,001,2018_Apr_02_1341,
纯洁,material/instr2_2.png,material/instr2_2.png,material/instr2_2.png,1,1,1,material/15.png,j,material/115.png,j,j,纯洁,清白,friend,friend,friend,1,1,1,material/115.png,,,,,,,,,,,,,,,,,0,8,8,14,,,,,,,,,,,,,,,4,0.708138942719,,,,,,,,,moral_self_bias,09,18,59.9214534399,m,001,2018_Apr_02_1341,
奸诈,material/instr2_1.png,material/instr2_1.png,material/instr2_1.png,2,2,2,material/42.png,f,material/142.png,f,f,奸诈,阴险,self,self,self,1,1,1,material/142.png,,,,,,,,,,,,,,,,,0,9,9,41,,,,,,,,,,,,,,,2,1.44223594666,,,,,,,,,moral_self_bias,09,18,59.9214534399,m,001,2018_Apr_02_1341,
独立,material/instr2_1.png,material/instr2_1.png,material/instr2_1.png,1,1,1,material/64.png,f,material/165.png,f,f,谦虚,奉献,self,self,self,1,1,1,material/65.png,,,,,,,,,,,,,,,,,0,10,10,64,,,,,,,,,,,,,,,4,1.09204792976,,,,,,,,,moral_self_bias,09,18,59.9214534399,m,001,2018_Apr_02_1341,
贪污,material/instr2_1.png,material/instr2_1.png,material/instr2_1.png,2,2,2,material/33.png,f,material/133.png,f,f,贪污,腐败,self,self,self,1,1,1,material/133.png,,,,,,,,,,,,,,,,,0,11,11,32,,,,,,,,,,,,,,,2,1.17555999756,,,,,,,,,moral_self_bias,09,18,59.9214534399,m,001,2018_Apr_02_1341,
放纵,material/instr2_1.png,material/instr2_1.png,material/instr2_1.png,2,2,2,material/76.png,f,material/176.png,f,f,放纵,虚伪,self,self,self,1,1,1,material/176.png,,,,,,,,,,,,,,,,,0,12,12,75,,,,,,,,,,,,,,,2,1.62342309952,,,,,,,,,moral_self_bias,09,18,59.9214534399,m,001,2018_Apr_02_1341,
聪颖,material/instr2_2.png,material/instr2_2.png,material/instr2_2.png,1,1,1,material/17.png,j,material/117.png,j,j,聪明,聪明,friend,friend,friend,2,2,2,material/17.png,,,,,,,,,,,,,,,,,0,13,13,16,,,,,,,,,,,,,,,4,0.884478092194,,,,,,,,,moral_self_bias,09,18,59.9214534399,m,001,2018_Apr_02_1341,
进取,material/instr2_1.png,material/instr2_1.png,material/instr2_1.png,1,1,1,material/30.png,f,material/130.png,f,f,上进,上进,self,self,self,2,2,2,material/30.png,,,,,,,,,,,,,,,,,0,14,14,29,,,,,,,,,,,,,,,4,0.94403886795,,,,,,,,,moral_self_bias,09,18,59.9214534399,m,001,2018_Apr_02_1341,
卑鄙,material/instr2_2.png,material/instr2_2.png,material/instr2_2.png,2,2,2,material/37.png,j,material/137.png,j,j,卑鄙,无耻,friend,friend,friend,1,1,1,material/137.png,,,,,,,,,,,,,,,,,0,15,15,36,,,,,,,,,,,,,,,2,0.775638103485,,,,,,,,,moral_self_bias,09,18,59.9214534399,m,001,2018_Apr_02_1341,
博学,material/instr2_1.png,material/instr2_1.png,material/instr2_1.png,1,1,1,material/22.png,f,material/122.png,f,f,才学,才学,self,self,self,2,2,2,material/22.png,,,,,,,,,,,,,,,,,0,16,16,21,,,,,,,,,,,,,,,2,2.52555203438,,,,,,,,,moral_self_bias,09,18,59.9214534399,m,001,2018_Apr_02_1341,
浮夸,material/instr2_2.png,material/instr2_2.png,material/instr2_2.png,2,2,2,material/77.png,j,material/172.png,j,j,浮夸,软弱,friend,friend,friend,1,1,1,material/172.png,,,,,,,,,,,,,,,,,0,17,17,71,,,,,,,,,,,,,,,2,0.97424697876,,,,,,,,,moral_self_bias,09,18,59.9214534399,m,001,2018_Apr_02_1341,
高明,material/instr2_1.png,material/instr2_1.png,material/instr2_1.png,1,1,1,material/69.png,f,material/69.png,f,f,高明,高明,self,self,self,2,2,2,material/69.png,,,,,,,,,,,,,,,,,0,18,18,86,,,,,,,,,,,,,,,2,1.5750348568,,,,,,,,,moral_self_bias,09,18,59.9214534399,m,001,2018_Apr_02_1341,
正义,material/instr2_1.png,material/instr2_1.png,material/instr2_1.png,1,1,1,material/66.png,f,material/66.png,f,f,独立,正义,self,self,self,1,1,1,material/165.png,,,,,,,,,,,,,,,,,0,19,19,84,,,,,,,,,,,,,,,None,,,,,,,,,,moral_self_bias,09,18,59.9214534399,m,001,2018_Apr_02_1341,
高尚,material/instr2_1.png,material/instr2_1.png,material/instr2_1.png,1,1,1,material/11.png,f,material/111.png,f,f,高尚,高雅,self,self,self,1,1,1,material/111.png,,,,,,,,,,,,,,,,,0,20,20,10,,,,,,,,,,,,,,,4,1.53392100334,,,,,,,,,moral_self_bias,09,18,59.9214534399,m,001,2018_Apr_02_1341,
自律,material/instr2_2.png,material/instr2_2.png,material/instr2_2.png,1,1,1,material/28.png,j,material/128.png,j,j,克己,克己,friend,friend,friend,2,2,2,material/28.png,,,,,,,,,,,,,,,,,0,21,21,27,,,,,,,,,,,,,,,2,1.85030293465,,,,,,,,,moral_self_bias,09,18,59.9214534399,m,001,2018_Apr_02_1341,
盲目,material/instr2_1.png,material/instr2_1.png,material/instr2_1.png,2,2,2,material/55.png,f,material/155.png,f,f,盲从,盲从,self,self,self,2,2,2,material/55.png,,,,,,,,,,,,,,,,,0,22,22,54,,,,,,,,,,,,,,,2,1.04222512245,,,,,,,,,moral_self_bias,09,18,59.9214534399,m,001,2018_Apr_02_1341,
浅薄,material/instr2_2.png,material/instr2_2.png,material/instr2_2.png,2,2,2,material/58.png,j,material/158.png,j,j,肤浅,肤浅,friend,friend,friend,2,2,2,material/58.png,,,,,,,,,,,,,,,,,0,23,23,57,,,,,,,,,,,,,,,2,0.925535917282,,,,,,,,,moral_self_bias,09,18,59.9214534399,m,001,2018_Apr_02_1341,
果敢,material/instr2_1.png,material/instr2_1.png,material/instr2_1.png,1,1,1,material/25.png,f,material/125.png,f,f,果断,果断,self,self,self,2,2,2,material/25.png,,,,,,,,,,,,,,,,,0,24,24,24,,,,,,,,,,,,,,,None,,,,,,,,,,moral_self_bias,09,18,59.9214534399,m,001,2018_Apr_02_1341,
狠毒,material/instr2_2.png,material/instr2_2.png,material/instr2_2.png,2,2,2,material/40.png,j,material/140.png,j,j,狠毒,邪恶,friend,friend,friend,1,1,1,material/140.png,,,,,,,,,,,,,,,,,0,25,25,39,,,,,,,,,,,,,,,2,1.45865297318,,,,,,,,,moral_self_bias,09,18,59.9214534399,m,001,2018_Apr_02_1341,
愚钝,material/instr2_1.png,material/instr2_1.png,material/instr2_1.png,2,2,2,material/56.png,f,material/156.png,f,f,愚昧,愚昧,self,self,self,2,2,2,material/56.png,,,,,,,,,,,,,,,,,0,26,26,55,,,,,,,,,,,,,,,2,1.07616496086,,,,,,,,,moral_self_bias,09,18,59.9214534399,m,001,2018_Apr_02_1341,
薄弱,material/instr2_1.png,material/instr2_1.png,material/instr2_1.png,2,2,2,material/82.png,f,material/183.png,f,f,毛糙,窝囊,self,self,self,2,2,2,material/178.png,,,,,,,,,,,,,,,,,0,27,27,82,,,,,,,,,,,,,,,4,2.14218401909,,,,,,,,,moral_self_bias,09,18,59.9214534399,m,001,2018_Apr_02_1341,
机变,material/instr2_2.png,material/instr2_2.png,material/instr2_2.png,1,1,1,material/70.png,j,material/168.png,j,j,全面,全面,friend,friend,friend,2,2,2,material/70.png,,,,,,,,,,,,,,,,,0,28,28,67,,,,,,,,,,,,,,,4,1.042085886,,,,,,,,,moral_self_bias,09,18,59.9214534399,m,001,2018_Apr_02_1341,
刻板,material/instr2_2.png,material/instr2_2.png,material/instr2_2.png,2,2,2,material/47.png,j,material/147.png,j,j,死板,死板,friend,friend,friend,2,2,2,material/47.png,,,,,,,,,,,,,,,,,0,29,29,46,,,,,,,,,,,,,,,2,1.29206895828,,,,,,,,,moral_self_bias,09,18,59.9214534399,m,001,2018_Apr_02_1341,
背叛,material/instr2_1.png,material/instr2_1.png,material/instr2_1.png,2,2,2,material/32.png,f,material/132.png,f,f,背叛,不忠,self,self,self,1,1,1,material/132.png,,,,,,,,,,,,,,,,,0,30,30,31,,,,,,,,,,,,,,,2,2.17530298233,,,,,,,,,moral_self_bias,09,18,59.9214534399,m,001,2018_Apr_02_1341,
残虐,material/instr2_1.png,material/instr2_1.png,material/instr2_1.png,2,2,2,material/175.png,f,material/73.png,f,f,残虐,无情,self,self,self,1,1,1,material/73.png,,,,,,,,,,,,,,,,,0,31,31,85,,,,,,,,,,,,,,,2,0.992506027222,,,,,,,,,moral_self_bias,09,18,59.9214534399,m,001,2018_Apr_02_1341,
勇敢,material/instr2_2.png,material/instr2_2.png,material/instr2_2.png,1,1,1,material/165.png,j,material/161.png,j,j,平等,独立,friend,friend,friend,1,1,1,material/61.png,,,,,,,,,,,,,,,,,0,32,32,60,,,,,,,,,,,,,,,4,0.825417995453,,,,,,,,,moral_self_bias,09,18,59.9214534399,m,001,2018_Apr_02_1341,
冷血,material/instr2_1.png,material/instr2_1.png,material/instr2_1.png,2,2,2,material/35.png,f,material/135.png,f,f,冷血,冷漠,self,self,self,1,1,1,material/135.png,,,,,,,,,,,,,,,,,0,33,33,34,,,,,,,,,,,,,,,2,0.875123977661,,,,,,,,,moral_self_bias,09,18,59.9214534399,m,001,2018_Apr_02_1341,
宽容,material/instr2_2.png,material/instr2_2.png,material/instr2_2.png,1,1,1,material/163.png,j,material/163.png,j,j,文明,宽容,friend,friend,friend,1,1,1,material/63.png,,,,,,,,,,,,,,,,,0,34,34,62,,,,,,,,,,,,,,,4,1.04098701477,,,,,,,,,moral_self_bias,09,18,59.9214534399,m,001,2018_Apr_02_1341,
博爱,material/instr2_1.png,material/instr2_1.png,material/instr2_1.png,1,1,1,material/1.png,f,material/101.png,f,f,博爱,善良,self,self,self,1,1,1,material/101.png,,,,,,,,,,,,,,,,,0,35,35,0,,,,,,,,,,,,,,,2,1.19256782532,,,,,,,,,moral_self_bias,09,18,59.9214534399,m,001,2018_Apr_02_1341,
坚忍,material/instr2_1.png,material/instr2_1.png,material/instr2_1.png,1,1,1,material/168.png,f,material/170.png,f,f,机变,机变,self,self,self,2,2,2,material/168.png,,,,,,,,,,,,,,,,,0,36,36,69,,,,,,,,,,,,,,,4,0.822690010071,,,,,,,,,moral_self_bias,09,18,59.9214534399,m,001,2018_Apr_02_1341,
笃行,material/instr2_1.png,material/instr2_1.png,material/instr2_1.png,1,1,1,material/31.png,f,material/131.png,f,f,笃学,笃学,self,self,self,2,2,2,material/31.png,,,,,,,,,,,,,,,,,0,37,37,30,,,,,,,,,,,,,,,2,1.0084900856,,,,,,,,,moral_self_bias,09,18,59.9214534399,m,001,2018_Apr_02_1341,
小人,material/instr2_2.png,material/instr2_2.png,material/instr2_2.png,2,2,2,material/45.png,j,material/145.png,j,j,小人,下流,friend,friend,friend,1,1,1,material/145.png,,,,,,,,,,,,,,,,,0,38,38,44,,,,,,,,,,,,,,,2,1.075548172,,,,,,,,,moral_self_bias,09,18,59.9214534399,m,001,2018_Apr_02_1341,
厚道,material/instr2_2.png,material/instr2_2.png,material/instr2_2.png,1,1,1,material/6.png,j,material/106.png,j,j,厚道,诚实,friend,friend,friend,1,1,1,material/106.png,,,,,,,,,,,,,,,,,0,39,39,5,,,,,,,,,,,,,,,4,0.825621128082,,,,,,,,,moral_self_bias,09,18,59.9214534399,m,001,2018_Apr_02_1341,
鲁钝,material/instr2_2.png,material/instr2_2.png,material/instr2_2.png,2,2,2,material/50.png,j,material/150.png,j,j,愚笨,愚笨,friend,friend,friend,2,2,2,material/50.png,,,,,,,,,,,,,,,,,0,40,40,49,,,,,,,,,,,,,,,2,1.05892300606,,,,,,,,,moral_self_bias,09,18,59.9214534399,m,001,2018_Apr_02_1341,
迷糊,material/instr2_2.png,material/instr2_2.png,material/instr2_2.png,2,2,2,material/51.png,j,material/151.png,j,j,糊涂,糊涂,friend,friend,friend,2,2,2,material/51.png,,,,,,,,,,,,,,,,,0,41,41,50,,,,,,,,,,,,,,,2,0.741872787476,,,,,,,,,moral_self_bias,09,18,59.9214534399,m,001,2018_Apr_02_1341,
厌学,material/instr2_2.png,material/instr2_2.png,material/instr2_2.png,2,2,2,material/182.png,j,material/184.png,j,j,健忘,才尽,friend,friend,friend,2,2,2,material/80.png,,,,,,,,,,,,,,,,,0,42,42,83,,,,,,,,,,,,,,,2,0.650334835052,,,,,,,,,moral_self_bias,09,18,59.9214534399,m,001,2018_Apr_02_1341,
迟钝,material/instr2_1.png,material/instr2_1.png,material/instr2_1.png,2,2,2,material/53.png,f,material/153.png,f,f,迟缓,迟缓,self,self,self,2,2,2,material/53.png,,,,,,,,,,,,,,,,,0,43,43,52,,,,,,,,,,,,,,,2,1.42547011375,,,,,,,,,moral_self_bias,09,18,59.9214534399,m,001,2018_Apr_02_1341,
黑心,material/instr2_2.png,material/instr2_2.png,material/instr2_2.png,2,2,2,material/74.png,j,material/173.png,j,j,黑心,卑劣,friend,friend,friend,1,1,1,material/173.png,,,,,,,,,,,,,,,,,0,44,44,72,,,,,,,,,,,,,,,2,0.693058013916,,,,,,,,,moral_self_bias,09,18,59.9214534399,m,001,2018_Apr_02_1341,
多才,material/instr2_1.png,material/instr2_1.png,material/instr2_1.png,1,1,1,material/23.png,f,material/123.png,f,f,有才,有才,self,self,self,2,2,2,material/23.png,,,,,,,,,,,,,,,,,0,45,45,22,,,,,,,,,,,,,,,2,0.842343091965,,,,,,,,,moral_self_bias,09,18,59.9214534399,m,001,2018_Apr_02_1341,
孝顺,material/instr2_1.png,material/instr2_1.png,material/instr2_1.png,1,1,1,material/161.png,f,material/164.png,f,f,奉献,勇敢,self,self,self,1,1,1,material/64.png,,,,,,,,,,,,,,,,,0,46,46,63,,,,,,,,,,,,,,,4,1.1085832119,,,,,,,,,moral_self_bias,09,18,59.9214534399,m,001,2018_Apr_02_1341,
才尽,material/instr2_1.png,material/instr2_1.png,material/instr2_1.png,2,2,2,material/183.png,f,material/182.png,f,f,颓废,薄弱,self,self,self,2,2,2,material/79.png,,,,,,,,,,,,,,,,,0,47,47,81,,,,,,,,,,,,,,,2,1.29173803329,,,,,,,,,moral_self_bias,09,18,59.9214534399,m,001,2018_Apr_02_1341,
高效,material/instr2_1.png,material/instr2_1.png,material/instr2_1.png,1,1,1,material/169.png,f,material/171.png,f,f,颖悟,颖悟,self,self,self,2,2,2,material/169.png,,,,,,,,,,,,,,,,,0,48,48,70,,,,,,,,,,,,,,,4,1.27479600906,,,,,,,,,moral_self_bias,09,18,59.9214534399,m,001,2018_Apr_02_1341,
敬业,material/instr2_2.png,material/instr2_2.png,material/instr2_2.png,1,1,1,material/62.png,j,material/162.png,j,j,坚韧,坚韧,friend,friend,friend,1,1,1,material/62.png,,,,,,,,,,,,,,,,,0,49,49,61,,,,,,,,,,,,,,,2,0.825845956802,,,,,,,,,moral_self_bias,09,18,59.9214534399,m,001,2018_Apr_02_1341,
恶心,material/instr2_1.png,material/instr2_1.png,material/instr2_1.png,2,2,2,material/73.png,f,material/177.png,f,f,恶心,残虐,self,self,self,1,1,1,material/177.png,,,,,,,,,,,,,,,,,0,50,50,76,,,,,,,,,,,,,,,2,1.14201116562,,,,,,,,,moral_self_bias,09,18,59.9214534399,m,001,2018_Apr_02_1341,
仗义,material/instr2_1.png,material/instr2_1.png,material/instr2_1.png,1,1,1,material/63.png,f,material/166.png,f,f,正义,文明,self,self,self,1,1,1,material/66.png,,,,,,,,,,,,,,,,,0,51,51,65,,,,,,,,,,,,,,,4,1.10854506493,,,,,,,,,moral_self_bias,09,18,59.9214534399,m,001,2018_Apr_02_1341,
恶毒,material/instr2_2.png,material/instr2_2.png,material/instr2_2.png,2,2,2,material/39.png,j,material/139.png,j,j,恶毒,凶残,friend,friend,friend,1,1,1,material/139.png,,,,,,,,,,,,,,,,,0,52,52,38,,,,,,,,,,,,,,,2,0.775063991547,,,,,,,,,moral_self_bias,09,18,59.9214534399,m,001,2018_Apr_02_1341,
好问,material/instr2_1.png,material/instr2_1.png,material/instr2_1.png,1,1,1,material/29.png,f,material/129.png,f,f,好学,好学,self,self,self,2,2,2,material/29.png,,,,,,,,,,,,,,,,,0,53,53,28,,,,,,,,,,,,,,,2,1.12580394745,,,,,,,,,moral_self_bias,09,18,59.9214534399,m,001,2018_Apr_02_1341,
坚毅,material/instr2_2.png,material/instr2_2.png,material/instr2_2.png,1,1,1,material/10.png,j,material/110.png,j,j,坚毅,顽强,friend,friend,friend,1,1,1,material/110.png,,,,,,,,,,,,,,,,,0,54,54,9,,,,,,,,,,,,,,,4,1.12545681,,,,,,,,,moral_self_bias,09,18,59.9214534399,m,001,2018_Apr_02_1341,
忠贞,material/instr2_2.png,material/instr2_2.png,material/instr2_2.png,1,1,1,material/14.png,j,material/114.png,j,j,忠贞,爱国,friend,friend,friend,1,1,1,material/114.png,,,,,,,,,,,,,,,,,0,55,55,13,,,,,,,,,,,,,,,4,1.19251298904,,,,,,,,,moral_self_bias,09,18,59.9214534399,m,001,2018_Apr_02_1341,
超群,material/instr2_2.png,material/instr2_2.png,material/instr2_2.png,1,1,1,material/27.png,j,material/127.png,j,j,卓越,卓越,friend,friend,friend,2,2,2,material/27.png,,,,,,,,,,,,,,,,,0,56,56,26,,,,,,,,,,,,,,,4,1.97531795502,,,,,,,,,moral_self_bias,09,18,59.9214534399,m,001,2018_Apr_02_1341,
自私,material/instr2_2.png,material/instr2_2.png,material/instr2_2.png,2,2,2,material/46.png,j,material/146.png,j,j,自私,小气,friend,friend,friend,1,1,1,material/146.png,,,,,,,,,,,,,,,,,0,57,57,45,,,,,,,,,,,,,,,2,1.02571702003,,,,,,,,,moral_self_bias,09,18,59.9214534399,m,001,2018_Apr_02_1341,
依靠,material/instr2_1.png,material/instr2_1.png,material/instr2_1.png,2,2,2,material/54.png,f,material/154.png,f,f,依赖,依赖,self,self,self,2,2,2,material/54.png,,,,,,,,,,,,,,,,,0,58,58,53,,,,,,,,,,,,,,,2,1.6246907711,,,,,,,,,moral_self_bias,09,18,59.9214534399,m,001,2018_Apr_02_1341,
残忍,material/instr2_2.png,material/instr2_2.png,material/instr2_2.png,2,2,2,material/41.png,j,material/141.png,j,j,残忍,歹毒,friend,friend,friend,1,1,1,material/141.png,,,,,,,,,,,,,,,,,0,59,59,40,,,,,,,,,,,,,,,2,1.63331985474,,,,,,,,,moral_self_bias,09,18,59.9214534399,m,001,2018_Apr_02_1341,
诚信,material/instr2_1.png,material/instr2_1.png,material/instr2_1.png,1,1,1,material/5.png,f,material/105.png,f,f,诚信,守信,self,self,self,1,1,1,material/105.png,,,,,,,,,,,,,,,,,0,60,60,4,,,,,,,,,,,,,,,4,1.54227495193,,,,,,,,,moral_self_bias,09,18,59.9214534399,m,001,2018_Apr_02_1341,
白痴,material/instr2_2.png,material/instr2_2.png,material/instr2_2.png,2,2,2,material/49.png,j,material/149.png,j,j,痴呆,痴呆,friend,friend,friend,2,2,2,material/49.png,,,,,,,,,,,,,,,,,0,61,61,48,,,,,,,,,,,,,,,2,0.808761119843,,,,,,,,,moral_self_bias,09,18,59.9214534399,m,001,2018_Apr_02_1341,
忠心,material/instr2_1.png,material/instr2_1.png,material/instr2_1.png,1,1,1,material/12.png,f,material/112.png,f,f,忠心,忠诚,self,self,self,1,1,1,material/112.png,,,,,,,,,,,,,,,,,0,62,62,11,,,,,,,,,,,,,,,4,1.14338183403,,,,,,,,,moral_self_bias,09,18,59.9214534399,m,001,2018_Apr_02_1341,
可恶,material/instr2_1.png,material/instr2_1.png,material/instr2_1.png,2,2,2,material/34.png,f,material/134.png,f,f,可恶,可恨,self,self,self,1,1,1,material/134.png,,,,,,,,,,,,,,,,,0,63,63,33,,,,,,,,,,,,,,,2,1.74214100838,,,,,,,,,moral_self_bias,09,18,59.9214534399,m,001,2018_Apr_02_1341,
撒谎,material/instr2_1.png,material/instr2_1.png,material/instr2_1.png,2,2,2,material/36.png,f,material/136.png,f,f,撒谎,说谎,self,self,self,1,1,1,material/136.png,,,,,,,,,,,,,,,,,0,64,64,35,,,,,,,,,,,,,,,2,1.34210181236,,,,,,,,,moral_self_bias,09,18,59.9214534399,m,001,2018_Apr_02_1341,
机敏,material/instr2_2.png,material/instr2_2.png,material/instr2_2.png,1,1,1,material/18.png,j,material/118.png,j,j,敏锐,敏锐,friend,friend,friend,2,2,2,material/18.png,,,,,,,,,,,,,,,,,0,65,65,17,,,,,,,,,,,,,,,4,1.2418551445,,,,,,,,,moral_self_bias,09,18,59.9214534399,m,001,2018_Apr_02_1341,
仁厚,material/instr2_1.png,material/instr2_1.png,material/instr2_1.png,1,1,1,material/3.png,f,material/103.png,f,f,仁厚,仁慈,self,self,self,1,1,1,material/103.png,,,,,,,,,,,,,,,,,0,66,66,2,,,,,,,,,,,,,,,4,1.25819206238,,,,,,,,,moral_self_bias,09,18,59.9214534399,m,001,2018_Apr_02_1341,
弱智,material/instr2_1.png,material/instr2_1.png,material/instr2_1.png,2,2,2,material/59.png,f,material/159.png,f,f,智障,智障,self,self,self,2,2,2,material/59.png,,,,,,,,,,,,,,,,,0,67,67,58,,,,,,,,,,,,,,,2,0.975368022919,,,,,,,,,moral_self_bias,09,18,59.9214534399,m,001,2018_Apr_02_1341,
勤快,material/instr2_2.png,material/instr2_2.png,material/instr2_2.png,1,1,1,material/26.png,j,material/126.png,j,j,刻苦,刻苦,friend,friend,friend,2,2,2,material/26.png,,,,,,,,,,,,,,,,,0,68,68,25,,,,,,,,,,,,,,,2,1.39216995239,,,,,,,,,moral_self_bias,09,18,59.9214534399,m,001,2018_Apr_02_1341,
缺德,material/instr2_2.png,material/instr2_2.png,material/instr2_2.png,2,2,2,material/38.png,j,material/138.png,j,j,缺德,无德,friend,friend,friend,1,1,1,material/138.png,,,,,,,,,,,,,,,,,0,69,69,37,,,,,,,,,,,,,,,2,0.792186021805,,,,,,,,,moral_self_bias,09,18,59.9214534399,m,001,2018_Apr_02_1341,
能干,material/instr2_2.png,material/instr2_2.png,material/instr2_2.png,1,1,1,material/20.png,j,material/120.png,j,j,厉害,厉害,friend,friend,friend,2,2,2,material/20.png,,,,,,,,,,,,,,,,,0,70,70,19,,,,,,,,,,,,,,,4,1.02294993401,,,,,,,,,moral_self_bias,09,18,59.9214534399,m,001,2018_Apr_02_1341,
精干,material/instr2_1.png,material/instr2_1.png,material/instr2_1.png,1,1,1,material/21.png,f,material/121.png,f,f,干练,干练,self,self,self,2,2,2,material/21.png,,,,,,,,,,,,,,,,,0,71,71,20,,,,,,,,,,,,,,,4,0.916791915894,,,,,,,,,moral_self_bias,09,18,59.9214534399,m,001,2018_Apr_02_1341,
不义,material/instr2_2.png,material/instr2_2.png,material/instr2_2.png,2,2,2,material/173.png,j,material/174.png,j,j,不义,黑心,friend,friend,friend,1,1,1,material/174.png,,,,,,,,,,,,,,,,,0,72,72,73,,,,,,,,,,,,,,,2,0.791500091553,,,,,,,,,moral_self_bias,09,18,59.9214534399,m,001,2018_Apr_02_1341,
颖悟,material/instr2_2.png,material/instr2_2.png,material/instr2_2.png,1,1,1,material/167.png,j,material/169.png,j,j,高手,高手,friend,friend,friend,2,2,2,material/167.png,,,,,,,,,,,,,,,,,0,73,73,68,,,,,,,,,,,,,,,4,2.04196882248,,,,,,,,,moral_self_bias,09,18,59.9214534399,m,001,2018_Apr_02_1341,
爱心,material/instr2_1.png,material/instr2_1.png,material/instr2_1.png,1,1,1,material/2.png,f,material/102.png,f,f,爱心,善心,self,self,self,1,1,1,material/102.png,,,,,,,,,,,,,,,,,0,74,74,1,,,,,,,,,,,,,,,4,0.642480134964,,,,,,,,,moral_self_bias,09,18,59.9214534399,m,001,2018_Apr_02_1341,
廉明,material/instr2_2.png,material/instr2_2.png,material/instr2_2.png,1,1,1,material/13.png,j,material/113.png,j,j,廉明,廉洁,friend,friend,friend,1,1,1,material/113.png,,,,,,,,,,,,,,,,,0,75,75,12,,,,,,,,,,,,,,,4,0.708194971085,,,,,,,,,moral_self_bias,09,18,59.9214534399,m,001,2018_Apr_02_1341,
无能,material/instr2_2.png,material/instr2_2.png,material/instr2_2.png,2,2,2,material/57.png,j,material/157.png,j,j,无知,无知,friend,friend,friend,2,2,2,material/57.png,,,,,,,,,,,,,,,,,0,76,76,56,,,,,,,,,,,,,,,2,0.775586843491,,,,,,,,,moral_self_bias,09,18,59.9214534399,m,001,2018_Apr_02_1341,
笨拙,material/instr2_1.png,material/instr2_1.png,material/instr2_1.png,2,2,2,material/60.png,f,material/160.png,f,f,粗拙,粗拙,self,self,self,2,2,2,material/60.png,,,,,,,,,,,,,,,,,0,77,77,59,,,,,,,,,,,,,,,2,0.725322008133,,,,,,,,,moral_self_bias,09,18,59.9214534399,m,001,2018_Apr_02_1341,
笨蛋,material/instr2_2.png,material/instr2_2.png,material/instr2_2.png,2,2,2,material/48.png,j,material/148.png,j,j,愚蠢,愚蠢,friend,friend,friend,2,2,2,material/48.png,,,,,,,,,,,,,,,,,0,78,78,47,,,,,,,,,,,,,,,2,0.643299102783,,,,,,,,,moral_self_bias,09,18,59.9214534399,m,001,2018_Apr_02_1341,
犹豫,material/instr2_1.png,material/instr2_1.png,material/instr2_1.png,2,2,2,material/78.png,f,material/181.png,f,f,厌学,草率,self,self,self,2,2,2,material/184.png,,,,,,,,,,,,,,,,,0,79,79,80,,,,,,,,,,,,,,,2,1.59213399887,,,,,,,,,moral_self_bias,09,18,59.9214534399,m,001,2018_Apr_02_1341,
顽愚,material/instr2_1.png,material/instr2_1.png,material/instr2_1.png,2,2,2,material/84.png,f,material/84.png,f,f,犹豫,顽愚,self,self,self,2,2,2,material/181.png,,,,,,,,,,,,,,,,,0,80,80,87,,,,,,,,,,,,,,,4,1.54134988785,,,,,,,,,moral_self_bias,09,18,59.9214534399,m,001,2018_Apr_02_1341,
爽约,material/instr2_2.png,material/instr2_2.png,material/instr2_2.png,2,2,2,material/44.png,j,material/144.png,j,j,爽约,失信,friend,friend,friend,1,1,1,material/144.png,,,,,,,,,,,,,,,,,0,81,81,43,,,,,,,,,,,,,,,2,1.34155511856,,,,,,,,,moral_self_bias,09,18,59.9214534399,m,001,2018_Apr_02_1341,
公平,material/instr2_2.png,material/instr2_2.png,material/instr2_2.png,1,1,1,material/7.png,j,material/107.png,j,j,公平,公正,friend,friend,friend,1,1,1,material/107.png,,,,,,,,,,,,,,,,,0,82,82,6,,,,,,,,,,,,,,,4,0.800169944763,,,,,,,,,moral_self_bias,09,18,59.9214534399,m,001,2018_Apr_02_1341,
机智,material/instr2_2.png,material/instr2_2.png,material/instr2_2.png,1,1,1,material/16.png,j,material/116.png,j,j,睿智,睿智,friend,friend,friend,2,2,2,material/16.png,,,,,,,,,,,,,,,,,0,83,83,15,,,,,,,,,,,,,,,4,0.808853149414,,,,,,,,,moral_self_bias,09,18,59.9214534399,m,001,2018_Apr_02_1341,
机灵,material/instr2_2.png,material/instr2_2.png,material/instr2_2.png,1,1,1,material/19.png,j,material/119.png,j,j,灵活,灵活,friend,friend,friend,2,2,2,material/19.png,,,,,,,,,,,,,,,,,0,84,84,18,,,,,,,,,,,,,,,4,0.850220918655,,,,,,,,,moral_self_bias,09,18,59.9214534399,m,001,2018_Apr_02_1341,
无情,material/instr2_1.png,material/instr2_1.png,material/instr2_1.png,2,2,2,material/172.png,f,material/175.png,f,f,无情,浮夸,self,self,self,1,1,1,material/175.png,,,,,,,,,,,,,,,,,0,85,85,74,,,,,,,,,,,,,,,2,1.44198799133,,,,,,,,,moral_self_bias,09,18,59.9214534399,m,001,2018_Apr_02_1341,
怠惰,material/instr2_2.png,material/instr2_2.png,material/instr2_2.png,2,2,2,material/181.png,j,material/180.png,j,j,怠惰,犹豫,friend,friend,friend,2,2,2,material/180.png,,,,,,,,,,,,,,,,,0,86,86,79,,,,,,,,,,,,,,,4,1.2087700367,,,,,,,,,moral_self_bias,09,18,59.9214534399,m,001,2018_Apr_02_1341,
友善,material/instr2_1.png,material/instr2_1.png,material/instr2_1.png,1,1,1,material/4.png,f,material/104.png,f,f,友善,友爱,self,self,self,1,1,1,material/104.png,,,,,,,,,,,,,,,,,0,87,87,3,,,,,,,,,,,,,,,4,0.666932106018,,,,,,,,,moral_self_bias,09,18,59.9214534399,m,001,2018_Apr_02_1341,
,,,,,,,,,,,,,,,,,,,,,5*0= ?,,,,,,,,,,,,,,,,,,,,0,0,0,86,,,,,,,,,,,,,,,,,,,,,moral_self_bias,09,18,59.9214534399,m,001,2018_Apr_02_1341,
,,,,,,,,,,,,,,,,,,,,,32-23=？,,,,,,,,,,,,,,,,,,,,0,1,1,60,,,,,,,,,,,,,,,,,,,,,moral_self_bias,09,18,59.9214534399,m,001,2018_Apr_02_1341,
,,,,,,,,,,,,,,,,,,,,,6+3= ?,,,,,,,,,,,,,,,,,,,,0,2,2,45,,,,,,,,,,,,,,,,,,,,,moral_self_bias,09,18,59.9214534399,m,001,2018_Apr_02_1341,
,,,,,,,,,,,,,,,,,,,,,1+2= ?,,,,,,,,,,,,,,,,,,,,0,3,3,1,,,,,,,,,,,,,,,,,,,,,moral_self_bias,09,18,59.9214534399,m,001,2018_Apr_02_1341,
,,,,,,,,,,,,,,,,,,,,,9-2= ?,,,,,,,,,,,,,,,,,,,,0,4,4,14,,,,,,,,,,,,,,,,,,,,,moral_self_bias,09,18,59.9214534399,m,001,2018_Apr_02_1341,
,,,,,,,,,,,,,,,,,,,,,90/45= ?,,,,,,,,,,,,,,,,,,,,0,5,5,74,,,,,,,,,,,,,,,,,,,,,moral_self_bias,09,18,59.9214534399,m,001,2018_Apr_02_1341,
,,,,,,,,,,,,,,,,,,,,,8-1= ?,,,,,,,,,,,,,,,,,,,,0,6,6,33,,,,,,,,,,,,,,,,,,,,,moral_self_bias,09,18,59.9214534399,m,001,2018_Apr_02_1341,
,,,,,,,,,,,,,,,,,,,,,1+6= ?,,,,,,,,,,,,,,,,,,,,0,7,7,5,,,,,,,,,,,,,,,,,,,,,moral_self_bias,09,18,59.9214534399,m,001,2018_Apr_02_1341,
,,,,,,,,,,,,,,,,,,,,,3*3= ?,,,,,,,,,,,,,,,,,,,,0,8,8,54,,,,,,,,,,,,,,,,,,,,,moral_self_bias,09,18,59.9214534399,m,001,2018_Apr_02_1341,
,,,,,,,,,,,,,,,,,,,,,56/7= ?,,,,,,,,,,,,,,,,,,,,0,9,9,77,,,,,,,,,,,,,,,,,,,,,moral_self_bias,09,18,59.9214534399,m,001,2018_Apr_02_1341,
,,,,,,,,,,,,,,,,,,,,,3+5= ?,,,,,,,,,,,,,,,,,,,,0,10,10,20,,,,,,,,,,,,,,,,,,,,,moral_self_bias,09,18,59.9214534399,m,001,2018_Apr_02_1341,
,,,,,,,,,,,,,,,,,,,,,21/7= ?,,,,,,,,,,,,,,,,,,,,0,11,11,70,,,,,,,,,,,,,,,,,,,,,moral_self_bias,09,18,59.9214534399,m,001,2018_Apr_02_1341,
,,,,,,,,,,,,,,,,,,,,,3+2= ?,,,,,,,,,,,,,,,,,,,,0,12,12,17,,,,,,,,,,,,,,,,,,,,,moral_self_bias,09,18,59.9214534399,m,001,2018_Apr_02_1341,
,,,,,,,,,,,,,,,,,,,,,18/2= ?,,,,,,,,,,,,,,,,,,,,0,13,13,97,,,,,,,,,,,,,,,,,,,,,moral_self_bias,09,18,59.9214534399,m,001,2018_Apr_02_1341,
,,,,,,,,,,,,,,,,,,,,,81/9= ?,,,,,,,,,,,,,,,,,,,,0,14,14,75,,,,,,,,,,,,,,,,,,,,,moral_self_bias,09,18,59.9214534399,m,001,2018_Apr_02_1341,
,,,,,,,,,,,,,,,,,,,,,9-3= ?,,,,,,,,,,,,,,,,,,,,0,15,15,15,,,,,,,,,,,,,,,,,,,,,moral_self_bias,09,18,59.9214534399,m,001,2018_Apr_02_1341,
,,,,,,,,,,,,,,,,,,,,,2+3= ?,,,,,,,,,,,,,,,,,,,,0,16,16,9,,,,,,,,,,,,,,,,,,,,,moral_self_bias,09,18,59.9214534399,m,001,2018_Apr_02_1341,
,,,,,,,,,,,,,,,,,,,,,1*9= ?,,,,,,,,,,,,,,,,,,,,0,17,17,109,,,,,,,,,,,,,,,,,,,,,moral_self_bias,09,18,59.9214534399,m,001,2018_Apr_02_1341,
,,,,,,,,,,,,,,,,,,,,,22-22= ?,,,,,,,,,,,,,,,,,,,,0,18,18,93,,,,,,,,,,,,,,,,,,,,,moral_self_bias,09,18,59.9214534399,m,001,2018_Apr_02_1341,
,,,,,,,,,,,,,,,,,,,,,6+2= ?,,,,,,,,,,,,,,,,,,,,0,19,19,44,,,,,,,,,,,,,,,,,,,,,moral_self_bias,09,18,59.9214534399,m,001,2018_Apr_02_1341,
,,,,,,,,,,,,,,,,,,,,,9-1=?,,,,,,,,,,,,,,,,,,,,0,20,20,2,,,,,,,,,,,,,,,,,,,,,moral_self_bias,09,18,59.9214534399,m,001,2018_Apr_02_1341,
,,,,,,,,,,,,,,,,,,,,,6+1= ?,,,,,,,,,,,,,,,,,,,,0,21,21,43,,,,,,,,,,,,,,,,,,,,,moral_self_bias,09,18,59.9214534399,m,001,2018_Apr_02_1341,
,,,,,,,,,,,,,,,,,,,,,32-32= ?,,,,,,,,,,,,,,,,,,,,0,22,22,80,,,,,,,,,,,,,,,,,,,,,moral_self_bias,09,18,59.9214534399,m,001,2018_Apr_02_1341,
,,,,,,,,,,,,,,,,,,,,,8-2= ?,,,,,,,,,,,,,,,,,,,,0,23,23,38,,,,,,,,,,,,,,,,,,,,,moral_self_bias,09,18,59.9214534399,m,001,2018_Apr_02_1341,
,,,,,,,,,,,,,,,,,,,,,9-4= ?,,,,,,,,,,,,,,,,,,,,0,24,24,22,,,,,,,,,,,,,,,,,,,,,moral_self_bias,09,18,59.9214534399,m,001,2018_Apr_02_1341,
,,,,,,,,,,,,,,,,,,,,,9+0= ?,,,,,,,,,,,,,,,,,,,,0,25,25,118,,,,,,,,,,,,,,,,,,,,,moral_self_bias,09,18,59.9214534399,m,001,2018_Apr_02_1341,
,,,,,,,,,,,,,,,,,,,,,4+3= ?,,,,,,,,,,,,,,,,,,,,0,26,26,27,,,,,,,,,,,,,,,,,,,,,moral_self_bias,09,18,59.9214534399,m,001,2018_Apr_02_1341,
,,,,,,,,,,,,,,,,,,,,,49/7 = ?,,,,,,,,,,,,,,,,,,,,0,27,27,78,,,,,,,,,,,,,,,,,,,,,moral_self_bias,09,18,59.9214534399,m,001,2018_Apr_02_1341,
,,,,,,,,,,,,,,,,,,,,,2+5= ?,,,,,,,,,,,,,,,,,,,,0,28,28,11,,,,,,,,,,,,,,,,,,,,,moral_self_bias,09,18,59.9214534399,m,001,2018_Apr_02_1341,
,,,,,,,,,,,,,,,,,,,,,1+9= ?,,,,,,,,,,,,,,,,,,,,0,29,29,3,,,,,,,,,,,,,,,,,,,,,moral_self_bias,09,18,59.9214534399,m,001,2018_Apr_02_1341,
,,,,,,,,,,,,,,,,,,,,,8*1= ?,,,,,,,,,,,,,,,,,,,,0,30,30,111,,,,,,,,,,,,,,,,,,,,,moral_self_bias,09,18,59.9214534399,m,001,2018_Apr_02_1341,
,,,,,,,,,,,,,,,,,,,,,4+2= ?,,,,,,,,,,,,,,,,,,,,0,31,31,26,,,,,,,,,,,,,,,,,,,,,moral_self_bias,09,18,59.9214534399,m,001,2018_Apr_02_1341,
,,,,,,,,,,,,,,,,,,,,,9-9= ?,,,,,,,,,,,,,,,,,,,,0,32,32,32,,,,,,,,,,,,,,,,,,,,,moral_self_bias,09,18,59.9214534399,m,001,2018_Apr_02_1341,
,,,,,,,,,,,,,,,,,,,,,17-12= ? ,,,,,,,,,,,,,,,,,,,,0,33,33,104,,,,,,,,,,,,,,,,,,,,,moral_self_bias,09,18,59.9214534399,m,001,2018_Apr_02_1341,
,,,,,,,,,,,,,,,,,,,,,3+3= ?,,,,,,,,,,,,,,,,,,,,0,34,34,18,,,,,,,,,,,,,,,,,,,,,moral_self_bias,09,18,59.9214534399,m,001,2018_Apr_02_1341,
,,,,,,,,,,,,,,,,,,,,,43-34= ?,,,,,,,,,,,,,,,,,,,,0,35,35,79,,,,,,,,,,,,,,,,,,,,,moral_self_bias,09,18,59.9214534399,m,001,2018_Apr_02_1341,
,,,,,,,,,,,,,,,,,,,,,21/3= ? ,,,,,,,,,,,,,,,,,,,,0,36,36,95,,,,,,,,,,,,,,,,,,,,,moral_self_bias,09,18,59.9214534399,m,001,2018_Apr_02_1341,
,,,,,,,,,,,,,,,,,,,,,6/2= ?,,,,,,,,,,,,,,,,,,,,0,37,37,58,,,,,,,,,,,,,,,,,,,,,moral_self_bias,09,18,59.9214534399,m,001,2018_Apr_02_1341,
,,,,,,,,,,,,,,,,,,,,,8/4= ?,,,,,,,,,,,,,,,,,,,,0,38,38,57,,,,,,,,,,,,,,,,,,,,,moral_self_bias,09,18,59.9214534399,m,001,2018_Apr_02_1341,
,,,,,,,,,,,,,,,,,,,,,6^0= ?,,,,,,,,,,,,,,,,,,,,0,39,39,103,,,,,,,,,,,,,,,,,,,,,moral_self_bias,09,18,59.9214534399,m,001,2018_Apr_02_1341,
,,,,,,,,,,,,,,,,,,,,,3*1= ?,,,,,,,,,,,,,,,,,,,,0,40,40,83,,,,,,,,,,,,,,,,,,,,,moral_self_bias,09,18,59.9214534399,m,001,2018_Apr_02_1341,
,,,,,,,,,,,,,,,,,,,,,3^1= ?,,,,,,,,,,,,,,,,,,,,0,41,41,101,,,,,,,,,,,,,,,,,,,,,moral_self_bias,09,18,59.9214534399,m,001,2018_Apr_02_1341,
,,,,,,,,,,,,,,,,,,,,,10-5=？,,,,,,,,,,,,,,,,,,,,0,42,42,67,,,,,,,,,,,,,,,,,,,,,moral_self_bias,09,18,59.9214534399,m,001,2018_Apr_02_1341,
,,,,,,,,,,,,,,,,,,,,,13-9= ?,,,,,,,,,,,,,,,,,,,,0,43,43,92,,,,,,,,,,,,,,,,,,,,,moral_self_bias,09,18,59.9214534399,m,001,2018_Apr_02_1341,
,,,,,,,,,,,,,,,,,,,,,5+4= ?,,,,,,,,,,,,,,,,,,,,0,44,44,37,,,,,,,,,,,,,,,,,,,,,moral_self_bias,09,18,59.9214534399,m,001,2018_Apr_02_1341,
,,,,,,,,,,,,,,,,,,,,,14-9=？,,,,,,,,,,,,,,,,,,,,0,45,45,63,,,,,,,,,,,,,,,,,,,,,moral_self_bias,09,18,59.9214534399,m,001,2018_Apr_02_1341,
,,,,,,,,,,,,,,,,,,,,,4*1= ?,,,,,,,,,,,,,,,,,,,,0,46,46,85,,,,,,,,,,,,,,,,,,,,,moral_self_bias,09,18,59.9214534399,m,001,2018_Apr_02_1341,
,,,,,,,,,,,,,,,,,,,,,3+1= ?,,,,,,,,,,,,,,,,,,,,0,47,47,16,,,,,,,,,,,,,,,,,,,,,moral_self_bias,09,18,59.9214534399,m,001,2018_Apr_02_1341,
,,,,,,,,,,,,,,,,,,,,,19-17= ?,,,,,,,,,,,,,,,,,,,,0,48,48,100,,,,,,,,,,,,,,,,,,,,,moral_self_bias,09,18,59.9214534399,m,001,2018_Apr_02_1341,
,,,,,,,,,,,,,,,,,,,,,11-8= ?,,,,,,,,,,,,,,,,,,,,0,49,49,106,,,,,,,,,,,,,,,,,,,,,moral_self_bias,09,18,59.9214534399,m,001,2018_Apr_02_1341,
,,,,,,,,,,,,,,,,,,,,,2+1= ?,,,,,,,,,,,,,,,,,,,,0,50,50,7,,,,,,,,,,,,,,,,,,,,,moral_self_bias,09,18,59.9214534399,m,001,2018_Apr_02_1341,
,,,,,,,,,,,,,,,,,,,,,11-4=？,,,,,,,,,,,,,,,,,,,,0,51,51,66,,,,,,,,,,,,,,,,,,,,,moral_self_bias,09,18,59.9214534399,m,001,2018_Apr_02_1341,
,,,,,,,,,,,,,,,,,,,,,9/3= ?,,,,,,,,,,,,,,,,,,,,0,52,52,56,,,,,,,,,,,,,,,,,,,,,moral_self_bias,09,18,59.9214534399,m,001,2018_Apr_02_1341,
,,,,,,,,,,,,,,,,,,,,,4+1= ?,,,,,,,,,,,,,,,,,,,,0,53,53,25,,,,,,,,,,,,,,,,,,,,,moral_self_bias,09,18,59.9214534399,m,001,2018_Apr_02_1341,
,,,,,,,,,,,,,,,,,,,,,23^0= ?,,,,,,,,,,,,,,,,,,,,0,54,54,94,,,,,,,,,,,,,,,,,,,,,moral_self_bias,09,18,59.9214534399,m,001,2018_Apr_02_1341,
,,,,,,,,,,,,,,,,,,,,,5/1= ?,,,,,,,,,,,,,,,,,,,,0,55,55,59,,,,,,,,,,,,,,,,,,,,,moral_self_bias,09,18,59.9214534399,m,001,2018_Apr_02_1341,
,,,,,,,,,,,,,,,,,,,,,15-10=？,,,,,,,,,,,,,,,,,,,,0,56,56,61,,,,,,,,,,,,,,,,,,,,,moral_self_bias,09,18,59.9214534399,m,001,2018_Apr_02_1341,
,,,,,,,,,,,,,,,,,,,,,5+1= ?,,,,,,,,,,,,,,,,,,,,0,57,57,34,,,,,,,,,,,,,,,,,,,,,moral_self_bias,09,18,59.9214534399,m,001,2018_Apr_02_1341,
,,,,,,,,,,,,,,,,,,,,,18/9= ?,,,,,,,,,,,,,,,,,,,,0,58,58,96,,,,,,,,,,,,,,,,,,,,,moral_self_bias,09,18,59.9214534399,m,001,2018_Apr_02_1341,
,,,,,,,,,,,,,,,,,,,,,4/4= ?,,,,,,,,,,,,,,,,,,,,0,59,59,55,,,,,,,,,,,,,,,,,,,,,moral_self_bias,09,18,59.9214534399,m,001,2018_Apr_02_1341,
,,,,,,,,,,,,,,,,,,,,,7+2= ?,,,,,,,,,,,,,,,,,,,,0,60,60,47,,,,,,,,,,,,,,,,,,,,,moral_self_bias,09,18,59.9214534399,m,001,2018_Apr_02_1341,
,,,,,,,,,,,,,,,,,,,,,7*1= ?,,,,,,,,,,,,,,,,,,,,0,61,61,113,,,,,,,,,,,,,,,,,,,,,moral_self_bias,09,18,59.9214534399,m,001,2018_Apr_02_1341,
,,,,,,,,,,,,,,,,,,,,,2*3= ?,,,,,,,,,,,,,,,,,,,,0,62,62,108,,,,,,,,,,,,,,,,,,,,,moral_self_bias,09,18,59.9214534399,m,001,2018_Apr_02_1341,
,,,,,,,,,,,,,,,,,,,,,9-5= ?,,,,,,,,,,,,,,,,,,,,0,63,63,23,,,,,,,,,,,,,,,,,,,,,moral_self_bias,09,18,59.9214534399,m,001,2018_Apr_02_1341,
,,,,,,,,,,,,,,,,,,,,,8-6= ?,,,,,,,,,,,,,,,,,,,,0,64,64,42,,,,,,,,,,,,,,,,,,,,,moral_self_bias,09,18,59.9214534399,m,001,2018_Apr_02_1341,
,,,,,,,,,,,,,,,,,,,,,22/11= ?,,,,,,,,,,,,,,,,,,,,0,65,65,71,,,,,,,,,,,,,,,,,,,,,moral_self_bias,09,18,59.9214534399,m,001,2018_Apr_02_1341,
,,,,,,,,,,,,,,,,,,,,,1+1= ?,,,,,,,,,,,,,,,,,,,,0,66,66,0,,,,,,,,,,,,,,,,,,,,,moral_self_bias,09,18,59.9214534399,m,001,2018_Apr_02_1341,
,,,,,,,,,,,,,,,,,,,,,4^1= ?,,,,,,,,,,,,,,,,,,,,0,67,67,102,,,,,,,,,,,,,,,,,,,,,moral_self_bias,09,18,59.9214534399,m,001,2018_Apr_02_1341,
,,,,,,,,,,,,,,,,,,,,,50-42= ?,,,,,,,,,,,,,,,,,,,,0,68,68,81,,,,,,,,,,,,,,,,,,,,,moral_self_bias,09,18,59.9214534399,m,001,2018_Apr_02_1341,
,,,,,,,,,,,,,,,,,,,,,5+3= ?,,,,,,,,,,,,,,,,,,,,0,69,69,36,,,,,,,,,,,,,,,,,,,,,moral_self_bias,09,18,59.9214534399,m,001,2018_Apr_02_1341,
,,,,,,,,,,,,,,,,,,,,,2^2= ?,,,,,,,,,,,,,,,,,,,,0,70,70,49,,,,,,,,,,,,,,,,,,,,,moral_self_bias,09,18,59.9214534399,m,001,2018_Apr_02_1341,
,,,,,,,,,,,,,,,,,,,,,10-9= ?,,,,,,,,,,,,,,,,,,,,0,71,71,112,,,,,,,,,,,,,,,,,,,,,moral_self_bias,09,18,59.9214534399,m,001,2018_Apr_02_1341,
,,,,,,,,,,,,,,,,,,,,,72/9= ?,,,,,,,,,,,,,,,,,,,,0,72,72,76,,,,,,,,,,,,,,,,,,,,,moral_self_bias,09,18,59.9214534399,m,001,2018_Apr_02_1341,
,,,,,,,,,,,,,,,,,,,,,2+2= ?,,,,,,,,,,,,,,,,,,,,0,73,73,8,,,,,,,,,,,,,,,,,,,,,moral_self_bias,09,18,59.9214534399,m,001,2018_Apr_02_1341,
,,,,,,,,,,,,,,,,,,,,,1-1= ?,,,,,,,,,,,,,,,,,,,,0,74,74,52,,,,,,,,,,,,,,,,,,,,,moral_self_bias,09,18,59.9214534399,m,001,2018_Apr_02_1341,
,,,,,,,,,,,,,,,,,,,,,8-3= ?,,,,,,,,,,,,,,,,,,,,0,75,75,39,,,,,,,,,,,,,,,,,,,,,moral_self_bias,09,18,59.9214534399,m,001,2018_Apr_02_1341,
,,,,,,,,,,,,,,,,,,,,,3+6= ?,,,,,,,,,,,,,,,,,,,,0,76,76,21,,,,,,,,,,,,,,,,,,,,,moral_self_bias,09,18,59.9214534399,m,001,2018_Apr_02_1341,
,,,,,,,,,,,,,,,,,,,,,12/4= ?,,,,,,,,,,,,,,,,,,,,0,77,77,89,,,,,,,,,,,,,,,,,,,,,moral_self_bias,09,18,59.9214534399,m,001,2018_Apr_02_1341,
,,,,,,,,,,,,,,,,,,,,,4+5= ?,,,,,,,,,,,,,,,,,,,,0,78,78,29,,,,,,,,,,,,,,,,,,,,,moral_self_bias,09,18,59.9214534399,m,001,2018_Apr_02_1341,
,,,,,,,,,,,,,,,,,,,,,13-6=？,,,,,,,,,,,,,,,,,,,,0,79,79,64,,,,,,,,,,,,,,,,,,,,,moral_self_bias,09,18,59.9214534399,m,001,2018_Apr_02_1341,
,,,,,,,,,,,,,,,,,,,,,7+1= ?,,,,,,,,,,,,,,,,,,,,0,80,80,46,,,,,,,,,,,,,,,,,,,,,moral_self_bias,09,18,59.9214534399,m,001,2018_Apr_02_1341,
,,,,,,,,,,,,,,,,,,,,,5+2= ?,,,,,,,,,,,,,,,,,,,,0,81,81,35,,,,,,,,,,,,,,,,,,,,,moral_self_bias,09,18,59.9214534399,m,001,2018_Apr_02_1341,
,,,,,,,,,,,,,,,,,,,,,1*8= ?,,,,,,,,,,,,,,,,,,,,0,82,82,110,,,,,,,,,,,,,,,,,,,,,moral_self_bias,09,18,59.9214534399,m,001,2018_Apr_02_1341,
,,,,,,,,,,,,,,,,,,,,,13-5= ?,,,,,,,,,,,,,,,,,,,,0,83,83,98,,,,,,,,,,,,,,,,,,,,,moral_self_bias,09,18,59.9214534399,m,001,2018_Apr_02_1341,
,,,,,,,,,,,,,,,,,,,,,8+1= ?,,,,,,,,,,,,,,,,,,,,0,84,84,48,,,,,,,,,,,,,,,,,,,,,moral_self_bias,09,18,59.9214534399,m,001,2018_Apr_02_1341,
,,,,,,,,,,,,,,,,,,,,,1+7= ?,,,,,,,,,,,,,,,,,,,,0,85,85,4,,,,,,,,,,,,,,,,,,,,,moral_self_bias,09,18,59.9214534399,m,001,2018_Apr_02_1341,
,,,,,,,,,,,,,,,,,,,,,9-6= ?,,,,,,,,,,,,,,,,,,,,0,86,86,24,,,,,,,,,,,,,,,,,,,,,moral_self_bias,09,18,59.9214534399,m,001,2018_Apr_02_1341,
,,,,,,,,,,,,,,,,,,,,,11-3=？,,,,,,,,,,,,,,,,,,,,0,87,87,68,,,,,,,,,,,,,,,,,,,,,moral_self_bias,09,18,59.9214534399,m,001,2018_Apr_02_1341,
,,,,,,,,,,,,,,,,,,,,,3^2= ?,,,,,,,,,,,,,,,,,,,,0,88,88,50,,,,,,,,,,,,,,,,,,,,,moral_self_bias,09,18,59.9214534399,m,001,2018_Apr_02_1341,
,,,,,,,,,,,,,,,,,,,,,16-11=？,,,,,,,,,,,,,,,,,,,,0,89,89,62,,,,,,,,,,,,,,,,,,,,,moral_self_bias,09,18,59.9214534399,m,001,2018_Apr_02_1341,
,,,,,,,,,,,,,,,,,,,,,7-0= ?,,,,,,,,,,,,,,,,,,,,0,90,90,117,,,,,,,,,,,,,,,,,,,,,moral_self_bias,09,18,59.9214534399,m,001,2018_Apr_02_1341,
,,,,,,,,,,,,,,,,,,,,,2+7= ?,,,,,,,,,,,,,,,,,,,,0,91,91,13,,,,,,,,,,,,,,,,,,,,,moral_self_bias,09,18,59.9214534399,m,001,2018_Apr_02_1341,
,,,,,,,,,,,,,,,,,,,,,9-8= ?,,,,,,,,,,,,,,,,,,,,0,92,92,31,,,,,,,,,,,,,,,,,,,,,moral_self_bias,09,18,59.9214534399,m,001,2018_Apr_02_1341,
,,,,,,,,,,,,,,,,,,,,,4*2= ?,,,,,,,,,,,,,,,,,,,,0,93,93,82,,,,,,,,,,,,,,,,,,,,,moral_self_bias,09,18,59.9214534399,m,001,2018_Apr_02_1341,
,,,,,,,,,,,,,,,,,,,,,3+0= ?,,,,,,,,,,,,,,,,,,,,0,94,94,105,,,,,,,,,,,,,,,,,,,,,moral_self_bias,09,18,59.9214534399,m,001,2018_Apr_02_1341,
,,,,,,,,,,,,,,,,,,,,,6^0= ?,,,,,,,,,,,,,,,,,,,,0,95,95,114,,,,,,,,,,,,,,,,,,,,,moral_self_bias,09,18,59.9214534399,m,001,2018_Apr_02_1341,
,,,,,,,,,,,,,,,,,,,,,3+4= ?,,,,,,,,,,,,,,,,,,,,0,96,96,19,,,,,,,,,,,,,,,,,,,,,moral_self_bias,09,18,59.9214534399,m,001,2018_Apr_02_1341,
,,,,,,,,,,,,,,,,,,,,,12/12= ?,,,,,,,,,,,,,,,,,,,,0,97,97,91,,,,,,,,,,,,,,,,,,,,,moral_self_bias,09,18,59.9214534399,m,001,2018_Apr_02_1341,
,,,,,,,,,,,,,,,,,,,,,2*4= ?,,,,,,,,,,,,,,,,,,,,0,98,98,84,,,,,,,,,,,,,,,,,,,,,moral_self_bias,09,18,59.9214534399,m,001,2018_Apr_02_1341,
,,,,,,,,,,,,,,,,,,,,,1^2= ?,,,,,,,,,,,,,,,,,,,,0,99,99,51,,,,,,,,,,,,,,,,,,,,,moral_self_bias,09,18,59.9214534399,m,001,2018_Apr_02_1341,
,,,,,,,,,,,,,,,,,,,,,2+4= ?,,,,,,,,,,,,,,,,,,,,0,100,100,10,,,,,,,,,,,,,,,,,,,,,moral_self_bias,09,18,59.9214534399,m,001,2018_Apr_02_1341,
,,,,,,,,,,,,,,,,,,,,,12-5=？,,,,,,,,,,,,,,,,,,,,0,101,101,65,,,,,,,,,,,,,,,,,,,,,moral_self_bias,09,18,59.9214534399,m,001,2018_Apr_02_1341,
,,,,,,,,,,,,,,,,,,,,,8-5= ?,,,,,,,,,,,,,,,,,,,,0,102,102,41,,,,,,,,,,,,,,,,,,,,,moral_self_bias,09,18,59.9214534399,m,001,2018_Apr_02_1341,
,,,,,,,,,,,,,,,,,,,,,6*0= ?,,,,,,,,,,,,,,,,,,,,0,103,103,87,,,,,,,,,,,,,,,,,,,,,moral_self_bias,09,18,59.9214534399,m,001,2018_Apr_02_1341,
,,,,,,,,,,,,,,,,,,,,,9-7= ?,,,,,,,,,,,,,,,,,,,,0,104,104,30,,,,,,,,,,,,,,,,,,,,,moral_self_bias,09,18,59.9214534399,m,001,2018_Apr_02_1341,
,,,,,,,,,,,,,,,,,,,,,7*0= ?,,,,,,,,,,,,,,,,,,,,0,105,105,88,,,,,,,,,,,,,,,,,,,,,moral_self_bias,09,18,59.9214534399,m,001,2018_Apr_02_1341,
,,,,,,,,,,,,,,,,,,,,,4+4= ?,,,,,,,,,,,,,,,,,,,,0,106,106,28,,,,,,,,,,,,,,,,,,,,,moral_self_bias,09,18,59.9214534399,m,001,2018_Apr_02_1341,
,,,,,,,,,,,,,,,,,,,,,29-27= ?,,,,,,,,,,,,,,,,,,,,0,107,107,72,,,,,,,,,,,,,,,,,,,,,moral_self_bias,09,18,59.9214534399,m,001,2018_Apr_02_1341,
,,,,,,,,,,,,,,,,,,,,,11-11= ?,,,,,,,,,,,,,,,,,,,,0,108,108,119,,,,,,,,,,,,,,,,,,,,,moral_self_bias,09,18,59.9214534399,m,001,2018_Apr_02_1341,
,,,,,,,,,,,,,,,,,,,,,5-3= ?,,,,,,,,,,,,,,,,,,,,0,109,109,116,,,,,,,,,,,,,,,,,,,,,moral_self_bias,09,18,59.9214534399,m,001,2018_Apr_02_1341,
,,,,,,,,,,,,,,,,,,,,,12-12= ?,,,,,,,,,,,,,,,,,,,,0,110,110,99,,,,,,,,,,,,,,,,,,,,,moral_self_bias,09,18,59.9214534399,m,001,2018_Apr_02_1341,
,,,,,,,,,,,,,,,,,,,,,30-29= ?,,,,,,,,,,,,,,,,,,,,0,111,111,73,,,,,,,,,,,,,,,,,,,,,moral_self_bias,09,18,59.9214534399,m,001,2018_Apr_02_1341,
,,,,,,,,,,,,,,,,,,,,,12/6= ?,,,,,,,,,,,,,,,,,,,,0,112,112,90,,,,,,,,,,,,,,,,,,,,,moral_self_bias,09,18,59.9214534399,m,001,2018_Apr_02_1341,
,,,,,,,,,,,,,,,,,,,,,2+6= ?,,,,,,,,,,,,,,,,,,,,0,113,113,12,,,,,,,,,,,,,,,,,,,,,moral_self_bias,09,18,59.9214534399,m,001,2018_Apr_02_1341,
,,,,,,,,,,,,,,,,,,,,,11-5= ?,,,,,,,,,,,,,,,,,,,,0,114,114,107,,,,,,,,,,,,,,,,,,,,,moral_self_bias,09,18,59.9214534399,m,001,2018_Apr_02_1341,
,,,,,,,,,,,,,,,,,,,,,20/5=？,,,,,,,,,,,,,,,,,,,,0,115,115,69,,,,,,,,,,,,,,,,,,,,,moral_self_bias,09,18,59.9214534399,m,001,2018_Apr_02_1341,
,,,,,,,,,,,,,,,,,,,,,1+8= ?,,,,,,,,,,,,,,,,,,,,0,116,116,6,,,,,,,,,,,,,,,,,,,,,moral_self_bias,09,18,59.9214534399,m,001,2018_Apr_02_1341,
,,,,,,,,,,,,,,,,,,,,,8-4= ?,,,,,,,,,,,,,,,,,,,,0,117,117,40,,,,,,,,,,,,,,,,,,,,,moral_self_bias,09,18,59.9214534399,m,001,2018_Apr_02_1341,
,,,,,,,,,,,,,,,,,,,,,12-7= ?,,,,,,,,,,,,,,,,,,,,0,118,118,115,,,,,,,,,,,,,,,,,,,,,moral_self_bias,09,18,59.9214534399,m,001,2018_Apr_02_1341,
,,,,,,,,,,,,,,,,,,,,,3*2= ?,,,,,,,,,,,,,,,,,,,,0,119,119,53,,,,,,,,,,,,,,,,,,,,,moral_self_bias,09,18,59.9214534399,m,001,2018_Apr_02_1341,
,,,,,,,,,,,,,,,,,,,,,,,,,,,,,,,,,,,,,,,,,,,,,,,,,,,,,,,,,3,8.94118690491,,,,,,,moral_self_bias,09,18,59.9214534399,m,001,2018_Apr_02_1341,
,,,,,,,,,,,,,,,,,,,,,,material/114.png,1,爱国,material/14.png,1,material/14.png,爱国,1,j,j,j,1,1,1,忠贞,,,,,,,,,0,0,0,13,,,,,,,,,,,j,1,5.00829696655,,,,moral_self_bias,09,18,59.9214534399,m,001,2018_Apr_02_1341,
,,,,,,,,,,,,,,,,,,,,,,material/18.png,1,敏锐,material/118.png,1,material/18.png,机敏,1,f,f,f,2,2,2,敏锐,,,,,,,,,0,1,1,97,0,0,0,0,,,,,,,f,1,1.99084591866,j,0,4.77591514587,moral_self_bias,09,18,59.9214534399,m,001,2018_Apr_02_1341,
,,,,,,,,,,,,,,,,,,,,,,material/18.png,1,敏锐,material/118.png,1,material/18.png,机敏,1,f,f,f,2,2,2,敏锐,,,,,,,,,0,1,1,97,,,,,,,,,,,,,,,,,moral_self_bias,09,18,59.9214534399,m,001,2018_Apr_02_1341,
,,,,,,,,,,,,,,,,,,,,,,material/5.png,1,诚信,material/105.png,1,material/105.png,诚信,1,f,f,f,1,1,1,守信,,,,,,,,,0,2,2,84,0,0,0,0,,,,,,,f,1,1.80782794952,f,1,0.875534057617,moral_self_bias,09,18,59.9214534399,m,001,2018_Apr_02_1341,
,,,,,,,,,,,,,,,,,,,,,,material/5.png,1,诚信,material/105.png,1,material/105.png,诚信,1,f,f,f,1,1,1,守信,,,,,,,,,0,2,2,84,,,,,,,,,,,,,,,,,moral_self_bias,09,18,59.9214534399,m,001,2018_Apr_02_1341,
,,,,,,,,,,,,,,,,,,,,,,material/15.png,1,纯洁,material/115.png,1,material/115.png,纯洁,1,f,f,f,1,1,1,清白,,,,,,,,,0,3,3,94,,,,,,,,,,,j,0,1.4084250927,,,,moral_self_bias,09,18,59.9214534399,m,001,2018_Apr_02_1341,
,,,,,,,,,,,,,,,,,,,,,,material/65.png,1,勇敢,material/61.png,1,material/161.png,平等,1,j,j,j,1,1,1,谦虚,,,,,,,,,0,4,4,60,0,0,0,0,,,,,,,f,0,4.67433619499,j,0,0.974825143814,moral_self_bias,09,18,59.9214534399,m,001,2018_Apr_02_1341,
,,,,,,,,,,,,,,,,,,,,,,material/65.png,1,勇敢,material/61.png,1,material/161.png,平等,1,j,j,j,1,1,1,谦虚,,,,,,,,,0,4,4,60,,,,,,,,,,,,,,,,,moral_self_bias,09,18,59.9214534399,m,001,2018_Apr_02_1341,
,,,,,,,,,,,,,,,,,,,,,,material/146.png,2,小气,material/46.png,2,material/46.png,小气,2,j,j,j,1,1,1,自私,,,,,,,,,0,5,5,45,0,0,0,0,,,,,,,f,0,3.01692295074,f,1,0.658165931702,moral_self_bias,09,18,59.9214534399,m,001,2018_Apr_02_1341,
,,,,,,,,,,,,,,,,,,,,,,material/146.png,2,小气,material/46.png,2,material/46.png,小气,2,j,j,j,1,1,1,自私,,,,,,,,,0,5,5,45,,,,,,,,,,,,,,,,,moral_self_bias,09,18,59.9214534399,m,001,2018_Apr_02_1341,
,,,,,,,,,,,,,,,,,,,,,,material/159.png,2,弱智,material/59.png,2,material/159.png,智障,2,j,j,j,2,2,2,弱智,,,,,,,,,0,6,6,58,0,0,0,0,,,,,,,f,0,1.11672782898,f,1,0.308007001877,moral_self_bias,09,18,59.9214534399,m,001,2018_Apr_02_1341,
,,,,,,,,,,,,,,,,,,,,,,material/159.png,2,弱智,material/59.png,2,material/159.png,智障,2,j,j,j,2,2,2,弱智,,,,,,,,,0,6,6,58,,,,,,,,,,,,,,,,,moral_self_bias,09,18,59.9214534399,m,001,2018_Apr_02_1341,
,,,,,,,,,,,,,,,,,,,,,,material/69.png,1,高明,material/69.png,1,material/69.png,高明,1,f,f,f,2,2,2,高明,,,,,,,,,0,7,7,166,0,0,0,0,,,,,,,f,1,2.67508602142,j,0,0.390850782394,moral_self_bias,09,18,59.9214534399,m,001,2018_Apr_02_1341,
,,,,,,,,,,,,,,,,,,,,,,material/69.png,1,高明,material/69.png,1,material/69.png,高明,1,f,f,f,2,2,2,高明,,,,,,,,,0,7,7,166,,,,,,,,,,,,,,,,,moral_self_bias,09,18,59.9214534399,m,001,2018_Apr_02_1341,
,,,,,,,,,,,,,,,,,,,,,,material/173.png,2,不义,material/174.png,2,material/174.png,不义,2,f,f,f,1,1,1,黑心,,,,,,,,,0,8,8,153,0,0,0,0,,,,,,,f,1,1.6165189743,j,0,6.54103589058,moral_self_bias,09,18,59.9214534399,m,001,2018_Apr_02_1341,
,,,,,,,,,,,,,,,,,,,,,,material/173.png,2,不义,material/174.png,2,material/174.png,不义,2,f,f,f,1,1,1,黑心,,,,,,,,,0,8,8,153,,,,,,,,,,,,,,,,,moral_self_bias,09,18,59.9214534399,m,001,2018_Apr_02_1341,
,,,,,,,,,,,,,,,,,,,,,,material/81.png,2,呆笨,material/179.png,2,material/83.png,差生,2,f,f,f,2,2,2,无助,,,,,,,,,0,9,9,158,,,,,,,,,,,j,0,2.06693601608,,,,moral_self_bias,09,18,59.9214534399,m,001,2018_Apr_02_1341,
,,,,,,,,,,,,,,,,,,,,,,material/151.png,2,迷糊,material/51.png,2,material/151.png,糊涂,2,j,j,j,2,2,2,迷糊,,,,,,,,,0,10,10,50,0,0,0,0,,,,,,,f,0,2.1911008358,j,0,0.107450962067,moral_self_bias,09,18,59.9214534399,m,001,2018_Apr_02_1341,
,,,,,,,,,,,,,,,,,,,,,,material/151.png,2,迷糊,material/51.png,2,material/151.png,糊涂,2,j,j,j,2,2,2,迷糊,,,,,,,,,0,10,10,50,,,,,,,,,,,,,,,,,moral_self_bias,09,18,59.9214534399,m,001,2018_Apr_02_1341,
,,,,,,,,,,,,,,,,,,,,,,material/169.png,1,颖悟,material/171.png,1,material/169.png,高效,1,f,f,f,2,2,2,颖悟,,,,,,,,,0,11,11,150,0,0,0,0,,,,,,,f,1,1.22619986534,f,1,0.174100875854,moral_self_bias,09,18,59.9214534399,m,001,2018_Apr_02_1341,
,,,,,,,,,,,,,,,,,,,,,,material/169.png,1,颖悟,material/171.png,1,material/169.png,高效,1,f,f,f,2,2,2,颖悟,,,,,,,,,0,11,11,150,,,,,,,,,,,,,,,,,moral_self_bias,09,18,59.9214534399,m,001,2018_Apr_02_1341,
,,,,,,,,,,,,,,,,,,,,,,material/178.png,2,窝囊,material/82.png,2,material/82.png,窝囊,2,j,j,j,2,2,2,毛糙,,,,,,,,,0,12,12,78,,,,,,,,,,,j,1,1.19057512283,,,,moral_self_bias,09,18,59.9214534399,m,001,2018_Apr_02_1341,
,,,,,,,,,,,,,,,,,,,,,,material/162.png,1,敬业,material/62.png,1,material/162.png,坚韧,1,j,j,j,1,1,1,敬业,,,,,,,,,0,13,13,61,0,0,0,0,,,,,,,f,0,1.35761809349,j,0,0.174973964691,moral_self_bias,09,18,59.9214534399,m,001,2018_Apr_02_1341,
,,,,,,,,,,,,,,,,,,,,,,material/162.png,1,敬业,material/62.png,1,material/162.png,坚韧,1,j,j,j,1,1,1,敬业,,,,,,,,,0,13,13,61,,,,,,,,,,,,,,,,,moral_self_bias,09,18,59.9214534399,m,001,2018_Apr_02_1341,
,,,,,,,,,,,,,,,,,,,,,,material/118.png,1,机敏,material/18.png,1,material/118.png,敏锐,1,j,j,j,2,2,2,机敏,,,,,,,,,0,14,14,17,0,0,0,0,,,,,,,f,0,1.358741045,j,0,0.091964006424,moral_self_bias,09,18,59.9214534399,m,001,2018_Apr_02_1341,
,,,,,,,,,,,,,,,,,,,,,,material/118.png,1,机敏,material/18.png,1,material/118.png,敏锐,1,j,j,j,2,2,2,机敏,,,,,,,,,0,14,14,17,,,,,,,,,,,,,,,,,moral_self_bias,09,18,59.9214534399,m,001,2018_Apr_02_1341,
,,,,,,,,,,,,,,,,,,,,,,material/124.png,1,冷静,material/24.png,1,material/124.png,理智,1,j,j,j,2,2,2,冷静,,,,,,,,,0,15,15,23,0,0,0,0,,,,,,,f,0,1.60890507698,f,1,0.142216920853,moral_self_bias,09,18,59.9214534399,m,001,2018_Apr_02_1341,
,,,,,,,,,,,,,,,,,,,,,,material/124.png,1,冷静,material/24.png,1,material/124.png,理智,1,j,j,j,2,2,2,冷静,,,,,,,,,0,15,15,23,,,,,,,,,,,,,,,,,moral_self_bias,09,18,59.9214534399,m,001,2018_Apr_02_1341,
,,,,,,,,,,,,,,,,,,,,,,material/122.png,1,博学,material/22.png,1,material/122.png,才学,1,j,j,j,2,2,2,博学,,,,,,,,,0,16,16,21,0,0,0,0,,,,,,,f,0,1.07588100433,f,1,0.159651994705,moral_self_bias,09,18,59.9214534399,m,001,2018_Apr_02_1341,
,,,,,,,,,,,,,,,,,,,,,,material/122.png,1,博学,material/22.png,1,material/122.png,才学,1,j,j,j,2,2,2,博学,,,,,,,,,0,16,16,21,,,,,,,,,,,,,,,,,moral_self_bias,09,18,59.9214534399,m,001,2018_Apr_02_1341,
,,,,,,,,,,,,,,,,,,,,,,material/25.png,1,果断,material/125.png,1,material/25.png,果敢,1,f,f,f,2,2,2,果断,,,,,,,,,0,17,17,104,,,,,,,,,,,j,0,1.69190192223,,,,moral_self_bias,09,18,59.9214534399,m,001,2018_Apr_02_1341,
,,,,,,,,,,,,,,,,,,,,,,material/145.png,2,下流,material/45.png,2,material/45.png,下流,2,j,j,j,1,1,1,小人,,,,,,,,,0,18,18,44,,,,,,,,,,,j,1,0.775055170059,,,,moral_self_bias,09,18,59.9214534399,m,001,2018_Apr_02_1341,
,,,,,,,,,,,,,,,,,,,,,,material/40.png,2,狠毒,material/140.png,2,material/140.png,狠毒,2,f,f,f,1,1,1,邪恶,,,,,,,,,0,19,19,119,0,0,0,0,,,,,,,f,1,2.10013389587,j,0,0.491307020187,moral_self_bias,09,18,59.9214534399,m,001,2018_Apr_02_1341,
,,,,,,,,,,,,,,,,,,,,,,material/40.png,2,狠毒,material/140.png,2,material/140.png,狠毒,2,f,f,f,1,1,1,邪恶,,,,,,,,,0,19,19,119,,,,,,,,,,,,,,,,,moral_self_bias,09,18,59.9214534399,m,001,2018_Apr_02_1341,
,,,,,,,,,,,,,,,,,,,,,,material/70.png,1,全面,material/168.png,1,material/70.png,机变,1,f,f,f,2,2,2,全面,,,,,,,,,0,20,20,147,0,0,0,0,,,,,,,f,1,3.80744791031,j,0,0.624925136566,moral_self_bias,09,18,59.9214534399,m,001,2018_Apr_02_1341,
,,,,,,,,,,,,,,,,,,,,,,material/70.png,1,全面,material/168.png,1,material/70.png,机变,1,f,f,f,2,2,2,全面,,,,,,,,,0,20,20,147,,,,,,,,,,,,,,,,,moral_self_bias,09,18,59.9214534399,m,001,2018_Apr_02_1341,
,,,,,,,,,,,,,,,,,,,,,,material/161.png,1,奉献,material/164.png,1,material/64.png,孝顺,1,f,f,f,1,1,1,勇敢,,,,,,,,,0,21,21,143,,,,,,,,,,,j,0,2.32478117943,,,,moral_self_bias,09,18,59.9214534399,m,001,2018_Apr_02_1341,
,,,,,,,,,,,,,,,,,,,,,,material/32.png,2,背叛,material/132.png,2,material/132.png,背叛,2,f,f,f,1,1,1,不忠,,,,,,,,,0,22,22,111,0,0,0,0,,,,,,,f,1,1.40914201736,j,0,1.15804505348,moral_self_bias,09,18,59.9214534399,m,001,2018_Apr_02_1341,
,,,,,,,,,,,,,,,,,,,,,,material/32.png,2,背叛,material/132.png,2,material/132.png,背叛,2,f,f,f,1,1,1,不忠,,,,,,,,,0,22,22,111,,,,,,,,,,,,,,,,,moral_self_bias,09,18,59.9214534399,m,001,2018_Apr_02_1341,
,,,,,,,,,,,,,,,,,,,,,,material/115.png,1,清白,material/15.png,1,material/15.png,清白,1,j,j,j,1,1,1,纯洁,,,,,,,,,0,23,23,14,,,,,,,,,,,j,1,0.857755899429,,,,moral_self_bias,09,18,59.9214534399,m,001,2018_Apr_02_1341,
,,,,,,,,,,,,,,,,,,,,,,material/21.png,1,干练,material/121.png,1,material/21.png,精干,1,f,f,f,2,2,2,干练,,,,,,,,,0,24,24,100,0,0,0,0,,,,,,,f,1,1.09079098701,f,1,0.140872001648,moral_self_bias,09,18,59.9214534399,m,001,2018_Apr_02_1341,
,,,,,,,,,,,,,,,,,,,,,,material/21.png,1,干练,material/121.png,1,material/21.png,精干,1,f,f,f,2,2,2,干练,,,,,,,,,0,24,24,100,,,,,,,,,,,,,,,,,moral_self_bias,09,18,59.9214534399,m,001,2018_Apr_02_1341,
,,,,,,,,,,,,,,,,,,,,,,material/109.png,1,秉直,material/9.png,1,material/9.png,秉直,1,j,j,j,1,1,1,正直,,,,,,,,,0,25,25,8,0,0,0,0,,,,,,,f,0,1.09229111671,f,1,1.20047616959,moral_self_bias,09,18,59.9214534399,m,001,2018_Apr_02_1341,
,,,,,,,,,,,,,,,,,,,,,,material/109.png,1,秉直,material/9.png,1,material/9.png,秉直,1,j,j,j,1,1,1,正直,,,,,,,,,0,25,25,8,,,,,,,,,,,,,,,,,moral_self_bias,09,18,59.9214534399,m,001,2018_Apr_02_1341,
,,,,,,,,,,,,,,,,,,,,,,material/110.png,1,顽强,material/10.png,1,material/10.png,顽强,1,j,j,j,1,1,1,坚毅,,,,,,,,,0,26,26,9,0,0,0,0,,,,,,,f,0,3.97416090965,j,0,0.791511058807,moral_self_bias,09,18,59.9214534399,m,001,2018_Apr_02_1341,
,,,,,,,,,,,,,,,,,,,,,,material/110.png,1,顽强,material/10.png,1,material/10.png,顽强,1,j,j,j,1,1,1,坚毅,,,,,,,,,0,26,26,9,,,,,,,,,,,,,,,,,moral_self_bias,09,18,59.9214534399,m,001,2018_Apr_02_1341,
,,,,,,,,,,,,,,,,,,,,,,material/106.png,1,诚实,material/6.png,1,material/6.png,诚实,1,j,j,j,1,1,1,厚道,,,,,,,,,0,27,27,5,0,0,0,0,,,,,,,f,0,0.891443014145,f,1,0.393019199371,moral_self_bias,09,18,59.9214534399,m,001,2018_Apr_02_1341,
,,,,,,,,,,,,,,,,,,,,,,material/106.png,1,诚实,material/6.png,1,material/6.png,诚实,1,j,j,j,1,1,1,厚道,,,,,,,,,0,27,27,5,,,,,,,,,,,,,,,,,moral_self_bias,09,18,59.9214534399,m,001,2018_Apr_02_1341,
,,,,,,,,,,,,,,,,,,,,,,material/37.png,2,卑鄙,material/137.png,2,material/137.png,卑鄙,2,f,f,f,1,1,1,无耻,,,,,,,,,0,28,28,116,0,0,0,0,,,,,,,f,1,0.958078861237,j,0,0.158499002457,moral_self_bias,09,18,59.9214534399,m,001,2018_Apr_02_1341,
,,,,,,,,,,,,,,,,,,,,,,material/37.png,2,卑鄙,material/137.png,2,material/137.png,卑鄙,2,f,f,f,1,1,1,无耻,,,,,,,,,0,28,28,116,,,,,,,,,,,,,,,,,moral_self_bias,09,18,59.9214534399,m,001,2018_Apr_02_1341,
,,,,,,,,,,,,,,,,,,,,,,material/26.png,1,刻苦,material/126.png,1,material/26.png,勤快,1,f,f,f,2,2,2,刻苦,,,,,,,,,0,29,29,105,,,,,,,,,,,j,0,1.53383994102,,,,moral_self_bias,09,18,59.9214534399,m,001,2018_Apr_02_1341,
,,,,,,,,,,,,,,,,,,,,,,material/158.png,2,浅薄,material/58.png,2,material/158.png,肤浅,2,j,j,j,2,2,2,浅薄,,,,,,,,,0,30,30,57,0,0,0,0,,,,,,,f,0,1.19146084785,f,1,0.458408117294,moral_self_bias,09,18,59.9214534399,m,001,2018_Apr_02_1341,
,,,,,,,,,,,,,,,,,,,,,,material/158.png,2,浅薄,material/58.png,2,material/158.png,肤浅,2,j,j,j,2,2,2,浅薄,,,,,,,,,0,30,30,57,,,,,,,,,,,,,,,,,moral_self_bias,09,18,59.9214534399,m,001,2018_Apr_02_1341,
,,,,,,,,,,,,,,,,,,,,,,material/160.png,2,笨拙,material/60.png,2,material/160.png,粗拙,2,j,j,j,2,2,2,笨拙,,,,,,,,,0,31,31,59,0,0,0,0,,,,,,,f,0,1.17450118065,f,1,0.209061861038,moral_self_bias,09,18,59.9214534399,m,001,2018_Apr_02_1341,
,,,,,,,,,,,,,,,,,,,,,,material/160.png,2,笨拙,material/60.png,2,material/160.png,粗拙,2,j,j,j,2,2,2,笨拙,,,,,,,,,0,31,31,59,,,,,,,,,,,,,,,,,moral_self_bias,09,18,59.9214534399,m,001,2018_Apr_02_1341,
,,,,,,,,,,,,,,,,,,,,,,material/50.png,2,愚笨,material/150.png,2,material/50.png,鲁钝,2,f,f,f,2,2,2,愚笨,,,,,,,,,0,32,32,129,0,0,0,0,,,,,,,f,1,1.17536616325,j,0,0.0744919776917,moral_self_bias,09,18,59.9214534399,m,001,2018_Apr_02_1341,
,,,,,,,,,,,,,,,,,,,,,,material/50.png,2,愚笨,material/150.png,2,material/50.png,鲁钝,2,f,f,f,2,2,2,愚笨,,,,,,,,,0,32,32,129,,,,,,,,,,,,,,,,,moral_self_bias,09,18,59.9214534399,m,001,2018_Apr_02_1341,
,,,,,,,,,,,,,,,,,,,,,,material/179.png,2,顽愚,material/178.png,2,material/84.png,毛糙,2,f,f,f,2,2,2,差生,,,,,,,,,0,33,33,157,0,0,0,0,,,,,,,f,1,1.88456606865,j,0,0.790904045105,moral_self_bias,09,18,59.9214534399,m,001,2018_Apr_02_1341,
,,,,,,,,,,,,,,,,,,,,,,material/179.png,2,顽愚,material/178.png,2,material/84.png,毛糙,2,f,f,f,2,2,2,差生,,,,,,,,,0,33,33,157,,,,,,,,,,,,,,,,,moral_self_bias,09,18,59.9214534399,m,001,2018_Apr_02_1341,
,,,,,,,,,,,,,,,,,,,,,,material/30.png,1,上进,material/130.png,1,material/30.png,进取,1,f,f,f,2,2,2,上进,,,,,,,,,0,34,34,109,,,,,,,,,,,j,0,1.55673098564,,,,moral_self_bias,09,18,59.9214534399,m,001,2018_Apr_02_1341,
,,,,,,,,,,,,,,,,,,,,,,material/180.png,2,无助,material/79.png,2,material/81.png,颓废,2,j,j,j,2,2,2,怠惰,,,,,,,,,0,35,35,75,0,0,0,0,,,,,,,f,0,1.3244509697,f,1,0.174112081528,moral_self_bias,09,18,59.9214534399,m,001,2018_Apr_02_1341,
,,,,,,,,,,,,,,,,,,,,,,material/180.png,2,无助,material/79.png,2,material/81.png,颓废,2,j,j,j,2,2,2,怠惰,,,,,,,,,0,35,35,75,,,,,,,,,,,,,,,,,moral_self_bias,09,18,59.9214534399,m,001,2018_Apr_02_1341,
,,,,,,,,,,,,,,,,,,,,,,material/62.png,1,坚韧,material/162.png,1,material/62.png,敬业,1,f,f,f,1,1,1,坚韧,,,,,,,,,0,36,36,141,,,,,,,,,,,j,0,1.12581992149,,,,moral_self_bias,09,18,59.9214534399,m,001,2018_Apr_02_1341,
,,,,,,,,,,,,,,,,,,,,,,material/157.png,2,无能,material/57.png,2,material/157.png,无知,2,j,j,j,2,2,2,无能,,,,,,,,,0,37,37,56,0,0,0,0,,,,,,,f,0,0.941396951675,f,1,0.275480985641,moral_self_bias,09,18,59.9214534399,m,001,2018_Apr_02_1341,
,,,,,,,,,,,,,,,,,,,,,,material/157.png,2,无能,material/57.png,2,material/157.png,无知,2,j,j,j,2,2,2,无能,,,,,,,,,0,37,37,56,,,,,,,,,,,,,,,,,moral_self_bias,09,18,59.9214534399,m,001,2018_Apr_02_1341,
,,,,,,,,,,,,,,,,,,,,,,material/84.png,2,犹豫,material/84.png,2,material/181.png,顽愚,2,f,f,f,2,2,2,顽愚,,,,,,,,,0,38,38,167,0,0,0,0,,,,,,,f,1,0.925076007843,j,0,0.125409126282,moral_self_bias,09,18,59.9214534399,m,001,2018_Apr_02_1341,
,,,,,,,,,,,,,,,,,,,,,,material/84.png,2,犹豫,material/84.png,2,material/181.png,顽愚,2,f,f,f,2,2,2,顽愚,,,,,,,,,0,38,38,167,,,,,,,,,,,,,,,,,moral_self_bias,09,18,59.9214534399,m,001,2018_Apr_02_1341,
,,,,,,,,,,,,,,,,,,,,,,material/74.png,2,黑心,material/173.png,2,material/173.png,黑心,2,f,f,f,1,1,1,卑劣,,,,,,,,,0,39,39,152,0,0,0,0,,,,,,,f,1,1.0250749588,j,0,0.076691865921,moral_self_bias,09,18,59.9214534399,m,001,2018_Apr_02_1341,
,,,,,,,,,,,,,,,,,,,,,,material/74.png,2,黑心,material/173.png,2,material/173.png,黑心,2,f,f,f,1,1,1,卑劣,,,,,,,,,0,39,39,152,,,,,,,,,,,,,,,,,moral_self_bias,09,18,59.9214534399,m,001,2018_Apr_02_1341,
,,,,,,,,,,,,,,,,,,,,,,material/136.png,2,说谎,material/36.png,2,material/36.png,说谎,2,j,j,j,1,1,1,撒谎,,,,,,,,,0,40,40,35,,,,,,,,,,,j,1,1.09071993828,,,,moral_self_bias,09,18,59.9214534399,m,001,2018_Apr_02_1341,
,,,,,,,,,,,,,,,,,,,,,,material/53.png,2,迟缓,material/153.png,2,material/53.png,迟钝,2,f,f,f,2,2,2,迟缓,,,,,,,,,0,41,41,132,0,0,0,0,,,,,,,f,1,4.13392090797,j,0,0.158162117004,moral_self_bias,09,18,59.9214534399,m,001,2018_Apr_02_1341,
,,,,,,,,,,,,,,,,,,,,,,material/53.png,2,迟缓,material/153.png,2,material/53.png,迟钝,2,f,f,f,2,2,2,迟缓,,,,,,,,,0,41,41,132,,,,,,,,,,,,,,,,,moral_self_bias,09,18,59.9214534399,m,001,2018_Apr_02_1341,
,,,,,,,,,,,,,,,,,,,,,,material/142.png,2,阴险,material/42.png,2,material/42.png,阴险,2,j,j,j,1,1,1,奸诈,,,,,,,,,0,42,42,41,0,0,0,0,,,,,,,f,0,1.04165911674,j,0,0.0916039943695,moral_self_bias,09,18,59.9214534399,m,001,2018_Apr_02_1341,
,,,,,,,,,,,,,,,,,,,,,,material/142.png,2,阴险,material/42.png,2,material/42.png,阴险,2,j,j,j,1,1,1,奸诈,,,,,,,,,0,42,42,41,,,,,,,,,,,,,,,,,moral_self_bias,09,18,59.9214534399,m,001,2018_Apr_02_1341,
,,,,,,,,,,,,,,,,,,,,,,material/23.png,1,有才,material/123.png,1,material/23.png,多才,1,f,f,f,2,2,2,有才,,,,,,,,,0,43,43,102,0,0,0,0,,,,,,,f,1,0.792161941528,f,1,0.141772031784,moral_self_bias,09,18,59.9214534399,m,001,2018_Apr_02_1341,
,,,,,,,,,,,,,,,,,,,,,,material/23.png,1,有才,material/123.png,1,material/23.png,多才,1,f,f,f,2,2,2,有才,,,,,,,,,0,43,43,102,,,,,,,,,,,,,,,,,moral_self_bias,09,18,59.9214534399,m,001,2018_Apr_02_1341,
,,,,,,,,,,,,,,,,,,,,,,material/126.png,1,勤快,material/26.png,1,material/126.png,刻苦,1,j,j,j,2,2,2,勤快,,,,,,,,,0,44,44,25,0,0,0,0,,,,,,,f,0,1.34967398643,f,1,0.158632993698,moral_self_bias,09,18,59.9214534399,m,001,2018_Apr_02_1341,
,,,,,,,,,,,,,,,,,,,,,,material/126.png,1,勤快,material/26.png,1,material/126.png,刻苦,1,j,j,j,2,2,2,勤快,,,,,,,,,0,44,44,25,,,,,,,,,,,,,,,,,moral_self_bias,09,18,59.9214534399,m,001,2018_Apr_02_1341,
,,,,,,,,,,,,,,,,,,,,,,material/43.png,2,虚荣,material/143.png,2,material/143.png,虚荣,2,f,f,f,1,1,1,拜金,,,,,,,,,0,45,45,122,0,0,0,0,,,,,,,f,1,0.609160900116,f,1,0.167187929153,moral_self_bias,09,18,59.9214534399,m,001,2018_Apr_02_1341,
,,,,,,,,,,,,,,,,,,,,,,material/43.png,2,虚荣,material/143.png,2,material/143.png,虚荣,2,f,f,f,1,1,1,拜金,,,,,,,,,0,45,45,122,,,,,,,,,,,,,,,,,moral_self_bias,09,18,59.9214534399,m,001,2018_Apr_02_1341,
,,,,,,,,,,,,,,,,,,,,,,material/108.png,1,公道,material/8.png,1,material/8.png,公道,1,j,j,j,1,1,1,无私,,,,,,,,,0,46,46,7,0,0,0,0,,,,,,,f,0,1.03380680084,j,0,0.0757858753204,moral_self_bias,09,18,59.9214534399,m,001,2018_Apr_02_1341,
,,,,,,,,,,,,,,,,,,,,,,material/108.png,1,公道,material/8.png,1,material/8.png,公道,1,j,j,j,1,1,1,无私,,,,,,,,,0,46,46,7,,,,,,,,,,,,,,,,,moral_self_bias,09,18,59.9214534399,m,001,2018_Apr_02_1341,
,,,,,,,,,,,,,,,,,,,,,,material/66.png,1,独立,material/66.png,1,material/165.png,正义,1,f,f,f,1,1,1,正义,,,,,,,,,0,47,47,164,0,0,0,0,,,,,,,f,1,2.82366085052,f,1,0.158401012421,moral_self_bias,09,18,59.9214534399,m,001,2018_Apr_02_1341,
,,,,,,,,,,,,,,,,,,,,,,material/66.png,1,独立,material/66.png,1,material/165.png,正义,1,f,f,f,1,1,1,正义,,,,,,,,,0,47,47,164,,,,,,,,,,,,,,,,,moral_self_bias,09,18,59.9214534399,m,001,2018_Apr_02_1341,
,,,,,,,,,,,,,,,,,,,,,,material/13.png,1,廉明,material/113.png,1,material/113.png,廉明,1,f,f,f,1,1,1,廉洁,,,,,,,,,0,48,48,92,0,0,0,0,,,,,,,f,1,1.07472610474,j,0,0.108907938004,moral_self_bias,09,18,59.9214534399,m,001,2018_Apr_02_1341,
,,,,,,,,,,,,,,,,,,,,,,material/13.png,1,廉明,material/113.png,1,material/113.png,廉明,1,f,f,f,1,1,1,廉洁,,,,,,,,,0,48,48,92,,,,,,,,,,,,,,,,,moral_self_bias,09,18,59.9214534399,m,001,2018_Apr_02_1341,
,,,,,,,,,,,,,,,,,,,,,,material/104.png,1,友爱,material/4.png,1,material/4.png,友爱,1,j,j,j,1,1,1,友善,,,,,,,,,0,49,49,3,,,,,,,,,,,j,1,2.60743117332,,,,moral_self_bias,09,18,59.9214534399,m,001,2018_Apr_02_1341,
,,,,,,,,,,,,,,,,,,,,,,material/101.png,1,善良,material/1.png,1,material/1.png,善良,1,j,j,j,1,1,1,博爱,,,,,,,,,0,50,50,0,0,0,0,0,,,,,,,f,0,1.19144916534,f,1,0.158179998398,moral_self_bias,09,18,59.9214534399,m,001,2018_Apr_02_1341,
,,,,,,,,,,,,,,,,,,,,,,material/101.png,1,善良,material/1.png,1,material/1.png,善良,1,j,j,j,1,1,1,博爱,,,,,,,,,0,50,50,0,,,,,,,,,,,,,,,,,moral_self_bias,09,18,59.9214534399,m,001,2018_Apr_02_1341,
,,,,,,,,,,,,,,,,,,,,,,material/166.png,1,孝顺,material/64.png,1,material/164.png,奉献,1,j,j,j,1,1,1,仗义,,,,,,,,,0,51,51,63,0,0,0,0,,,,,,,f,0,0.64938211441,f,1,0.275171995163,moral_self_bias,09,18,59.9214534399,m,001,2018_Apr_02_1341,
,,,,,,,,,,,,,,,,,,,,,,material/166.png,1,孝顺,material/64.png,1,material/164.png,奉献,1,j,j,j,1,1,1,仗义,,,,,,,,,0,51,51,63,,,,,,,,,,,,,,,,,moral_self_bias,09,18,59.9214534399,m,001,2018_Apr_02_1341,
,,,,,,,,,,,,,,,,,,,,,,material/138.png,2,无德,material/38.png,2,material/38.png,无德,2,j,j,j,1,1,1,缺德,,,,,,,,,0,52,52,37,0,0,0,0,,,,,,,f,0,0.883436918259,j,0,0.057865858078,moral_self_bias,09,18,59.9214534399,m,001,2018_Apr_02_1341,
,,,,,,,,,,,,,,,,,,,,,,material/138.png,2,无德,material/38.png,2,material/38.png,无德,2,j,j,j,1,1,1,缺德,,,,,,,,,0,52,52,37,,,,,,,,,,,,,,,,,moral_self_bias,09,18,59.9214534399,m,001,2018_Apr_02_1341,
,,,,,,,,,,,,,,,,,,,,,,material/143.png,2,拜金,material/43.png,2,material/43.png,拜金,2,j,j,j,1,1,1,虚荣,,,,,,,,,0,53,53,42,,,,,,,,,,,j,1,2.82498693466,,,,moral_self_bias,09,18,59.9214534399,m,001,2018_Apr_02_1341,
,,,,,,,,,,,,,,,,,,,,,,material/68.png,1,广博,material/167.png,1,material/68.png,高手,1,f,f,f,2,2,2,广博,,,,,,,,,0,54,54,146,0,0,0,0,,,,,,,f,1,1.42420387268,j,0,0.101219892502,moral_self_bias,09,18,59.9214534399,m,001,2018_Apr_02_1341,
,,,,,,,,,,,,,,,,,,,,,,material/68.png,1,广博,material/167.png,1,material/68.png,高手,1,f,f,f,2,2,2,广博,,,,,,,,,0,54,54,146,,,,,,,,,,,,,,,,,moral_self_bias,09,18,59.9214534399,m,001,2018_Apr_02_1341,
,,,,,,,,,,,,,,,,,,,,,,material/111.png,1,高雅,material/11.png,1,material/11.png,高雅,1,j,j,j,1,1,1,高尚,,,,,,,,,0,55,55,10,0,0,0,0,,,,,,,f,0,1.00839304924,j,0,0.141680002213,moral_self_bias,09,18,59.9214534399,m,001,2018_Apr_02_1341,
,,,,,,,,,,,,,,,,,,,,,,material/111.png,1,高雅,material/11.png,1,material/11.png,高雅,1,j,j,j,1,1,1,高尚,,,,,,,,,0,55,55,10,,,,,,,,,,,,,,,,,moral_self_bias,09,18,59.9214534399,m,001,2018_Apr_02_1341,
,,,,,,,,,,,,,,,,,,,,,,material/17.png,1,聪明,material/117.png,1,material/17.png,聪颖,1,f,f,f,2,2,2,聪明,,,,,,,,,0,56,56,96,0,0,0,0,,,,,,,f,1,0.791481971741,j,0,0.0841028690338,moral_self_bias,09,18,59.9214534399,m,001,2018_Apr_02_1341,
,,,,,,,,,,,,,,,,,,,,,,material/17.png,1,聪明,material/117.png,1,material/17.png,聪颖,1,f,f,f,2,2,2,聪明,,,,,,,,,0,56,56,96,,,,,,,,,,,,,,,,,moral_self_bias,09,18,59.9214534399,m,001,2018_Apr_02_1341,
,,,,,,,,,,,,,,,,,,,,,,material/36.png,2,撒谎,material/136.png,2,material/136.png,撒谎,2,f,f,f,1,1,1,说谎,,,,,,,,,0,57,57,115,,,,,,,,,,,j,0,3.47506189346,,,,moral_self_bias,09,18,59.9214534399,m,001,2018_Apr_02_1341,
,,,,,,,,,,,,,,,,,,,,,,material/129.png,1,好问,material/29.png,1,material/129.png,好学,1,j,j,j,2,2,2,好问,,,,,,,,,0,58,58,28,0,0,0,0,,,,,,,f,0,1.19121384621,f,1,0.175387859344,moral_self_bias,09,18,59.9214534399,m,001,2018_Apr_02_1341,
,,,,,,,,,,,,,,,,,,,,,,material/129.png,1,好问,material/29.png,1,material/129.png,好学,1,j,j,j,2,2,2,好问,,,,,,,,,0,58,58,28,,,,,,,,,,,,,,,,,moral_self_bias,09,18,59.9214534399,m,001,2018_Apr_02_1341,
,,,,,,,,,,,,,,,,,,,,,,material/41.png,2,残忍,material/141.png,2,material/141.png,残忍,2,f,f,f,1,1,1,歹毒,,,,,,,,,0,59,59,120,0,0,0,0,,,,,,,f,1,1.79050707817,j,0,0.0914468765259,moral_self_bias,09,18,59.9214534399,m,001,2018_Apr_02_1341,
,,,,,,,,,,,,,,,,,,,,,,material/41.png,2,残忍,material/141.png,2,material/141.png,残忍,2,f,f,f,1,1,1,歹毒,,,,,,,,,0,59,59,120,,,,,,,,,,,,,,,,,moral_self_bias,09,18,59.9214534399,m,001,2018_Apr_02_1341,
,,,,,,,,,,,,,,,,,,,,,,material/57.png,2,无知,material/157.png,2,material/57.png,无能,2,f,f,f,2,2,2,无知,,,,,,,,,0,60,60,136,0,0,0,0,,,,,,,f,1,0.916935920715,j,0,1.37423300743,moral_self_bias,09,18,59.9214534399,m,001,2018_Apr_02_1341,
,,,,,,,,,,,,,,,,,,,,,,material/57.png,2,无知,material/157.png,2,material/57.png,无能,2,f,f,f,2,2,2,无知,,,,,,,,,0,60,60,136,,,,,,,,,,,,,,,,,moral_self_bias,09,18,59.9214534399,m,001,2018_Apr_02_1341,
,,,,,,,,,,,,,,,,,,,,,,material/148.png,2,笨蛋,material/48.png,2,material/148.png,愚蠢,2,j,j,j,2,2,2,笨蛋,,,,,,,,,0,61,61,47,0,0,0,0,,,,,,,f,0,0.741492986679,j,0,0.075138092041,moral_self_bias,09,18,59.9214534399,m,001,2018_Apr_02_1341,
,,,,,,,,,,,,,,,,,,,,,,material/148.png,2,笨蛋,material/48.png,2,material/148.png,愚蠢,2,j,j,j,2,2,2,笨蛋,,,,,,,,,0,61,61,47,,,,,,,,,,,,,,,,,moral_self_bias,09,18,59.9214534399,m,001,2018_Apr_02_1341,
,,,,,,,,,,,,,,,,,,,,,,material/119.png,1,机灵,material/19.png,1,material/119.png,灵活,1,j,j,j,2,2,2,机灵,,,,,,,,,0,62,62,18,0,0,0,0,,,,,,,f,0,0.833614826202,j,0,0.042191028595,moral_self_bias,09,18,59.9214534399,m,001,2018_Apr_02_1341,
,,,,,,,,,,,,,,,,,,,,,,material/119.png,1,机灵,material/19.png,1,material/119.png,灵活,1,j,j,j,2,2,2,机灵,,,,,,,,,0,62,62,18,,,,,,,,,,,,,,,,,moral_self_bias,09,18,59.9214534399,m,001,2018_Apr_02_1341,
,,,,,,,,,,,,,,,,,,,,,,material/73.png,2,恶心,material/177.png,2,material/177.png,恶心,2,f,f,f,1,1,1,残虐,,,,,,,,,0,63,63,156,,,,,,,,,,,j,0,0.940943002701,,,,moral_self_bias,09,18,59.9214534399,m,001,2018_Apr_02_1341,
,,,,,,,,,,,,,,,,,,,,,,material/125.png,1,果敢,material/25.png,1,material/125.png,果断,1,j,j,j,2,2,2,果敢,,,,,,,,,0,64,64,24,0,0,0,0,,,,,,,f,0,1.31712698936,j,0,0.084370136261,moral_self_bias,09,18,59.9214534399,m,001,2018_Apr_02_1341,
,,,,,,,,,,,,,,,,,,,,,,material/125.png,1,果敢,material/25.png,1,material/125.png,果断,1,j,j,j,2,2,2,果敢,,,,,,,,,0,64,64,24,,,,,,,,,,,,,,,,,moral_self_bias,09,18,59.9214534399,m,001,2018_Apr_02_1341,
,,,,,,,,,,,,,,,,,,,,,,material/8.png,1,无私,material/108.png,1,material/108.png,无私,1,f,f,f,1,1,1,公道,,,,,,,,,0,65,65,87,,,,,,,,,,,j,0,4.98013091087,,,,moral_self_bias,09,18,59.9214534399,m,001,2018_Apr_02_1341,
,,,,,,,,,,,,,,,,,,,,,,material/52.png,2,拖延,material/152.png,2,material/52.png,缓慢,2,f,f,f,2,2,2,拖延,,,,,,,,,0,66,66,131,,,,,,,,,,,j,0,0.691538095474,,,,moral_self_bias,09,18,59.9214534399,m,001,2018_Apr_02_1341,
,,,,,,,,,,,,,,,,,,,,,,material/27.png,1,卓越,material/127.png,1,material/27.png,超群,1,f,f,f,2,2,2,卓越,,,,,,,,,0,67,67,106,,,,,,,,,,,j,0,0.824142932892,,,,moral_self_bias,09,18,59.9214534399,m,001,2018_Apr_02_1341,
,,,,,,,,,,,,,,,,,,,,,,material/4.png,1,友善,material/104.png,1,material/104.png,友善,1,f,f,f,1,1,1,友爱,,,,,,,,,0,68,68,83,0,0,0,0,,,,,,,f,1,1.55101299286,j,0,0.45757484436,moral_self_bias,09,18,59.9214534399,m,001,2018_Apr_02_1341,
,,,,,,,,,,,,,,,,,,,,,,material/4.png,1,友善,material/104.png,1,material/104.png,友善,1,f,f,f,1,1,1,友爱,,,,,,,,,0,68,68,83,,,,,,,,,,,,,,,,,moral_self_bias,09,18,59.9214534399,m,001,2018_Apr_02_1341,
,,,,,,,,,,,,,,,,,,,,,,material/16.png,1,睿智,material/116.png,1,material/16.png,机智,1,f,f,f,2,2,2,睿智,,,,,,,,,0,69,69,95,0,0,0,0,,,,,,,f,1,0.957937002182,j,0,0.0910401344299,moral_self_bias,09,18,59.9214534399,m,001,2018_Apr_02_1341,
,,,,,,,,,,,,,,,,,,,,,,material/16.png,1,睿智,material/116.png,1,material/16.png,机智,1,f,f,f,2,2,2,睿智,,,,,,,,,0,69,69,95,,,,,,,,,,,,,,,,,moral_self_bias,09,18,59.9214534399,m,001,2018_Apr_02_1341,
,,,,,,,,,,,,,,,,,,,,,,material/29.png,1,好学,material/129.png,1,material/29.png,好问,1,f,f,f,2,2,2,好学,,,,,,,,,0,70,70,108,0,0,0,0,,,,,,,f,1,0.875792980194,f,1,0.151051044464,moral_self_bias,09,18,59.9214534399,m,001,2018_Apr_02_1341,
,,,,,,,,,,,,,,,,,,,,,,material/29.png,1,好学,material/129.png,1,material/29.png,好问,1,f,f,f,2,2,2,好学,,,,,,,,,0,70,70,108,,,,,,,,,,,,,,,,,moral_self_bias,09,18,59.9214534399,m,001,2018_Apr_02_1341,
,,,,,,,,,,,,,,,,,,,,,,material/51.png,2,糊涂,material/151.png,2,material/51.png,迷糊,2,f,f,f,2,2,2,糊涂,,,,,,,,,0,71,71,130,0,0,0,0,,,,,,,f,1,0.807615995407,j,0,0.107769966125,moral_self_bias,09,18,59.9214534399,m,001,2018_Apr_02_1341,
,,,,,,,,,,,,,,,,,,,,,,material/51.png,2,糊涂,material/151.png,2,material/51.png,迷糊,2,f,f,f,2,2,2,糊涂,,,,,,,,,0,71,71,130,,,,,,,,,,,,,,,,,moral_self_bias,09,18,59.9214534399,m,001,2018_Apr_02_1341,
,,,,,,,,,,,,,,,,,,,,,,material/12.png,1,忠心,material/112.png,1,material/112.png,忠心,1,f,f,f,1,1,1,忠诚,,,,,,,,,0,72,72,91,0,0,0,0,,,,,,,f,1,1.23715186119,j,0,0.0754640102386,moral_self_bias,09,18,59.9214534399,m,001,2018_Apr_02_1341,
,,,,,,,,,,,,,,,,,,,,,,material/12.png,1,忠心,material/112.png,1,material/112.png,忠心,1,f,f,f,1,1,1,忠诚,,,,,,,,,0,72,72,91,,,,,,,,,,,,,,,,,moral_self_bias,09,18,59.9214534399,m,001,2018_Apr_02_1341,
,,,,,,,,,,,,,,,,,,,,,,material/152.png,2,缓慢,material/52.png,2,material/152.png,拖延,2,j,j,j,2,2,2,缓慢,,,,,,,,,0,73,73,51,,,,,,,,,,,j,1,0.00832200050354,,,,moral_self_bias,09,18,59.9214534399,m,001,2018_Apr_02_1341,
,,,,,,,,,,,,,,,,,,,,,,material/34.png,2,可恶,material/134.png,2,material/134.png,可恶,2,f,f,f,1,1,1,可恨,,,,,,,,,0,74,74,113,,,,,,,,,,,j,0,2.05834412575,,,,moral_self_bias,09,18,59.9214534399,m,001,2018_Apr_02_1341,
,,,,,,,,,,,,,,,,,,,,,,material/61.png,1,仗义,material/65.png,1,material/166.png,谦虚,1,j,j,j,1,1,1,平等,,,,,,,,,0,75,75,64,0,0,0,0,,,,,,,f,0,2.22524809837,f,1,0.157798051834,moral_self_bias,09,18,59.9214534399,m,001,2018_Apr_02_1341,
,,,,,,,,,,,,,,,,,,,,,,material/61.png,1,仗义,material/65.png,1,material/166.png,谦虚,1,j,j,j,1,1,1,平等,,,,,,,,,0,75,75,64,,,,,,,,,,,,,,,,,moral_self_bias,09,18,59.9214534399,m,001,2018_Apr_02_1341,
,,,,,,,,,,,,,,,,,,,,,,material/183.png,2,颓废,material/182.png,2,material/79.png,才尽,2,f,f,f,2,2,2,薄弱,,,,,,,,,0,76,76,161,,,,,,,,,,,j,0,1.17411112785,,,,moral_self_bias,09,18,59.9214534399,m,001,2018_Apr_02_1341,
,,,,,,,,,,,,,,,,,,,,,,material/76.png,2,放纵,material/176.png,2,material/176.png,放纵,2,f,f,f,1,1,1,虚伪,,,,,,,,,0,77,77,155,0,0,0,0,,,,,,,f,1,1.04110217094,f,1,0.158867835999,moral_self_bias,09,18,59.9214534399,m,001,2018_Apr_02_1341,
,,,,,,,,,,,,,,,,,,,,,,material/76.png,2,放纵,material/176.png,2,material/176.png,放纵,2,f,f,f,1,1,1,虚伪,,,,,,,,,0,77,77,155,,,,,,,,,,,,,,,,,moral_self_bias,09,18,59.9214534399,m,001,2018_Apr_02_1341,
,,,,,,,,,,,,,,,,,,,,,,material/184.png,2,草率,material/80.png,2,material/78.png,健忘,2,j,j,j,2,2,2,厌学,,,,,,,,,0,78,78,76,,,,,,,,,,,j,1,2.02568292618,,,,moral_self_bias,09,18,59.9214534399,m,001,2018_Apr_02_1341,
,,,,,,,,,,,,,,,,,,,,,,material/168.png,1,机变,material/170.png,1,material/168.png,坚忍,1,f,f,f,2,2,2,机变,,,,,,,,,0,79,79,149,0,0,0,0,,,,,,,f,1,2.23318386078,j,0,0.0930380821228,moral_self_bias,09,18,59.9214534399,m,001,2018_Apr_02_1341,
,,,,,,,,,,,,,,,,,,,,,,material/168.png,1,机变,material/170.png,1,material/168.png,坚忍,1,f,f,f,2,2,2,机变,,,,,,,,,0,79,79,149,,,,,,,,,,,,,,,,,moral_self_bias,09,18,59.9214534399,m,001,2018_Apr_02_1341,
,,,,,,,,,,,,,,,,,,,,,,material/103.png,1,仁慈,material/3.png,1,material/3.png,仁慈,1,j,j,j,1,1,1,仁厚,,,,,,,,,0,80,80,2,,,,,,,,,,,j,1,2.54184317589,,,,moral_self_bias,09,18,59.9214534399,m,001,2018_Apr_02_1341,
,,,,,,,,,,,,,,,,,,,,,,material/75.png,2,卑劣,material/74.png,2,material/74.png,卑劣,2,j,j,j,1,1,1,害人,,,,,,,,,0,81,81,70,,,,,,,,,,,j,1,0.691440820694,,,,moral_self_bias,09,18,59.9214534399,m,001,2018_Apr_02_1341,
,,,,,,,,,,,,,,,,,,,,,,material/55.png,2,盲从,material/155.png,2,material/55.png,盲目,2,f,f,f,2,2,2,盲从,,,,,,,,,0,82,82,134,0,0,0,0,,,,,,,f,1,2.42494010925,j,0,0.108462095261,moral_self_bias,09,18,59.9214534399,m,001,2018_Apr_02_1341,
,,,,,,,,,,,,,,,,,,,,,,material/55.png,2,盲从,material/155.png,2,material/55.png,盲目,2,f,f,f,2,2,2,盲从,,,,,,,,,0,82,82,134,,,,,,,,,,,,,,,,,moral_self_bias,09,18,59.9214534399,m,001,2018_Apr_02_1341,
,,,,,,,,,,,,,,,,,,,,,,material/175.png,2,残虐,material/73.png,2,material/73.png,残虐,2,f,f,f,1,1,1,无情,,,,,,,,,0,83,83,165,,,,,,,,,,,j,0,0.77449297905,,,,moral_self_bias,09,18,59.9214534399,m,001,2018_Apr_02_1341,
,,,,,,,,,,,,,,,,,,,,,,material/63.png,1,正义,material/166.png,1,material/66.png,仗义,1,f,f,f,1,1,1,文明,,,,,,,,,0,84,84,145,,,,,,,,,,,j,0,0.591490030289,,,,moral_self_bias,09,18,59.9214534399,m,001,2018_Apr_02_1341,
,,,,,,,,,,,,,,,,,,,,,,material/176.png,2,害人,material/75.png,2,material/75.png,害人,2,j,j,j,1,1,1,放纵,,,,,,,,,0,85,85,71,,,,,,,,,,,j,1,0.508671045303,,,,moral_self_bias,09,18,59.9214534399,m,001,2018_Apr_02_1341,
,,,,,,,,,,,,,,,,,,,,,,material/141.png,2,歹毒,material/41.png,2,material/41.png,歹毒,2,j,j,j,1,1,1,残忍,,,,,,,,,0,86,86,40,,,,,,,,,,,j,1,0.523689985275,,,,moral_self_bias,09,18,59.9214534399,m,001,2018_Apr_02_1341,
,,,,,,,,,,,,,,,,,,,,,,material/128.png,1,自律,material/28.png,1,material/128.png,克己,1,j,j,j,2,2,2,自律,,,,,,,,,0,87,87,27,0,0,0,0,,,,,,,f,0,1.05864882469,j,0,0.141475915909,moral_self_bias,09,18,59.9214534399,m,001,2018_Apr_02_1341,
,,,,,,,,,,,,,,,,,,,,,,material/128.png,1,自律,material/28.png,1,material/128.png,克己,1,j,j,j,2,2,2,自律,,,,,,,,,0,87,87,27,,,,,,,,,,,,,,,,,moral_self_bias,09,18,59.9214534399,m,001,2018_Apr_02_1341,
,,,,,,,,,,,,,,,,,,,,,,material/131.png,1,笃行,material/31.png,1,material/131.png,笃学,1,j,j,j,2,2,2,笃行,,,,,,,,,0,88,88,30,,,,,,,,,,,j,1,1.35052013397,,,,moral_self_bias,09,18,59.9214534399,m,001,2018_Apr_02_1341,
,,,,,,,,,,,,,,,,,,,,,,material/59.png,2,智障,material/159.png,2,material/59.png,弱智,2,f,f,f,2,2,2,智障,,,,,,,,,0,89,89,138,,,,,,,,,,,j,0,1.05907201767,,,,moral_self_bias,09,18,59.9214534399,m,001,2018_Apr_02_1341,
,,,,,,,,,,,,,,,,,,,,,,material/72.png,2,软弱,material/77.png,2,material/77.png,软弱,2,j,j,j,1,1,1,谄媚,,,,,,,,,0,90,90,73,,,,,,,,,,,j,1,0.549781084061,,,,moral_self_bias,09,18,59.9214534399,m,001,2018_Apr_02_1341,
,,,,,,,,,,,,,,,,,,,,,,material/153.png,2,迟钝,material/53.png,2,material/153.png,迟缓,2,j,j,j,2,2,2,迟钝,,,,,,,,,0,91,91,52,,,,,,,,,,,j,1,0.492348909378,,,,moral_self_bias,09,18,59.9214534399,m,001,2018_Apr_02_1341,
,,,,,,,,,,,,,,,,,,,,,,material/78.png,2,厌学,material/181.png,2,material/184.png,犹豫,2,f,f,f,2,2,2,草率,,,,,,,,,0,92,92,160,,,,,,,,,,,j,0,0.507647037506,,,,moral_self_bias,09,18,59.9214534399,m,001,2018_Apr_02_1341,
,,,,,,,,,,,,,,,,,,,,,,material/123.png,1,多才,material/23.png,1,material/123.png,有才,1,j,j,j,2,2,2,多才,,,,,,,,,0,93,93,22,0,0,0,0,,,,,,,f,0,1.12382102013,j,0,2.23362112045,moral_self_bias,09,18,59.9214534399,m,001,2018_Apr_02_1341,
,,,,,,,,,,,,,,,,,,,,,,material/123.png,1,多才,material/23.png,1,material/123.png,有才,1,j,j,j,2,2,2,多才,,,,,,,,,0,93,93,22,,,,,,,,,,,,,,,,,moral_self_bias,09,18,59.9214534399,m,001,2018_Apr_02_1341,
,,,,,,,,,,,,,,,,,,,,,,material/167.png,1,高手,material/169.png,1,material/167.png,颖悟,1,f,f,f,2,2,2,高手,,,,,,,,,0,94,94,148,0,0,0,0,,,,,,,f,1,0.974637985229,j,0,0.0583970546722,moral_self_bias,09,18,59.9214534399,m,001,2018_Apr_02_1341,
,,,,,,,,,,,,,,,,,,,,,,material/167.png,1,高手,material/169.png,1,material/167.png,颖悟,1,f,f,f,2,2,2,高手,,,,,,,,,0,94,94,148,,,,,,,,,,,,,,,,,moral_self_bias,09,18,59.9214534399,m,001,2018_Apr_02_1341,
,,,,,,,,,,,,,,,,,,,,,,material/22.png,1,才学,material/122.png,1,material/22.png,博学,1,f,f,f,2,2,2,才学,,,,,,,,,0,95,95,101,,,,,,,,,,,j,0,1.39179396629,,,,moral_self_bias,09,18,59.9214534399,m,001,2018_Apr_02_1341,
,,,,,,,,,,,,,,,,,,,,,,material/71.png,1,严谨,material/68.png,1,material/71.png,广博,1,j,j,j,2,2,2,严谨,,,,,,,,,0,96,96,66,,,,,,,,,,,j,1,0.575094938278,,,,moral_self_bias,09,18,59.9214534399,m,001,2018_Apr_02_1341,
,,,,,,,,,,,,,,,,,,,,,,material/172.png,2,无情,material/175.png,2,material/175.png,无情,2,f,f,f,1,1,1,浮夸,,,,,,,,,0,97,97,154,0,0,0,0,,,,,,,f,1,1.058562994,j,0,0.142092943192,moral_self_bias,09,18,59.9214534399,m,001,2018_Apr_02_1341,
,,,,,,,,,,,,,,,,,,,,,,material/172.png,2,无情,material/175.png,2,material/175.png,无情,2,f,f,f,1,1,1,浮夸,,,,,,,,,0,97,97,154,,,,,,,,,,,,,,,,,moral_self_bias,09,18,59.9214534399,m,001,2018_Apr_02_1341,
,,,,,,,,,,,,,,,,,,,,,,material/102.png,1,善心,material/2.png,1,material/2.png,善心,1,j,j,j,1,1,1,爱心,,,,,,,,,0,98,98,1,0,0,0,0,,,,,,,f,0,1.0916121006,f,1,0.142035007477,moral_self_bias,09,18,59.9214534399,m,001,2018_Apr_02_1341,
,,,,,,,,,,,,,,,,,,,,,,material/102.png,1,善心,material/2.png,1,material/2.png,善心,1,j,j,j,1,1,1,爱心,,,,,,,,,0,98,98,1,,,,,,,,,,,,,,,,,moral_self_bias,09,18,59.9214534399,m,001,2018_Apr_02_1341,
,,,,,,,,,,,,,,,,,,,,,,material/112.png,1,忠诚,material/12.png,1,material/12.png,忠诚,1,j,j,j,1,1,1,忠心,,,,,,,,,0,99,99,11,0,0,0,0,,,,,,,f,0,1.07496285439,f,1,0.191725969315,moral_self_bias,09,18,59.9214534399,m,001,2018_Apr_02_1341,
,,,,,,,,,,,,,,,,,,,,,,material/112.png,1,忠诚,material/12.png,1,material/12.png,忠诚,1,j,j,j,1,1,1,忠心,,,,,,,,,0,99,99,11,,,,,,,,,,,,,,,,,moral_self_bias,09,18,59.9214534399,m,001,2018_Apr_02_1341,
,,,,,,,,,,,,,,,,,,,,,,material/132.png,2,不忠,material/32.png,2,material/32.png,不忠,2,j,j,j,1,1,1,背叛,,,,,,,,,0,100,100,31,0,0,0,0,,,,,,,f,0,1.29144501686,j,0,0.0925130844116,moral_self_bias,09,18,59.9214534399,m,001,2018_Apr_02_1341,
,,,,,,,,,,,,,,,,,,,,,,material/132.png,2,不忠,material/32.png,2,material/32.png,不忠,2,j,j,j,1,1,1,背叛,,,,,,,,,0,100,100,31,,,,,,,,,,,,,,,,,moral_self_bias,09,18,59.9214534399,m,001,2018_Apr_02_1341,
,,,,,,,,,,,,,,,,,,,,,,material/3.png,1,仁厚,material/103.png,1,material/103.png,仁厚,1,f,f,f,1,1,1,仁慈,,,,,,,,,0,101,101,82,,,,,,,,,,,j,0,0.74155497551,,,,moral_self_bias,09,18,59.9214534399,m,001,2018_Apr_02_1341,
,,,,,,,,,,,,,,,,,,,,,,material/35.png,2,冷血,material/135.png,2,material/135.png,冷血,2,f,f,f,1,1,1,冷漠,,,,,,,,,0,102,102,114,,,,,,,,,,,j,0,0.840836048126,,,,moral_self_bias,09,18,59.9214534399,m,001,2018_Apr_02_1341,
,,,,,,,,,,,,,,,,,,,,,,material/137.png,2,无耻,material/37.png,2,material/37.png,无耻,2,j,j,j,1,1,1,卑鄙,,,,,,,,,0,103,103,36,,,,,,,,,,,j,1,1.19212412834,,,,moral_self_bias,09,18,59.9214534399,m,001,2018_Apr_02_1341,
,,,,,,,,,,,,,,,,,,,,,,material/33.png,2,贪污,material/133.png,2,material/133.png,贪污,2,f,f,f,1,1,1,腐败,,,,,,,,,0,104,104,112,0,0,0,0,,,,,,,f,1,1.09045505524,f,1,2.37549781799,moral_self_bias,09,18,59.9214534399,m,001,2018_Apr_02_1341,
,,,,,,,,,,,,,,,,,,,,,,material/33.png,2,贪污,material/133.png,2,material/133.png,贪污,2,f,f,f,1,1,1,腐败,,,,,,,,,0,104,104,112,,,,,,,,,,,,,,,,,moral_self_bias,09,18,59.9214534399,m,001,2018_Apr_02_1341,
,,,,,,,,,,,,,,,,,,,,,,material/127.png,1,超群,material/27.png,1,material/127.png,卓越,1,j,j,j,2,2,2,超群,,,,,,,,,0,105,105,26,,,,,,,,,,,j,1,2.42461800575,,,,moral_self_bias,09,18,59.9214534399,m,001,2018_Apr_02_1341,
,,,,,,,,,,,,,,,,,,,,,,material/38.png,2,缺德,material/138.png,2,material/138.png,缺德,2,f,f,f,1,1,1,无德,,,,,,,,,0,106,106,117,,,,,,,,,,,j,0,0.624986886978,,,,moral_self_bias,09,18,59.9214534399,m,001,2018_Apr_02_1341,
,,,,,,,,,,,,,,,,,,,,,,material/46.png,2,自私,material/146.png,2,material/146.png,自私,2,f,f,f,1,1,1,小气,,,,,,,,,0,107,107,125,0,0,0,0,,,,,,,f,1,0.97470998764,f,1,0.175137996674,moral_self_bias,09,18,59.9214534399,m,001,2018_Apr_02_1341,
,,,,,,,,,,,,,,,,,,,,,,material/46.png,2,自私,material/146.png,2,material/146.png,自私,2,f,f,f,1,1,1,小气,,,,,,,,,0,107,107,125,,,,,,,,,,,,,,,,,moral_self_bias,09,18,59.9214534399,m,001,2018_Apr_02_1341,
,,,,,,,,,,,,,,,,,,,,,,material/14.png,1,忠贞,material/114.png,1,material/114.png,忠贞,1,f,f,f,1,1,1,爱国,,,,,,,,,0,108,108,93,,,,,,,,,,,j,0,1.44140410423,,,,moral_self_bias,09,18,59.9214534399,m,001,2018_Apr_02_1341,
,,,,,,,,,,,,,,,,,,,,,,material/44.png,2,爽约,material/144.png,2,material/144.png,爽约,2,f,f,f,1,1,1,失信,,,,,,,,,0,109,109,123,,,,,,,,,,,j,0,0.608610868454,,,,moral_self_bias,09,18,59.9214534399,m,001,2018_Apr_02_1341,
,,,,,,,,,,,,,,,,,,,,,,material/54.png,2,依赖,material/154.png,2,material/54.png,依靠,2,f,f,f,2,2,2,依赖,,,,,,,,,0,110,110,133,,,,,,,,,,,j,0,2.35805606842,,,,moral_self_bias,09,18,59.9214534399,m,001,2018_Apr_02_1341,
,,,,,,,,,,,,,,,,,,,,,,material/174.png,2,虚伪,material/76.png,2,material/76.png,虚伪,2,j,j,j,1,1,1,不义,,,,,,,,,0,111,111,72,0,0,0,0,,,,,,,f,0,0.890286207199,f,1,0.174697160721,moral_self_bias,09,18,59.9214534399,m,001,2018_Apr_02_1341,
,,,,,,,,,,,,,,,,,,,,,,material/174.png,2,虚伪,material/76.png,2,material/76.png,虚伪,2,j,j,j,1,1,1,不义,,,,,,,,,0,111,111,72,,,,,,,,,,,,,,,,,moral_self_bias,09,18,59.9214534399,m,001,2018_Apr_02_1341,
,,,,,,,,,,,,,,,,,,,,,,material/154.png,2,依靠,material/54.png,2,material/154.png,依赖,2,j,j,j,2,2,2,依靠,,,,,,,,,0,112,112,53,0,0,0,0,,,,,,,f,0,2.90753102303,f,1,0.140374898911,moral_self_bias,09,18,59.9214534399,m,001,2018_Apr_02_1341,
,,,,,,,,,,,,,,,,,,,,,,material/154.png,2,依靠,material/54.png,2,material/154.png,依赖,2,j,j,j,2,2,2,依靠,,,,,,,,,0,112,112,53,,,,,,,,,,,,,,,,,moral_self_bias,09,18,59.9214534399,m,001,2018_Apr_02_1341,
,,,,,,,,,,,,,,,,,,,,,,material/80.png,2,才尽,material/83.png,2,material/182.png,呆笨,2,j,j,j,2,2,2,健忘,,,,,,,,,0,113,113,79,0,0,0,0,,,,,,,f,0,0.856914043427,f,1,0.166599988937,moral_self_bias,09,18,59.9214534399,m,001,2018_Apr_02_1341,
,,,,,,,,,,,,,,,,,,,,,,material/80.png,2,才尽,material/83.png,2,material/182.png,呆笨,2,j,j,j,2,2,2,健忘,,,,,,,,,0,113,113,79,,,,,,,,,,,,,,,,,moral_self_bias,09,18,59.9214534399,m,001,2018_Apr_02_1341,
,,,,,,,,,,,,,,,,,,,,,,material/182.png,2,健忘,material/184.png,2,material/80.png,厌学,2,f,f,f,2,2,2,才尽,,,,,,,,,0,114,114,163,0,0,0,0,,,,,,,f,1,0.89054107666,f,1,0.225001096725,moral_self_bias,09,18,59.9214534399,m,001,2018_Apr_02_1341,
,,,,,,,,,,,,,,,,,,,,,,material/182.png,2,健忘,material/184.png,2,material/80.png,厌学,2,f,f,f,2,2,2,才尽,,,,,,,,,0,114,114,163,,,,,,,,,,,,,,,,,moral_self_bias,09,18,59.9214534399,m,001,2018_Apr_02_1341,
,,,,,,,,,,,,,,,,,,,,,,material/11.png,1,高尚,material/111.png,1,material/111.png,高尚,1,f,f,f,1,1,1,高雅,,,,,,,,,0,115,115,90,0,0,0,0,,,,,,,f,1,1.02523493767,f,1,0.140866041183,moral_self_bias,09,18,59.9214534399,m,001,2018_Apr_02_1341,
,,,,,,,,,,,,,,,,,,,,,,material/11.png,1,高尚,material/111.png,1,material/111.png,高尚,1,f,f,f,1,1,1,高雅,,,,,,,,,0,115,115,90,,,,,,,,,,,,,,,,,moral_self_bias,09,18,59.9214534399,m,001,2018_Apr_02_1341,
,,,,,,,,,,,,,,,,,,,,,,material/64.png,1,谦虚,material/165.png,1,material/65.png,独立,1,f,f,f,1,1,1,奉献,,,,,,,,,0,116,116,144,0,0,0,0,,,,,,,f,1,5.32429599762,j,0,0.140690088272,moral_self_bias,09,18,59.9214534399,m,001,2018_Apr_02_1341,
,,,,,,,,,,,,,,,,,,,,,,material/64.png,1,谦虚,material/165.png,1,material/65.png,独立,1,f,f,f,1,1,1,奉献,,,,,,,,,0,116,116,144,,,,,,,,,,,,,,,,,moral_self_bias,09,18,59.9214534399,m,001,2018_Apr_02_1341,
,,,,,,,,,,,,,,,,,,,,,,material/144.png,2,失信,material/44.png,2,material/44.png,失信,2,j,j,j,1,1,1,爽约,,,,,,,,,0,117,117,43,,,,,,,,,,,j,1,1.38417601585,,,,moral_self_bias,09,18,59.9214534399,m,001,2018_Apr_02_1341,
,,,,,,,,,,,,,,,,,,,,,,material/2.png,1,爱心,material/102.png,1,material/102.png,爱心,1,f,f,f,1,1,1,善心,,,,,,,,,0,118,118,81,,,,,,,,,,,j,0,0.841158866882,,,,moral_self_bias,09,18,59.9214534399,m,001,2018_Apr_02_1341,
,,,,,,,,,,,,,,,,,,,,,,material/9.png,1,正直,material/109.png,1,material/109.png,正直,1,f,f,f,1,1,1,秉直,,,,,,,,,0,119,119,88,,,,,,,,,,,j,0,1.05796790123,,,,moral_self_bias,09,18,59.9214534399,m,001,2018_Apr_02_1341,
,,,,,,,,,,,,,,,,,,,,,,material/45.png,2,小人,material/145.png,2,material/145.png,小人,2,f,f,f,1,1,1,下流,,,,,,,,,0,120,120,124,0,0,0,0,,,,,,,f,1,1.37477397919,j,0,0.0589320659637,moral_self_bias,09,18,59.9214534399,m,001,2018_Apr_02_1341,
,,,,,,,,,,,,,,,,,,,,,,material/45.png,2,小人,material/145.png,2,material/145.png,小人,2,f,f,f,1,1,1,下流,,,,,,,,,0,120,120,124,,,,,,,,,,,,,,,,,moral_self_bias,09,18,59.9214534399,m,001,2018_Apr_02_1341,
,,,,,,,,,,,,,,,,,,,,,,material/133.png,2,腐败,material/33.png,2,material/33.png,腐败,2,j,j,j,1,1,1,贪污,,,,,,,,,0,121,121,32,,,,,,,,,,,j,1,0.72497010231,,,,moral_self_bias,09,18,59.9214534399,m,001,2018_Apr_02_1341,
,,,,,,,,,,,,,,,,,,,,,,material/163.png,1,文明,material/163.png,1,material/63.png,宽容,1,f,f,f,1,1,1,宽容,,,,,,,,,0,122,122,142,,,,,,,,,,,j,0,0.641678094864,,,,moral_self_bias,09,18,59.9214534399,m,001,2018_Apr_02_1341,
,,,,,,,,,,,,,,,,,,,,,,material/39.png,2,恶毒,material/139.png,2,material/139.png,恶毒,2,f,f,f,1,1,1,凶残,,,,,,,,,0,123,123,118,,,,,,,,,,,j,0,0.740258932114,,,,moral_self_bias,09,18,59.9214534399,m,001,2018_Apr_02_1341,
,,,,,,,,,,,,,,,,,,,,,,material/165.png,1,平等,material/161.png,1,material/61.png,勇敢,1,f,f,f,1,1,1,独立,,,,,,,,,0,124,124,140,,,,,,,,,,,j,0,0.624902009964,,,,moral_self_bias,09,18,59.9214534399,m,001,2018_Apr_02_1341,
,,,,,,,,,,,,,,,,,,,,,,material/135.png,2,冷漠,material/35.png,2,material/35.png,冷漠,2,j,j,j,1,1,1,冷血,,,,,,,,,0,125,125,34,,,,,,,,,,,j,1,0.50711107254,,,,moral_self_bias,09,18,59.9214534399,m,001,2018_Apr_02_1341,
,,,,,,,,,,,,,,,,,,,,,,material/48.png,2,愚蠢,material/148.png,2,material/48.png,笨蛋,2,f,f,f,2,2,2,愚蠢,,,,,,,,,0,126,126,127,,,,,,,,,,,j,0,0.56637597084,,,,moral_self_bias,09,18,59.9214534399,m,001,2018_Apr_02_1341,
,,,,,,,,,,,,,,,,,,,,,,material/79.png,2,薄弱,material/81.png,2,material/183.png,无助,2,j,j,j,2,2,2,颓废,,,,,,,,,0,127,127,77,,,,,,,,,,,j,1,0.741364955902,,,,moral_self_bias,09,18,59.9214534399,m,001,2018_Apr_02_1341,
,,,,,,,,,,,,,,,,,,,,,,material/150.png,2,鲁钝,material/50.png,2,material/150.png,愚笨,2,j,j,j,2,2,2,鲁钝,,,,,,,,,0,128,128,49,0,0,0,0,,,,,,,f,0,1.008425951,j,0,0.0929269790649,moral_self_bias,09,18,59.9214534399,m,001,2018_Apr_02_1341,
,,,,,,,,,,,,,,,,,,,,,,material/150.png,2,鲁钝,material/50.png,2,material/150.png,愚笨,2,j,j,j,2,2,2,鲁钝,,,,,,,,,0,128,128,49,,,,,,,,,,,,,,,,,moral_self_bias,09,18,59.9214534399,m,001,2018_Apr_02_1341,
,,,,,,,,,,,,,,,,,,,,,,material/171.png,1,高效,material/67.png,1,material/171.png,骁勇,1,j,j,j,2,2,2,高效,,,,,,,,,0,129,129,65,,,,,,,,,,,j,1,1.17493605614,,,,moral_self_bias,09,18,59.9214534399,m,001,2018_Apr_02_1341,
,,,,,,,,,,,,,,,,,,,,,,material/164.png,1,宽容,material/63.png,1,material/163.png,文明,1,j,j,j,1,1,1,孝顺,,,,,,,,,0,130,130,62,,,,,,,,,,,j,1,0.708168983459,,,,moral_self_bias,09,18,59.9214534399,m,001,2018_Apr_02_1341,
,,,,,,,,,,,,,,,,,,,,,,material/19.png,1,灵活,material/119.png,1,material/19.png,机灵,1,f,f,f,2,2,2,灵活,,,,,,,,,0,131,131,98,0,0,0,0,,,,,,,f,1,1.69187903404,f,1,0.173800945282,moral_self_bias,09,18,59.9214534399,m,001,2018_Apr_02_1341,
,,,,,,,,,,,,,,,,,,,,,,material/19.png,1,灵活,material/119.png,1,material/19.png,机灵,1,f,f,f,2,2,2,灵活,,,,,,,,,0,131,131,98,,,,,,,,,,,,,,,,,moral_self_bias,09,18,59.9214534399,m,001,2018_Apr_02_1341,
,,,,,,,,,,,,,,,,,,,,,,material/149.png,2,白痴,material/49.png,2,material/149.png,痴呆,2,j,j,j,2,2,2,白痴,,,,,,,,,0,132,132,48,0,0,0,0,,,,,,,f,0,1.65769004822,f,1,1.02548694611,moral_self_bias,09,18,59.9214534399,m,001,2018_Apr_02_1341,
,,,,,,,,,,,,,,,,,,,,,,material/149.png,2,白痴,material/49.png,2,material/149.png,痴呆,2,j,j,j,2,2,2,白痴,,,,,,,,,0,132,132,48,,,,,,,,,,,,,,,,,moral_self_bias,09,18,59.9214534399,m,001,2018_Apr_02_1341,
,,,,,,,,,,,,,,,,,,,,,,material/181.png,2,怠惰,material/180.png,2,material/180.png,怠惰,2,f,f,f,2,2,2,犹豫,,,,,,,,,0,133,133,159,0,0,0,0,,,,,,,f,1,0.816578149796,f,1,0.19074010849,moral_self_bias,09,18,59.9214534399,m,001,2018_Apr_02_1341,
,,,,,,,,,,,,,,,,,,,,,,material/181.png,2,怠惰,material/180.png,2,material/180.png,怠惰,2,f,f,f,2,2,2,犹豫,,,,,,,,,0,133,133,159,,,,,,,,,,,,,,,,,moral_self_bias,09,18,59.9214534399,m,001,2018_Apr_02_1341,
,,,,,,,,,,,,,,,,,,,,,,material/170.png,1,坚忍,material/71.png,1,material/170.png,严谨,1,j,j,j,2,2,2,坚忍,,,,,,,,,0,134,134,68,,,,,,,,,,,j,1,1.55849599838,,,,moral_self_bias,09,18,59.9214534399,m,001,2018_Apr_02_1341,
,,,,,,,,,,,,,,,,,,,,,,material/47.png,2,死板,material/147.png,2,material/47.png,刻板,2,f,f,f,2,2,2,死板,,,,,,,,,0,135,135,126,,,,,,,,,,,j,0,0.991670131683,,,,moral_self_bias,09,18,59.9214534399,m,001,2018_Apr_02_1341,
,,,,,,,,,,,,,,,,,,,,,,material/77.png,2,浮夸,material/172.png,2,material/172.png,浮夸,2,f,f,f,1,1,1,软弱,,,,,,,,,0,136,136,151,0,0,0,0,,,,,,,f,1,0.941248893738,j,0,0.0925369262695,moral_self_bias,09,18,59.9214534399,m,001,2018_Apr_02_1341,
,,,,,,,,,,,,,,,,,,,,,,material/77.png,2,浮夸,material/172.png,2,material/172.png,浮夸,2,f,f,f,1,1,1,软弱,,,,,,,,,0,136,136,151,,,,,,,,,,,,,,,,,moral_self_bias,09,18,59.9214534399,m,001,2018_Apr_02_1341,
,,,,,,,,,,,,,,,,,,,,,,material/107.png,1,公正,material/7.png,1,material/7.png,公正,1,j,j,j,1,1,1,公平,,,,,,,,,0,137,137,6,0,0,0,0,,,,,,,f,0,1.10752987862,j,0,0.0928449630737,moral_self_bias,09,18,59.9214534399,m,001,2018_Apr_02_1341,
,,,,,,,,,,,,,,,,,,,,,,material/107.png,1,公正,material/7.png,1,material/7.png,公正,1,j,j,j,1,1,1,公平,,,,,,,,,0,137,137,6,,,,,,,,,,,,,,,,,moral_self_bias,09,18,59.9214534399,m,001,2018_Apr_02_1341,
,,,,,,,,,,,,,,,,,,,,,,material/20.png,1,厉害,material/120.png,1,material/20.png,能干,1,f,f,f,2,2,2,厉害,,,,,,,,,0,138,138,99,,,,,,,,,,,j,0,0.924510002136,,,,moral_self_bias,09,18,59.9214534399,m,001,2018_Apr_02_1341,
,,,,,,,,,,,,,,,,,,,,,,material/140.png,2,邪恶,material/40.png,2,material/40.png,邪恶,2,j,j,j,1,1,1,狠毒,,,,,,,,,0,139,139,39,,,,,,,,,,,j,1,2.10883116722,,,,moral_self_bias,09,18,59.9214534399,m,001,2018_Apr_02_1341,
,,,,,,,,,,,,,,,,,,,,,,material/58.png,2,肤浅,material/158.png,2,material/58.png,浅薄,2,f,f,f,2,2,2,肤浅,,,,,,,,,0,140,140,137,,,,,,,,,,,j,0,0.641102075577,,,,moral_self_bias,09,18,59.9214534399,m,001,2018_Apr_02_1341,
,,,,,,,,,,,,,,,,,,,,,,material/56.png,2,愚昧,material/156.png,2,material/56.png,愚钝,2,f,f,f,2,2,2,愚昧,,,,,,,,,0,141,141,135,0,0,0,0,,,,,,,f,1,0.874787092209,j,0,0.284288883209,moral_self_bias,09,18,59.9214534399,m,001,2018_Apr_02_1341,
,,,,,,,,,,,,,,,,,,,,,,material/56.png,2,愚昧,material/156.png,2,material/56.png,愚钝,2,f,f,f,2,2,2,愚昧,,,,,,,,,0,141,141,135,,,,,,,,,,,,,,,,,moral_self_bias,09,18,59.9214534399,m,001,2018_Apr_02_1341,
,,,,,,,,,,,,,,,,,,,,,,material/105.png,1,守信,material/5.png,1,material/5.png,守信,1,j,j,j,1,1,1,诚信,,,,,,,,,0,142,142,4,,,,,,,,,,,j,1,0.50833106041,,,,moral_self_bias,09,18,59.9214534399,m,001,2018_Apr_02_1341,
,,,,,,,,,,,,,,,,,,,,,,material/121.png,1,精干,material/21.png,1,material/121.png,干练,1,j,j,j,2,2,2,精干,,,,,,,,,0,143,143,20,0,0,0,0,,,,,,,f,0,0.624814987183,j,0,0.0014181137085,moral_self_bias,09,18,59.9214534399,m,001,2018_Apr_02_1341,
,,,,,,,,,,,,,,,,,,,,,,material/121.png,1,精干,material/21.png,1,material/121.png,干练,1,j,j,j,2,2,2,精干,,,,,,,,,0,143,143,20,,,,,,,,,,,,,,,,,moral_self_bias,09,18,59.9214534399,m,001,2018_Apr_02_1341,
,,,,,,,,,,,,,,,,,,,,,,material/28.png,1,克己,material/128.png,1,material/28.png,自律,1,f,f,f,2,2,2,克己,,,,,,,,,0,144,144,107,,,,,,,,,,,j,0,1.29108190536,,,,moral_self_bias,09,18,59.9214534399,m,001,2018_Apr_02_1341,
,,,,,,,,,,,,,,,,,,,,,,material/139.png,2,凶残,material/39.png,2,material/39.png,凶残,2,j,j,j,1,1,1,恶毒,,,,,,,,,0,145,145,38,0,0,0,0,,,,,,,f,0,0.792698860168,j,0,0.0413398742676,moral_self_bias,09,18,59.9214534399,m,001,2018_Apr_02_1341,
,,,,,,,,,,,,,,,,,,,,,,material/139.png,2,凶残,material/39.png,2,material/39.png,凶残,2,j,j,j,1,1,1,恶毒,,,,,,,,,0,145,145,38,,,,,,,,,,,,,,,,,moral_self_bias,09,18,59.9214534399,m,001,2018_Apr_02_1341,
,,,,,,,,,,,,,,,,,,,,,,material/67.png,1,骁勇,material/70.png,1,material/67.png,全面,1,j,j,j,2,2,2,骁勇,,,,,,,,,0,146,146,67,0,0,0,0,,,,,,,f,0,1.29230713844,j,0,0.508244037628,moral_self_bias,09,18,59.9214534399,m,001,2018_Apr_02_1341,
,,,,,,,,,,,,,,,,,,,,,,material/67.png,1,骁勇,material/70.png,1,material/67.png,全面,1,j,j,j,2,2,2,骁勇,,,,,,,,,0,146,146,67,,,,,,,,,,,,,,,,,moral_self_bias,09,18,59.9214534399,m,001,2018_Apr_02_1341,
,,,,,,,,,,,,,,,,,,,,,,material/31.png,1,笃学,material/131.png,1,material/31.png,笃行,1,f,f,f,2,2,2,笃学,,,,,,,,,0,147,147,110,,,,,,,,,,,j,0,0.724625825882,,,,moral_self_bias,09,18,59.9214534399,m,001,2018_Apr_02_1341,
,,,,,,,,,,,,,,,,,,,,,,material/155.png,2,盲目,material/55.png,2,material/155.png,盲从,2,j,j,j,2,2,2,盲目,,,,,,,,,0,148,148,54,0,0,0,0,,,,,,,f,0,0.842368125916,j,0,0.274976968765,moral_self_bias,09,18,59.9214534399,m,001,2018_Apr_02_1341,
,,,,,,,,,,,,,,,,,,,,,,material/155.png,2,盲目,material/55.png,2,material/155.png,盲从,2,j,j,j,2,2,2,盲目,,,,,,,,,0,148,148,54,,,,,,,,,,,,,,,,,moral_self_bias,09,18,59.9214534399,m,001,2018_Apr_02_1341,
,,,,,,,,,,,,,,,,,,,,,,material/147.png,2,刻板,material/47.png,2,material/147.png,死板,2,j,j,j,2,2,2,刻板,,,,,,,,,0,149,149,46,,,,,,,,,,,j,1,0.375623941422,,,,moral_self_bias,09,18,59.9214534399,m,001,2018_Apr_02_1341,
,,,,,,,,,,,,,,,,,,,,,,material/134.png,2,可恨,material/34.png,2,material/34.png,可恨,2,j,j,j,1,1,1,可恶,,,,,,,,,0,150,150,33,,,,,,,,,,,j,1,0.308971881866,,,,moral_self_bias,09,18,59.9214534399,m,001,2018_Apr_02_1341,
,,,,,,,,,,,,,,,,,,,,,,material/130.png,1,进取,material/30.png,1,material/130.png,上进,1,j,j,j,2,2,2,进取,,,,,,,,,0,151,151,29,,,,,,,,,,,j,1,1.00804209709,,,,moral_self_bias,09,18,59.9214534399,m,001,2018_Apr_02_1341,
,,,,,,,,,,,,,,,,,,,,,,material/49.png,2,痴呆,material/149.png,2,material/49.png,白痴,2,f,f,f,2,2,2,痴呆,,,,,,,,,0,152,152,128,,,,,,,,,,,j,0,0.651067018509,,,,moral_self_bias,09,18,59.9214534399,m,001,2018_Apr_02_1341,
,,,,,,,,,,,,,,,,,,,,,,material/156.png,2,愚钝,material/56.png,2,material/156.png,愚昧,2,j,j,j,2,2,2,愚钝,,,,,,,,,0,153,153,55,,,,,,,,,,,j,1,0.575719118118,,,,moral_self_bias,09,18,59.9214534399,m,001,2018_Apr_02_1341,
,,,,,,,,,,,,,,,,,,,,,,material/117.png,1,聪颖,material/17.png,1,material/117.png,聪明,1,j,j,j,2,2,2,聪颖,,,,,,,,,0,154,154,16,0,0,0,0,,,,,,,f,0,1.12423801422,j,0,0.0921070575714,moral_self_bias,09,18,59.9214534399,m,001,2018_Apr_02_1341,
,,,,,,,,,,,,,,,,,,,,,,material/117.png,1,聪颖,material/17.png,1,material/117.png,聪明,1,j,j,j,2,2,2,聪颖,,,,,,,,,0,154,154,16,,,,,,,,,,,,,,,,,moral_self_bias,09,18,59.9214534399,m,001,2018_Apr_02_1341,
,,,,,,,,,,,,,,,,,,,,,,material/10.png,1,坚毅,material/110.png,1,material/110.png,坚毅,1,f,f,f,1,1,1,顽强,,,,,,,,,0,155,155,89,0,0,0,0,,,,,,,f,1,0.625248908997,j,0,0.0583078861237,moral_self_bias,09,18,59.9214534399,m,001,2018_Apr_02_1341,
,,,,,,,,,,,,,,,,,,,,,,material/10.png,1,坚毅,material/110.png,1,material/110.png,坚毅,1,f,f,f,1,1,1,顽强,,,,,,,,,0,155,155,89,,,,,,,,,,,,,,,,,moral_self_bias,09,18,59.9214534399,m,001,2018_Apr_02_1341,
,,,,,,,,,,,,,,,,,,,,,,material/1.png,1,博爱,material/101.png,1,material/101.png,博爱,1,f,f,f,1,1,1,善良,,,,,,,,,0,156,156,80,0,0,0,0,,,,,,,f,1,0.441236019135,j,0,0.125268936157,moral_self_bias,09,18,59.9214534399,m,001,2018_Apr_02_1341,
,,,,,,,,,,,,,,,,,,,,,,material/1.png,1,博爱,material/101.png,1,material/101.png,博爱,1,f,f,f,1,1,1,善良,,,,,,,,,0,156,156,80,,,,,,,,,,,,,,,,,moral_self_bias,09,18,59.9214534399,m,001,2018_Apr_02_1341,
,,,,,,,,,,,,,,,,,,,,,,material/116.png,1,机智,material/16.png,1,material/116.png,睿智,1,j,j,j,2,2,2,机智,,,,,,,,,0,157,157,15,0,0,0,0,,,,,,,f,0,0.508413076401,j,0,0.0589599609375,moral_self_bias,09,18,59.9214534399,m,001,2018_Apr_02_1341,
,,,,,,,,,,,,,,,,,,,,,,material/116.png,1,机智,material/16.png,1,material/116.png,睿智,1,j,j,j,2,2,2,机智,,,,,,,,,0,157,157,15,,,,,,,,,,,,,,,,,moral_self_bias,09,18,59.9214534399,m,001,2018_Apr_02_1341,
,,,,,,,,,,,,,,,,,,,,,,material/83.png,2,差生,material/78.png,2,material/179.png,草率,2,j,j,j,2,2,2,呆笨,,,,,,,,,0,158,158,74,0,0,0,0,,,,,,,f,0,0.275307893753,j,0,0.0924460887909,moral_self_bias,09,18,59.9214534399,m,001,2018_Apr_02_1341,
,,,,,,,,,,,,,,,,,,,,,,material/83.png,2,差生,material/78.png,2,material/179.png,草率,2,j,j,j,2,2,2,呆笨,,,,,,,,,0,158,158,74,,,,,,,,,,,,,,,,,moral_self_bias,09,18,59.9214534399,m,001,2018_Apr_02_1341,
,,,,,,,,,,,,,,,,,,,,,,material/42.png,2,奸诈,material/142.png,2,material/142.png,奸诈,2,f,f,f,1,1,1,阴险,,,,,,,,,0,159,159,121,,,,,,,,,,,j,0,0.775079965591,,,,moral_self_bias,09,18,59.9214534399,m,001,2018_Apr_02_1341,
,,,,,,,,,,,,,,,,,,,,,,material/120.png,1,能干,material/20.png,1,material/120.png,厉害,1,j,j,j,2,2,2,能干,,,,,,,,,0,160,160,19,,,,,,,,,,,j,1,0.755965948105,,,,moral_self_bias,09,18,59.9214534399,m,001,2018_Apr_02_1341,
,,,,,,,,,,,,,,,,,,,,,,material/113.png,1,廉洁,material/13.png,1,material/13.png,廉洁,1,j,j,j,1,1,1,廉明,,,,,,,,,0,161,161,12,0,0,0,0,,,,,,,f,0,0.655210971832,j,0,0.058256149292,moral_self_bias,09,18,59.9214534399,m,001,2018_Apr_02_1341,
,,,,,,,,,,,,,,,,,,,,,,material/113.png,1,廉洁,material/13.png,1,material/13.png,廉洁,1,j,j,j,1,1,1,廉明,,,,,,,,,0,161,161,12,,,,,,,,,,,,,,,,,moral_self_bias,09,18,59.9214534399,m,001,2018_Apr_02_1341,
,,,,,,,,,,,,,,,,,,,,,,material/7.png,1,公平,material/107.png,1,material/107.png,公平,1,f,f,f,1,1,1,公正,,,,,,,,,0,162,162,86,0,0,0,0,,,,,,,f,1,1.60838103294,j,0,0.389641046524,moral_self_bias,09,18,59.9214534399,m,001,2018_Apr_02_1341,
,,,,,,,,,,,,,,,,,,,,,,material/7.png,1,公平,material/107.png,1,material/107.png,公平,1,f,f,f,1,1,1,公正,,,,,,,,,0,162,162,86,,,,,,,,,,,,,,,,,moral_self_bias,09,18,59.9214534399,m,001,2018_Apr_02_1341,
,,,,,,,,,,,,,,,,,,,,,,material/60.png,2,粗拙,material/160.png,2,material/60.png,笨拙,2,f,f,f,2,2,2,粗拙,,,,,,,,,0,163,163,139,0,0,0,0,,,,,,,f,1,3.30908417702,f,1,0.642073869705,moral_self_bias,09,18,59.9214534399,m,001,2018_Apr_02_1341,
,,,,,,,,,,,,,,,,,,,,,,material/60.png,2,粗拙,material/160.png,2,material/60.png,笨拙,2,f,f,f,2,2,2,粗拙,,,,,,,,,0,163,163,139,,,,,,,,,,,,,,,,,moral_self_bias,09,18,59.9214534399,m,001,2018_Apr_02_1341,
,,,,,,,,,,,,,,,,,,,,,,material/6.png,1,厚道,material/106.png,1,material/106.png,厚道,1,f,f,f,1,1,1,诚实,,,,,,,,,0,164,164,85,0,0,0,0,,,,,,,f,1,2.07513809204,f,1,0.172564983368,moral_self_bias,09,18,59.9214534399,m,001,2018_Apr_02_1341,
,,,,,,,,,,,,,,,,,,,,,,material/6.png,1,厚道,material/106.png,1,material/106.png,厚道,1,f,f,f,1,1,1,诚实,,,,,,,,,0,164,164,85,,,,,,,,,,,,,,,,,moral_self_bias,09,18,59.9214534399,m,001,2018_Apr_02_1341,
,,,,,,,,,,,,,,,,,,,,,,material/82.png,2,毛糙,material/183.png,2,material/178.png,薄弱,2,f,f,f,2,2,2,窝囊,,,,,,,,,0,165,165,162,0,0,0,0,,,,,,,f,1,1.42504096031,j,0,0.0926339626312,moral_self_bias,09,18,59.9214534399,m,001,2018_Apr_02_1341,
,,,,,,,,,,,,,,,,,,,,,,material/82.png,2,毛糙,material/183.png,2,material/178.png,薄弱,2,f,f,f,2,2,2,窝囊,,,,,,,,,0,165,165,162,,,,,,,,,,,,,,,,,moral_self_bias,09,18,59.9214534399,m,001,2018_Apr_02_1341,
,,,,,,,,,,,,,,,,,,,,,,material/177.png,2,谄媚,material/72.png,2,material/72.png,谄媚,2,j,j,j,1,1,1,恶心,,,,,,,,,0,166,166,69,,,,,,,,,,,j,1,1.00822997093,,,,moral_self_bias,09,18,59.9214534399,m,001,2018_Apr_02_1341,
,,,,,,,,,,,,,,,,,,,,,,material/24.png,1,理智,material/124.png,1,material/24.png,冷静,1,f,f,f,2,2,2,理智,,,,,,,,,0,167,167,103,,,,,,,,,,,j,0,0.708614110947,,,,moral_self_bias,09,18,59.9214534399,m,001,2018_Apr_02_1341,
