Block1_Old,Num_Source3,Num_Source2,Num_Source1,valence1,valence2,valence3,Num_Old2,Corr_S1,Num_Old1,Corr_S3,Corr_S2,Block3_Old,Block2_Old,Source_2,Source_3,Source_1,domain3,domain2,domain1,Num_Old3,math,Num_All2,valence_all1,All_Words3,Num_All1,valence_all2,Num_All3,All_Words1,valence_all3,Corr_Rec2,Corr_Rec3,Corr_Rec1,domian_all3,domian_all2,domian_all1,All_Words2,trials.thisRepN,trials.thisTrialN,trials.thisN,trials.thisIndex,trials_2.thisRepN,trials_2.thisTrialN,trials_2.thisN,trials_2.thisIndex,trials_4.thisRepN,trials_4.thisTrialN,trials_4.thisN,trials_4.thisIndex,trials_3.thisRepN,trials_3.thisTrialN,trials_3.thisN,trials_3.thisIndex,block_resp_1.keys,block_resp_1.rt,words_rating.keys,words_rating.rt,block_resp_2.keys,block_resp_2.rt,Rec_resp.keys,Rec_resp.corr,Rec_resp.rt,Source_resp.keys,Source_resp.corr,Source_resp.rt,expName,participant,Age,frameRate,Sex,session,date,
,,,,,,,,,,,,,,,,,,,,,,,,,,,,,,,,,,,,,,,,,,,,,,,,,,,,,1,8.8090801239,,,,,,,,,,,moral_self_bias,10,19,60.0491926732,f,001,2018_Apr_02_1359,
自律,material/instr2_2.png,material/instr2_2.png,material/instr2_2.png,1,1,1,material/28.png,j,material/128.png,j,j,克己,克己,friend,friend,friend,2,2,2,material/28.png,,,,,,,,,,,,,,,,,0,0,0,27,,,,,,,,,,,,,,,5,2.93818902969,,,,,,,,,moral_self_bias,10,19,60.0491926732,f,001,2018_Apr_02_1359,
不义,material/instr2_2.png,material/instr2_2.png,material/instr2_2.png,2,2,2,material/173.png,j,material/174.png,j,j,不义,黑心,friend,friend,friend,1,1,1,material/174.png,,,,,,,,,,,,,,,,,0,1,1,73,,,,,,,,,,,,,,,1,1.58283114433,,,,,,,,,moral_self_bias,10,19,60.0491926732,f,001,2018_Apr_02_1359,
顽愚,material/instr2_1.png,material/instr2_1.png,material/instr2_1.png,2,2,2,material/84.png,f,material/84.png,f,f,犹豫,顽愚,self,self,self,2,2,2,material/181.png,,,,,,,,,,,,,,,,,0,2,2,87,,,,,,,,,,,,,,,None,,,,,,,,,,moral_self_bias,10,19,60.0491926732,f,001,2018_Apr_02_1359,
黑心,material/instr2_2.png,material/instr2_2.png,material/instr2_2.png,2,2,2,material/74.png,j,material/173.png,j,j,黑心,卑劣,friend,friend,friend,1,1,1,material/173.png,,,,,,,,,,,,,,,,,0,3,3,72,,,,,,,,,,,,,,,1,1.05835819244,,,,,,,,,moral_self_bias,10,19,60.0491926732,f,001,2018_Apr_02_1359,
差生,material/instr2_2.png,material/instr2_2.png,material/instr2_2.png,2,2,2,material/81.png,j,material/179.png,j,j,呆笨,无助,friend,friend,friend,2,2,2,material/83.png,,,,,,,,,,,,,,,,,0,4,4,78,,,,,,,,,,,,,,,1,1.04182600975,,,,,,,,,moral_self_bias,10,19,60.0491926732,f,001,2018_Apr_02_1359,
自私,material/instr2_2.png,material/instr2_2.png,material/instr2_2.png,2,2,2,material/46.png,j,material/146.png,j,j,自私,小气,friend,friend,friend,1,1,1,material/146.png,,,,,,,,,,,,,,,,,0,5,5,45,,,,,,,,,,,,,,,1,1.29988884926,,,,,,,,,moral_self_bias,10,19,60.0491926732,f,001,2018_Apr_02_1359,
怠惰,material/instr2_2.png,material/instr2_2.png,material/instr2_2.png,2,2,2,material/181.png,j,material/180.png,j,j,怠惰,犹豫,friend,friend,friend,2,2,2,material/180.png,,,,,,,,,,,,,,,,,0,6,6,79,,,,,,,,,,,,,,,1,1.09987783432,,,,,,,,,moral_self_bias,10,19,60.0491926732,f,001,2018_Apr_02_1359,
奸诈,material/instr2_1.png,material/instr2_1.png,material/instr2_1.png,2,2,2,material/42.png,f,material/142.png,f,f,奸诈,阴险,self,self,self,1,1,1,material/142.png,,,,,,,,,,,,,,,,,0,7,7,41,,,,,,,,,,,,,,,1,1.32535099983,,,,,,,,,moral_self_bias,10,19,60.0491926732,f,001,2018_Apr_02_1359,
无私,material/instr2_2.png,material/instr2_2.png,material/instr2_2.png,1,1,1,material/8.png,j,material/108.png,j,j,无私,公道,friend,friend,friend,1,1,1,material/108.png,,,,,,,,,,,,,,,,,0,8,8,7,,,,,,,,,,,,,,,5,1.20876407623,,,,,,,,,moral_self_bias,10,19,60.0491926732,f,001,2018_Apr_02_1359,
笃行,material/instr2_1.png,material/instr2_1.png,material/instr2_1.png,1,1,1,material/31.png,f,material/131.png,f,f,笃学,笃学,self,self,self,2,2,2,material/31.png,,,,,,,,,,,,,,,,,0,9,9,30,,,,,,,,,,,,,,,2,1.4251730442,,,,,,,,,moral_self_bias,10,19,60.0491926732,f,001,2018_Apr_02_1359,
依靠,material/instr2_1.png,material/instr2_1.png,material/instr2_1.png,2,2,2,material/54.png,f,material/154.png,f,f,依赖,依赖,self,self,self,2,2,2,material/54.png,,,,,,,,,,,,,,,,,0,10,10,53,,,,,,,,,,,,,,,5,2.60867810249,,,,,,,,,moral_self_bias,10,19,60.0491926732,f,001,2018_Apr_02_1359,
廉明,material/instr2_2.png,material/instr2_2.png,material/instr2_2.png,1,1,1,material/13.png,j,material/113.png,j,j,廉明,廉洁,friend,friend,friend,1,1,1,material/113.png,,,,,,,,,,,,,,,,,0,11,11,12,,,,,,,,,,,,,,,5,1.56680321693,,,,,,,,,moral_self_bias,10,19,60.0491926732,f,001,2018_Apr_02_1359,
机变,material/instr2_2.png,material/instr2_2.png,material/instr2_2.png,1,1,1,material/70.png,j,material/168.png,j,j,全面,全面,friend,friend,friend,2,2,2,material/70.png,,,,,,,,,,,,,,,,,0,12,12,67,,,,,,,,,,,,,,,3,1.34243416786,,,,,,,,,moral_self_bias,10,19,60.0491926732,f,001,2018_Apr_02_1359,
机敏,material/instr2_2.png,material/instr2_2.png,material/instr2_2.png,1,1,1,material/18.png,j,material/118.png,j,j,敏锐,敏锐,friend,friend,friend,2,2,2,material/18.png,,,,,,,,,,,,,,,,,0,13,13,17,,,,,,,,,,,,,,,3,0.975635051727,,,,,,,,,moral_self_bias,10,19,60.0491926732,f,001,2018_Apr_02_1359,
正义,material/instr2_1.png,material/instr2_1.png,material/instr2_1.png,1,1,1,material/66.png,f,material/66.png,f,f,独立,正义,self,self,self,1,1,1,material/165.png,,,,,,,,,,,,,,,,,0,14,14,84,,,,,,,,,,,,,,,3,0.632996797562,,,,,,,,,moral_self_bias,10,19,60.0491926732,f,001,2018_Apr_02_1359,
坚毅,material/instr2_2.png,material/instr2_2.png,material/instr2_2.png,1,1,1,material/10.png,j,material/110.png,j,j,坚毅,顽强,friend,friend,friend,1,1,1,material/110.png,,,,,,,,,,,,,,,,,0,15,15,9,,,,,,,,,,,,,,,3,1.32159495354,,,,,,,,,moral_self_bias,10,19,60.0491926732,f,001,2018_Apr_02_1359,
笨拙,material/instr2_1.png,material/instr2_1.png,material/instr2_1.png,2,2,2,material/60.png,f,material/160.png,f,f,粗拙,粗拙,self,self,self,2,2,2,material/60.png,,,,,,,,,,,,,,,,,0,16,16,59,,,,,,,,,,,,,,,1,1.44343614578,,,,,,,,,moral_self_bias,10,19,60.0491926732,f,001,2018_Apr_02_1359,
撒谎,material/instr2_1.png,material/instr2_1.png,material/instr2_1.png,2,2,2,material/36.png,f,material/136.png,f,f,撒谎,说谎,self,self,self,1,1,1,material/136.png,,,,,,,,,,,,,,,,,0,17,17,35,,,,,,,,,,,,,,,3,1.95678496361,,,,,,,,,moral_self_bias,10,19,60.0491926732,f,001,2018_Apr_02_1359,
忠贞,material/instr2_2.png,material/instr2_2.png,material/instr2_2.png,1,1,1,material/14.png,j,material/114.png,j,j,忠贞,爱国,friend,friend,friend,1,1,1,material/114.png,,,,,,,,,,,,,,,,,0,18,18,13,,,,,,,,,,,,,,,4,1.85854411125,,,,,,,,,moral_self_bias,10,19,60.0491926732,f,001,2018_Apr_02_1359,
残忍,material/instr2_2.png,material/instr2_2.png,material/instr2_2.png,2,2,2,material/41.png,j,material/141.png,j,j,残忍,歹毒,friend,friend,friend,1,1,1,material/141.png,,,,,,,,,,,,,,,,,0,19,19,40,,,,,,,,,,,,,,,1,0.941452026367,,,,,,,,,moral_self_bias,10,19,60.0491926732,f,001,2018_Apr_02_1359,
多才,material/instr2_1.png,material/instr2_1.png,material/instr2_1.png,1,1,1,material/23.png,f,material/123.png,f,f,有才,有才,self,self,self,2,2,2,material/23.png,,,,,,,,,,,,,,,,,0,20,20,22,,,,,,,,,,,,,,,5,0.909248113632,,,,,,,,,moral_self_bias,10,19,60.0491926732,f,001,2018_Apr_02_1359,
纯洁,material/instr2_2.png,material/instr2_2.png,material/instr2_2.png,1,1,1,material/15.png,j,material/115.png,j,j,纯洁,清白,friend,friend,friend,1,1,1,material/115.png,,,,,,,,,,,,,,,,,0,21,21,14,,,,,,,,,,,,,,,1,0.841856002808,,,,,,,,,moral_self_bias,10,19,60.0491926732,f,001,2018_Apr_02_1359,
恶心,material/instr2_1.png,material/instr2_1.png,material/instr2_1.png,2,2,2,material/73.png,f,material/177.png,f,f,恶心,残虐,self,self,self,1,1,1,material/177.png,,,,,,,,,,,,,,,,,0,22,22,76,,,,,,,,,,,,,,,1,0.892075061798,,,,,,,,,moral_self_bias,10,19,60.0491926732,f,001,2018_Apr_02_1359,
孝顺,material/instr2_1.png,material/instr2_1.png,material/instr2_1.png,1,1,1,material/161.png,f,material/164.png,f,f,奉献,勇敢,self,self,self,1,1,1,material/64.png,,,,,,,,,,,,,,,,,0,23,23,63,,,,,,,,,,,,,,,5,1.26590704918,,,,,,,,,moral_self_bias,10,19,60.0491926732,f,001,2018_Apr_02_1359,
敬业,material/instr2_2.png,material/instr2_2.png,material/instr2_2.png,1,1,1,material/62.png,j,material/162.png,j,j,坚韧,坚韧,friend,friend,friend,1,1,1,material/62.png,,,,,,,,,,,,,,,,,0,24,24,61,,,,,,,,,,,,,,,4,1.24245595932,,,,,,,,,moral_self_bias,10,19,60.0491926732,f,001,2018_Apr_02_1359,
残虐,material/instr2_1.png,material/instr2_1.png,material/instr2_1.png,2,2,2,material/175.png,f,material/73.png,f,f,残虐,无情,self,self,self,1,1,1,material/73.png,,,,,,,,,,,,,,,,,0,25,25,85,,,,,,,,,,,,,,,1,0.991872787476,,,,,,,,,moral_self_bias,10,19,60.0491926732,f,001,2018_Apr_02_1359,
仗义,material/instr2_1.png,material/instr2_1.png,material/instr2_1.png,1,1,1,material/63.png,f,material/166.png,f,f,正义,文明,self,self,self,1,1,1,material/66.png,,,,,,,,,,,,,,,,,0,26,26,65,,,,,,,,,,,,,,,5,1.34181499481,,,,,,,,,moral_self_bias,10,19,60.0491926732,f,001,2018_Apr_02_1359,
贪污,material/instr2_1.png,material/instr2_1.png,material/instr2_1.png,2,2,2,material/33.png,f,material/133.png,f,f,贪污,腐败,self,self,self,1,1,1,material/133.png,,,,,,,,,,,,,,,,,0,27,27,32,,,,,,,,,,,,,,,1,0.691281080246,,,,,,,,,moral_self_bias,10,19,60.0491926732,f,001,2018_Apr_02_1359,
浮夸,material/instr2_2.png,material/instr2_2.png,material/instr2_2.png,2,2,2,material/77.png,j,material/172.png,j,j,浮夸,软弱,friend,friend,friend,1,1,1,material/172.png,,,,,,,,,,,,,,,,,0,28,28,71,,,,,,,,,,,,,,,1,1.49140405655,,,,,,,,,moral_self_bias,10,19,60.0491926732,f,001,2018_Apr_02_1359,
果敢,material/instr2_1.png,material/instr2_1.png,material/instr2_1.png,1,1,1,material/25.png,f,material/125.png,f,f,果断,果断,self,self,self,2,2,2,material/25.png,,,,,,,,,,,,,,,,,0,29,29,24,,,,,,,,,,,,,,,4,1.55903697014,,,,,,,,,moral_self_bias,10,19,60.0491926732,f,001,2018_Apr_02_1359,
博学,material/instr2_1.png,material/instr2_1.png,material/instr2_1.png,1,1,1,material/22.png,f,material/122.png,f,f,才学,才学,self,self,self,2,2,2,material/22.png,,,,,,,,,,,,,,,,,0,30,30,21,,,,,,,,,,,,,,,3,1.15815401077,,,,,,,,,moral_self_bias,10,19,60.0491926732,f,001,2018_Apr_02_1359,
爱心,material/instr2_1.png,material/instr2_1.png,material/instr2_1.png,1,1,1,material/2.png,f,material/102.png,f,f,爱心,善心,self,self,self,1,1,1,material/102.png,,,,,,,,,,,,,,,,,0,31,31,1,,,,,,,,,,,,,,,5,1.19999909401,,,,,,,,,moral_self_bias,10,19,60.0491926732,f,001,2018_Apr_02_1359,
无能,material/instr2_2.png,material/instr2_2.png,material/instr2_2.png,2,2,2,material/57.png,j,material/157.png,j,j,无知,无知,friend,friend,friend,2,2,2,material/57.png,,,,,,,,,,,,,,,,,0,32,32,56,,,,,,,,,,,,,,,1,1.00070905685,,,,,,,,,moral_self_bias,10,19,60.0491926732,f,001,2018_Apr_02_1359,
浅薄,material/instr2_2.png,material/instr2_2.png,material/instr2_2.png,2,2,2,material/58.png,j,material/158.png,j,j,肤浅,肤浅,friend,friend,friend,2,2,2,material/58.png,,,,,,,,,,,,,,,,,0,33,33,57,,,,,,,,,,,,,,,1,0.892425060272,,,,,,,,,moral_self_bias,10,19,60.0491926732,f,001,2018_Apr_02_1359,
坚忍,material/instr2_1.png,material/instr2_1.png,material/instr2_1.png,1,1,1,material/168.png,f,material/170.png,f,f,机变,机变,self,self,self,2,2,2,material/168.png,,,,,,,,,,,,,,,,,0,34,34,69,,,,,,,,,,,,,,,2,1.40046310425,,,,,,,,,moral_self_bias,10,19,60.0491926732,f,001,2018_Apr_02_1359,
独立,material/instr2_1.png,material/instr2_1.png,material/instr2_1.png,1,1,1,material/64.png,f,material/165.png,f,f,谦虚,奉献,self,self,self,1,1,1,material/65.png,,,,,,,,,,,,,,,,,0,35,35,64,,,,,,,,,,,,,,,2,1.00846910477,,,,,,,,,moral_self_bias,10,19,60.0491926732,f,001,2018_Apr_02_1359,
鲁钝,material/instr2_2.png,material/instr2_2.png,material/instr2_2.png,2,2,2,material/50.png,j,material/150.png,j,j,愚笨,愚笨,friend,friend,friend,2,2,2,material/50.png,,,,,,,,,,,,,,,,,0,36,36,49,,,,,,,,,,,,,,,1,0.882936954498,,,,,,,,,moral_self_bias,10,19,60.0491926732,f,001,2018_Apr_02_1359,
缓慢,material/instr2_1.png,material/instr2_1.png,material/instr2_1.png,2,2,2,material/52.png,f,material/152.png,f,f,拖延,拖延,self,self,self,2,2,2,material/52.png,,,,,,,,,,,,,,,,,0,37,37,51,,,,,,,,,,,,,,,1,0.859128952026,,,,,,,,,moral_self_bias,10,19,60.0491926732,f,001,2018_Apr_02_1359,
爽约,material/instr2_2.png,material/instr2_2.png,material/instr2_2.png,2,2,2,material/44.png,j,material/144.png,j,j,爽约,失信,friend,friend,friend,1,1,1,material/144.png,,,,,,,,,,,,,,,,,0,38,38,43,,,,,,,,,,,,,,,1,1.14198207855,,,,,,,,,moral_self_bias,10,19,60.0491926732,f,001,2018_Apr_02_1359,
毛糙,material/instr2_2.png,material/instr2_2.png,material/instr2_2.png,2,2,2,material/179.png,j,material/178.png,j,j,顽愚,差生,friend,friend,friend,2,2,2,material/84.png,,,,,,,,,,,,,,,,,0,39,39,77,,,,,,,,,,,,,,,1,0.883397102356,,,,,,,,,moral_self_bias,10,19,60.0491926732,f,001,2018_Apr_02_1359,
忠心,material/instr2_1.png,material/instr2_1.png,material/instr2_1.png,1,1,1,material/12.png,f,material/112.png,f,f,忠心,忠诚,self,self,self,1,1,1,material/112.png,,,,,,,,,,,,,,,,,0,40,40,11,,,,,,,,,,,,,,,None,,,,,,,,,,moral_self_bias,10,19,60.0491926732,f,001,2018_Apr_02_1359,
背叛,material/instr2_1.png,material/instr2_1.png,material/instr2_1.png,2,2,2,material/32.png,f,material/132.png,f,f,背叛,不忠,self,self,self,1,1,1,material/132.png,,,,,,,,,,,,,,,,,0,41,41,31,,,,,,,,,,,,,,,3,1.575330019,,,,,,,,,moral_self_bias,10,19,60.0491926732,f,001,2018_Apr_02_1359,
高尚,material/instr2_1.png,material/instr2_1.png,material/instr2_1.png,1,1,1,material/11.png,f,material/111.png,f,f,高尚,高雅,self,self,self,1,1,1,material/111.png,,,,,,,,,,,,,,,,,0,42,42,10,,,,,,,,,,,,,,,3,1.17594718933,,,,,,,,,moral_self_bias,10,19,60.0491926732,f,001,2018_Apr_02_1359,
诚信,material/instr2_1.png,material/instr2_1.png,material/instr2_1.png,1,1,1,material/5.png,f,material/105.png,f,f,诚信,守信,self,self,self,1,1,1,material/105.png,,,,,,,,,,,,,,,,,0,43,43,4,,,,,,,,,,,,,,,5,1.4247071743,,,,,,,,,moral_self_bias,10,19,60.0491926732,f,001,2018_Apr_02_1359,
精干,material/instr2_1.png,material/instr2_1.png,material/instr2_1.png,1,1,1,material/21.png,f,material/121.png,f,f,干练,干练,self,self,self,2,2,2,material/21.png,,,,,,,,,,,,,,,,,0,44,44,20,,,,,,,,,,,,,,,3,1.15929198265,,,,,,,,,moral_self_bias,10,19,60.0491926732,f,001,2018_Apr_02_1359,
白痴,material/instr2_2.png,material/instr2_2.png,material/instr2_2.png,2,2,2,material/49.png,j,material/149.png,j,j,痴呆,痴呆,friend,friend,friend,2,2,2,material/49.png,,,,,,,,,,,,,,,,,0,45,45,48,,,,,,,,,,,,,,,1,1.04144191742,,,,,,,,,moral_self_bias,10,19,60.0491926732,f,001,2018_Apr_02_1359,
厚道,material/instr2_2.png,material/instr2_2.png,material/instr2_2.png,1,1,1,material/6.png,j,material/106.png,j,j,厚道,诚实,friend,friend,friend,1,1,1,material/106.png,,,,,,,,,,,,,,,,,0,46,46,5,,,,,,,,,,,,,,,4,1.38879084587,,,,,,,,,moral_self_bias,10,19,60.0491926732,f,001,2018_Apr_02_1359,
超群,material/instr2_2.png,material/instr2_2.png,material/instr2_2.png,1,1,1,material/27.png,j,material/127.png,j,j,卓越,卓越,friend,friend,friend,2,2,2,material/27.png,,,,,,,,,,,,,,,,,0,47,47,26,,,,,,,,,,,,,,,3,2.1756310463,,,,,,,,,moral_self_bias,10,19,60.0491926732,f,001,2018_Apr_02_1359,
冷静,material/instr2_1.png,material/instr2_1.png,material/instr2_1.png,1,1,1,material/24.png,f,material/124.png,f,f,理智,理智,self,self,self,2,2,2,material/24.png,,,,,,,,,,,,,,,,,0,48,48,23,,,,,,,,,,,,,,,3,1.32539892197,,,,,,,,,moral_self_bias,10,19,60.0491926732,f,001,2018_Apr_02_1359,
高明,material/instr2_1.png,material/instr2_1.png,material/instr2_1.png,1,1,1,material/69.png,f,material/69.png,f,f,高明,高明,self,self,self,2,2,2,material/69.png,,,,,,,,,,,,,,,,,0,49,49,86,,,,,,,,,,,,,,,3,1.34289908409,,,,,,,,,moral_self_bias,10,19,60.0491926732,f,001,2018_Apr_02_1359,
缺德,material/instr2_2.png,material/instr2_2.png,material/instr2_2.png,2,2,2,material/38.png,j,material/138.png,j,j,缺德,无德,friend,friend,friend,1,1,1,material/138.png,,,,,,,,,,,,,,,,,0,50,50,37,,,,,,,,,,,,,,,1,0.842520952225,,,,,,,,,moral_self_bias,10,19,60.0491926732,f,001,2018_Apr_02_1359,
可恶,material/instr2_1.png,material/instr2_1.png,material/instr2_1.png,2,2,2,material/34.png,f,material/134.png,f,f,可恶,可恨,self,self,self,1,1,1,material/134.png,,,,,,,,,,,,,,,,,0,51,51,33,,,,,,,,,,,,,,,1,0.725023031235,,,,,,,,,moral_self_bias,10,19,60.0491926732,f,001,2018_Apr_02_1359,
弱智,material/instr2_1.png,material/instr2_1.png,material/instr2_1.png,2,2,2,material/59.png,f,material/159.png,f,f,智障,智障,self,self,self,2,2,2,material/59.png,,,,,,,,,,,,,,,,,0,52,52,58,,,,,,,,,,,,,,,1,0.658573865891,,,,,,,,,moral_self_bias,10,19,60.0491926732,f,001,2018_Apr_02_1359,
勤快,material/instr2_2.png,material/instr2_2.png,material/instr2_2.png,1,1,1,material/26.png,j,material/126.png,j,j,刻苦,刻苦,friend,friend,friend,2,2,2,material/26.png,,,,,,,,,,,,,,,,,0,53,53,25,,,,,,,,,,,,,,,3,1.1255261898,,,,,,,,,moral_self_bias,10,19,60.0491926732,f,001,2018_Apr_02_1359,
博爱,material/instr2_1.png,material/instr2_1.png,material/instr2_1.png,1,1,1,material/1.png,f,material/101.png,f,f,博爱,善良,self,self,self,1,1,1,material/101.png,,,,,,,,,,,,,,,,,0,54,54,0,,,,,,,,,,,,,,,3,1.69225382805,,,,,,,,,moral_self_bias,10,19,60.0491926732,f,001,2018_Apr_02_1359,
高效,material/instr2_1.png,material/instr2_1.png,material/instr2_1.png,1,1,1,material/169.png,f,material/171.png,f,f,颖悟,颖悟,self,self,self,2,2,2,material/169.png,,,,,,,,,,,,,,,,,0,55,55,70,,,,,,,,,,,,,,,3,0.558387994766,,,,,,,,,moral_self_bias,10,19,60.0491926732,f,001,2018_Apr_02_1359,
小人,material/instr2_2.png,material/instr2_2.png,material/instr2_2.png,2,2,2,material/45.png,j,material/145.png,j,j,小人,下流,friend,friend,friend,1,1,1,material/145.png,,,,,,,,,,,,,,,,,0,56,56,44,,,,,,,,,,,,,,,1,0.69239282608,,,,,,,,,moral_self_bias,10,19,60.0491926732,f,001,2018_Apr_02_1359,
薄弱,material/instr2_1.png,material/instr2_1.png,material/instr2_1.png,2,2,2,material/82.png,f,material/183.png,f,f,毛糙,窝囊,self,self,self,2,2,2,material/178.png,,,,,,,,,,,,,,,,,0,57,57,82,,,,,,,,,,,,,,,1,0.509229898453,,,,,,,,,moral_self_bias,10,19,60.0491926732,f,001,2018_Apr_02_1359,
迷糊,material/instr2_2.png,material/instr2_2.png,material/instr2_2.png,2,2,2,material/51.png,j,material/151.png,j,j,糊涂,糊涂,friend,friend,friend,2,2,2,material/51.png,,,,,,,,,,,,,,,,,0,58,58,50,,,,,,,,,,,,,,,1,0.508960962296,,,,,,,,,moral_self_bias,10,19,60.0491926732,f,001,2018_Apr_02_1359,
正直,material/instr2_2.png,material/instr2_2.png,material/instr2_2.png,1,1,1,material/9.png,j,material/109.png,j,j,正直,秉直,friend,friend,friend,1,1,1,material/109.png,,,,,,,,,,,,,,,,,0,59,59,8,,,,,,,,,,,,,,,1,0.225513935089,,,,,,,,,moral_self_bias,10,19,60.0491926732,f,001,2018_Apr_02_1359,
机智,material/instr2_2.png,material/instr2_2.png,material/instr2_2.png,1,1,1,material/16.png,j,material/116.png,j,j,睿智,睿智,friend,friend,friend,2,2,2,material/16.png,,,,,,,,,,,,,,,,,0,60,60,15,,,,,,,,,,,,,,,3,0.258888959885,,,,,,,,,moral_self_bias,10,19,60.0491926732,f,001,2018_Apr_02_1359,
厌学,material/instr2_2.png,material/instr2_2.png,material/instr2_2.png,2,2,2,material/182.png,j,material/184.png,j,j,健忘,才尽,friend,friend,friend,2,2,2,material/80.png,,,,,,,,,,,,,,,,,0,61,61,83,,,,,,,,,,,,,,,4,0.275446891785,,,,,,,,,moral_self_bias,10,19,60.0491926732,f,001,2018_Apr_02_1359,
才尽,material/instr2_1.png,material/instr2_1.png,material/instr2_1.png,2,2,2,material/183.png,f,material/182.png,f,f,颓废,薄弱,self,self,self,2,2,2,material/79.png,,,,,,,,,,,,,,,,,0,62,62,81,,,,,,,,,,,,,,,2,1.30832004547,,,,,,,,,moral_self_bias,10,19,60.0491926732,f,001,2018_Apr_02_1359,
无情,material/instr2_1.png,material/instr2_1.png,material/instr2_1.png,2,2,2,material/172.png,f,material/175.png,f,f,无情,浮夸,self,self,self,1,1,1,material/175.png,,,,,,,,,,,,,,,,,0,63,63,74,,,,,,,,,,,,,,,1,0.775791883469,,,,,,,,,moral_self_bias,10,19,60.0491926732,f,001,2018_Apr_02_1359,
放纵,material/instr2_1.png,material/instr2_1.png,material/instr2_1.png,2,2,2,material/76.png,f,material/176.png,f,f,放纵,虚伪,self,self,self,1,1,1,material/176.png,,,,,,,,,,,,,,,,,0,64,64,75,,,,,,,,,,,,,,,3,1.39177107811,,,,,,,,,moral_self_bias,10,19,60.0491926732,f,001,2018_Apr_02_1359,
宽容,material/instr2_2.png,material/instr2_2.png,material/instr2_2.png,1,1,1,material/163.png,j,material/163.png,j,j,文明,宽容,friend,friend,friend,1,1,1,material/63.png,,,,,,,,,,,,,,,,,0,65,65,62,,,,,,,,,,,,,,,1,1.66031384468,,,,,,,,,moral_self_bias,10,19,60.0491926732,f,001,2018_Apr_02_1359,
公平,material/instr2_2.png,material/instr2_2.png,material/instr2_2.png,1,1,1,material/7.png,j,material/107.png,j,j,公平,公正,friend,friend,friend,1,1,1,material/107.png,,,,,,,,,,,,,,,,,0,66,66,6,,,,,,,,,,,,,,,3,1.01733803749,,,,,,,,,moral_self_bias,10,19,60.0491926732,f,001,2018_Apr_02_1359,
高手,material/instr2_2.png,material/instr2_2.png,material/instr2_2.png,1,1,1,material/68.png,j,material/167.png,j,j,广博,广博,friend,friend,friend,2,2,2,material/68.png,,,,,,,,,,,,,,,,,0,67,67,66,,,,,,,,,,,,,,,3,0.842548847198,,,,,,,,,moral_self_bias,10,19,60.0491926732,f,001,2018_Apr_02_1359,
好问,material/instr2_1.png,material/instr2_1.png,material/instr2_1.png,1,1,1,material/29.png,f,material/129.png,f,f,好学,好学,self,self,self,2,2,2,material/29.png,,,,,,,,,,,,,,,,,0,68,68,28,,,,,,,,,,,,,,,5,1.50941896439,,,,,,,,,moral_self_bias,10,19,60.0491926732,f,001,2018_Apr_02_1359,
刻板,material/instr2_2.png,material/instr2_2.png,material/instr2_2.png,2,2,2,material/47.png,j,material/147.png,j,j,死板,死板,friend,friend,friend,2,2,2,material/47.png,,,,,,,,,,,,,,,,,0,69,69,46,,,,,,,,,,,,,,,3,1.27592396736,,,,,,,,,moral_self_bias,10,19,60.0491926732,f,001,2018_Apr_02_1359,
卑鄙,material/instr2_2.png,material/instr2_2.png,material/instr2_2.png,2,2,2,material/37.png,j,material/137.png,j,j,卑鄙,无耻,friend,friend,friend,1,1,1,material/137.png,,,,,,,,,,,,,,,,,0,70,70,36,,,,,,,,,,,,,,,3,0.524836063385,,,,,,,,,moral_self_bias,10,19,60.0491926732,f,001,2018_Apr_02_1359,
颖悟,material/instr2_2.png,material/instr2_2.png,material/instr2_2.png,1,1,1,material/167.png,j,material/169.png,j,j,高手,高手,friend,friend,friend,2,2,2,material/167.png,,,,,,,,,,,,,,,,,0,71,71,68,,,,,,,,,,,,,,,3,1.36595010757,,,,,,,,,moral_self_bias,10,19,60.0491926732,f,001,2018_Apr_02_1359,
盲目,material/instr2_1.png,material/instr2_1.png,material/instr2_1.png,2,2,2,material/55.png,f,material/155.png,f,f,盲从,盲从,self,self,self,2,2,2,material/55.png,,,,,,,,,,,,,,,,,0,72,72,54,,,,,,,,,,,,,,,3,1.07570695877,,,,,,,,,moral_self_bias,10,19,60.0491926732,f,001,2018_Apr_02_1359,
虚荣,material/instr2_1.png,material/instr2_1.png,material/instr2_1.png,2,2,2,material/43.png,f,material/143.png,f,f,虚荣,拜金,self,self,self,1,1,1,material/143.png,,,,,,,,,,,,,,,,,0,73,73,42,,,,,,,,,,,,,,,3,1.43287396431,,,,,,,,,moral_self_bias,10,19,60.0491926732,f,001,2018_Apr_02_1359,
愚钝,material/instr2_1.png,material/instr2_1.png,material/instr2_1.png,2,2,2,material/56.png,f,material/156.png,f,f,愚昧,愚昧,self,self,self,2,2,2,material/56.png,,,,,,,,,,,,,,,,,0,74,74,55,,,,,,,,,,,,,,,3,0.625648021698,,,,,,,,,moral_self_bias,10,19,60.0491926732,f,001,2018_Apr_02_1359,
狠毒,material/instr2_2.png,material/instr2_2.png,material/instr2_2.png,2,2,2,material/40.png,j,material/140.png,j,j,狠毒,邪恶,friend,friend,friend,1,1,1,material/140.png,,,,,,,,,,,,,,,,,0,75,75,39,,,,,,,,,,,,,,,1,0.375555038452,,,,,,,,,moral_self_bias,10,19,60.0491926732,f,001,2018_Apr_02_1359,
进取,material/instr2_1.png,material/instr2_1.png,material/instr2_1.png,1,1,1,material/30.png,f,material/130.png,f,f,上进,上进,self,self,self,2,2,2,material/30.png,,,,,,,,,,,,,,,,,0,76,76,29,,,,,,,,,,,,,,,4,1.2576751709,,,,,,,,,moral_self_bias,10,19,60.0491926732,f,001,2018_Apr_02_1359,
冷血,material/instr2_1.png,material/instr2_1.png,material/instr2_1.png,2,2,2,material/35.png,f,material/135.png,f,f,冷血,冷漠,self,self,self,1,1,1,material/135.png,,,,,,,,,,,,,,,,,0,77,77,34,,,,,,,,,,,,,,,3,1.15942788124,,,,,,,,,moral_self_bias,10,19,60.0491926732,f,001,2018_Apr_02_1359,
能干,material/instr2_2.png,material/instr2_2.png,material/instr2_2.png,1,1,1,material/20.png,j,material/120.png,j,j,厉害,厉害,friend,friend,friend,2,2,2,material/20.png,,,,,,,,,,,,,,,,,0,78,78,19,,,,,,,,,,,,,,,3,1.37504887581,,,,,,,,,moral_self_bias,10,19,60.0491926732,f,001,2018_Apr_02_1359,
勇敢,material/instr2_2.png,material/instr2_2.png,material/instr2_2.png,1,1,1,material/165.png,j,material/161.png,j,j,平等,独立,friend,friend,friend,1,1,1,material/61.png,,,,,,,,,,,,,,,,,0,79,79,60,,,,,,,,,,,,,,,3,1.04978203773,,,,,,,,,moral_self_bias,10,19,60.0491926732,f,001,2018_Apr_02_1359,
聪颖,material/instr2_2.png,material/instr2_2.png,material/instr2_2.png,1,1,1,material/17.png,j,material/117.png,j,j,聪明,聪明,friend,friend,friend,2,2,2,material/17.png,,,,,,,,,,,,,,,,,0,80,80,16,,,,,,,,,,,,,,,3,0.674976825714,,,,,,,,,moral_self_bias,10,19,60.0491926732,f,001,2018_Apr_02_1359,
仁厚,material/instr2_1.png,material/instr2_1.png,material/instr2_1.png,1,1,1,material/3.png,f,material/103.png,f,f,仁厚,仁慈,self,self,self,1,1,1,material/103.png,,,,,,,,,,,,,,,,,0,81,81,2,,,,,,,,,,,,,,,3,0.22626709938,,,,,,,,,moral_self_bias,10,19,60.0491926732,f,001,2018_Apr_02_1359,
机灵,material/instr2_2.png,material/instr2_2.png,material/instr2_2.png,1,1,1,material/19.png,j,material/119.png,j,j,灵活,灵活,friend,friend,friend,2,2,2,material/19.png,,,,,,,,,,,,,,,,,0,82,82,18,,,,,,,,,,,,,,,3,0.275759935379,,,,,,,,,moral_self_bias,10,19,60.0491926732,f,001,2018_Apr_02_1359,
友善,material/instr2_1.png,material/instr2_1.png,material/instr2_1.png,1,1,1,material/4.png,f,material/104.png,f,f,友善,友爱,self,self,self,1,1,1,material/104.png,,,,,,,,,,,,,,,,,0,83,83,3,,,,,,,,,,,,,,,3,0.409198045731,,,,,,,,,moral_self_bias,10,19,60.0491926732,f,001,2018_Apr_02_1359,
笨蛋,material/instr2_2.png,material/instr2_2.png,material/instr2_2.png,2,2,2,material/48.png,j,material/148.png,j,j,愚蠢,愚蠢,friend,friend,friend,2,2,2,material/48.png,,,,,,,,,,,,,,,,,0,84,84,47,,,,,,,,,,,,,,,1,0.775084972382,,,,,,,,,moral_self_bias,10,19,60.0491926732,f,001,2018_Apr_02_1359,
恶毒,material/instr2_2.png,material/instr2_2.png,material/instr2_2.png,2,2,2,material/39.png,j,material/139.png,j,j,恶毒,凶残,friend,friend,friend,1,1,1,material/139.png,,,,,,,,,,,,,,,,,0,85,85,38,,,,,,,,,,,,,,,1,0.542529821396,,,,,,,,,moral_self_bias,10,19,60.0491926732,f,001,2018_Apr_02_1359,
犹豫,material/instr2_1.png,material/instr2_1.png,material/instr2_1.png,2,2,2,material/78.png,f,material/181.png,f,f,厌学,草率,self,self,self,2,2,2,material/184.png,,,,,,,,,,,,,,,,,0,86,86,80,,,,,,,,,,,,,,,1,0.425451040268,,,,,,,,,moral_self_bias,10,19,60.0491926732,f,001,2018_Apr_02_1359,
迟钝,material/instr2_1.png,material/instr2_1.png,material/instr2_1.png,2,2,2,material/53.png,f,material/153.png,f,f,迟缓,迟缓,self,self,self,2,2,2,material/53.png,,,,,,,,,,,,,,,,,0,87,87,52,,,,,,,,,,,,,,,3,1.14207005501,,,,,,,,,moral_self_bias,10,19,60.0491926732,f,001,2018_Apr_02_1359,
,,,,,,,,,,,,,,,,,,,,,22-22= ?,,,,,,,,,,,,,,,,,,,,0,0,0,93,,,,,,,,,,,,,,,,,,,,,moral_self_bias,10,19,60.0491926732,f,001,2018_Apr_02_1359,
,,,,,,,,,,,,,,,,,,,,,10-5=？,,,,,,,,,,,,,,,,,,,,0,1,1,67,,,,,,,,,,,,,,,,,,,,,moral_self_bias,10,19,60.0491926732,f,001,2018_Apr_02_1359,
,,,,,,,,,,,,,,,,,,,,,8+1= ?,,,,,,,,,,,,,,,,,,,,0,2,2,48,,,,,,,,,,,,,,,,,,,,,moral_self_bias,10,19,60.0491926732,f,001,2018_Apr_02_1359,
,,,,,,,,,,,,,,,,,,,,,3^2= ?,,,,,,,,,,,,,,,,,,,,0,3,3,50,,,,,,,,,,,,,,,,,,,,,moral_self_bias,10,19,60.0491926732,f,001,2018_Apr_02_1359,
,,,,,,,,,,,,,,,,,,,,,6*0= ?,,,,,,,,,,,,,,,,,,,,0,4,4,87,,,,,,,,,,,,,,,,,,,,,moral_self_bias,10,19,60.0491926732,f,001,2018_Apr_02_1359,
,,,,,,,,,,,,,,,,,,,,,30-29= ?,,,,,,,,,,,,,,,,,,,,0,5,5,73,,,,,,,,,,,,,,,,,,,,,moral_self_bias,10,19,60.0491926732,f,001,2018_Apr_02_1359,
,,,,,,,,,,,,,,,,,,,,,4*2= ?,,,,,,,,,,,,,,,,,,,,0,6,6,82,,,,,,,,,,,,,,,,,,,,,moral_self_bias,10,19,60.0491926732,f,001,2018_Apr_02_1359,
,,,,,,,,,,,,,,,,,,,,,2+6= ?,,,,,,,,,,,,,,,,,,,,0,7,7,12,,,,,,,,,,,,,,,,,,,,,moral_self_bias,10,19,60.0491926732,f,001,2018_Apr_02_1359,
,,,,,,,,,,,,,,,,,,,,,2*3= ?,,,,,,,,,,,,,,,,,,,,0,8,8,108,,,,,,,,,,,,,,,,,,,,,moral_self_bias,10,19,60.0491926732,f,001,2018_Apr_02_1359,
,,,,,,,,,,,,,,,,,,,,,1*9= ?,,,,,,,,,,,,,,,,,,,,0,9,9,109,,,,,,,,,,,,,,,,,,,,,moral_self_bias,10,19,60.0491926732,f,001,2018_Apr_02_1359,
,,,,,,,,,,,,,,,,,,,,,32-23=？,,,,,,,,,,,,,,,,,,,,0,10,10,60,,,,,,,,,,,,,,,,,,,,,moral_self_bias,10,19,60.0491926732,f,001,2018_Apr_02_1359,
,,,,,,,,,,,,,,,,,,,,,12-12= ?,,,,,,,,,,,,,,,,,,,,0,11,11,99,,,,,,,,,,,,,,,,,,,,,moral_self_bias,10,19,60.0491926732,f,001,2018_Apr_02_1359,
,,,,,,,,,,,,,,,,,,,,,12/12= ?,,,,,,,,,,,,,,,,,,,,0,12,12,91,,,,,,,,,,,,,,,,,,,,,moral_self_bias,10,19,60.0491926732,f,001,2018_Apr_02_1359,
,,,,,,,,,,,,,,,,,,,,,2^2= ?,,,,,,,,,,,,,,,,,,,,0,13,13,49,,,,,,,,,,,,,,,,,,,,,moral_self_bias,10,19,60.0491926732,f,001,2018_Apr_02_1359,
,,,,,,,,,,,,,,,,,,,,,6+2= ?,,,,,,,,,,,,,,,,,,,,0,14,14,44,,,,,,,,,,,,,,,,,,,,,moral_self_bias,10,19,60.0491926732,f,001,2018_Apr_02_1359,
,,,,,,,,,,,,,,,,,,,,,2+7= ?,,,,,,,,,,,,,,,,,,,,0,15,15,13,,,,,,,,,,,,,,,,,,,,,moral_self_bias,10,19,60.0491926732,f,001,2018_Apr_02_1359,
,,,,,,,,,,,,,,,,,,,,,4+4= ?,,,,,,,,,,,,,,,,,,,,0,16,16,28,,,,,,,,,,,,,,,,,,,,,moral_self_bias,10,19,60.0491926732,f,001,2018_Apr_02_1359,
,,,,,,,,,,,,,,,,,,,,,2+5= ?,,,,,,,,,,,,,,,,,,,,0,17,17,11,,,,,,,,,,,,,,,,,,,,,moral_self_bias,10,19,60.0491926732,f,001,2018_Apr_02_1359,
,,,,,,,,,,,,,,,,,,,,,20/5=？,,,,,,,,,,,,,,,,,,,,0,18,18,69,,,,,,,,,,,,,,,,,,,,,moral_self_bias,10,19,60.0491926732,f,001,2018_Apr_02_1359,
,,,,,,,,,,,,,,,,,,,,,15-10=？,,,,,,,,,,,,,,,,,,,,0,19,19,61,,,,,,,,,,,,,,,,,,,,,moral_self_bias,10,19,60.0491926732,f,001,2018_Apr_02_1359,
,,,,,,,,,,,,,,,,,,,,,13-5= ?,,,,,,,,,,,,,,,,,,,,0,20,20,98,,,,,,,,,,,,,,,,,,,,,moral_self_bias,10,19,60.0491926732,f,001,2018_Apr_02_1359,
,,,,,,,,,,,,,,,,,,,,,9-3= ?,,,,,,,,,,,,,,,,,,,,0,21,21,15,,,,,,,,,,,,,,,,,,,,,moral_self_bias,10,19,60.0491926732,f,001,2018_Apr_02_1359,
,,,,,,,,,,,,,,,,,,,,,1^2= ?,,,,,,,,,,,,,,,,,,,,0,22,22,51,,,,,,,,,,,,,,,,,,,,,moral_self_bias,10,19,60.0491926732,f,001,2018_Apr_02_1359,
,,,,,,,,,,,,,,,,,,,,,6+1= ?,,,,,,,,,,,,,,,,,,,,0,23,23,43,,,,,,,,,,,,,,,,,,,,,moral_self_bias,10,19,60.0491926732,f,001,2018_Apr_02_1359,
,,,,,,,,,,,,,,,,,,,,,7-0= ?,,,,,,,,,,,,,,,,,,,,0,24,24,117,,,,,,,,,,,,,,,,,,,,,moral_self_bias,10,19,60.0491926732,f,001,2018_Apr_02_1359,
,,,,,,,,,,,,,,,,,,,,,3+2= ?,,,,,,,,,,,,,,,,,,,,0,25,25,17,,,,,,,,,,,,,,,,,,,,,moral_self_bias,10,19,60.0491926732,f,001,2018_Apr_02_1359,
,,,,,,,,,,,,,,,,,,,,,1+1= ?,,,,,,,,,,,,,,,,,,,,0,26,26,0,,,,,,,,,,,,,,,,,,,,,moral_self_bias,10,19,60.0491926732,f,001,2018_Apr_02_1359,
,,,,,,,,,,,,,,,,,,,,,1*8= ?,,,,,,,,,,,,,,,,,,,,0,27,27,110,,,,,,,,,,,,,,,,,,,,,moral_self_bias,10,19,60.0491926732,f,001,2018_Apr_02_1359,
,,,,,,,,,,,,,,,,,,,,,4+1= ?,,,,,,,,,,,,,,,,,,,,0,28,28,25,,,,,,,,,,,,,,,,,,,,,moral_self_bias,10,19,60.0491926732,f,001,2018_Apr_02_1359,
,,,,,,,,,,,,,,,,,,,,,3+5= ?,,,,,,,,,,,,,,,,,,,,0,29,29,20,,,,,,,,,,,,,,,,,,,,,moral_self_bias,10,19,60.0491926732,f,001,2018_Apr_02_1359,
,,,,,,,,,,,,,,,,,,,,,4+3= ?,,,,,,,,,,,,,,,,,,,,0,30,30,27,,,,,,,,,,,,,,,,,,,,,moral_self_bias,10,19,60.0491926732,f,001,2018_Apr_02_1359,
,,,,,,,,,,,,,,,,,,,,,12-7= ?,,,,,,,,,,,,,,,,,,,,0,31,31,115,,,,,,,,,,,,,,,,,,,,,moral_self_bias,10,19,60.0491926732,f,001,2018_Apr_02_1359,
,,,,,,,,,,,,,,,,,,,,,3+6= ?,,,,,,,,,,,,,,,,,,,,0,32,32,21,,,,,,,,,,,,,,,,,,,,,moral_self_bias,10,19,60.0491926732,f,001,2018_Apr_02_1359,
,,,,,,,,,,,,,,,,,,,,,1-1= ?,,,,,,,,,,,,,,,,,,,,0,33,33,52,,,,,,,,,,,,,,,,,,,,,moral_self_bias,10,19,60.0491926732,f,001,2018_Apr_02_1359,
,,,,,,,,,,,,,,,,,,,,,9-9= ?,,,,,,,,,,,,,,,,,,,,0,34,34,32,,,,,,,,,,,,,,,,,,,,,moral_self_bias,10,19,60.0491926732,f,001,2018_Apr_02_1359,
,,,,,,,,,,,,,,,,,,,,,12-5=？,,,,,,,,,,,,,,,,,,,,0,35,35,65,,,,,,,,,,,,,,,,,,,,,moral_self_bias,10,19,60.0491926732,f,001,2018_Apr_02_1359,
,,,,,,,,,,,,,,,,,,,,,3+3= ?,,,,,,,,,,,,,,,,,,,,0,36,36,18,,,,,,,,,,,,,,,,,,,,,moral_self_bias,10,19,60.0491926732,f,001,2018_Apr_02_1359,
,,,,,,,,,,,,,,,,,,,,,29-27= ?,,,,,,,,,,,,,,,,,,,,0,37,37,72,,,,,,,,,,,,,,,,,,,,,moral_self_bias,10,19,60.0491926732,f,001,2018_Apr_02_1359,
,,,,,,,,,,,,,,,,,,,,,1+7= ?,,,,,,,,,,,,,,,,,,,,0,38,38,4,,,,,,,,,,,,,,,,,,,,,moral_self_bias,10,19,60.0491926732,f,001,2018_Apr_02_1359,
,,,,,,,,,,,,,,,,,,,,,2+2= ?,,,,,,,,,,,,,,,,,,,,0,39,39,8,,,,,,,,,,,,,,,,,,,,,moral_self_bias,10,19,60.0491926732,f,001,2018_Apr_02_1359,
,,,,,,,,,,,,,,,,,,,,,3*2= ?,,,,,,,,,,,,,,,,,,,,0,40,40,53,,,,,,,,,,,,,,,,,,,,,moral_self_bias,10,19,60.0491926732,f,001,2018_Apr_02_1359,
,,,,,,,,,,,,,,,,,,,,,1+2= ?,,,,,,,,,,,,,,,,,,,,0,41,41,1,,,,,,,,,,,,,,,,,,,,,moral_self_bias,10,19,60.0491926732,f,001,2018_Apr_02_1359,
,,,,,,,,,,,,,,,,,,,,,8-6= ?,,,,,,,,,,,,,,,,,,,,0,42,42,42,,,,,,,,,,,,,,,,,,,,,moral_self_bias,10,19,60.0491926732,f,001,2018_Apr_02_1359,
,,,,,,,,,,,,,,,,,,,,,9-4= ?,,,,,,,,,,,,,,,,,,,,0,43,43,22,,,,,,,,,,,,,,,,,,,,,moral_self_bias,10,19,60.0491926732,f,001,2018_Apr_02_1359,
,,,,,,,,,,,,,,,,,,,,,1+8= ?,,,,,,,,,,,,,,,,,,,,0,44,44,6,,,,,,,,,,,,,,,,,,,,,moral_self_bias,10,19,60.0491926732,f,001,2018_Apr_02_1359,
,,,,,,,,,,,,,,,,,,,,,13-6=？,,,,,,,,,,,,,,,,,,,,0,45,45,64,,,,,,,,,,,,,,,,,,,,,moral_self_bias,10,19,60.0491926732,f,001,2018_Apr_02_1359,
,,,,,,,,,,,,,,,,,,,,,5/1= ?,,,,,,,,,,,,,,,,,,,,0,46,46,59,,,,,,,,,,,,,,,,,,,,,moral_self_bias,10,19,60.0491926732,f,001,2018_Apr_02_1359,
,,,,,,,,,,,,,,,,,,,,,50-42= ?,,,,,,,,,,,,,,,,,,,,0,47,47,81,,,,,,,,,,,,,,,,,,,,,moral_self_bias,10,19,60.0491926732,f,001,2018_Apr_02_1359,
,,,,,,,,,,,,,,,,,,,,,8*1= ?,,,,,,,,,,,,,,,,,,,,0,48,48,111,,,,,,,,,,,,,,,,,,,,,moral_self_bias,10,19,60.0491926732,f,001,2018_Apr_02_1359,
,,,,,,,,,,,,,,,,,,,,,8/4= ?,,,,,,,,,,,,,,,,,,,,0,49,49,57,,,,,,,,,,,,,,,,,,,,,moral_self_bias,10,19,60.0491926732,f,001,2018_Apr_02_1359,
,,,,,,,,,,,,,,,,,,,,,9-8= ?,,,,,,,,,,,,,,,,,,,,0,50,50,31,,,,,,,,,,,,,,,,,,,,,moral_self_bias,10,19,60.0491926732,f,001,2018_Apr_02_1359,
,,,,,,,,,,,,,,,,,,,,,21/7= ?,,,,,,,,,,,,,,,,,,,,0,51,51,70,,,,,,,,,,,,,,,,,,,,,moral_self_bias,10,19,60.0491926732,f,001,2018_Apr_02_1359,
,,,,,,,,,,,,,,,,,,,,,6+3= ?,,,,,,,,,,,,,,,,,,,,0,52,52,45,,,,,,,,,,,,,,,,,,,,,moral_self_bias,10,19,60.0491926732,f,001,2018_Apr_02_1359,
,,,,,,,,,,,,,,,,,,,,,3+4= ?,,,,,,,,,,,,,,,,,,,,0,53,53,19,,,,,,,,,,,,,,,,,,,,,moral_self_bias,10,19,60.0491926732,f,001,2018_Apr_02_1359,
,,,,,,,,,,,,,,,,,,,,,8-3= ?,,,,,,,,,,,,,,,,,,,,0,54,54,39,,,,,,,,,,,,,,,,,,,,,moral_self_bias,10,19,60.0491926732,f,001,2018_Apr_02_1359,
,,,,,,,,,,,,,,,,,,,,,5+3= ?,,,,,,,,,,,,,,,,,,,,0,55,55,36,,,,,,,,,,,,,,,,,,,,,moral_self_bias,10,19,60.0491926732,f,001,2018_Apr_02_1359,
,,,,,,,,,,,,,,,,,,,,,23^0= ?,,,,,,,,,,,,,,,,,,,,0,56,56,94,,,,,,,,,,,,,,,,,,,,,moral_self_bias,10,19,60.0491926732,f,001,2018_Apr_02_1359,
,,,,,,,,,,,,,,,,,,,,,18/9= ?,,,,,,,,,,,,,,,,,,,,0,57,57,96,,,,,,,,,,,,,,,,,,,,,moral_self_bias,10,19,60.0491926732,f,001,2018_Apr_02_1359,
,,,,,,,,,,,,,,,,,,,,,6^0= ?,,,,,,,,,,,,,,,,,,,,0,58,58,103,,,,,,,,,,,,,,,,,,,,,moral_self_bias,10,19,60.0491926732,f,001,2018_Apr_02_1359,
,,,,,,,,,,,,,,,,,,,,,8-5= ?,,,,,,,,,,,,,,,,,,,,0,59,59,41,,,,,,,,,,,,,,,,,,,,,moral_self_bias,10,19,60.0491926732,f,001,2018_Apr_02_1359,
,,,,,,,,,,,,,,,,,,,,,1+6= ?,,,,,,,,,,,,,,,,,,,,0,60,60,5,,,,,,,,,,,,,,,,,,,,,moral_self_bias,10,19,60.0491926732,f,001,2018_Apr_02_1359,
,,,,,,,,,,,,,,,,,,,,,9-1=?,,,,,,,,,,,,,,,,,,,,0,61,61,2,,,,,,,,,,,,,,,,,,,,,moral_self_bias,10,19,60.0491926732,f,001,2018_Apr_02_1359,
,,,,,,,,,,,,,,,,,,,,,19-17= ?,,,,,,,,,,,,,,,,,,,,0,62,62,100,,,,,,,,,,,,,,,,,,,,,moral_self_bias,10,19,60.0491926732,f,001,2018_Apr_02_1359,
,,,,,,,,,,,,,,,,,,,,,7*1= ?,,,,,,,,,,,,,,,,,,,,0,63,63,113,,,,,,,,,,,,,,,,,,,,,moral_self_bias,10,19,60.0491926732,f,001,2018_Apr_02_1359,
,,,,,,,,,,,,,,,,,,,,,11-3=？,,,,,,,,,,,,,,,,,,,,0,64,64,68,,,,,,,,,,,,,,,,,,,,,moral_self_bias,10,19,60.0491926732,f,001,2018_Apr_02_1359,
,,,,,,,,,,,,,,,,,,,,,49/7 = ?,,,,,,,,,,,,,,,,,,,,0,65,65,78,,,,,,,,,,,,,,,,,,,,,moral_self_bias,10,19,60.0491926732,f,001,2018_Apr_02_1359,
,,,,,,,,,,,,,,,,,,,,,5*0= ?,,,,,,,,,,,,,,,,,,,,0,66,66,86,,,,,,,,,,,,,,,,,,,,,moral_self_bias,10,19,60.0491926732,f,001,2018_Apr_02_1359,
,,,,,,,,,,,,,,,,,,,,,81/9= ?,,,,,,,,,,,,,,,,,,,,0,67,67,75,,,,,,,,,,,,,,,,,,,,,moral_self_bias,10,19,60.0491926732,f,001,2018_Apr_02_1359,
,,,,,,,,,,,,,,,,,,,,,13-9= ?,,,,,,,,,,,,,,,,,,,,0,68,68,92,,,,,,,,,,,,,,,,,,,,,moral_self_bias,10,19,60.0491926732,f,001,2018_Apr_02_1359,
,,,,,,,,,,,,,,,,,,,,,32-32= ?,,,,,,,,,,,,,,,,,,,,0,69,69,80,,,,,,,,,,,,,,,,,,,,,moral_self_bias,10,19,60.0491926732,f,001,2018_Apr_02_1359,
,,,,,,,,,,,,,,,,,,,,,11-5= ?,,,,,,,,,,,,,,,,,,,,0,70,70,107,,,,,,,,,,,,,,,,,,,,,moral_self_bias,10,19,60.0491926732,f,001,2018_Apr_02_1359,
,,,,,,,,,,,,,,,,,,,,,12/4= ?,,,,,,,,,,,,,,,,,,,,0,71,71,89,,,,,,,,,,,,,,,,,,,,,moral_self_bias,10,19,60.0491926732,f,001,2018_Apr_02_1359,
,,,,,,,,,,,,,,,,,,,,,2+3= ?,,,,,,,,,,,,,,,,,,,,0,72,72,9,,,,,,,,,,,,,,,,,,,,,moral_self_bias,10,19,60.0491926732,f,001,2018_Apr_02_1359,
,,,,,,,,,,,,,,,,,,,,,9-5= ?,,,,,,,,,,,,,,,,,,,,0,73,73,23,,,,,,,,,,,,,,,,,,,,,moral_self_bias,10,19,60.0491926732,f,001,2018_Apr_02_1359,
,,,,,,,,,,,,,,,,,,,,,11-8= ?,,,,,,,,,,,,,,,,,,,,0,74,74,106,,,,,,,,,,,,,,,,,,,,,moral_self_bias,10,19,60.0491926732,f,001,2018_Apr_02_1359,
,,,,,,,,,,,,,,,,,,,,,43-34= ?,,,,,,,,,,,,,,,,,,,,0,75,75,79,,,,,,,,,,,,,,,,,,,,,moral_self_bias,10,19,60.0491926732,f,001,2018_Apr_02_1359,
,,,,,,,,,,,,,,,,,,,,,6^0= ?,,,,,,,,,,,,,,,,,,,,0,76,76,114,,,,,,,,,,,,,,,,,,,,,moral_self_bias,10,19,60.0491926732,f,001,2018_Apr_02_1359,
,,,,,,,,,,,,,,,,,,,,,14-9=？,,,,,,,,,,,,,,,,,,,,0,77,77,63,,,,,,,,,,,,,,,,,,,,,moral_self_bias,10,19,60.0491926732,f,001,2018_Apr_02_1359,
,,,,,,,,,,,,,,,,,,,,,4/4= ?,,,,,,,,,,,,,,,,,,,,0,78,78,55,,,,,,,,,,,,,,,,,,,,,moral_self_bias,10,19,60.0491926732,f,001,2018_Apr_02_1359,
,,,,,,,,,,,,,,,,,,,,,5-3= ?,,,,,,,,,,,,,,,,,,,,0,79,79,116,,,,,,,,,,,,,,,,,,,,,moral_self_bias,10,19,60.0491926732,f,001,2018_Apr_02_1359,
,,,,,,,,,,,,,,,,,,,,,7*0= ?,,,,,,,,,,,,,,,,,,,,0,80,80,88,,,,,,,,,,,,,,,,,,,,,moral_self_bias,10,19,60.0491926732,f,001,2018_Apr_02_1359,
,,,,,,,,,,,,,,,,,,,,,5+2= ?,,,,,,,,,,,,,,,,,,,,0,81,81,35,,,,,,,,,,,,,,,,,,,,,moral_self_bias,10,19,60.0491926732,f,001,2018_Apr_02_1359,
,,,,,,,,,,,,,,,,,,,,,8-4= ?,,,,,,,,,,,,,,,,,,,,0,82,82,40,,,,,,,,,,,,,,,,,,,,,moral_self_bias,10,19,60.0491926732,f,001,2018_Apr_02_1359,
,,,,,,,,,,,,,,,,,,,,,7+2= ?,,,,,,,,,,,,,,,,,,,,0,83,83,47,,,,,,,,,,,,,,,,,,,,,moral_self_bias,10,19,60.0491926732,f,001,2018_Apr_02_1359,
,,,,,,,,,,,,,,,,,,,,,3*3= ?,,,,,,,,,,,,,,,,,,,,0,84,84,54,,,,,,,,,,,,,,,,,,,,,moral_self_bias,10,19,60.0491926732,f,001,2018_Apr_02_1359,
,,,,,,,,,,,,,,,,,,,,,56/7= ?,,,,,,,,,,,,,,,,,,,,0,85,85,77,,,,,,,,,,,,,,,,,,,,,moral_self_bias,10,19,60.0491926732,f,001,2018_Apr_02_1359,
,,,,,,,,,,,,,,,,,,,,,17-12= ? ,,,,,,,,,,,,,,,,,,,,0,86,86,104,,,,,,,,,,,,,,,,,,,,,moral_self_bias,10,19,60.0491926732,f,001,2018_Apr_02_1359,
,,,,,,,,,,,,,,,,,,,,,2*4= ?,,,,,,,,,,,,,,,,,,,,0,87,87,84,,,,,,,,,,,,,,,,,,,,,moral_self_bias,10,19,60.0491926732,f,001,2018_Apr_02_1359,
,,,,,,,,,,,,,,,,,,,,,11-4=？,,,,,,,,,,,,,,,,,,,,0,88,88,66,,,,,,,,,,,,,,,,,,,,,moral_self_bias,10,19,60.0491926732,f,001,2018_Apr_02_1359,
,,,,,,,,,,,,,,,,,,,,,8-1= ?,,,,,,,,,,,,,,,,,,,,0,89,89,33,,,,,,,,,,,,,,,,,,,,,moral_self_bias,10,19,60.0491926732,f,001,2018_Apr_02_1359,
,,,,,,,,,,,,,,,,,,,,,6/2= ?,,,,,,,,,,,,,,,,,,,,0,90,90,58,,,,,,,,,,,,,,,,,,,,,moral_self_bias,10,19,60.0491926732,f,001,2018_Apr_02_1359,
,,,,,,,,,,,,,,,,,,,,,72/9= ?,,,,,,,,,,,,,,,,,,,,0,91,91,76,,,,,,,,,,,,,,,,,,,,,moral_self_bias,10,19,60.0491926732,f,001,2018_Apr_02_1359,
,,,,,,,,,,,,,,,,,,,,,3^1= ?,,,,,,,,,,,,,,,,,,,,0,92,92,101,,,,,,,,,,,,,,,,,,,,,moral_self_bias,10,19,60.0491926732,f,001,2018_Apr_02_1359,
,,,,,,,,,,,,,,,,,,,,,5+4= ?,,,,,,,,,,,,,,,,,,,,0,93,93,37,,,,,,,,,,,,,,,,,,,,,moral_self_bias,10,19,60.0491926732,f,001,2018_Apr_02_1359,
,,,,,,,,,,,,,,,,,,,,,5+1= ?,,,,,,,,,,,,,,,,,,,,0,94,94,34,,,,,,,,,,,,,,,,,,,,,moral_self_bias,10,19,60.0491926732,f,001,2018_Apr_02_1359,
,,,,,,,,,,,,,,,,,,,,,7+1= ?,,,,,,,,,,,,,,,,,,,,0,95,95,46,,,,,,,,,,,,,,,,,,,,,moral_self_bias,10,19,60.0491926732,f,001,2018_Apr_02_1359,
,,,,,,,,,,,,,,,,,,,,,2+1= ?,,,,,,,,,,,,,,,,,,,,0,96,96,7,,,,,,,,,,,,,,,,,,,,,moral_self_bias,10,19,60.0491926732,f,001,2018_Apr_02_1359,
,,,,,,,,,,,,,,,,,,,,,11-11= ?,,,,,,,,,,,,,,,,,,,,0,97,97,119,,,,,,,,,,,,,,,,,,,,,moral_self_bias,10,19,60.0491926732,f,001,2018_Apr_02_1359,
,,,,,,,,,,,,,,,,,,,,,10-9= ?,,,,,,,,,,,,,,,,,,,,0,98,98,112,,,,,,,,,,,,,,,,,,,,,moral_self_bias,10,19,60.0491926732,f,001,2018_Apr_02_1359,
,,,,,,,,,,,,,,,,,,,,,4+5= ?,,,,,,,,,,,,,,,,,,,,0,99,99,29,,,,,,,,,,,,,,,,,,,,,moral_self_bias,10,19,60.0491926732,f,001,2018_Apr_02_1359,
,,,,,,,,,,,,,,,,,,,,,21/3= ? ,,,,,,,,,,,,,,,,,,,,0,100,100,95,,,,,,,,,,,,,,,,,,,,,moral_self_bias,10,19,60.0491926732,f,001,2018_Apr_02_1359,
,,,,,,,,,,,,,,,,,,,,,90/45= ?,,,,,,,,,,,,,,,,,,,,0,101,101,74,,,,,,,,,,,,,,,,,,,,,moral_self_bias,10,19,60.0491926732,f,001,2018_Apr_02_1359,
,,,,,,,,,,,,,,,,,,,,,22/11= ?,,,,,,,,,,,,,,,,,,,,0,102,102,71,,,,,,,,,,,,,,,,,,,,,moral_self_bias,10,19,60.0491926732,f,001,2018_Apr_02_1359,
,,,,,,,,,,,,,,,,,,,,,16-11=？,,,,,,,,,,,,,,,,,,,,0,103,103,62,,,,,,,,,,,,,,,,,,,,,moral_self_bias,10,19,60.0491926732,f,001,2018_Apr_02_1359,
,,,,,,,,,,,,,,,,,,,,,1+9= ?,,,,,,,,,,,,,,,,,,,,0,104,104,3,,,,,,,,,,,,,,,,,,,,,moral_self_bias,10,19,60.0491926732,f,001,2018_Apr_02_1359,
,,,,,,,,,,,,,,,,,,,,,9-2= ?,,,,,,,,,,,,,,,,,,,,0,105,105,14,,,,,,,,,,,,,,,,,,,,,moral_self_bias,10,19,60.0491926732,f,001,2018_Apr_02_1359,
,,,,,,,,,,,,,,,,,,,,,12/6= ?,,,,,,,,,,,,,,,,,,,,0,106,106,90,,,,,,,,,,,,,,,,,,,,,moral_self_bias,10,19,60.0491926732,f,001,2018_Apr_02_1359,
,,,,,,,,,,,,,,,,,,,,,4^1= ?,,,,,,,,,,,,,,,,,,,,0,107,107,102,,,,,,,,,,,,,,,,,,,,,moral_self_bias,10,19,60.0491926732,f,001,2018_Apr_02_1359,
,,,,,,,,,,,,,,,,,,,,,9-6= ?,,,,,,,,,,,,,,,,,,,,0,108,108,24,,,,,,,,,,,,,,,,,,,,,moral_self_bias,10,19,60.0491926732,f,001,2018_Apr_02_1359,
,,,,,,,,,,,,,,,,,,,,,18/2= ?,,,,,,,,,,,,,,,,,,,,0,109,109,97,,,,,,,,,,,,,,,,,,,,,moral_self_bias,10,19,60.0491926732,f,001,2018_Apr_02_1359,
,,,,,,,,,,,,,,,,,,,,,8-2= ?,,,,,,,,,,,,,,,,,,,,0,110,110,38,,,,,,,,,,,,,,,,,,,,,moral_self_bias,10,19,60.0491926732,f,001,2018_Apr_02_1359,
,,,,,,,,,,,,,,,,,,,,,3*1= ?,,,,,,,,,,,,,,,,,,,,0,111,111,83,,,,,,,,,,,,,,,,,,,,,moral_self_bias,10,19,60.0491926732,f,001,2018_Apr_02_1359,
,,,,,,,,,,,,,,,,,,,,,2+4= ?,,,,,,,,,,,,,,,,,,,,0,112,112,10,,,,,,,,,,,,,,,,,,,,,moral_self_bias,10,19,60.0491926732,f,001,2018_Apr_02_1359,
,,,,,,,,,,,,,,,,,,,,,3+1= ?,,,,,,,,,,,,,,,,,,,,0,113,113,16,,,,,,,,,,,,,,,,,,,,,moral_self_bias,10,19,60.0491926732,f,001,2018_Apr_02_1359,
,,,,,,,,,,,,,,,,,,,,,9/3= ?,,,,,,,,,,,,,,,,,,,,0,114,114,56,,,,,,,,,,,,,,,,,,,,,moral_self_bias,10,19,60.0491926732,f,001,2018_Apr_02_1359,
,,,,,,,,,,,,,,,,,,,,,4+2= ?,,,,,,,,,,,,,,,,,,,,0,115,115,26,,,,,,,,,,,,,,,,,,,,,moral_self_bias,10,19,60.0491926732,f,001,2018_Apr_02_1359,
,,,,,,,,,,,,,,,,,,,,,9-7= ?,,,,,,,,,,,,,,,,,,,,0,116,116,30,,,,,,,,,,,,,,,,,,,,,moral_self_bias,10,19,60.0491926732,f,001,2018_Apr_02_1359,
,,,,,,,,,,,,,,,,,,,,,9+0= ?,,,,,,,,,,,,,,,,,,,,0,117,117,118,,,,,,,,,,,,,,,,,,,,,moral_self_bias,10,19,60.0491926732,f,001,2018_Apr_02_1359,
,,,,,,,,,,,,,,,,,,,,,4*1= ?,,,,,,,,,,,,,,,,,,,,0,118,118,85,,,,,,,,,,,,,,,,,,,,,moral_self_bias,10,19,60.0491926732,f,001,2018_Apr_02_1359,
,,,,,,,,,,,,,,,,,,,,,3+0= ?,,,,,,,,,,,,,,,,,,,,0,119,119,105,,,,,,,,,,,,,,,,,,,,,moral_self_bias,10,19,60.0491926732,f,001,2018_Apr_02_1359,
,,,,,,,,,,,,,,,,,,,,,,,,,,,,,,,,,,,,,,,,,,,,,,,,,,,,,,,,,1,10.5053150654,,,,,,,moral_self_bias,10,19,60.0491926732,f,001,2018_Apr_02_1359,
,,,,,,,,,,,,,,,,,,,,,,material/57.png,2,无知,material/157.png,2,material/57.png,无能,2,f,f,f,2,2,2,无知,,,,,,,,,0,0,0,136,0,0,0,0,,,,,,,f,1,5.89208292961,f,1,6.69037389755,moral_self_bias,10,19,60.0491926732,f,001,2018_Apr_02_1359,
,,,,,,,,,,,,,,,,,,,,,,material/57.png,2,无知,material/157.png,2,material/57.png,无能,2,f,f,f,2,2,2,无知,,,,,,,,,0,0,0,136,,,,,,,,,,,,,,,,,moral_self_bias,10,19,60.0491926732,f,001,2018_Apr_02_1359,
,,,,,,,,,,,,,,,,,,,,,,material/47.png,2,死板,material/147.png,2,material/47.png,刻板,2,f,f,f,2,2,2,死板,,,,,,,,,0,1,1,126,0,0,0,0,,,,,,,f,1,4.08397507668,j,0,4.82507205009,moral_self_bias,10,19,60.0491926732,f,001,2018_Apr_02_1359,
,,,,,,,,,,,,,,,,,,,,,,material/47.png,2,死板,material/147.png,2,material/47.png,刻板,2,f,f,f,2,2,2,死板,,,,,,,,,0,1,1,126,,,,,,,,,,,,,,,,,moral_self_bias,10,19,60.0491926732,f,001,2018_Apr_02_1359,
,,,,,,,,,,,,,,,,,,,,,,material/16.png,1,睿智,material/116.png,1,material/16.png,机智,1,f,f,f,2,2,2,睿智,,,,,,,,,0,2,2,95,,,,,,,,,,,j,0,2.87419700623,,,,moral_self_bias,10,19,60.0491926732,f,001,2018_Apr_02_1359,
,,,,,,,,,,,,,,,,,,,,,,material/56.png,2,愚昧,material/156.png,2,material/56.png,愚钝,2,f,f,f,2,2,2,愚昧,,,,,,,,,0,3,3,135,0,0,0,0,,,,,,,f,1,6.75718402863,j,0,2.3662340641,moral_self_bias,10,19,60.0491926732,f,001,2018_Apr_02_1359,
,,,,,,,,,,,,,,,,,,,,,,material/56.png,2,愚昧,material/156.png,2,material/56.png,愚钝,2,f,f,f,2,2,2,愚昧,,,,,,,,,0,3,3,135,,,,,,,,,,,,,,,,,moral_self_bias,10,19,60.0491926732,f,001,2018_Apr_02_1359,
,,,,,,,,,,,,,,,,,,,,,,material/125.png,1,果敢,material/25.png,1,material/125.png,果断,1,j,j,j,2,2,2,果敢,,,,,,,,,0,4,4,24,0,0,0,0,,,,,,,f,0,2.95712804794,f,1,1.67416596413,moral_self_bias,10,19,60.0491926732,f,001,2018_Apr_02_1359,
,,,,,,,,,,,,,,,,,,,,,,material/125.png,1,果敢,material/25.png,1,material/125.png,果断,1,j,j,j,2,2,2,果敢,,,,,,,,,0,4,4,24,,,,,,,,,,,,,,,,,moral_self_bias,10,19,60.0491926732,f,001,2018_Apr_02_1359,
,,,,,,,,,,,,,,,,,,,,,,material/106.png,1,诚实,material/6.png,1,material/6.png,诚实,1,j,j,j,1,1,1,厚道,,,,,,,,,0,5,5,5,0,0,0,0,,,,,,,f,0,0.941009044647,f,1,0.341976165771,moral_self_bias,10,19,60.0491926732,f,001,2018_Apr_02_1359,
,,,,,,,,,,,,,,,,,,,,,,material/106.png,1,诚实,material/6.png,1,material/6.png,诚实,1,j,j,j,1,1,1,厚道,,,,,,,,,0,5,5,5,,,,,,,,,,,,,,,,,moral_self_bias,10,19,60.0491926732,f,001,2018_Apr_02_1359,
,,,,,,,,,,,,,,,,,,,,,,material/39.png,2,恶毒,material/139.png,2,material/139.png,恶毒,2,f,f,f,1,1,1,凶残,,,,,,,,,0,6,6,118,,,,,,,,,,,j,0,1.79052305222,,,,moral_self_bias,10,19,60.0491926732,f,001,2018_Apr_02_1359,
,,,,,,,,,,,,,,,,,,,,,,material/172.png,2,无情,material/175.png,2,material/175.png,无情,2,f,f,f,1,1,1,浮夸,,,,,,,,,0,7,7,154,,,,,,,,,,,j,0,0.208612918854,,,,moral_self_bias,10,19,60.0491926732,f,001,2018_Apr_02_1359,
,,,,,,,,,,,,,,,,,,,,,,material/147.png,2,刻板,material/47.png,2,material/147.png,死板,2,j,j,j,2,2,2,刻板,,,,,,,,,0,8,8,46,,,,,,,,,,,j,1,1.65025615692,,,,moral_self_bias,10,19,60.0491926732,f,001,2018_Apr_02_1359,
,,,,,,,,,,,,,,,,,,,,,,material/102.png,1,善心,material/2.png,1,material/2.png,善心,1,j,j,j,1,1,1,爱心,,,,,,,,,0,9,9,1,,,,,,,,,,,j,1,0.34174489975,,,,moral_self_bias,10,19,60.0491926732,f,001,2018_Apr_02_1359,
,,,,,,,,,,,,,,,,,,,,,,material/140.png,2,邪恶,material/40.png,2,material/40.png,邪恶,2,j,j,j,1,1,1,狠毒,,,,,,,,,0,10,10,39,0,0,0,0,,,,,,,f,0,4.67577195168,j,0,1.37475299835,moral_self_bias,10,19,60.0491926732,f,001,2018_Apr_02_1359,
,,,,,,,,,,,,,,,,,,,,,,material/140.png,2,邪恶,material/40.png,2,material/40.png,邪恶,2,j,j,j,1,1,1,狠毒,,,,,,,,,0,10,10,39,,,,,,,,,,,,,,,,,moral_self_bias,10,19,60.0491926732,f,001,2018_Apr_02_1359,
,,,,,,,,,,,,,,,,,,,,,,material/165.png,1,平等,material/161.png,1,material/61.png,勇敢,1,f,f,f,1,1,1,独立,,,,,,,,,0,11,11,140,0,0,0,0,,,,,,,f,1,1.5906150341,f,1,0.624787092209,moral_self_bias,10,19,60.0491926732,f,001,2018_Apr_02_1359,
,,,,,,,,,,,,,,,,,,,,,,material/165.png,1,平等,material/161.png,1,material/61.png,勇敢,1,f,f,f,1,1,1,独立,,,,,,,,,0,11,11,140,,,,,,,,,,,,,,,,,moral_self_bias,10,19,60.0491926732,f,001,2018_Apr_02_1359,
,,,,,,,,,,,,,,,,,,,,,,material/112.png,1,忠诚,material/12.png,1,material/12.png,忠诚,1,j,j,j,1,1,1,忠心,,,,,,,,,0,12,12,11,0,0,0,0,,,,,,,f,0,0.657797813416,f,1,0.208508014679,moral_self_bias,10,19,60.0491926732,f,001,2018_Apr_02_1359,
,,,,,,,,,,,,,,,,,,,,,,material/112.png,1,忠诚,material/12.png,1,material/12.png,忠诚,1,j,j,j,1,1,1,忠心,,,,,,,,,0,12,12,11,,,,,,,,,,,,,,,,,moral_self_bias,10,19,60.0491926732,f,001,2018_Apr_02_1359,
,,,,,,,,,,,,,,,,,,,,,,material/55.png,2,盲从,material/155.png,2,material/55.png,盲目,2,f,f,f,2,2,2,盲从,,,,,,,,,0,13,13,134,,,,,,,,,,,j,0,0.974451065063,,,,moral_self_bias,10,19,60.0491926732,f,001,2018_Apr_02_1359,
,,,,,,,,,,,,,,,,,,,,,,material/182.png,2,健忘,material/184.png,2,material/80.png,厌学,2,f,f,f,2,2,2,才尽,,,,,,,,,0,14,14,163,,,,,,,,,,,j,0,1.74108791351,,,,moral_self_bias,10,19,60.0491926732,f,001,2018_Apr_02_1359,
,,,,,,,,,,,,,,,,,,,,,,material/20.png,1,厉害,material/120.png,1,material/20.png,能干,1,f,f,f,2,2,2,厉害,,,,,,,,,0,15,15,99,0,0,0,0,,,,,,,f,1,0.924811124802,f,1,0.875458955765,moral_self_bias,10,19,60.0491926732,f,001,2018_Apr_02_1359,
,,,,,,,,,,,,,,,,,,,,,,material/20.png,1,厉害,material/120.png,1,material/20.png,能干,1,f,f,f,2,2,2,厉害,,,,,,,,,0,15,15,99,,,,,,,,,,,,,,,,,moral_self_bias,10,19,60.0491926732,f,001,2018_Apr_02_1359,
,,,,,,,,,,,,,,,,,,,,,,material/121.png,1,精干,material/21.png,1,material/121.png,干练,1,j,j,j,2,2,2,精干,,,,,,,,,0,16,16,20,0,0,0,0,,,,,,,f,0,3.77543187141,f,1,0.20867395401,moral_self_bias,10,19,60.0491926732,f,001,2018_Apr_02_1359,
,,,,,,,,,,,,,,,,,,,,,,material/121.png,1,精干,material/21.png,1,material/121.png,干练,1,j,j,j,2,2,2,精干,,,,,,,,,0,16,16,20,,,,,,,,,,,,,,,,,moral_self_bias,10,19,60.0491926732,f,001,2018_Apr_02_1359,
,,,,,,,,,,,,,,,,,,,,,,material/101.png,1,善良,material/1.png,1,material/1.png,善良,1,j,j,j,1,1,1,博爱,,,,,,,,,0,17,17,0,0,0,0,0,,,,,,,f,0,0.591264009476,f,1,0.190449953079,moral_self_bias,10,19,60.0491926732,f,001,2018_Apr_02_1359,
,,,,,,,,,,,,,,,,,,,,,,material/101.png,1,善良,material/1.png,1,material/1.png,善良,1,j,j,j,1,1,1,博爱,,,,,,,,,0,17,17,0,,,,,,,,,,,,,,,,,moral_self_bias,10,19,60.0491926732,f,001,2018_Apr_02_1359,
,,,,,,,,,,,,,,,,,,,,,,material/133.png,2,腐败,material/33.png,2,material/33.png,腐败,2,j,j,j,1,1,1,贪污,,,,,,,,,0,18,18,32,,,,,,,,,,,j,1,0.841314077377,,,,moral_self_bias,10,19,60.0491926732,f,001,2018_Apr_02_1359,
,,,,,,,,,,,,,,,,,,,,,,material/70.png,1,全面,material/168.png,1,material/70.png,机变,1,f,f,f,2,2,2,全面,,,,,,,,,0,19,19,147,,,,,,,,,,,j,0,0.18235707283,,,,moral_self_bias,10,19,60.0491926732,f,001,2018_Apr_02_1359,
,,,,,,,,,,,,,,,,,,,,,,material/22.png,1,才学,material/122.png,1,material/22.png,博学,1,f,f,f,2,2,2,才学,,,,,,,,,0,20,20,101,0,0,0,0,,,,,,,f,1,1.2404088974,f,1,0.741322994232,moral_self_bias,10,19,60.0491926732,f,001,2018_Apr_02_1359,
,,,,,,,,,,,,,,,,,,,,,,material/22.png,1,才学,material/122.png,1,material/22.png,博学,1,f,f,f,2,2,2,才学,,,,,,,,,0,20,20,101,,,,,,,,,,,,,,,,,moral_self_bias,10,19,60.0491926732,f,001,2018_Apr_02_1359,
,,,,,,,,,,,,,,,,,,,,,,material/151.png,2,迷糊,material/51.png,2,material/151.png,糊涂,2,j,j,j,2,2,2,迷糊,,,,,,,,,0,21,21,50,0,0,0,0,,,,,,,f,0,2.04198002815,j,0,0.792019128799,moral_self_bias,10,19,60.0491926732,f,001,2018_Apr_02_1359,
,,,,,,,,,,,,,,,,,,,,,,material/151.png,2,迷糊,material/51.png,2,material/151.png,糊涂,2,j,j,j,2,2,2,迷糊,,,,,,,,,0,21,21,50,,,,,,,,,,,,,,,,,moral_self_bias,10,19,60.0491926732,f,001,2018_Apr_02_1359,
,,,,,,,,,,,,,,,,,,,,,,material/169.png,1,颖悟,material/171.png,1,material/169.png,高效,1,f,f,f,2,2,2,颖悟,,,,,,,,,0,22,22,150,0,0,0,0,,,,,,,f,1,0.97491312027,f,1,0.525697946548,moral_self_bias,10,19,60.0491926732,f,001,2018_Apr_02_1359,
,,,,,,,,,,,,,,,,,,,,,,material/169.png,1,颖悟,material/171.png,1,material/169.png,高效,1,f,f,f,2,2,2,颖悟,,,,,,,,,0,22,22,150,,,,,,,,,,,,,,,,,moral_self_bias,10,19,60.0491926732,f,001,2018_Apr_02_1359,
,,,,,,,,,,,,,,,,,,,,,,material/173.png,2,不义,material/174.png,2,material/174.png,不义,2,f,f,f,1,1,1,黑心,,,,,,,,,0,23,23,153,,,,,,,,,,,j,0,0.808717012405,,,,moral_self_bias,10,19,60.0491926732,f,001,2018_Apr_02_1359,
,,,,,,,,,,,,,,,,,,,,,,material/76.png,2,放纵,material/176.png,2,material/176.png,放纵,2,f,f,f,1,1,1,虚伪,,,,,,,,,0,24,24,155,,,,,,,,,,,j,0,2.39193487167,,,,moral_self_bias,10,19,60.0491926732,f,001,2018_Apr_02_1359,
,,,,,,,,,,,,,,,,,,,,,,material/12.png,1,忠心,material/112.png,1,material/112.png,忠心,1,f,f,f,1,1,1,忠诚,,,,,,,,,0,25,25,91,0,0,0,0,,,,,,,f,1,3.27440690994,f,1,1.54189801216,moral_self_bias,10,19,60.0491926732,f,001,2018_Apr_02_1359,
,,,,,,,,,,,,,,,,,,,,,,material/12.png,1,忠心,material/112.png,1,material/112.png,忠心,1,f,f,f,1,1,1,忠诚,,,,,,,,,0,25,25,91,,,,,,,,,,,,,,,,,moral_self_bias,10,19,60.0491926732,f,001,2018_Apr_02_1359,
,,,,,,,,,,,,,,,,,,,,,,material/37.png,2,卑鄙,material/137.png,2,material/137.png,卑鄙,2,f,f,f,1,1,1,无耻,,,,,,,,,0,26,26,116,0,0,0,0,,,,,,,f,1,2.82489299774,j,0,0.834995985031,moral_self_bias,10,19,60.0491926732,f,001,2018_Apr_02_1359,
,,,,,,,,,,,,,,,,,,,,,,material/37.png,2,卑鄙,material/137.png,2,material/137.png,卑鄙,2,f,f,f,1,1,1,无耻,,,,,,,,,0,26,26,116,,,,,,,,,,,,,,,,,moral_self_bias,10,19,60.0491926732,f,001,2018_Apr_02_1359,
,,,,,,,,,,,,,,,,,,,,,,material/110.png,1,顽强,material/10.png,1,material/10.png,顽强,1,j,j,j,1,1,1,坚毅,,,,,,,,,0,27,27,9,0,0,0,0,,,,,,,f,0,1.61646795273,f,1,0.707754850388,moral_self_bias,10,19,60.0491926732,f,001,2018_Apr_02_1359,
,,,,,,,,,,,,,,,,,,,,,,material/110.png,1,顽强,material/10.png,1,material/10.png,顽强,1,j,j,j,1,1,1,坚毅,,,,,,,,,0,27,27,9,,,,,,,,,,,,,,,,,moral_self_bias,10,19,60.0491926732,f,001,2018_Apr_02_1359,
,,,,,,,,,,,,,,,,,,,,,,material/41.png,2,残忍,material/141.png,2,material/141.png,残忍,2,f,f,f,1,1,1,歹毒,,,,,,,,,0,28,28,120,,,,,,,,,,,j,0,1.09143185616,,,,moral_self_bias,10,19,60.0491926732,f,001,2018_Apr_02_1359,
,,,,,,,,,,,,,,,,,,,,,,material/159.png,2,弱智,material/59.png,2,material/159.png,智障,2,j,j,j,2,2,2,弱智,,,,,,,,,0,29,29,58,,,,,,,,,,,j,1,1.84190416336,,,,moral_self_bias,10,19,60.0491926732,f,001,2018_Apr_02_1359,
,,,,,,,,,,,,,,,,,,,,,,material/46.png,2,自私,material/146.png,2,material/146.png,自私,2,f,f,f,1,1,1,小气,,,,,,,,,0,30,30,125,0,0,0,0,,,,,,,f,1,1.3749370575,j,0,0.758959054947,moral_self_bias,10,19,60.0491926732,f,001,2018_Apr_02_1359,
,,,,,,,,,,,,,,,,,,,,,,material/46.png,2,自私,material/146.png,2,material/146.png,自私,2,f,f,f,1,1,1,小气,,,,,,,,,0,30,30,125,,,,,,,,,,,,,,,,,moral_self_bias,10,19,60.0491926732,f,001,2018_Apr_02_1359,
,,,,,,,,,,,,,,,,,,,,,,material/44.png,2,爽约,material/144.png,2,material/144.png,爽约,2,f,f,f,1,1,1,失信,,,,,,,,,0,31,31,123,,,,,,,,,,,j,0,1.35887503624,,,,moral_self_bias,10,19,60.0491926732,f,001,2018_Apr_02_1359,
,,,,,,,,,,,,,,,,,,,,,,material/35.png,2,冷血,material/135.png,2,material/135.png,冷血,2,f,f,f,1,1,1,冷漠,,,,,,,,,0,32,32,114,,,,,,,,,,,j,0,0.992293834686,,,,moral_self_bias,10,19,60.0491926732,f,001,2018_Apr_02_1359,
,,,,,,,,,,,,,,,,,,,,,,material/27.png,1,卓越,material/127.png,1,material/27.png,超群,1,f,f,f,2,2,2,卓越,,,,,,,,,0,33,33,106,,,,,,,,,,,j,0,0.691103935242,,,,moral_self_bias,10,19,60.0491926732,f,001,2018_Apr_02_1359,
,,,,,,,,,,,,,,,,,,,,,,material/141.png,2,歹毒,material/41.png,2,material/41.png,歹毒,2,j,j,j,1,1,1,残忍,,,,,,,,,0,34,34,40,0,0,0,0,,,,,,,f,0,0.758325099945,j,0,1.44157505035,moral_self_bias,10,19,60.0491926732,f,001,2018_Apr_02_1359,
,,,,,,,,,,,,,,,,,,,,,,material/141.png,2,歹毒,material/41.png,2,material/41.png,歹毒,2,j,j,j,1,1,1,残忍,,,,,,,,,0,34,34,40,,,,,,,,,,,,,,,,,moral_self_bias,10,19,60.0491926732,f,001,2018_Apr_02_1359,
,,,,,,,,,,,,,,,,,,,,,,material/61.png,1,仗义,material/65.png,1,material/166.png,谦虚,1,j,j,j,1,1,1,平等,,,,,,,,,0,35,35,64,0,0,0,0,,,,,,,f,0,1.55796289444,f,1,0.459447860718,moral_self_bias,10,19,60.0491926732,f,001,2018_Apr_02_1359,
,,,,,,,,,,,,,,,,,,,,,,material/61.png,1,仗义,material/65.png,1,material/166.png,谦虚,1,j,j,j,1,1,1,平等,,,,,,,,,0,35,35,64,,,,,,,,,,,,,,,,,moral_self_bias,10,19,60.0491926732,f,001,2018_Apr_02_1359,
,,,,,,,,,,,,,,,,,,,,,,material/126.png,1,勤快,material/26.png,1,material/126.png,刻苦,1,j,j,j,2,2,2,勤快,,,,,,,,,0,36,36,25,0,0,0,0,,,,,,,f,0,0.825209856033,f,1,0.459383964539,moral_self_bias,10,19,60.0491926732,f,001,2018_Apr_02_1359,
,,,,,,,,,,,,,,,,,,,,,,material/126.png,1,勤快,material/26.png,1,material/126.png,刻苦,1,j,j,j,2,2,2,勤快,,,,,,,,,0,36,36,25,,,,,,,,,,,,,,,,,moral_self_bias,10,19,60.0491926732,f,001,2018_Apr_02_1359,
,,,,,,,,,,,,,,,,,,,,,,material/109.png,1,秉直,material/9.png,1,material/9.png,秉直,1,j,j,j,1,1,1,正直,,,,,,,,,0,37,37,8,0,0,0,0,,,,,,,f,0,0.725028991699,f,1,0.308284044266,moral_self_bias,10,19,60.0491926732,f,001,2018_Apr_02_1359,
,,,,,,,,,,,,,,,,,,,,,,material/109.png,1,秉直,material/9.png,1,material/9.png,秉直,1,j,j,j,1,1,1,正直,,,,,,,,,0,37,37,8,,,,,,,,,,,,,,,,,moral_self_bias,10,19,60.0491926732,f,001,2018_Apr_02_1359,
,,,,,,,,,,,,,,,,,,,,,,material/74.png,2,黑心,material/173.png,2,material/173.png,黑心,2,f,f,f,1,1,1,卑劣,,,,,,,,,0,38,38,152,,,,,,,,,,,j,0,0.658579111099,,,,moral_self_bias,10,19,60.0491926732,f,001,2018_Apr_02_1359,
,,,,,,,,,,,,,,,,,,,,,,material/146.png,2,小气,material/46.png,2,material/46.png,小气,2,j,j,j,1,1,1,自私,,,,,,,,,0,39,39,45,,,,,,,,,,,j,1,1.9341468811,,,,moral_self_bias,10,19,60.0491926732,f,001,2018_Apr_02_1359,
,,,,,,,,,,,,,,,,,,,,,,material/144.png,2,失信,material/44.png,2,material/44.png,失信,2,j,j,j,1,1,1,爽约,,,,,,,,,0,40,40,43,0,0,0,0,,,,,,,f,0,0.92381811142,j,0,1.00874876976,moral_self_bias,10,19,60.0491926732,f,001,2018_Apr_02_1359,
,,,,,,,,,,,,,,,,,,,,,,material/144.png,2,失信,material/44.png,2,material/44.png,失信,2,j,j,j,1,1,1,爽约,,,,,,,,,0,40,40,43,,,,,,,,,,,,,,,,,moral_self_bias,10,19,60.0491926732,f,001,2018_Apr_02_1359,
,,,,,,,,,,,,,,,,,,,,,,material/145.png,2,下流,material/45.png,2,material/45.png,下流,2,j,j,j,1,1,1,小人,,,,,,,,,0,41,41,44,0,0,0,0,,,,,,,f,0,1.25802516937,j,0,0.425101041794,moral_self_bias,10,19,60.0491926732,f,001,2018_Apr_02_1359,
,,,,,,,,,,,,,,,,,,,,,,material/145.png,2,下流,material/45.png,2,material/45.png,下流,2,j,j,j,1,1,1,小人,,,,,,,,,0,41,41,44,,,,,,,,,,,,,,,,,moral_self_bias,10,19,60.0491926732,f,001,2018_Apr_02_1359,
,,,,,,,,,,,,,,,,,,,,,,material/10.png,1,坚毅,material/110.png,1,material/110.png,坚毅,1,f,f,f,1,1,1,顽强,,,,,,,,,0,42,42,89,0,0,0,0,,,,,,,f,1,3.0585539341,f,1,0.674858093262,moral_self_bias,10,19,60.0491926732,f,001,2018_Apr_02_1359,
,,,,,,,,,,,,,,,,,,,,,,material/10.png,1,坚毅,material/110.png,1,material/110.png,坚毅,1,f,f,f,1,1,1,顽强,,,,,,,,,0,42,42,89,,,,,,,,,,,,,,,,,moral_self_bias,10,19,60.0491926732,f,001,2018_Apr_02_1359,
,,,,,,,,,,,,,,,,,,,,,,material/157.png,2,无能,material/57.png,2,material/157.png,无知,2,j,j,j,2,2,2,无能,,,,,,,,,0,43,43,56,,,,,,,,,,,j,1,1.00870609283,,,,moral_self_bias,10,19,60.0491926732,f,001,2018_Apr_02_1359,
,,,,,,,,,,,,,,,,,,,,,,material/176.png,2,害人,material/75.png,2,material/75.png,害人,2,j,j,j,1,1,1,放纵,,,,,,,,,0,44,44,71,0,0,0,0,,,,,,,f,0,1.6412730217,j,0,0.441642999649,moral_self_bias,10,19,60.0491926732,f,001,2018_Apr_02_1359,
,,,,,,,,,,,,,,,,,,,,,,material/176.png,2,害人,material/75.png,2,material/75.png,害人,2,j,j,j,1,1,1,放纵,,,,,,,,,0,44,44,71,,,,,,,,,,,,,,,,,moral_self_bias,10,19,60.0491926732,f,001,2018_Apr_02_1359,
,,,,,,,,,,,,,,,,,,,,,,material/135.png,2,冷漠,material/35.png,2,material/35.png,冷漠,2,j,j,j,1,1,1,冷血,,,,,,,,,0,45,45,34,0,0,0,0,,,,,,,f,0,1.9094440937,j,0,0.160084009171,moral_self_bias,10,19,60.0491926732,f,001,2018_Apr_02_1359,
,,,,,,,,,,,,,,,,,,,,,,material/135.png,2,冷漠,material/35.png,2,material/35.png,冷漠,2,j,j,j,1,1,1,冷血,,,,,,,,,0,45,45,34,,,,,,,,,,,,,,,,,moral_self_bias,10,19,60.0491926732,f,001,2018_Apr_02_1359,
,,,,,,,,,,,,,,,,,,,,,,material/179.png,2,顽愚,material/178.png,2,material/84.png,毛糙,2,f,f,f,2,2,2,差生,,,,,,,,,0,46,46,157,,,,,,,,,,,j,0,1.98392605782,,,,moral_self_bias,10,19,60.0491926732,f,001,2018_Apr_02_1359,
,,,,,,,,,,,,,,,,,,,,,,material/59.png,2,智障,material/159.png,2,material/59.png,弱智,2,f,f,f,2,2,2,智障,,,,,,,,,0,47,47,138,,,,,,,,,,,j,0,0.957452058792,,,,moral_self_bias,10,19,60.0491926732,f,001,2018_Apr_02_1359,
,,,,,,,,,,,,,,,,,,,,,,material/124.png,1,冷静,material/24.png,1,material/124.png,理智,1,j,j,j,2,2,2,冷静,,,,,,,,,0,48,48,23,0,0,0,0,,,,,,,f,0,2.59189200401,f,1,1.05857086182,moral_self_bias,10,19,60.0491926732,f,001,2018_Apr_02_1359,
,,,,,,,,,,,,,,,,,,,,,,material/124.png,1,冷静,material/24.png,1,material/124.png,理智,1,j,j,j,2,2,2,冷静,,,,,,,,,0,48,48,23,,,,,,,,,,,,,,,,,moral_self_bias,10,19,60.0491926732,f,001,2018_Apr_02_1359,
,,,,,,,,,,,,,,,,,,,,,,material/62.png,1,坚韧,material/162.png,1,material/62.png,敬业,1,f,f,f,1,1,1,坚韧,,,,,,,,,0,49,49,141,,,,,,,,,,,j,0,1.47465991974,,,,moral_self_bias,10,19,60.0491926732,f,001,2018_Apr_02_1359,
,,,,,,,,,,,,,,,,,,,,,,material/183.png,2,颓废,material/182.png,2,material/79.png,才尽,2,f,f,f,2,2,2,薄弱,,,,,,,,,0,50,50,161,,,,,,,,,,,j,0,0.842007160187,,,,moral_self_bias,10,19,60.0491926732,f,001,2018_Apr_02_1359,
,,,,,,,,,,,,,,,,,,,,,,material/156.png,2,愚钝,material/56.png,2,material/156.png,愚昧,2,j,j,j,2,2,2,愚钝,,,,,,,,,0,51,51,55,0,0,0,0,,,,,,,f,0,0.854880094528,j,0,0.64180803299,moral_self_bias,10,19,60.0491926732,f,001,2018_Apr_02_1359,
,,,,,,,,,,,,,,,,,,,,,,material/156.png,2,愚钝,material/56.png,2,material/156.png,愚昧,2,j,j,j,2,2,2,愚钝,,,,,,,,,0,51,51,55,,,,,,,,,,,,,,,,,moral_self_bias,10,19,60.0491926732,f,001,2018_Apr_02_1359,
,,,,,,,,,,,,,,,,,,,,,,material/29.png,1,好学,material/129.png,1,material/29.png,好问,1,f,f,f,2,2,2,好学,,,,,,,,,0,52,52,108,0,0,0,0,,,,,,,f,1,4.20541906357,f,1,0.555199861526,moral_self_bias,10,19,60.0491926732,f,001,2018_Apr_02_1359,
,,,,,,,,,,,,,,,,,,,,,,material/29.png,1,好学,material/129.png,1,material/29.png,好问,1,f,f,f,2,2,2,好学,,,,,,,,,0,52,52,108,,,,,,,,,,,,,,,,,moral_self_bias,10,19,60.0491926732,f,001,2018_Apr_02_1359,
,,,,,,,,,,,,,,,,,,,,,,material/153.png,2,迟钝,material/53.png,2,material/153.png,迟缓,2,j,j,j,2,2,2,迟钝,,,,,,,,,0,53,53,52,0,0,0,0,,,,,,,f,0,1.73771095276,f,1,0.207935094833,moral_self_bias,10,19,60.0491926732,f,001,2018_Apr_02_1359,
,,,,,,,,,,,,,,,,,,,,,,material/153.png,2,迟钝,material/53.png,2,material/153.png,迟缓,2,j,j,j,2,2,2,迟钝,,,,,,,,,0,53,53,52,,,,,,,,,,,,,,,,,moral_self_bias,10,19,60.0491926732,f,001,2018_Apr_02_1359,
,,,,,,,,,,,,,,,,,,,,,,material/171.png,1,高效,material/67.png,1,material/171.png,骁勇,1,j,j,j,2,2,2,高效,,,,,,,,,0,54,54,65,0,0,0,0,,,,,,,f,0,0.632524013519,f,1,0.191004991531,moral_self_bias,10,19,60.0491926732,f,001,2018_Apr_02_1359,
,,,,,,,,,,,,,,,,,,,,,,material/171.png,1,高效,material/67.png,1,material/171.png,骁勇,1,j,j,j,2,2,2,高效,,,,,,,,,0,54,54,65,,,,,,,,,,,,,,,,,moral_self_bias,10,19,60.0491926732,f,001,2018_Apr_02_1359,
,,,,,,,,,,,,,,,,,,,,,,material/5.png,1,诚信,material/105.png,1,material/105.png,诚信,1,f,f,f,1,1,1,守信,,,,,,,,,0,55,55,84,0,0,0,0,,,,,,,f,1,0.575062990189,f,1,0.207831144333,moral_self_bias,10,19,60.0491926732,f,001,2018_Apr_02_1359,
,,,,,,,,,,,,,,,,,,,,,,material/5.png,1,诚信,material/105.png,1,material/105.png,诚信,1,f,f,f,1,1,1,守信,,,,,,,,,0,55,55,84,,,,,,,,,,,,,,,,,moral_self_bias,10,19,60.0491926732,f,001,2018_Apr_02_1359,
,,,,,,,,,,,,,,,,,,,,,,material/42.png,2,奸诈,material/142.png,2,material/142.png,奸诈,2,f,f,f,1,1,1,阴险,,,,,,,,,0,56,56,121,,,,,,,,,,,j,0,0.823778152466,,,,moral_self_bias,10,19,60.0491926732,f,001,2018_Apr_02_1359,
,,,,,,,,,,,,,,,,,,,,,,material/158.png,2,浅薄,material/58.png,2,material/158.png,肤浅,2,j,j,j,2,2,2,浅薄,,,,,,,,,0,57,57,57,,,,,,,,,,,j,1,1.92450523376,,,,moral_self_bias,10,19,60.0491926732,f,001,2018_Apr_02_1359,
,,,,,,,,,,,,,,,,,,,,,,material/38.png,2,缺德,material/138.png,2,material/138.png,缺德,2,f,f,f,1,1,1,无德,,,,,,,,,0,58,58,117,0,0,0,0,,,,,,,f,1,1.10031509399,j,0,0.125582933426,moral_self_bias,10,19,60.0491926732,f,001,2018_Apr_02_1359,
,,,,,,,,,,,,,,,,,,,,,,material/38.png,2,缺德,material/138.png,2,material/138.png,缺德,2,f,f,f,1,1,1,无德,,,,,,,,,0,58,58,117,,,,,,,,,,,,,,,,,moral_self_bias,10,19,60.0491926732,f,001,2018_Apr_02_1359,
,,,,,,,,,,,,,,,,,,,,,,material/181.png,2,怠惰,material/180.png,2,material/180.png,怠惰,2,f,f,f,2,2,2,犹豫,,,,,,,,,0,59,59,159,,,,,,,,,,,j,0,1.14171600342,,,,moral_self_bias,10,19,60.0491926732,f,001,2018_Apr_02_1359,
,,,,,,,,,,,,,,,,,,,,,,material/18.png,1,敏锐,material/118.png,1,material/18.png,机敏,1,f,f,f,2,2,2,敏锐,,,,,,,,,0,60,60,97,,,,,,,,,,,j,0,2.54160809517,,,,moral_self_bias,10,19,60.0491926732,f,001,2018_Apr_02_1359,
,,,,,,,,,,,,,,,,,,,,,,material/13.png,1,廉明,material/113.png,1,material/113.png,廉明,1,f,f,f,1,1,1,廉洁,,,,,,,,,0,61,61,92,0,0,0,0,,,,,,,f,1,0.808021068573,f,1,0.34196305275,moral_self_bias,10,19,60.0491926732,f,001,2018_Apr_02_1359,
,,,,,,,,,,,,,,,,,,,,,,material/13.png,1,廉明,material/113.png,1,material/113.png,廉明,1,f,f,f,1,1,1,廉洁,,,,,,,,,0,61,61,92,,,,,,,,,,,,,,,,,moral_self_bias,10,19,60.0491926732,f,001,2018_Apr_02_1359,
,,,,,,,,,,,,,,,,,,,,,,material/130.png,1,进取,material/30.png,1,material/130.png,上进,1,j,j,j,2,2,2,进取,,,,,,,,,0,62,62,29,0,0,0,0,,,,,,,f,0,0.608513832092,f,1,0.184810876846,moral_self_bias,10,19,60.0491926732,f,001,2018_Apr_02_1359,
,,,,,,,,,,,,,,,,,,,,,,material/130.png,1,进取,material/30.png,1,material/130.png,上进,1,j,j,j,2,2,2,进取,,,,,,,,,0,62,62,29,,,,,,,,,,,,,,,,,moral_self_bias,10,19,60.0491926732,f,001,2018_Apr_02_1359,
,,,,,,,,,,,,,,,,,,,,,,material/105.png,1,守信,material/5.png,1,material/5.png,守信,1,j,j,j,1,1,1,诚信,,,,,,,,,0,63,63,4,0,0,0,0,,,,,,,f,0,0.457529067993,f,1,0.191911935806,moral_self_bias,10,19,60.0491926732,f,001,2018_Apr_02_1359,
,,,,,,,,,,,,,,,,,,,,,,material/105.png,1,守信,material/5.png,1,material/5.png,守信,1,j,j,j,1,1,1,诚信,,,,,,,,,0,63,63,4,,,,,,,,,,,,,,,,,moral_self_bias,10,19,60.0491926732,f,001,2018_Apr_02_1359,
,,,,,,,,,,,,,,,,,,,,,,material/142.png,2,阴险,material/42.png,2,material/42.png,阴险,2,j,j,j,1,1,1,奸诈,,,,,,,,,0,64,64,41,,,,,,,,,,,j,1,0.891618013382,,,,moral_self_bias,10,19,60.0491926732,f,001,2018_Apr_02_1359,
,,,,,,,,,,,,,,,,,,,,,,material/67.png,1,骁勇,material/70.png,1,material/67.png,全面,1,j,j,j,2,2,2,骁勇,,,,,,,,,0,65,65,67,0,0,0,0,,,,,,,f,0,1.87504696846,f,1,0.258749961853,moral_self_bias,10,19,60.0491926732,f,001,2018_Apr_02_1359,
,,,,,,,,,,,,,,,,,,,,,,material/67.png,1,骁勇,material/70.png,1,material/67.png,全面,1,j,j,j,2,2,2,骁勇,,,,,,,,,0,65,65,67,,,,,,,,,,,,,,,,,moral_self_bias,10,19,60.0491926732,f,001,2018_Apr_02_1359,
,,,,,,,,,,,,,,,,,,,,,,material/115.png,1,清白,material/15.png,1,material/15.png,清白,1,j,j,j,1,1,1,纯洁,,,,,,,,,0,66,66,14,0,0,0,0,,,,,,,f,0,0.858052968979,f,1,0.19238114357,moral_self_bias,10,19,60.0491926732,f,001,2018_Apr_02_1359,
,,,,,,,,,,,,,,,,,,,,,,material/115.png,1,清白,material/15.png,1,material/15.png,清白,1,j,j,j,1,1,1,纯洁,,,,,,,,,0,66,66,14,,,,,,,,,,,,,,,,,moral_self_bias,10,19,60.0491926732,f,001,2018_Apr_02_1359,
,,,,,,,,,,,,,,,,,,,,,,material/7.png,1,公平,material/107.png,1,material/107.png,公平,1,f,f,f,1,1,1,公正,,,,,,,,,0,67,67,86,0,0,0,0,,,,,,,f,1,0.616979122162,f,1,0.174232006073,moral_self_bias,10,19,60.0491926732,f,001,2018_Apr_02_1359,
,,,,,,,,,,,,,,,,,,,,,,material/7.png,1,公平,material/107.png,1,material/107.png,公平,1,f,f,f,1,1,1,公正,,,,,,,,,0,67,67,86,,,,,,,,,,,,,,,,,moral_self_bias,10,19,60.0491926732,f,001,2018_Apr_02_1359,
,,,,,,,,,,,,,,,,,,,,,,material/120.png,1,能干,material/20.png,1,material/120.png,厉害,1,j,j,j,2,2,2,能干,,,,,,,,,0,68,68,19,0,0,0,0,,,,,,,f,0,0.608373880386,f,1,0.175632953644,moral_self_bias,10,19,60.0491926732,f,001,2018_Apr_02_1359,
,,,,,,,,,,,,,,,,,,,,,,material/120.png,1,能干,material/20.png,1,material/120.png,厉害,1,j,j,j,2,2,2,能干,,,,,,,,,0,68,68,19,,,,,,,,,,,,,,,,,moral_self_bias,10,19,60.0491926732,f,001,2018_Apr_02_1359,
,,,,,,,,,,,,,,,,,,,,,,material/178.png,2,窝囊,material/82.png,2,material/82.png,窝囊,2,j,j,j,2,2,2,毛糙,,,,,,,,,0,69,69,78,,,,,,,,,,,j,1,1.46725201607,,,,moral_self_bias,10,19,60.0491926732,f,001,2018_Apr_02_1359,
,,,,,,,,,,,,,,,,,,,,,,material/23.png,1,有才,material/123.png,1,material/23.png,多才,1,f,f,f,2,2,2,有才,,,,,,,,,0,70,70,102,0,0,0,0,,,,,,,f,1,0.733824014664,f,1,0.175028085709,moral_self_bias,10,19,60.0491926732,f,001,2018_Apr_02_1359,
,,,,,,,,,,,,,,,,,,,,,,material/23.png,1,有才,material/123.png,1,material/23.png,多才,1,f,f,f,2,2,2,有才,,,,,,,,,0,70,70,102,,,,,,,,,,,,,,,,,moral_self_bias,10,19,60.0491926732,f,001,2018_Apr_02_1359,
,,,,,,,,,,,,,,,,,,,,,,material/11.png,1,高尚,material/111.png,1,material/111.png,高尚,1,f,f,f,1,1,1,高雅,,,,,,,,,0,71,71,90,0,0,0,0,,,,,,,f,1,0.642421960831,f,1,0.190749883652,moral_self_bias,10,19,60.0491926732,f,001,2018_Apr_02_1359,
,,,,,,,,,,,,,,,,,,,,,,material/11.png,1,高尚,material/111.png,1,material/111.png,高尚,1,f,f,f,1,1,1,高雅,,,,,,,,,0,71,71,90,,,,,,,,,,,,,,,,,moral_self_bias,10,19,60.0491926732,f,001,2018_Apr_02_1359,
,,,,,,,,,,,,,,,,,,,,,,material/148.png,2,笨蛋,material/48.png,2,material/148.png,愚蠢,2,j,j,j,2,2,2,笨蛋,,,,,,,,,0,72,72,47,,,,,,,,,,,j,1,0.742069005966,,,,moral_self_bias,10,19,60.0491926732,f,001,2018_Apr_02_1359,
,,,,,,,,,,,,,,,,,,,,,,material/1.png,1,博爱,material/101.png,1,material/101.png,博爱,1,f,f,f,1,1,1,善良,,,,,,,,,0,73,73,80,0,0,0,0,,,,,,,f,1,0.725300073624,f,1,0.174174070358,moral_self_bias,10,19,60.0491926732,f,001,2018_Apr_02_1359,
,,,,,,,,,,,,,,,,,,,,,,material/1.png,1,博爱,material/101.png,1,material/101.png,博爱,1,f,f,f,1,1,1,善良,,,,,,,,,0,73,73,80,,,,,,,,,,,,,,,,,moral_self_bias,10,19,60.0491926732,f,001,2018_Apr_02_1359,
,,,,,,,,,,,,,,,,,,,,,,material/116.png,1,机智,material/16.png,1,material/116.png,睿智,1,j,j,j,2,2,2,机智,,,,,,,,,0,74,74,15,0,0,0,0,,,,,,,f,0,0.956930875778,f,1,0.192203998566,moral_self_bias,10,19,60.0491926732,f,001,2018_Apr_02_1359,
,,,,,,,,,,,,,,,,,,,,,,material/116.png,1,机智,material/16.png,1,material/116.png,睿智,1,j,j,j,2,2,2,机智,,,,,,,,,0,74,74,15,,,,,,,,,,,,,,,,,moral_self_bias,10,19,60.0491926732,f,001,2018_Apr_02_1359,
,,,,,,,,,,,,,,,,,,,,,,material/2.png,1,爱心,material/102.png,1,material/102.png,爱心,1,f,f,f,1,1,1,善心,,,,,,,,,0,75,75,81,0,0,0,0,,,,,,,f,1,0.525102853775,f,1,0.191380977631,moral_self_bias,10,19,60.0491926732,f,001,2018_Apr_02_1359,
,,,,,,,,,,,,,,,,,,,,,,material/2.png,1,爱心,material/102.png,1,material/102.png,爱心,1,f,f,f,1,1,1,善心,,,,,,,,,0,75,75,81,,,,,,,,,,,,,,,,,moral_self_bias,10,19,60.0491926732,f,001,2018_Apr_02_1359,
,,,,,,,,,,,,,,,,,,,,,,material/48.png,2,愚蠢,material/148.png,2,material/48.png,笨蛋,2,f,f,f,2,2,2,愚蠢,,,,,,,,,0,76,76,127,,,,,,,,,,,j,0,0.808573007584,,,,moral_self_bias,10,19,60.0491926732,f,001,2018_Apr_02_1359,
,,,,,,,,,,,,,,,,,,,,,,material/127.png,1,超群,material/27.png,1,material/127.png,卓越,1,j,j,j,2,2,2,超群,,,,,,,,,0,77,77,26,0,0,0,0,,,,,,,f,0,0.700731039047,f,1,0.191221952438,moral_self_bias,10,19,60.0491926732,f,001,2018_Apr_02_1359,
,,,,,,,,,,,,,,,,,,,,,,material/127.png,1,超群,material/27.png,1,material/127.png,卓越,1,j,j,j,2,2,2,超群,,,,,,,,,0,77,77,26,,,,,,,,,,,,,,,,,moral_self_bias,10,19,60.0491926732,f,001,2018_Apr_02_1359,
,,,,,,,,,,,,,,,,,,,,,,material/184.png,2,草率,material/80.png,2,material/78.png,健忘,2,j,j,j,2,2,2,厌学,,,,,,,,,0,78,78,76,,,,,,,,,,,j,1,0.841850042343,,,,moral_self_bias,10,19,60.0491926732,f,001,2018_Apr_02_1359,
,,,,,,,,,,,,,,,,,,,,,,material/6.png,1,厚道,material/106.png,1,material/106.png,厚道,1,f,f,f,1,1,1,诚实,,,,,,,,,0,79,79,85,0,0,0,0,,,,,,,f,1,1.44176197052,f,1,0.475485086441,moral_self_bias,10,19,60.0491926732,f,001,2018_Apr_02_1359,
,,,,,,,,,,,,,,,,,,,,,,material/6.png,1,厚道,material/106.png,1,material/106.png,厚道,1,f,f,f,1,1,1,诚实,,,,,,,,,0,79,79,85,,,,,,,,,,,,,,,,,moral_self_bias,10,19,60.0491926732,f,001,2018_Apr_02_1359,
,,,,,,,,,,,,,,,,,,,,,,material/107.png,1,公正,material/7.png,1,material/7.png,公正,1,j,j,j,1,1,1,公平,,,,,,,,,0,80,80,6,0,0,0,0,,,,,,,f,0,0.540795087814,f,1,0.209255933762,moral_self_bias,10,19,60.0491926732,f,001,2018_Apr_02_1359,
,,,,,,,,,,,,,,,,,,,,,,material/107.png,1,公正,material/7.png,1,material/7.png,公正,1,j,j,j,1,1,1,公平,,,,,,,,,0,80,80,6,,,,,,,,,,,,,,,,,moral_self_bias,10,19,60.0491926732,f,001,2018_Apr_02_1359,
,,,,,,,,,,,,,,,,,,,,,,material/104.png,1,友爱,material/4.png,1,material/4.png,友爱,1,j,j,j,1,1,1,友善,,,,,,,,,0,81,81,3,0,0,0,0,,,,,,,f,0,0.641351938248,f,1,0.192103147507,moral_self_bias,10,19,60.0491926732,f,001,2018_Apr_02_1359,
,,,,,,,,,,,,,,,,,,,,,,material/104.png,1,友爱,material/4.png,1,material/4.png,友爱,1,j,j,j,1,1,1,友善,,,,,,,,,0,81,81,3,,,,,,,,,,,,,,,,,moral_self_bias,10,19,60.0491926732,f,001,2018_Apr_02_1359,
,,,,,,,,,,,,,,,,,,,,,,material/58.png,2,肤浅,material/158.png,2,material/58.png,浅薄,2,f,f,f,2,2,2,肤浅,,,,,,,,,0,82,82,137,,,,,,,,,,,j,0,1.62401008606,,,,moral_self_bias,10,19,60.0491926732,f,001,2018_Apr_02_1359,
,,,,,,,,,,,,,,,,,,,,,,material/162.png,1,敬业,material/62.png,1,material/162.png,坚韧,1,j,j,j,1,1,1,敬业,,,,,,,,,0,83,83,61,0,0,0,0,,,,,,,f,0,1.14143800735,f,1,0.557718992233,moral_self_bias,10,19,60.0491926732,f,001,2018_Apr_02_1359,
,,,,,,,,,,,,,,,,,,,,,,material/162.png,1,敬业,material/62.png,1,material/162.png,坚韧,1,j,j,j,1,1,1,敬业,,,,,,,,,0,83,83,61,,,,,,,,,,,,,,,,,moral_self_bias,10,19,60.0491926732,f,001,2018_Apr_02_1359,
,,,,,,,,,,,,,,,,,,,,,,material/111.png,1,高雅,material/11.png,1,material/11.png,高雅,1,j,j,j,1,1,1,高尚,,,,,,,,,0,84,84,10,,,,,,,,,,,j,1,2.32468104362,,,,moral_self_bias,10,19,60.0491926732,f,001,2018_Apr_02_1359,
,,,,,,,,,,,,,,,,,,,,,,material/83.png,2,差生,material/78.png,2,material/179.png,草率,2,j,j,j,2,2,2,呆笨,,,,,,,,,0,85,85,74,,,,,,,,,,,j,1,1.12544894218,,,,moral_self_bias,10,19,60.0491926732,f,001,2018_Apr_02_1359,
,,,,,,,,,,,,,,,,,,,,,,material/64.png,1,谦虚,material/165.png,1,material/65.png,独立,1,f,f,f,1,1,1,奉献,,,,,,,,,0,86,86,144,0,0,0,0,,,,,,,f,1,0.908000946045,j,0,0.573694944382,moral_self_bias,10,19,60.0491926732,f,001,2018_Apr_02_1359,
,,,,,,,,,,,,,,,,,,,,,,material/64.png,1,谦虚,material/165.png,1,material/65.png,独立,1,f,f,f,1,1,1,奉献,,,,,,,,,0,86,86,144,,,,,,,,,,,,,,,,,moral_self_bias,10,19,60.0491926732,f,001,2018_Apr_02_1359,
,,,,,,,,,,,,,,,,,,,,,,material/132.png,2,不忠,material/32.png,2,material/32.png,不忠,2,j,j,j,1,1,1,背叛,,,,,,,,,0,87,87,31,0,0,0,0,,,,,,,f,0,1.6743118763,f,1,0.38924407959,moral_self_bias,10,19,60.0491926732,f,001,2018_Apr_02_1359,
,,,,,,,,,,,,,,,,,,,,,,material/132.png,2,不忠,material/32.png,2,material/32.png,不忠,2,j,j,j,1,1,1,背叛,,,,,,,,,0,87,87,31,,,,,,,,,,,,,,,,,moral_self_bias,10,19,60.0491926732,f,001,2018_Apr_02_1359,
,,,,,,,,,,,,,,,,,,,,,,material/81.png,2,呆笨,material/179.png,2,material/83.png,差生,2,f,f,f,2,2,2,无助,,,,,,,,,0,88,88,158,,,,,,,,,,,j,0,3.25555586815,,,,moral_self_bias,10,19,60.0491926732,f,001,2018_Apr_02_1359,
,,,,,,,,,,,,,,,,,,,,,,material/72.png,2,软弱,material/77.png,2,material/77.png,软弱,2,j,j,j,1,1,1,谄媚,,,,,,,,,0,89,89,73,0,0,0,0,,,,,,,f,0,2.05014896393,j,0,1.19163298607,moral_self_bias,10,19,60.0491926732,f,001,2018_Apr_02_1359,
,,,,,,,,,,,,,,,,,,,,,,material/72.png,2,软弱,material/77.png,2,material/77.png,软弱,2,j,j,j,1,1,1,谄媚,,,,,,,,,0,89,89,73,,,,,,,,,,,,,,,,,moral_self_bias,10,19,60.0491926732,f,001,2018_Apr_02_1359,
,,,,,,,,,,,,,,,,,,,,,,material/136.png,2,说谎,material/36.png,2,material/36.png,说谎,2,j,j,j,1,1,1,撒谎,,,,,,,,,0,90,90,35,0,0,0,0,,,,,,,f,0,0.90838098526,f,1,0.225837945938,moral_self_bias,10,19,60.0491926732,f,001,2018_Apr_02_1359,
,,,,,,,,,,,,,,,,,,,,,,material/136.png,2,说谎,material/36.png,2,material/36.png,说谎,2,j,j,j,1,1,1,撒谎,,,,,,,,,0,90,90,35,,,,,,,,,,,,,,,,,moral_self_bias,10,19,60.0491926732,f,001,2018_Apr_02_1359,
,,,,,,,,,,,,,,,,,,,,,,material/17.png,1,聪明,material/117.png,1,material/17.png,聪颖,1,f,f,f,2,2,2,聪明,,,,,,,,,0,91,91,96,0,0,0,0,,,,,,,f,1,0.633621931076,f,1,0.191338062286,moral_self_bias,10,19,60.0491926732,f,001,2018_Apr_02_1359,
,,,,,,,,,,,,,,,,,,,,,,material/17.png,1,聪明,material/117.png,1,material/17.png,聪颖,1,f,f,f,2,2,2,聪明,,,,,,,,,0,91,91,96,,,,,,,,,,,,,,,,,moral_self_bias,10,19,60.0491926732,f,001,2018_Apr_02_1359,
,,,,,,,,,,,,,,,,,,,,,,material/9.png,1,正直,material/109.png,1,material/109.png,正直,1,f,f,f,1,1,1,秉直,,,,,,,,,0,92,92,88,0,0,0,0,,,,,,,f,1,0.57541012764,f,1,0.191512823105,moral_self_bias,10,19,60.0491926732,f,001,2018_Apr_02_1359,
,,,,,,,,,,,,,,,,,,,,,,material/9.png,1,正直,material/109.png,1,material/109.png,正直,1,f,f,f,1,1,1,秉直,,,,,,,,,0,92,92,88,,,,,,,,,,,,,,,,,moral_self_bias,10,19,60.0491926732,f,001,2018_Apr_02_1359,
,,,,,,,,,,,,,,,,,,,,,,material/161.png,1,奉献,material/164.png,1,material/64.png,孝顺,1,f,f,f,1,1,1,勇敢,,,,,,,,,0,93,93,143,0,0,0,0,,,,,,,f,1,1.35754489899,f,1,0.208770990372,moral_self_bias,10,19,60.0491926732,f,001,2018_Apr_02_1359,
,,,,,,,,,,,,,,,,,,,,,,material/161.png,1,奉献,material/164.png,1,material/64.png,孝顺,1,f,f,f,1,1,1,勇敢,,,,,,,,,0,93,93,143,,,,,,,,,,,,,,,,,moral_self_bias,10,19,60.0491926732,f,001,2018_Apr_02_1359,
,,,,,,,,,,,,,,,,,,,,,,material/152.png,2,缓慢,material/52.png,2,material/152.png,拖延,2,j,j,j,2,2,2,缓慢,,,,,,,,,0,94,94,51,0,0,0,0,,,,,,,f,0,1.05717682838,f,1,0.184064149857,moral_self_bias,10,19,60.0491926732,f,001,2018_Apr_02_1359,
,,,,,,,,,,,,,,,,,,,,,,material/152.png,2,缓慢,material/52.png,2,material/152.png,拖延,2,j,j,j,2,2,2,缓慢,,,,,,,,,0,94,94,51,,,,,,,,,,,,,,,,,moral_self_bias,10,19,60.0491926732,f,001,2018_Apr_02_1359,
,,,,,,,,,,,,,,,,,,,,,,material/8.png,1,无私,material/108.png,1,material/108.png,无私,1,f,f,f,1,1,1,公道,,,,,,,,,0,95,95,87,0,0,0,0,,,,,,,f,1,0.924565076828,f,1,0.192356109619,moral_self_bias,10,19,60.0491926732,f,001,2018_Apr_02_1359,
,,,,,,,,,,,,,,,,,,,,,,material/8.png,1,无私,material/108.png,1,material/108.png,无私,1,f,f,f,1,1,1,公道,,,,,,,,,0,95,95,87,,,,,,,,,,,,,,,,,moral_self_bias,10,19,60.0491926732,f,001,2018_Apr_02_1359,
,,,,,,,,,,,,,,,,,,,,,,material/52.png,2,拖延,material/152.png,2,material/52.png,缓慢,2,f,f,f,2,2,2,拖延,,,,,,,,,0,96,96,131,0,0,0,0,,,,,,,f,1,0.858117818832,f,1,0.192384958267,moral_self_bias,10,19,60.0491926732,f,001,2018_Apr_02_1359,
,,,,,,,,,,,,,,,,,,,,,,material/52.png,2,拖延,material/152.png,2,material/52.png,缓慢,2,f,f,f,2,2,2,拖延,,,,,,,,,0,96,96,131,,,,,,,,,,,,,,,,,moral_self_bias,10,19,60.0491926732,f,001,2018_Apr_02_1359,
,,,,,,,,,,,,,,,,,,,,,,material/154.png,2,依靠,material/54.png,2,material/154.png,依赖,2,j,j,j,2,2,2,依靠,,,,,,,,,0,97,97,53,0,0,0,0,,,,,,,f,0,0.508965969086,f,1,0.208994865417,moral_self_bias,10,19,60.0491926732,f,001,2018_Apr_02_1359,
,,,,,,,,,,,,,,,,,,,,,,material/154.png,2,依靠,material/54.png,2,material/154.png,依赖,2,j,j,j,2,2,2,依靠,,,,,,,,,0,97,97,53,,,,,,,,,,,,,,,,,moral_self_bias,10,19,60.0491926732,f,001,2018_Apr_02_1359,
,,,,,,,,,,,,,,,,,,,,,,material/54.png,2,依赖,material/154.png,2,material/54.png,依靠,2,f,f,f,2,2,2,依赖,,,,,,,,,0,98,98,133,0,0,0,0,,,,,,,f,1,0.499625921249,f,1,0.174705028534,moral_self_bias,10,19,60.0491926732,f,001,2018_Apr_02_1359,
,,,,,,,,,,,,,,,,,,,,,,material/54.png,2,依赖,material/154.png,2,material/54.png,依靠,2,f,f,f,2,2,2,依赖,,,,,,,,,0,98,98,133,,,,,,,,,,,,,,,,,moral_self_bias,10,19,60.0491926732,f,001,2018_Apr_02_1359,
,,,,,,,,,,,,,,,,,,,,,,material/80.png,2,才尽,material/83.png,2,material/182.png,呆笨,2,j,j,j,2,2,2,健忘,,,,,,,,,0,99,99,79,,,,,,,,,,,j,1,1.39031100273,,,,moral_self_bias,10,19,60.0491926732,f,001,2018_Apr_02_1359,
,,,,,,,,,,,,,,,,,,,,,,material/66.png,1,独立,material/66.png,1,material/165.png,正义,1,f,f,f,1,1,1,正义,,,,,,,,,0,100,100,164,0,0,0,0,,,,,,,f,1,1.10784196854,f,1,0.184487104416,moral_self_bias,10,19,60.0491926732,f,001,2018_Apr_02_1359,
,,,,,,,,,,,,,,,,,,,,,,material/66.png,1,独立,material/66.png,1,material/165.png,正义,1,f,f,f,1,1,1,正义,,,,,,,,,0,100,100,164,,,,,,,,,,,,,,,,,moral_self_bias,10,19,60.0491926732,f,001,2018_Apr_02_1359,
,,,,,,,,,,,,,,,,,,,,,,material/137.png,2,无耻,material/37.png,2,material/37.png,无耻,2,j,j,j,1,1,1,卑鄙,,,,,,,,,0,101,101,36,0,0,0,0,,,,,,,f,0,1.47456598282,f,1,0.225374937057,moral_self_bias,10,19,60.0491926732,f,001,2018_Apr_02_1359,
,,,,,,,,,,,,,,,,,,,,,,material/137.png,2,无耻,material/37.png,2,material/37.png,无耻,2,j,j,j,1,1,1,卑鄙,,,,,,,,,0,101,101,36,,,,,,,,,,,,,,,,,moral_self_bias,10,19,60.0491926732,f,001,2018_Apr_02_1359,
,,,,,,,,,,,,,,,,,,,,,,material/78.png,2,厌学,material/181.png,2,material/184.png,犹豫,2,f,f,f,2,2,2,草率,,,,,,,,,0,102,102,160,0,0,0,0,,,,,,,f,1,0.558568000793,f,1,0.274507045746,moral_self_bias,10,19,60.0491926732,f,001,2018_Apr_02_1359,
,,,,,,,,,,,,,,,,,,,,,,material/78.png,2,厌学,material/181.png,2,material/184.png,犹豫,2,f,f,f,2,2,2,草率,,,,,,,,,0,102,102,160,,,,,,,,,,,,,,,,,moral_self_bias,10,19,60.0491926732,f,001,2018_Apr_02_1359,
,,,,,,,,,,,,,,,,,,,,,,material/43.png,2,虚荣,material/143.png,2,material/143.png,虚荣,2,f,f,f,1,1,1,拜金,,,,,,,,,0,103,103,122,0,0,0,0,,,,,,,f,1,0.81708407402,f,1,0.207754850388,moral_self_bias,10,19,60.0491926732,f,001,2018_Apr_02_1359,
,,,,,,,,,,,,,,,,,,,,,,material/43.png,2,虚荣,material/143.png,2,material/143.png,虚荣,2,f,f,f,1,1,1,拜金,,,,,,,,,0,103,103,122,,,,,,,,,,,,,,,,,moral_self_bias,10,19,60.0491926732,f,001,2018_Apr_02_1359,
,,,,,,,,,,,,,,,,,,,,,,material/40.png,2,狠毒,material/140.png,2,material/140.png,狠毒,2,f,f,f,1,1,1,邪恶,,,,,,,,,0,104,104,119,,,,,,,,,,,j,0,1.33454585075,,,,moral_self_bias,10,19,60.0491926732,f,001,2018_Apr_02_1359,
,,,,,,,,,,,,,,,,,,,,,,material/143.png,2,拜金,material/43.png,2,material/43.png,拜金,2,j,j,j,1,1,1,虚荣,,,,,,,,,0,105,105,42,,,,,,,,,,,j,1,1.15031194687,,,,moral_self_bias,10,19,60.0491926732,f,001,2018_Apr_02_1359,
,,,,,,,,,,,,,,,,,,,,,,material/28.png,1,克己,material/128.png,1,material/28.png,自律,1,f,f,f,2,2,2,克己,,,,,,,,,0,106,106,107,0,0,0,0,,,,,,,f,1,0.999529123306,f,1,0.158221960068,moral_self_bias,10,19,60.0491926732,f,001,2018_Apr_02_1359,
,,,,,,,,,,,,,,,,,,,,,,material/28.png,1,克己,material/128.png,1,material/28.png,自律,1,f,f,f,2,2,2,克己,,,,,,,,,0,106,106,107,,,,,,,,,,,,,,,,,moral_self_bias,10,19,60.0491926732,f,001,2018_Apr_02_1359,
,,,,,,,,,,,,,,,,,,,,,,material/4.png,1,友善,material/104.png,1,material/104.png,友善,1,f,f,f,1,1,1,友爱,,,,,,,,,0,107,107,83,0,0,0,0,,,,,,,f,1,0.466372966766,f,1,0.1745429039,moral_self_bias,10,19,60.0491926732,f,001,2018_Apr_02_1359,
,,,,,,,,,,,,,,,,,,,,,,material/4.png,1,友善,material/104.png,1,material/104.png,友善,1,f,f,f,1,1,1,友爱,,,,,,,,,0,107,107,83,,,,,,,,,,,,,,,,,moral_self_bias,10,19,60.0491926732,f,001,2018_Apr_02_1359,
,,,,,,,,,,,,,,,,,,,,,,material/73.png,2,恶心,material/177.png,2,material/177.png,恶心,2,f,f,f,1,1,1,残虐,,,,,,,,,0,108,108,156,,,,,,,,,,,j,0,0.824475049973,,,,moral_self_bias,10,19,60.0491926732,f,001,2018_Apr_02_1359,
,,,,,,,,,,,,,,,,,,,,,,material/138.png,2,无德,material/38.png,2,material/38.png,无德,2,j,j,j,1,1,1,缺德,,,,,,,,,0,109,109,37,0,0,0,0,,,,,,,f,0,0.583522081375,f,1,0.17441701889,moral_self_bias,10,19,60.0491926732,f,001,2018_Apr_02_1359,
,,,,,,,,,,,,,,,,,,,,,,material/138.png,2,无德,material/38.png,2,material/38.png,无德,2,j,j,j,1,1,1,缺德,,,,,,,,,0,109,109,37,,,,,,,,,,,,,,,,,moral_self_bias,10,19,60.0491926732,f,001,2018_Apr_02_1359,
,,,,,,,,,,,,,,,,,,,,,,material/45.png,2,小人,material/145.png,2,material/145.png,小人,2,f,f,f,1,1,1,下流,,,,,,,,,0,110,110,124,0,0,0,0,,,,,,,f,1,0.517503023148,f,1,0.157715082169,moral_self_bias,10,19,60.0491926732,f,001,2018_Apr_02_1359,
,,,,,,,,,,,,,,,,,,,,,,material/45.png,2,小人,material/145.png,2,material/145.png,小人,2,f,f,f,1,1,1,下流,,,,,,,,,0,110,110,124,,,,,,,,,,,,,,,,,moral_self_bias,10,19,60.0491926732,f,001,2018_Apr_02_1359,
,,,,,,,,,,,,,,,,,,,,,,material/168.png,1,机变,material/170.png,1,material/168.png,坚忍,1,f,f,f,2,2,2,机变,,,,,,,,,0,111,111,149,0,0,0,0,,,,,,,f,1,1.69123697281,f,1,0.191937923431,moral_self_bias,10,19,60.0491926732,f,001,2018_Apr_02_1359,
,,,,,,,,,,,,,,,,,,,,,,material/168.png,1,机变,material/170.png,1,material/168.png,坚忍,1,f,f,f,2,2,2,机变,,,,,,,,,0,111,111,149,,,,,,,,,,,,,,,,,moral_self_bias,10,19,60.0491926732,f,001,2018_Apr_02_1359,
,,,,,,,,,,,,,,,,,,,,,,material/131.png,1,笃行,material/31.png,1,material/131.png,笃学,1,j,j,j,2,2,2,笃行,,,,,,,,,0,112,112,30,0,0,0,0,,,,,,,f,0,0.72459602356,f,1,0.190465927124,moral_self_bias,10,19,60.0491926732,f,001,2018_Apr_02_1359,
,,,,,,,,,,,,,,,,,,,,,,material/131.png,1,笃行,material/31.png,1,material/131.png,笃学,1,j,j,j,2,2,2,笃行,,,,,,,,,0,112,112,30,,,,,,,,,,,,,,,,,moral_self_bias,10,19,60.0491926732,f,001,2018_Apr_02_1359,
,,,,,,,,,,,,,,,,,,,,,,material/60.png,2,粗拙,material/160.png,2,material/60.png,笨拙,2,f,f,f,2,2,2,粗拙,,,,,,,,,0,113,113,139,0,0,0,0,,,,,,,f,1,0.817110061646,f,1,0.172960042953,moral_self_bias,10,19,60.0491926732,f,001,2018_Apr_02_1359,
,,,,,,,,,,,,,,,,,,,,,,material/60.png,2,粗拙,material/160.png,2,material/60.png,笨拙,2,f,f,f,2,2,2,粗拙,,,,,,,,,0,113,113,139,,,,,,,,,,,,,,,,,moral_self_bias,10,19,60.0491926732,f,001,2018_Apr_02_1359,
,,,,,,,,,,,,,,,,,,,,,,material/32.png,2,背叛,material/132.png,2,material/132.png,背叛,2,f,f,f,1,1,1,不忠,,,,,,,,,0,114,114,111,0,0,0,0,,,,,,,f,1,2.40829515457,j,0,0.142523050308,moral_self_bias,10,19,60.0491926732,f,001,2018_Apr_02_1359,
,,,,,,,,,,,,,,,,,,,,,,material/32.png,2,背叛,material/132.png,2,material/132.png,背叛,2,f,f,f,1,1,1,不忠,,,,,,,,,0,114,114,111,,,,,,,,,,,,,,,,,moral_self_bias,10,19,60.0491926732,f,001,2018_Apr_02_1359,
,,,,,,,,,,,,,,,,,,,,,,material/113.png,1,廉洁,material/13.png,1,material/13.png,廉洁,1,j,j,j,1,1,1,廉明,,,,,,,,,0,115,115,12,0,0,0,0,,,,,,,f,0,2.52474594116,f,1,0.191694974899,moral_self_bias,10,19,60.0491926732,f,001,2018_Apr_02_1359,
,,,,,,,,,,,,,,,,,,,,,,material/113.png,1,廉洁,material/13.png,1,material/13.png,廉洁,1,j,j,j,1,1,1,廉明,,,,,,,,,0,115,115,12,,,,,,,,,,,,,,,,,moral_self_bias,10,19,60.0491926732,f,001,2018_Apr_02_1359,
,,,,,,,,,,,,,,,,,,,,,,material/82.png,2,毛糙,material/183.png,2,material/178.png,薄弱,2,f,f,f,2,2,2,窝囊,,,,,,,,,0,116,116,162,0,0,0,0,,,,,,,f,1,0.774468183517,j,0,0.125007867813,moral_self_bias,10,19,60.0491926732,f,001,2018_Apr_02_1359,
,,,,,,,,,,,,,,,,,,,,,,material/82.png,2,毛糙,material/183.png,2,material/178.png,薄弱,2,f,f,f,2,2,2,窝囊,,,,,,,,,0,116,116,162,,,,,,,,,,,,,,,,,moral_self_bias,10,19,60.0491926732,f,001,2018_Apr_02_1359,
,,,,,,,,,,,,,,,,,,,,,,material/117.png,1,聪颖,material/17.png,1,material/117.png,聪明,1,j,j,j,2,2,2,聪颖,,,,,,,,,0,117,117,16,0,0,0,0,,,,,,,f,0,1.39171004295,j,0,0.141940832138,moral_self_bias,10,19,60.0491926732,f,001,2018_Apr_02_1359,
,,,,,,,,,,,,,,,,,,,,,,material/117.png,1,聪颖,material/17.png,1,material/117.png,聪明,1,j,j,j,2,2,2,聪颖,,,,,,,,,0,117,117,16,,,,,,,,,,,,,,,,,moral_self_bias,10,19,60.0491926732,f,001,2018_Apr_02_1359,
,,,,,,,,,,,,,,,,,,,,,,material/150.png,2,鲁钝,material/50.png,2,material/150.png,愚笨,2,j,j,j,2,2,2,鲁钝,,,,,,,,,0,118,118,49,0,0,0,0,,,,,,,f,0,1.32394003868,j,0,0.125905990601,moral_self_bias,10,19,60.0491926732,f,001,2018_Apr_02_1359,
,,,,,,,,,,,,,,,,,,,,,,material/150.png,2,鲁钝,material/50.png,2,material/150.png,愚笨,2,j,j,j,2,2,2,鲁钝,,,,,,,,,0,118,118,49,,,,,,,,,,,,,,,,,moral_self_bias,10,19,60.0491926732,f,001,2018_Apr_02_1359,
,,,,,,,,,,,,,,,,,,,,,,material/114.png,1,爱国,material/14.png,1,material/14.png,爱国,1,j,j,j,1,1,1,忠贞,,,,,,,,,0,119,119,13,,,,,,,,,,,j,1,1.12448716164,,,,moral_self_bias,10,19,60.0491926732,f,001,2018_Apr_02_1359,
,,,,,,,,,,,,,,,,,,,,,,material/79.png,2,薄弱,material/81.png,2,material/183.png,无助,2,j,j,j,2,2,2,颓废,,,,,,,,,0,120,120,77,0,0,0,0,,,,,,,f,0,1.80807995796,j,0,0.142265796661,moral_self_bias,10,19,60.0491926732,f,001,2018_Apr_02_1359,
,,,,,,,,,,,,,,,,,,,,,,material/79.png,2,薄弱,material/81.png,2,material/183.png,无助,2,j,j,j,2,2,2,颓废,,,,,,,,,0,120,120,77,,,,,,,,,,,,,,,,,moral_self_bias,10,19,60.0491926732,f,001,2018_Apr_02_1359,
,,,,,,,,,,,,,,,,,,,,,,material/34.png,2,可恶,material/134.png,2,material/134.png,可恶,2,f,f,f,1,1,1,可恨,,,,,,,,,0,121,121,113,0,0,0,0,,,,,,,f,1,1.57460808754,j,0,0.108883857727,moral_self_bias,10,19,60.0491926732,f,001,2018_Apr_02_1359,
,,,,,,,,,,,,,,,,,,,,,,material/34.png,2,可恶,material/134.png,2,material/134.png,可恶,2,f,f,f,1,1,1,可恨,,,,,,,,,0,121,121,113,,,,,,,,,,,,,,,,,moral_self_bias,10,19,60.0491926732,f,001,2018_Apr_02_1359,
,,,,,,,,,,,,,,,,,,,,,,material/63.png,1,正义,material/166.png,1,material/66.png,仗义,1,f,f,f,1,1,1,文明,,,,,,,,,0,122,122,145,0,0,0,0,,,,,,,f,1,0.891627073288,f,1,0.183878183365,moral_self_bias,10,19,60.0491926732,f,001,2018_Apr_02_1359,
,,,,,,,,,,,,,,,,,,,,,,material/63.png,1,正义,material/166.png,1,material/66.png,仗义,1,f,f,f,1,1,1,文明,,,,,,,,,0,122,122,145,,,,,,,,,,,,,,,,,moral_self_bias,10,19,60.0491926732,f,001,2018_Apr_02_1359,
,,,,,,,,,,,,,,,,,,,,,,material/33.png,2,贪污,material/133.png,2,material/133.png,贪污,2,f,f,f,1,1,1,腐败,,,,,,,,,0,123,123,112,0,0,0,0,,,,,,,f,1,0.791230916977,j,0,0.142503023148,moral_self_bias,10,19,60.0491926732,f,001,2018_Apr_02_1359,
,,,,,,,,,,,,,,,,,,,,,,material/33.png,2,贪污,material/133.png,2,material/133.png,贪污,2,f,f,f,1,1,1,腐败,,,,,,,,,0,123,123,112,,,,,,,,,,,,,,,,,moral_self_bias,10,19,60.0491926732,f,001,2018_Apr_02_1359,
,,,,,,,,,,,,,,,,,,,,,,material/69.png,1,高明,material/69.png,1,material/69.png,高明,1,f,f,f,2,2,2,高明,,,,,,,,,0,124,124,166,0,0,0,0,,,,,,,f,1,0.573979854584,j,0,0.157931089401,moral_self_bias,10,19,60.0491926732,f,001,2018_Apr_02_1359,
,,,,,,,,,,,,,,,,,,,,,,material/69.png,1,高明,material/69.png,1,material/69.png,高明,1,f,f,f,2,2,2,高明,,,,,,,,,0,124,124,166,,,,,,,,,,,,,,,,,moral_self_bias,10,19,60.0491926732,f,001,2018_Apr_02_1359,
,,,,,,,,,,,,,,,,,,,,,,material/24.png,1,理智,material/124.png,1,material/24.png,冷静,1,f,f,f,2,2,2,理智,,,,,,,,,0,125,125,103,0,0,0,0,,,,,,,f,1,0.840153932571,f,1,0.174776077271,moral_self_bias,10,19,60.0491926732,f,001,2018_Apr_02_1359,
,,,,,,,,,,,,,,,,,,,,,,material/24.png,1,理智,material/124.png,1,material/24.png,冷静,1,f,f,f,2,2,2,理智,,,,,,,,,0,125,125,103,,,,,,,,,,,,,,,,,moral_self_bias,10,19,60.0491926732,f,001,2018_Apr_02_1359,
,,,,,,,,,,,,,,,,,,,,,,material/166.png,1,孝顺,material/64.png,1,material/164.png,奉献,1,j,j,j,1,1,1,仗义,,,,,,,,,0,126,126,63,0,0,0,0,,,,,,,f,0,0.608524084091,j,0,0.1256980896,moral_self_bias,10,19,60.0491926732,f,001,2018_Apr_02_1359,
,,,,,,,,,,,,,,,,,,,,,,material/166.png,1,孝顺,material/64.png,1,material/164.png,奉献,1,j,j,j,1,1,1,仗义,,,,,,,,,0,126,126,63,,,,,,,,,,,,,,,,,moral_self_bias,10,19,60.0491926732,f,001,2018_Apr_02_1359,
,,,,,,,,,,,,,,,,,,,,,,material/122.png,1,博学,material/22.png,1,material/122.png,才学,1,j,j,j,2,2,2,博学,,,,,,,,,0,127,127,21,0,0,0,0,,,,,,,f,0,0.55889582634,f,1,0.441443920135,moral_self_bias,10,19,60.0491926732,f,001,2018_Apr_02_1359,
,,,,,,,,,,,,,,,,,,,,,,material/122.png,1,博学,material/22.png,1,material/122.png,才学,1,j,j,j,2,2,2,博学,,,,,,,,,0,127,127,21,,,,,,,,,,,,,,,,,moral_self_bias,10,19,60.0491926732,f,001,2018_Apr_02_1359,
,,,,,,,,,,,,,,,,,,,,,,material/49.png,2,痴呆,material/149.png,2,material/49.png,白痴,2,f,f,f,2,2,2,痴呆,,,,,,,,,0,128,128,128,0,0,0,0,,,,,,,f,1,0.591456890106,j,0,0.608484983444,moral_self_bias,10,19,60.0491926732,f,001,2018_Apr_02_1359,
,,,,,,,,,,,,,,,,,,,,,,material/49.png,2,痴呆,material/149.png,2,material/49.png,白痴,2,f,f,f,2,2,2,痴呆,,,,,,,,,0,128,128,128,,,,,,,,,,,,,,,,,moral_self_bias,10,19,60.0491926732,f,001,2018_Apr_02_1359,
,,,,,,,,,,,,,,,,,,,,,,material/51.png,2,糊涂,material/151.png,2,material/51.png,迷糊,2,f,f,f,2,2,2,糊涂,,,,,,,,,0,129,129,130,0,0,0,0,,,,,,,f,1,1.87400889397,j,0,0.4083340168,moral_self_bias,10,19,60.0491926732,f,001,2018_Apr_02_1359,
,,,,,,,,,,,,,,,,,,,,,,material/51.png,2,糊涂,material/151.png,2,material/51.png,迷糊,2,f,f,f,2,2,2,糊涂,,,,,,,,,0,129,129,130,,,,,,,,,,,,,,,,,moral_self_bias,10,19,60.0491926732,f,001,2018_Apr_02_1359,
,,,,,,,,,,,,,,,,,,,,,,material/155.png,2,盲目,material/55.png,2,material/155.png,盲从,2,j,j,j,2,2,2,盲目,,,,,,,,,0,130,130,54,0,0,0,0,,,,,,,f,0,1.1590988636,j,0,0.274085998535,moral_self_bias,10,19,60.0491926732,f,001,2018_Apr_02_1359,
,,,,,,,,,,,,,,,,,,,,,,material/155.png,2,盲目,material/55.png,2,material/155.png,盲从,2,j,j,j,2,2,2,盲目,,,,,,,,,0,130,130,54,,,,,,,,,,,,,,,,,moral_self_bias,10,19,60.0491926732,f,001,2018_Apr_02_1359,
,,,,,,,,,,,,,,,,,,,,,,material/65.png,1,勇敢,material/61.png,1,material/161.png,平等,1,j,j,j,1,1,1,谦虚,,,,,,,,,0,131,131,60,0,0,0,0,,,,,,,f,0,0.858104944229,f,1,0.158234119415,moral_self_bias,10,19,60.0491926732,f,001,2018_Apr_02_1359,
,,,,,,,,,,,,,,,,,,,,,,material/65.png,1,勇敢,material/61.png,1,material/161.png,平等,1,j,j,j,1,1,1,谦虚,,,,,,,,,0,131,131,60,,,,,,,,,,,,,,,,,moral_self_bias,10,19,60.0491926732,f,001,2018_Apr_02_1359,
,,,,,,,,,,,,,,,,,,,,,,material/14.png,1,忠贞,material/114.png,1,material/114.png,忠贞,1,f,f,f,1,1,1,爱国,,,,,,,,,0,132,132,93,0,0,0,0,,,,,,,f,1,0.725315093994,f,1,0.608521223068,moral_self_bias,10,19,60.0491926732,f,001,2018_Apr_02_1359,
,,,,,,,,,,,,,,,,,,,,,,material/14.png,1,忠贞,material/114.png,1,material/114.png,忠贞,1,f,f,f,1,1,1,爱国,,,,,,,,,0,132,132,93,,,,,,,,,,,,,,,,,moral_self_bias,10,19,60.0491926732,f,001,2018_Apr_02_1359,
,,,,,,,,,,,,,,,,,,,,,,material/53.png,2,迟缓,material/153.png,2,material/53.png,迟钝,2,f,f,f,2,2,2,迟缓,,,,,,,,,0,133,133,132,0,0,0,0,,,,,,,f,1,1.1753320694,f,1,0.241874933243,moral_self_bias,10,19,60.0491926732,f,001,2018_Apr_02_1359,
,,,,,,,,,,,,,,,,,,,,,,material/53.png,2,迟缓,material/153.png,2,material/53.png,迟钝,2,f,f,f,2,2,2,迟缓,,,,,,,,,0,133,133,132,,,,,,,,,,,,,,,,,moral_self_bias,10,19,60.0491926732,f,001,2018_Apr_02_1359,
,,,,,,,,,,,,,,,,,,,,,,material/25.png,1,果断,material/125.png,1,material/25.png,果敢,1,f,f,f,2,2,2,果断,,,,,,,,,0,134,134,104,0,0,0,0,,,,,,,f,1,0.574908971786,f,1,0.191334962845,moral_self_bias,10,19,60.0491926732,f,001,2018_Apr_02_1359,
,,,,,,,,,,,,,,,,,,,,,,material/25.png,1,果断,material/125.png,1,material/25.png,果敢,1,f,f,f,2,2,2,果断,,,,,,,,,0,134,134,104,,,,,,,,,,,,,,,,,moral_self_bias,10,19,60.0491926732,f,001,2018_Apr_02_1359,
,,,,,,,,,,,,,,,,,,,,,,material/108.png,1,公道,material/8.png,1,material/8.png,公道,1,j,j,j,1,1,1,无私,,,,,,,,,0,135,135,7,0,0,0,0,,,,,,,f,0,0.57509803772,f,1,0.258164167404,moral_self_bias,10,19,60.0491926732,f,001,2018_Apr_02_1359,
,,,,,,,,,,,,,,,,,,,,,,material/108.png,1,公道,material/8.png,1,material/8.png,公道,1,j,j,j,1,1,1,无私,,,,,,,,,0,135,135,7,,,,,,,,,,,,,,,,,moral_self_bias,10,19,60.0491926732,f,001,2018_Apr_02_1359,
,,,,,,,,,,,,,,,,,,,,,,material/160.png,2,笨拙,material/60.png,2,material/160.png,粗拙,2,j,j,j,2,2,2,笨拙,,,,,,,,,0,136,136,59,0,0,0,0,,,,,,,f,0,0.708706140518,j,0,0.192178964615,moral_self_bias,10,19,60.0491926732,f,001,2018_Apr_02_1359,
,,,,,,,,,,,,,,,,,,,,,,material/160.png,2,笨拙,material/60.png,2,material/160.png,粗拙,2,j,j,j,2,2,2,笨拙,,,,,,,,,0,136,136,59,,,,,,,,,,,,,,,,,moral_self_bias,10,19,60.0491926732,f,001,2018_Apr_02_1359,
,,,,,,,,,,,,,,,,,,,,,,material/21.png,1,干练,material/121.png,1,material/21.png,精干,1,f,f,f,2,2,2,干练,,,,,,,,,0,137,137,100,0,0,0,0,,,,,,,f,1,1.30857801437,f,1,0.241926908493,moral_self_bias,10,19,60.0491926732,f,001,2018_Apr_02_1359,
,,,,,,,,,,,,,,,,,,,,,,material/21.png,1,干练,material/121.png,1,material/21.png,精干,1,f,f,f,2,2,2,干练,,,,,,,,,0,137,137,100,,,,,,,,,,,,,,,,,moral_self_bias,10,19,60.0491926732,f,001,2018_Apr_02_1359,
,,,,,,,,,,,,,,,,,,,,,,material/175.png,2,残虐,material/73.png,2,material/73.png,残虐,2,f,f,f,1,1,1,无情,,,,,,,,,0,138,138,165,0,0,0,0,,,,,,,f,1,0.991407871246,j,0,0.158921957016,moral_self_bias,10,19,60.0491926732,f,001,2018_Apr_02_1359,
,,,,,,,,,,,,,,,,,,,,,,material/175.png,2,残虐,material/73.png,2,material/73.png,残虐,2,f,f,f,1,1,1,无情,,,,,,,,,0,138,138,165,,,,,,,,,,,,,,,,,moral_self_bias,10,19,60.0491926732,f,001,2018_Apr_02_1359,
,,,,,,,,,,,,,,,,,,,,,,material/84.png,2,犹豫,material/84.png,2,material/181.png,顽愚,2,f,f,f,2,2,2,顽愚,,,,,,,,,0,139,139,167,0,0,0,0,,,,,,,f,1,2.25801610947,f,1,0.201196908951,moral_self_bias,10,19,60.0491926732,f,001,2018_Apr_02_1359,
,,,,,,,,,,,,,,,,,,,,,,material/84.png,2,犹豫,material/84.png,2,material/181.png,顽愚,2,f,f,f,2,2,2,顽愚,,,,,,,,,0,139,139,167,,,,,,,,,,,,,,,,,moral_self_bias,10,19,60.0491926732,f,001,2018_Apr_02_1359,
,,,,,,,,,,,,,,,,,,,,,,material/50.png,2,愚笨,material/150.png,2,material/50.png,鲁钝,2,f,f,f,2,2,2,愚笨,,,,,,,,,0,140,140,129,0,0,0,0,,,,,,,f,1,0.924587965012,j,0,0.175209999084,moral_self_bias,10,19,60.0491926732,f,001,2018_Apr_02_1359,
,,,,,,,,,,,,,,,,,,,,,,material/50.png,2,愚笨,material/150.png,2,material/50.png,鲁钝,2,f,f,f,2,2,2,愚笨,,,,,,,,,0,140,140,129,,,,,,,,,,,,,,,,,moral_self_bias,10,19,60.0491926732,f,001,2018_Apr_02_1359,
,,,,,,,,,,,,,,,,,,,,,,material/77.png,2,浮夸,material/172.png,2,material/172.png,浮夸,2,f,f,f,1,1,1,软弱,,,,,,,,,0,141,141,151,0,0,0,0,,,,,,,f,1,0.90845990181,j,0,0.174280881882,moral_self_bias,10,19,60.0491926732,f,001,2018_Apr_02_1359,
,,,,,,,,,,,,,,,,,,,,,,material/77.png,2,浮夸,material/172.png,2,material/172.png,浮夸,2,f,f,f,1,1,1,软弱,,,,,,,,,0,141,141,151,,,,,,,,,,,,,,,,,moral_self_bias,10,19,60.0491926732,f,001,2018_Apr_02_1359,
,,,,,,,,,,,,,,,,,,,,,,material/123.png,1,多才,material/23.png,1,material/123.png,有才,1,j,j,j,2,2,2,多才,,,,,,,,,0,142,142,22,0,0,0,0,,,,,,,f,0,1.00775289536,f,1,0.192390918732,moral_self_bias,10,19,60.0491926732,f,001,2018_Apr_02_1359,
,,,,,,,,,,,,,,,,,,,,,,material/123.png,1,多才,material/23.png,1,material/123.png,有才,1,j,j,j,2,2,2,多才,,,,,,,,,0,142,142,22,,,,,,,,,,,,,,,,,moral_self_bias,10,19,60.0491926732,f,001,2018_Apr_02_1359,
,,,,,,,,,,,,,,,,,,,,,,material/19.png,1,灵活,material/119.png,1,material/19.png,机灵,1,f,f,f,2,2,2,灵活,,,,,,,,,0,143,143,98,0,0,0,0,,,,,,,f,1,0.574934005737,f,1,0.20840716362,moral_self_bias,10,19,60.0491926732,f,001,2018_Apr_02_1359,
,,,,,,,,,,,,,,,,,,,,,,material/19.png,1,灵活,material/119.png,1,material/19.png,机灵,1,f,f,f,2,2,2,灵活,,,,,,,,,0,143,143,98,,,,,,,,,,,,,,,,,moral_self_bias,10,19,60.0491926732,f,001,2018_Apr_02_1359,
,,,,,,,,,,,,,,,,,,,,,,material/30.png,1,上进,material/130.png,1,material/30.png,进取,1,f,f,f,2,2,2,上进,,,,,,,,,0,144,144,109,0,0,0,0,,,,,,,f,1,0.607997894287,f,1,0.191787004471,moral_self_bias,10,19,60.0491926732,f,001,2018_Apr_02_1359,
,,,,,,,,,,,,,,,,,,,,,,material/30.png,1,上进,material/130.png,1,material/30.png,进取,1,f,f,f,2,2,2,上进,,,,,,,,,0,144,144,109,,,,,,,,,,,,,,,,,moral_self_bias,10,19,60.0491926732,f,001,2018_Apr_02_1359,
,,,,,,,,,,,,,,,,,,,,,,material/177.png,2,谄媚,material/72.png,2,material/72.png,谄媚,2,j,j,j,1,1,1,恶心,,,,,,,,,0,145,145,69,0,0,0,0,,,,,,,f,0,0.6580119133,f,1,0.22522187233,moral_self_bias,10,19,60.0491926732,f,001,2018_Apr_02_1359,
,,,,,,,,,,,,,,,,,,,,,,material/177.png,2,谄媚,material/72.png,2,material/72.png,谄媚,2,j,j,j,1,1,1,恶心,,,,,,,,,0,145,145,69,,,,,,,,,,,,,,,,,moral_self_bias,10,19,60.0491926732,f,001,2018_Apr_02_1359,
,,,,,,,,,,,,,,,,,,,,,,material/15.png,1,纯洁,material/115.png,1,material/115.png,纯洁,1,f,f,f,1,1,1,清白,,,,,,,,,0,146,146,94,0,0,0,0,,,,,,,f,1,0.741253852844,f,1,0.191884040833,moral_self_bias,10,19,60.0491926732,f,001,2018_Apr_02_1359,
,,,,,,,,,,,,,,,,,,,,,,material/15.png,1,纯洁,material/115.png,1,material/115.png,纯洁,1,f,f,f,1,1,1,清白,,,,,,,,,0,146,146,94,,,,,,,,,,,,,,,,,moral_self_bias,10,19,60.0491926732,f,001,2018_Apr_02_1359,
,,,,,,,,,,,,,,,,,,,,,,material/128.png,1,自律,material/28.png,1,material/128.png,克己,1,j,j,j,2,2,2,自律,,,,,,,,,0,147,147,27,,,,,,,,,,,j,1,7.37634897232,,,,moral_self_bias,10,19,60.0491926732,f,001,2018_Apr_02_1359,
,,,,,,,,,,,,,,,,,,,,,,material/75.png,2,卑劣,material/74.png,2,material/74.png,卑劣,2,j,j,j,1,1,1,害人,,,,,,,,,0,148,148,70,,,,,,,,,,,j,1,0.824416160583,,,,moral_self_bias,10,19,60.0491926732,f,001,2018_Apr_02_1359,
,,,,,,,,,,,,,,,,,,,,,,material/180.png,2,无助,material/79.png,2,material/81.png,颓废,2,j,j,j,2,2,2,怠惰,,,,,,,,,0,149,149,75,,,,,,,,,,,j,1,1.38369393349,,,,moral_self_bias,10,19,60.0491926732,f,001,2018_Apr_02_1359,
,,,,,,,,,,,,,,,,,,,,,,material/167.png,1,高手,material/169.png,1,material/167.png,颖悟,1,f,f,f,2,2,2,高手,,,,,,,,,0,150,150,148,0,0,0,0,,,,,,,f,1,1.47422409058,f,1,0.308949947357,moral_self_bias,10,19,60.0491926732,f,001,2018_Apr_02_1359,
,,,,,,,,,,,,,,,,,,,,,,material/167.png,1,高手,material/169.png,1,material/167.png,颖悟,1,f,f,f,2,2,2,高手,,,,,,,,,0,150,150,148,,,,,,,,,,,,,,,,,moral_self_bias,10,19,60.0491926732,f,001,2018_Apr_02_1359,
,,,,,,,,,,,,,,,,,,,,,,material/31.png,1,笃学,material/131.png,1,material/31.png,笃行,1,f,f,f,2,2,2,笃学,,,,,,,,,0,151,151,110,0,0,0,0,,,,,,,f,1,1.05808997154,f,1,0.200996875763,moral_self_bias,10,19,60.0491926732,f,001,2018_Apr_02_1359,
,,,,,,,,,,,,,,,,,,,,,,material/31.png,1,笃学,material/131.png,1,material/31.png,笃行,1,f,f,f,2,2,2,笃学,,,,,,,,,0,151,151,110,,,,,,,,,,,,,,,,,moral_self_bias,10,19,60.0491926732,f,001,2018_Apr_02_1359,
,,,,,,,,,,,,,,,,,,,,,,material/134.png,2,可恨,material/34.png,2,material/34.png,可恨,2,j,j,j,1,1,1,可恶,,,,,,,,,0,152,152,33,,,,,,,,,,,j,1,2.28319597244,,,,moral_self_bias,10,19,60.0491926732,f,001,2018_Apr_02_1359,
,,,,,,,,,,,,,,,,,,,,,,material/149.png,2,白痴,material/49.png,2,material/149.png,痴呆,2,j,j,j,2,2,2,白痴,,,,,,,,,0,153,153,48,,,,,,,,,,,j,1,0.72360086441,,,,moral_self_bias,10,19,60.0491926732,f,001,2018_Apr_02_1359,
,,,,,,,,,,,,,,,,,,,,,,material/36.png,2,撒谎,material/136.png,2,material/136.png,撒谎,2,f,f,f,1,1,1,说谎,,,,,,,,,0,154,154,115,0,0,0,0,,,,,,,f,1,2.59204983711,j,0,0.507478952408,moral_self_bias,10,19,60.0491926732,f,001,2018_Apr_02_1359,
,,,,,,,,,,,,,,,,,,,,,,material/36.png,2,撒谎,material/136.png,2,material/136.png,撒谎,2,f,f,f,1,1,1,说谎,,,,,,,,,0,154,154,115,,,,,,,,,,,,,,,,,moral_self_bias,10,19,60.0491926732,f,001,2018_Apr_02_1359,
,,,,,,,,,,,,,,,,,,,,,,material/71.png,1,严谨,material/68.png,1,material/71.png,广博,1,j,j,j,2,2,2,严谨,,,,,,,,,0,155,155,66,0,0,0,0,,,,,,,f,0,1.12561297417,f,1,0.274975776672,moral_self_bias,10,19,60.0491926732,f,001,2018_Apr_02_1359,
,,,,,,,,,,,,,,,,,,,,,,material/71.png,1,严谨,material/68.png,1,material/71.png,广博,1,j,j,j,2,2,2,严谨,,,,,,,,,0,155,155,66,,,,,,,,,,,,,,,,,moral_self_bias,10,19,60.0491926732,f,001,2018_Apr_02_1359,
,,,,,,,,,,,,,,,,,,,,,,material/68.png,1,广博,material/167.png,1,material/68.png,高手,1,f,f,f,2,2,2,广博,,,,,,,,,0,156,156,146,0,0,0,0,,,,,,,f,1,0.651052951813,f,1,0.407865047455,moral_self_bias,10,19,60.0491926732,f,001,2018_Apr_02_1359,
,,,,,,,,,,,,,,,,,,,,,,material/68.png,1,广博,material/167.png,1,material/68.png,高手,1,f,f,f,2,2,2,广博,,,,,,,,,0,156,156,146,,,,,,,,,,,,,,,,,moral_self_bias,10,19,60.0491926732,f,001,2018_Apr_02_1359,
,,,,,,,,,,,,,,,,,,,,,,material/139.png,2,凶残,material/39.png,2,material/39.png,凶残,2,j,j,j,1,1,1,恶毒,,,,,,,,,0,157,157,38,,,,,,,,,,,j,1,1.30790901184,,,,moral_self_bias,10,19,60.0491926732,f,001,2018_Apr_02_1359,
