Block1_Old,Num_Source3,Num_Source2,Num_Source1,valence1,valence2,valence3,Num_Old2,Corr_S1,Num_Old1,Corr_S3,Corr_S2,Block3_Old,Block2_Old,Source_2,Source_3,Source_1,domain3,domain2,domain1,Num_Old3,math,Num_All2,valence_all1,All_Words3,Num_All1,valence_all2,Num_All3,All_Words1,valence_all3,Corr_Rec2,Corr_Rec3,Corr_Rec1,domian_all3,domian_all2,domian_all1,All_Words2,trials.thisRepN,trials.thisTrialN,trials.thisN,trials.thisIndex,trials_2.thisRepN,trials_2.thisTrialN,trials_2.thisN,trials_2.thisIndex,trials_4.thisRepN,trials_4.thisTrialN,trials_4.thisN,trials_4.thisIndex,trials_3.thisRepN,trials_3.thisTrialN,trials_3.thisN,trials_3.thisIndex,block_resp_1.keys,block_resp_1.rt,words_rating.keys,words_rating.rt,block_resp_2.keys,block_resp_2.rt,Rec_resp.keys,Rec_resp.corr,Rec_resp.rt,Source_resp.keys,Source_resp.corr,Source_resp.rt,expName,participant,Age,frameRate,Sex,session,date,
,,,,,,,,,,,,,,,,,,,,,,,,,,,,,,,,,,,,,,,,,,,,,,,,,,,,,3,3.21658420563,,,,,,,,,,,moral_self_bias,15,22,59.9908747248,f,001,2018_Apr_02_1525,
无私,material/instr2_2.png,material/instr2_2.png,material/instr2_2.png,1,1,1,material/8.png,j,material/108.png,j,j,无私,公道,friend,friend,friend,1,1,1,material/108.png,,,,,,,,,,,,,,,,,0,0,0,7,,,,,,,,,,,,,,,5,1.93384289742,,,,,,,,,moral_self_bias,15,22,59.9908747248,f,001,2018_Apr_02_1525,
机灵,material/instr2_2.png,material/instr2_2.png,material/instr2_2.png,1,1,1,material/19.png,j,material/119.png,j,j,灵活,灵活,friend,friend,friend,2,2,2,material/19.png,,,,,,,,,,,,,,,,,0,1,1,18,,,,,,,,,,,,,,,4,0.924659013748,,,,,,,,,moral_self_bias,15,22,59.9908747248,f,001,2018_Apr_02_1525,
孝顺,material/instr2_1.png,material/instr2_1.png,material/instr2_1.png,1,1,1,material/161.png,f,material/164.png,f,f,奉献,勇敢,self,self,self,1,1,1,material/64.png,,,,,,,,,,,,,,,,,0,2,2,63,,,,,,,,,,,,,,,2,1.10870289803,,,,,,,,,moral_self_bias,15,22,59.9908747248,f,001,2018_Apr_02_1525,
恶心,material/instr2_1.png,material/instr2_1.png,material/instr2_1.png,2,2,2,material/73.png,f,material/177.png,f,f,恶心,残虐,self,self,self,1,1,1,material/177.png,,,,,,,,,,,,,,,,,0,3,3,76,,,,,,,,,,,,,,,1,2.17579102516,,,,,,,,,moral_self_bias,15,22,59.9908747248,f,001,2018_Apr_02_1525,
坚忍,material/instr2_1.png,material/instr2_1.png,material/instr2_1.png,1,1,1,material/168.png,f,material/170.png,f,f,机变,机变,self,self,self,2,2,2,material/168.png,,,,,,,,,,,,,,,,,0,4,4,69,,,,,,,,,,,,,,,5,1.90784287453,,,,,,,,,moral_self_bias,15,22,59.9908747248,f,001,2018_Apr_02_1525,
犹豫,material/instr2_1.png,material/instr2_1.png,material/instr2_1.png,2,2,2,material/78.png,f,material/181.png,f,f,厌学,草率,self,self,self,2,2,2,material/184.png,,,,,,,,,,,,,,,,,0,5,5,80,,,,,,,,,,,,,,,2,1.82553887367,,,,,,,,,moral_self_bias,15,22,59.9908747248,f,001,2018_Apr_02_1525,
小人,material/instr2_2.png,material/instr2_2.png,material/instr2_2.png,2,2,2,material/45.png,j,material/145.png,j,j,小人,下流,friend,friend,friend,1,1,1,material/145.png,,,,,,,,,,,,,,,,,0,6,6,44,,,,,,,,,,,,,,,None,,,,,,,,,,moral_self_bias,15,22,59.9908747248,f,001,2018_Apr_02_1525,
勤快,material/instr2_2.png,material/instr2_2.png,material/instr2_2.png,1,1,1,material/26.png,j,material/126.png,j,j,刻苦,刻苦,friend,friend,friend,2,2,2,material/26.png,,,,,,,,,,,,,,,,,0,7,7,25,,,,,,,,,,,,,,,4,1.92578101158,,,,,,,,,moral_self_bias,15,22,59.9908747248,f,001,2018_Apr_02_1525,
迟钝,material/instr2_1.png,material/instr2_1.png,material/instr2_1.png,2,2,2,material/53.png,f,material/153.png,f,f,迟缓,迟缓,self,self,self,2,2,2,material/53.png,,,,,,,,,,,,,,,,,0,8,8,52,,,,,,,,,,,,,,,2,1.90895986557,,,,,,,,,moral_self_bias,15,22,59.9908747248,f,001,2018_Apr_02_1525,
仁厚,material/instr2_1.png,material/instr2_1.png,material/instr2_1.png,1,1,1,material/3.png,f,material/103.png,f,f,仁厚,仁慈,self,self,self,1,1,1,material/103.png,,,,,,,,,,,,,,,,,0,9,9,2,,,,,,,,,,,,,,,4,1.34155201912,,,,,,,,,moral_self_bias,15,22,59.9908747248,f,001,2018_Apr_02_1525,
博学,material/instr2_1.png,material/instr2_1.png,material/instr2_1.png,1,1,1,material/22.png,f,material/122.png,f,f,才学,才学,self,self,self,2,2,2,material/22.png,,,,,,,,,,,,,,,,,0,10,10,21,,,,,,,,,,,,,,,3,1.57436203957,,,,,,,,,moral_self_bias,15,22,59.9908747248,f,001,2018_Apr_02_1525,
机智,material/instr2_2.png,material/instr2_2.png,material/instr2_2.png,1,1,1,material/16.png,j,material/116.png,j,j,睿智,睿智,friend,friend,friend,2,2,2,material/16.png,,,,,,,,,,,,,,,,,0,11,11,15,,,,,,,,,,,,,,,4,1.11596679688,,,,,,,,,moral_self_bias,15,22,59.9908747248,f,001,2018_Apr_02_1525,
高明,material/instr2_1.png,material/instr2_1.png,material/instr2_1.png,1,1,1,material/69.png,f,material/69.png,f,f,高明,高明,self,self,self,2,2,2,material/69.png,,,,,,,,,,,,,,,,,0,12,12,86,,,,,,,,,,,,,,,3,1.3591029644,,,,,,,,,moral_self_bias,15,22,59.9908747248,f,001,2018_Apr_02_1525,
精干,material/instr2_1.png,material/instr2_1.png,material/instr2_1.png,1,1,1,material/21.png,f,material/121.png,f,f,干练,干练,self,self,self,2,2,2,material/21.png,,,,,,,,,,,,,,,,,0,13,13,20,,,,,,,,,,,,,,,4,0.921883106232,,,,,,,,,moral_self_bias,15,22,59.9908747248,f,001,2018_Apr_02_1525,
好问,material/instr2_1.png,material/instr2_1.png,material/instr2_1.png,1,1,1,material/29.png,f,material/129.png,f,f,好学,好学,self,self,self,2,2,2,material/29.png,,,,,,,,,,,,,,,,,0,14,14,28,,,,,,,,,,,,,,,2,1.12177014351,,,,,,,,,moral_self_bias,15,22,59.9908747248,f,001,2018_Apr_02_1525,
高效,material/instr2_1.png,material/instr2_1.png,material/instr2_1.png,1,1,1,material/169.png,f,material/171.png,f,f,颖悟,颖悟,self,self,self,2,2,2,material/169.png,,,,,,,,,,,,,,,,,0,15,15,70,,,,,,,,,,,,,,,4,1.10924506187,,,,,,,,,moral_self_bias,15,22,59.9908747248,f,001,2018_Apr_02_1525,
卑鄙,material/instr2_2.png,material/instr2_2.png,material/instr2_2.png,2,2,2,material/37.png,j,material/137.png,j,j,卑鄙,无耻,friend,friend,friend,1,1,1,material/137.png,,,,,,,,,,,,,,,,,0,16,16,36,,,,,,,,,,,,,,,1,1.20495486259,,,,,,,,,moral_self_bias,15,22,59.9908747248,f,001,2018_Apr_02_1525,
机敏,material/instr2_2.png,material/instr2_2.png,material/instr2_2.png,1,1,1,material/18.png,j,material/118.png,j,j,敏锐,敏锐,friend,friend,friend,2,2,2,material/18.png,,,,,,,,,,,,,,,,,0,17,17,17,,,,,,,,,,,,,,,4,1.53817820549,,,,,,,,,moral_self_bias,15,22,59.9908747248,f,001,2018_Apr_02_1525,
进取,material/instr2_1.png,material/instr2_1.png,material/instr2_1.png,1,1,1,material/30.png,f,material/130.png,f,f,上进,上进,self,self,self,2,2,2,material/30.png,,,,,,,,,,,,,,,,,0,18,18,29,,,,,,,,,,,,,,,1,2.02497291565,,,,,,,,,moral_self_bias,15,22,59.9908747248,f,001,2018_Apr_02_1525,
贪污,material/instr2_1.png,material/instr2_1.png,material/instr2_1.png,2,2,2,material/33.png,f,material/133.png,f,f,贪污,腐败,self,self,self,1,1,1,material/133.png,,,,,,,,,,,,,,,,,0,19,19,32,,,,,,,,,,,,,,,1,1.54187989235,,,,,,,,,moral_self_bias,15,22,59.9908747248,f,001,2018_Apr_02_1525,
博爱,material/instr2_1.png,material/instr2_1.png,material/instr2_1.png,1,1,1,material/1.png,f,material/101.png,f,f,博爱,善良,self,self,self,1,1,1,material/101.png,,,,,,,,,,,,,,,,,0,20,20,0,,,,,,,,,,,,,,,4,1.14149808884,,,,,,,,,moral_self_bias,15,22,59.9908747248,f,001,2018_Apr_02_1525,
独立,material/instr2_1.png,material/instr2_1.png,material/instr2_1.png,1,1,1,material/64.png,f,material/165.png,f,f,谦虚,奉献,self,self,self,1,1,1,material/65.png,,,,,,,,,,,,,,,,,0,21,21,64,,,,,,,,,,,,,,,4,2.25033187866,,,,,,,,,moral_self_bias,15,22,59.9908747248,f,001,2018_Apr_02_1525,
仗义,material/instr2_1.png,material/instr2_1.png,material/instr2_1.png,1,1,1,material/63.png,f,material/166.png,f,f,正义,文明,self,self,self,1,1,1,material/66.png,,,,,,,,,,,,,,,,,0,22,22,65,,,,,,,,,,,,,,,2,2.0421769619,,,,,,,,,moral_self_bias,15,22,59.9908747248,f,001,2018_Apr_02_1525,
果敢,material/instr2_1.png,material/instr2_1.png,material/instr2_1.png,1,1,1,material/25.png,f,material/125.png,f,f,果断,果断,self,self,self,2,2,2,material/25.png,,,,,,,,,,,,,,,,,0,23,23,24,,,,,,,,,,,,,,,4,1.04245901108,,,,,,,,,moral_self_bias,15,22,59.9908747248,f,001,2018_Apr_02_1525,
残虐,material/instr2_1.png,material/instr2_1.png,material/instr2_1.png,2,2,2,material/175.png,f,material/73.png,f,f,残虐,无情,self,self,self,1,1,1,material/73.png,,,,,,,,,,,,,,,,,0,24,24,85,,,,,,,,,,,,,,,1,1.52222704887,,,,,,,,,moral_self_bias,15,22,59.9908747248,f,001,2018_Apr_02_1525,
厚道,material/instr2_2.png,material/instr2_2.png,material/instr2_2.png,1,1,1,material/6.png,j,material/106.png,j,j,厚道,诚实,friend,friend,friend,1,1,1,material/106.png,,,,,,,,,,,,,,,,,0,25,25,5,,,,,,,,,,,,,,,4,1.32553315163,,,,,,,,,moral_self_bias,15,22,59.9908747248,f,001,2018_Apr_02_1525,
依靠,material/instr2_1.png,material/instr2_1.png,material/instr2_1.png,2,2,2,material/54.png,f,material/154.png,f,f,依赖,依赖,self,self,self,2,2,2,material/54.png,,,,,,,,,,,,,,,,,0,26,26,53,,,,,,,,,,,,,,,2,1.12697887421,,,,,,,,,moral_self_bias,15,22,59.9908747248,f,001,2018_Apr_02_1525,
诚信,material/instr2_1.png,material/instr2_1.png,material/instr2_1.png,1,1,1,material/5.png,f,material/105.png,f,f,诚信,守信,self,self,self,1,1,1,material/105.png,,,,,,,,,,,,,,,,,0,27,27,4,,,,,,,,,,,,,,,5,1.20850920677,,,,,,,,,moral_self_bias,15,22,59.9908747248,f,001,2018_Apr_02_1525,
笃行,material/instr2_1.png,material/instr2_1.png,material/instr2_1.png,1,1,1,material/31.png,f,material/131.png,f,f,笃学,笃学,self,self,self,2,2,2,material/31.png,,,,,,,,,,,,,,,,,0,28,28,30,,,,,,,,,,,,,,,3,1.45870423317,,,,,,,,,moral_self_bias,15,22,59.9908747248,f,001,2018_Apr_02_1525,
恶毒,material/instr2_2.png,material/instr2_2.png,material/instr2_2.png,2,2,2,material/39.png,j,material/139.png,j,j,恶毒,凶残,friend,friend,friend,1,1,1,material/139.png,,,,,,,,,,,,,,,,,0,29,29,38,,,,,,,,,,,,,,,1,1.10790395737,,,,,,,,,moral_self_bias,15,22,59.9908747248,f,001,2018_Apr_02_1525,
残忍,material/instr2_2.png,material/instr2_2.png,material/instr2_2.png,2,2,2,material/41.png,j,material/141.png,j,j,残忍,歹毒,friend,friend,friend,1,1,1,material/141.png,,,,,,,,,,,,,,,,,0,30,30,40,,,,,,,,,,,,,,,1,0.575599908829,,,,,,,,,moral_self_bias,15,22,59.9908747248,f,001,2018_Apr_02_1525,
颖悟,material/instr2_2.png,material/instr2_2.png,material/instr2_2.png,1,1,1,material/167.png,j,material/169.png,j,j,高手,高手,friend,friend,friend,2,2,2,material/167.png,,,,,,,,,,,,,,,,,0,31,31,68,,,,,,,,,,,,,,,4,0.939785003662,,,,,,,,,moral_self_bias,15,22,59.9908747248,f,001,2018_Apr_02_1525,
浅薄,material/instr2_2.png,material/instr2_2.png,material/instr2_2.png,2,2,2,material/58.png,j,material/158.png,j,j,肤浅,肤浅,friend,friend,friend,2,2,2,material/58.png,,,,,,,,,,,,,,,,,0,32,32,57,,,,,,,,,,,,,,,2,1.04232096672,,,,,,,,,moral_self_bias,15,22,59.9908747248,f,001,2018_Apr_02_1525,
弱智,material/instr2_1.png,material/instr2_1.png,material/instr2_1.png,2,2,2,material/59.png,f,material/159.png,f,f,智障,智障,self,self,self,2,2,2,material/59.png,,,,,,,,,,,,,,,,,0,33,33,58,,,,,,,,,,,,,,,None,,,,,,,,,,moral_self_bias,15,22,59.9908747248,f,001,2018_Apr_02_1525,
不义,material/instr2_2.png,material/instr2_2.png,material/instr2_2.png,2,2,2,material/173.png,j,material/174.png,j,j,不义,黑心,friend,friend,friend,1,1,1,material/174.png,,,,,,,,,,,,,,,,,0,34,34,73,,,,,,,,,,,,,,,1,2.64220094681,,,,,,,,,moral_self_bias,15,22,59.9908747248,f,001,2018_Apr_02_1525,
爱心,material/instr2_1.png,material/instr2_1.png,material/instr2_1.png,1,1,1,material/2.png,f,material/102.png,f,f,爱心,善心,self,self,self,1,1,1,material/102.png,,,,,,,,,,,,,,,,,0,35,35,1,,,,,,,,,,,,,,,4,0.842566013336,,,,,,,,,moral_self_bias,15,22,59.9908747248,f,001,2018_Apr_02_1525,
狠毒,material/instr2_2.png,material/instr2_2.png,material/instr2_2.png,2,2,2,material/40.png,j,material/140.png,j,j,狠毒,邪恶,friend,friend,friend,1,1,1,material/140.png,,,,,,,,,,,,,,,,,0,36,36,39,,,,,,,,,,,,,,,1,0.841795921326,,,,,,,,,moral_self_bias,15,22,59.9908747248,f,001,2018_Apr_02_1525,
怠惰,material/instr2_2.png,material/instr2_2.png,material/instr2_2.png,2,2,2,material/181.png,j,material/180.png,j,j,怠惰,犹豫,friend,friend,friend,2,2,2,material/180.png,,,,,,,,,,,,,,,,,0,37,37,79,,,,,,,,,,,,,,,1,1.39184308052,,,,,,,,,moral_self_bias,15,22,59.9908747248,f,001,2018_Apr_02_1525,
厌学,material/instr2_2.png,material/instr2_2.png,material/instr2_2.png,2,2,2,material/182.png,j,material/184.png,j,j,健忘,才尽,friend,friend,friend,2,2,2,material/80.png,,,,,,,,,,,,,,,,,0,38,38,83,,,,,,,,,,,,,,,3,1.29972505569,,,,,,,,,moral_self_bias,15,22,59.9908747248,f,001,2018_Apr_02_1525,
宽容,material/instr2_2.png,material/instr2_2.png,material/instr2_2.png,1,1,1,material/163.png,j,material/163.png,j,j,文明,宽容,friend,friend,friend,1,1,1,material/63.png,,,,,,,,,,,,,,,,,0,39,39,62,,,,,,,,,,,,,,,5,1.23343491554,,,,,,,,,moral_self_bias,15,22,59.9908747248,f,001,2018_Apr_02_1525,
放纵,material/instr2_1.png,material/instr2_1.png,material/instr2_1.png,2,2,2,material/76.png,f,material/176.png,f,f,放纵,虚伪,self,self,self,1,1,1,material/176.png,,,,,,,,,,,,,,,,,0,40,40,75,,,,,,,,,,,,,,,1,1.2756960392,,,,,,,,,moral_self_bias,15,22,59.9908747248,f,001,2018_Apr_02_1525,
坚毅,material/instr2_2.png,material/instr2_2.png,material/instr2_2.png,1,1,1,material/10.png,j,material/110.png,j,j,坚毅,顽强,friend,friend,friend,1,1,1,material/110.png,,,,,,,,,,,,,,,,,0,41,41,9,,,,,,,,,,,,,,,4,1.06700396538,,,,,,,,,moral_self_bias,15,22,59.9908747248,f,001,2018_Apr_02_1525,
敬业,material/instr2_2.png,material/instr2_2.png,material/instr2_2.png,1,1,1,material/62.png,j,material/162.png,j,j,坚韧,坚韧,friend,friend,friend,1,1,1,material/62.png,,,,,,,,,,,,,,,,,0,42,42,61,,,,,,,,,,,,,,,2,1.07540607452,,,,,,,,,moral_self_bias,15,22,59.9908747248,f,001,2018_Apr_02_1525,
能干,material/instr2_2.png,material/instr2_2.png,material/instr2_2.png,1,1,1,material/20.png,j,material/120.png,j,j,厉害,厉害,friend,friend,friend,2,2,2,material/20.png,,,,,,,,,,,,,,,,,0,43,43,19,,,,,,,,,,,,,,,4,0.857516050339,,,,,,,,,moral_self_bias,15,22,59.9908747248,f,001,2018_Apr_02_1525,
正直,material/instr2_2.png,material/instr2_2.png,material/instr2_2.png,1,1,1,material/9.png,j,material/109.png,j,j,正直,秉直,friend,friend,friend,1,1,1,material/109.png,,,,,,,,,,,,,,,,,0,44,44,8,,,,,,,,,,,,,,,4,0.742563009262,,,,,,,,,moral_self_bias,15,22,59.9908747248,f,001,2018_Apr_02_1525,
薄弱,material/instr2_1.png,material/instr2_1.png,material/instr2_1.png,2,2,2,material/82.png,f,material/183.png,f,f,毛糙,窝囊,self,self,self,2,2,2,material/178.png,,,,,,,,,,,,,,,,,0,45,45,82,,,,,,,,,,,,,,,3,0.758937835693,,,,,,,,,moral_self_bias,15,22,59.9908747248,f,001,2018_Apr_02_1525,
盲目,material/instr2_1.png,material/instr2_1.png,material/instr2_1.png,2,2,2,material/55.png,f,material/155.png,f,f,盲从,盲从,self,self,self,2,2,2,material/55.png,,,,,,,,,,,,,,,,,0,46,46,54,,,,,,,,,,,,,,,2,1.45502710342,,,,,,,,,moral_self_bias,15,22,59.9908747248,f,001,2018_Apr_02_1525,
刻板,material/instr2_2.png,material/instr2_2.png,material/instr2_2.png,2,2,2,material/47.png,j,material/147.png,j,j,死板,死板,friend,friend,friend,2,2,2,material/47.png,,,,,,,,,,,,,,,,,0,47,47,46,,,,,,,,,,,,,,,1,1.44268512726,,,,,,,,,moral_self_bias,15,22,59.9908747248,f,001,2018_Apr_02_1525,
高尚,material/instr2_1.png,material/instr2_1.png,material/instr2_1.png,1,1,1,material/11.png,f,material/111.png,f,f,高尚,高雅,self,self,self,1,1,1,material/111.png,,,,,,,,,,,,,,,,,0,48,48,10,,,,,,,,,,,,,,,4,1.01674199104,,,,,,,,,moral_self_bias,15,22,59.9908747248,f,001,2018_Apr_02_1525,
差生,material/instr2_2.png,material/instr2_2.png,material/instr2_2.png,2,2,2,material/81.png,j,material/179.png,j,j,呆笨,无助,friend,friend,friend,2,2,2,material/83.png,,,,,,,,,,,,,,,,,0,49,49,78,,,,,,,,,,,,,,,1,1.67548584938,,,,,,,,,moral_self_bias,15,22,59.9908747248,f,001,2018_Apr_02_1525,
可恶,material/instr2_1.png,material/instr2_1.png,material/instr2_1.png,2,2,2,material/34.png,f,material/134.png,f,f,可恶,可恨,self,self,self,1,1,1,material/134.png,,,,,,,,,,,,,,,,,0,50,50,33,,,,,,,,,,,,,,,1,1.10027718544,,,,,,,,,moral_self_bias,15,22,59.9908747248,f,001,2018_Apr_02_1525,
黑心,material/instr2_2.png,material/instr2_2.png,material/instr2_2.png,2,2,2,material/74.png,j,material/173.png,j,j,黑心,卑劣,friend,friend,friend,1,1,1,material/173.png,,,,,,,,,,,,,,,,,0,51,51,72,,,,,,,,,,,,,,,1,0.825461864471,,,,,,,,,moral_self_bias,15,22,59.9908747248,f,001,2018_Apr_02_1525,
多才,material/instr2_1.png,material/instr2_1.png,material/instr2_1.png,1,1,1,material/23.png,f,material/123.png,f,f,有才,有才,self,self,self,2,2,2,material/23.png,,,,,,,,,,,,,,,,,0,52,52,22,,,,,,,,,,,,,,,3,0.925444841385,,,,,,,,,moral_self_bias,15,22,59.9908747248,f,001,2018_Apr_02_1525,
无情,material/instr2_1.png,material/instr2_1.png,material/instr2_1.png,2,2,2,material/172.png,f,material/175.png,f,f,无情,浮夸,self,self,self,1,1,1,material/175.png,,,,,,,,,,,,,,,,,0,53,53,74,,,,,,,,,,,,,,,1,0.875092983246,,,,,,,,,moral_self_bias,15,22,59.9908747248,f,001,2018_Apr_02_1525,
爽约,material/instr2_2.png,material/instr2_2.png,material/instr2_2.png,2,2,2,material/44.png,j,material/144.png,j,j,爽约,失信,friend,friend,friend,1,1,1,material/144.png,,,,,,,,,,,,,,,,,0,54,54,43,,,,,,,,,,,,,,,1,0.671741962433,,,,,,,,,moral_self_bias,15,22,59.9908747248,f,001,2018_Apr_02_1525,
廉明,material/instr2_2.png,material/instr2_2.png,material/instr2_2.png,1,1,1,material/13.png,j,material/113.png,j,j,廉明,廉洁,friend,friend,friend,1,1,1,material/113.png,,,,,,,,,,,,,,,,,0,55,55,12,,,,,,,,,,,,,,,1,1.05898404121,,,,,,,,,moral_self_bias,15,22,59.9908747248,f,001,2018_Apr_02_1525,
才尽,material/instr2_1.png,material/instr2_1.png,material/instr2_1.png,2,2,2,material/183.png,f,material/182.png,f,f,颓废,薄弱,self,self,self,2,2,2,material/79.png,,,,,,,,,,,,,,,,,0,56,56,81,,,,,,,,,,,,,,,1,1.97494101524,,,,,,,,,moral_self_bias,15,22,59.9908747248,f,001,2018_Apr_02_1525,
背叛,material/instr2_1.png,material/instr2_1.png,material/instr2_1.png,2,2,2,material/32.png,f,material/132.png,f,f,背叛,不忠,self,self,self,1,1,1,material/132.png,,,,,,,,,,,,,,,,,0,57,57,31,,,,,,,,,,,,,,,1,1.20992207527,,,,,,,,,moral_self_bias,15,22,59.9908747248,f,001,2018_Apr_02_1525,
笨拙,material/instr2_1.png,material/instr2_1.png,material/instr2_1.png,2,2,2,material/60.png,f,material/160.png,f,f,粗拙,粗拙,self,self,self,2,2,2,material/60.png,,,,,,,,,,,,,,,,,0,58,58,59,,,,,,,,,,,,,,,3,1.10893702507,,,,,,,,,moral_self_bias,15,22,59.9908747248,f,001,2018_Apr_02_1525,
无能,material/instr2_2.png,material/instr2_2.png,material/instr2_2.png,2,2,2,material/57.png,j,material/157.png,j,j,无知,无知,friend,friend,friend,2,2,2,material/57.png,,,,,,,,,,,,,,,,,0,59,59,56,,,,,,,,,,,,,,,1,0.833359003067,,,,,,,,,moral_self_bias,15,22,59.9908747248,f,001,2018_Apr_02_1525,
迷糊,material/instr2_2.png,material/instr2_2.png,material/instr2_2.png,2,2,2,material/51.png,j,material/151.png,j,j,糊涂,糊涂,friend,friend,friend,2,2,2,material/51.png,,,,,,,,,,,,,,,,,0,60,60,50,,,,,,,,,,,,,,,1,0.975936174393,,,,,,,,,moral_self_bias,15,22,59.9908747248,f,001,2018_Apr_02_1525,
愚钝,material/instr2_1.png,material/instr2_1.png,material/instr2_1.png,2,2,2,material/56.png,f,material/156.png,f,f,愚昧,愚昧,self,self,self,2,2,2,material/56.png,,,,,,,,,,,,,,,,,0,61,61,55,,,,,,,,,,,,,,,1,1.20899796486,,,,,,,,,moral_self_bias,15,22,59.9908747248,f,001,2018_Apr_02_1525,
公平,material/instr2_2.png,material/instr2_2.png,material/instr2_2.png,1,1,1,material/7.png,j,material/107.png,j,j,公平,公正,friend,friend,friend,1,1,1,material/107.png,,,,,,,,,,,,,,,,,0,62,62,6,,,,,,,,,,,,,,,1,0.824923992157,,,,,,,,,moral_self_bias,15,22,59.9908747248,f,001,2018_Apr_02_1525,
高手,material/instr2_2.png,material/instr2_2.png,material/instr2_2.png,1,1,1,material/68.png,j,material/167.png,j,j,广博,广博,friend,friend,friend,2,2,2,material/68.png,,,,,,,,,,,,,,,,,0,63,63,66,,,,,,,,,,,,,,,4,1.27516484261,,,,,,,,,moral_self_bias,15,22,59.9908747248,f,001,2018_Apr_02_1525,
顽愚,material/instr2_1.png,material/instr2_1.png,material/instr2_1.png,2,2,2,material/84.png,f,material/84.png,f,f,犹豫,顽愚,self,self,self,2,2,2,material/181.png,,,,,,,,,,,,,,,,,0,64,64,87,,,,,,,,,,,,,,,2,0.958922863007,,,,,,,,,moral_self_bias,15,22,59.9908747248,f,001,2018_Apr_02_1525,
鲁钝,material/instr2_2.png,material/instr2_2.png,material/instr2_2.png,2,2,2,material/50.png,j,material/150.png,j,j,愚笨,愚笨,friend,friend,friend,2,2,2,material/50.png,,,,,,,,,,,,,,,,,0,65,65,49,,,,,,,,,,,,,,,2,1.91010594368,,,,,,,,,moral_self_bias,15,22,59.9908747248,f,001,2018_Apr_02_1525,
奸诈,material/instr2_1.png,material/instr2_1.png,material/instr2_1.png,2,2,2,material/42.png,f,material/142.png,f,f,奸诈,阴险,self,self,self,1,1,1,material/142.png,,,,,,,,,,,,,,,,,0,66,66,41,,,,,,,,,,,,,,,1,1.02578091621,,,,,,,,,moral_self_bias,15,22,59.9908747248,f,001,2018_Apr_02_1525,
撒谎,material/instr2_1.png,material/instr2_1.png,material/instr2_1.png,2,2,2,material/36.png,f,material/136.png,f,f,撒谎,说谎,self,self,self,1,1,1,material/136.png,,,,,,,,,,,,,,,,,0,67,67,35,,,,,,,,,,,,,,,1,1.35411787033,,,,,,,,,moral_self_bias,15,22,59.9908747248,f,001,2018_Apr_02_1525,
冷静,material/instr2_1.png,material/instr2_1.png,material/instr2_1.png,1,1,1,material/24.png,f,material/124.png,f,f,理智,理智,self,self,self,2,2,2,material/24.png,,,,,,,,,,,,,,,,,0,68,68,23,,,,,,,,,,,,,,,2,1.47567510605,,,,,,,,,moral_self_bias,15,22,59.9908747248,f,001,2018_Apr_02_1525,
友善,material/instr2_1.png,material/instr2_1.png,material/instr2_1.png,1,1,1,material/4.png,f,material/104.png,f,f,友善,友爱,self,self,self,1,1,1,material/104.png,,,,,,,,,,,,,,,,,0,69,69,3,,,,,,,,,,,,,,,4,1.41689705849,,,,,,,,,moral_self_bias,15,22,59.9908747248,f,001,2018_Apr_02_1525,
毛糙,material/instr2_2.png,material/instr2_2.png,material/instr2_2.png,2,2,2,material/179.png,j,material/178.png,j,j,顽愚,差生,friend,friend,friend,2,2,2,material/84.png,,,,,,,,,,,,,,,,,0,70,70,77,,,,,,,,,,,,,,,1,1.27496504784,,,,,,,,,moral_self_bias,15,22,59.9908747248,f,001,2018_Apr_02_1525,
自律,material/instr2_2.png,material/instr2_2.png,material/instr2_2.png,1,1,1,material/28.png,j,material/128.png,j,j,克己,克己,friend,friend,friend,2,2,2,material/28.png,,,,,,,,,,,,,,,,,0,71,71,27,,,,,,,,,,,,,,,1,2.42060995102,,,,,,,,,moral_self_bias,15,22,59.9908747248,f,001,2018_Apr_02_1525,
缓慢,material/instr2_1.png,material/instr2_1.png,material/instr2_1.png,2,2,2,material/52.png,f,material/152.png,f,f,拖延,拖延,self,self,self,2,2,2,material/52.png,,,,,,,,,,,,,,,,,0,72,72,51,,,,,,,,,,,,,,,4,1.82795000076,,,,,,,,,moral_self_bias,15,22,59.9908747248,f,001,2018_Apr_02_1525,
超群,material/instr2_2.png,material/instr2_2.png,material/instr2_2.png,1,1,1,material/27.png,j,material/127.png,j,j,卓越,卓越,friend,friend,friend,2,2,2,material/27.png,,,,,,,,,,,,,,,,,0,73,73,26,,,,,,,,,,,,,,,4,1.12495493889,,,,,,,,,moral_self_bias,15,22,59.9908747248,f,001,2018_Apr_02_1525,
正义,material/instr2_1.png,material/instr2_1.png,material/instr2_1.png,1,1,1,material/66.png,f,material/66.png,f,f,独立,正义,self,self,self,1,1,1,material/165.png,,,,,,,,,,,,,,,,,0,74,74,84,,,,,,,,,,,,,,,5,0.642248868942,,,,,,,,,moral_self_bias,15,22,59.9908747248,f,001,2018_Apr_02_1525,
勇敢,material/instr2_2.png,material/instr2_2.png,material/instr2_2.png,1,1,1,material/165.png,j,material/161.png,j,j,平等,独立,friend,friend,friend,1,1,1,material/61.png,,,,,,,,,,,,,,,,,0,75,75,60,,,,,,,,,,,,,,,4,0.792057991028,,,,,,,,,moral_self_bias,15,22,59.9908747248,f,001,2018_Apr_02_1525,
纯洁,material/instr2_2.png,material/instr2_2.png,material/instr2_2.png,1,1,1,material/15.png,j,material/115.png,j,j,纯洁,清白,friend,friend,friend,1,1,1,material/115.png,,,,,,,,,,,,,,,,,0,76,76,14,,,,,,,,,,,,,,,5,0.73646402359,,,,,,,,,moral_self_bias,15,22,59.9908747248,f,001,2018_Apr_02_1525,
聪颖,material/instr2_2.png,material/instr2_2.png,material/instr2_2.png,1,1,1,material/17.png,j,material/117.png,j,j,聪明,聪明,friend,friend,friend,2,2,2,material/17.png,,,,,,,,,,,,,,,,,0,77,77,16,,,,,,,,,,,,,,,5,0.609458208084,,,,,,,,,moral_self_bias,15,22,59.9908747248,f,001,2018_Apr_02_1525,
笨蛋,material/instr2_2.png,material/instr2_2.png,material/instr2_2.png,2,2,2,material/48.png,j,material/148.png,j,j,愚蠢,愚蠢,friend,friend,friend,2,2,2,material/48.png,,,,,,,,,,,,,,,,,0,78,78,47,,,,,,,,,,,,,,,1,1.29249191284,,,,,,,,,moral_self_bias,15,22,59.9908747248,f,001,2018_Apr_02_1525,
机变,material/instr2_2.png,material/instr2_2.png,material/instr2_2.png,1,1,1,material/70.png,j,material/168.png,j,j,全面,全面,friend,friend,friend,2,2,2,material/70.png,,,,,,,,,,,,,,,,,0,79,79,67,,,,,,,,,,,,,,,5,0.850224971771,,,,,,,,,moral_self_bias,15,22,59.9908747248,f,001,2018_Apr_02_1525,
白痴,material/instr2_2.png,material/instr2_2.png,material/instr2_2.png,2,2,2,material/49.png,j,material/149.png,j,j,痴呆,痴呆,friend,friend,friend,2,2,2,material/49.png,,,,,,,,,,,,,,,,,0,80,80,48,,,,,,,,,,,,,,,1,0.750054836273,,,,,,,,,moral_self_bias,15,22,59.9908747248,f,001,2018_Apr_02_1525,
自私,material/instr2_2.png,material/instr2_2.png,material/instr2_2.png,2,2,2,material/46.png,j,material/146.png,j,j,自私,小气,friend,friend,friend,1,1,1,material/146.png,,,,,,,,,,,,,,,,,0,81,81,45,,,,,,,,,,,,,,,1,0.767120838165,,,,,,,,,moral_self_bias,15,22,59.9908747248,f,001,2018_Apr_02_1525,
忠贞,material/instr2_2.png,material/instr2_2.png,material/instr2_2.png,1,1,1,material/14.png,j,material/114.png,j,j,忠贞,爱国,friend,friend,friend,1,1,1,material/114.png,,,,,,,,,,,,,,,,,0,82,82,13,,,,,,,,,,,,,,,4,0.79211306572,,,,,,,,,moral_self_bias,15,22,59.9908747248,f,001,2018_Apr_02_1525,
忠心,material/instr2_1.png,material/instr2_1.png,material/instr2_1.png,1,1,1,material/12.png,f,material/112.png,f,f,忠心,忠诚,self,self,self,1,1,1,material/112.png,,,,,,,,,,,,,,,,,0,83,83,11,,,,,,,,,,,,,,,5,0.591582775116,,,,,,,,,moral_self_bias,15,22,59.9908747248,f,001,2018_Apr_02_1525,
虚荣,material/instr2_1.png,material/instr2_1.png,material/instr2_1.png,2,2,2,material/43.png,f,material/143.png,f,f,虚荣,拜金,self,self,self,1,1,1,material/143.png,,,,,,,,,,,,,,,,,0,84,84,42,,,,,,,,,,,,,,,1,0.708445072174,,,,,,,,,moral_self_bias,15,22,59.9908747248,f,001,2018_Apr_02_1525,
缺德,material/instr2_2.png,material/instr2_2.png,material/instr2_2.png,2,2,2,material/38.png,j,material/138.png,j,j,缺德,无德,friend,friend,friend,1,1,1,material/138.png,,,,,,,,,,,,,,,,,0,85,85,37,,,,,,,,,,,,,,,1,1.17616701126,,,,,,,,,moral_self_bias,15,22,59.9908747248,f,001,2018_Apr_02_1525,
浮夸,material/instr2_2.png,material/instr2_2.png,material/instr2_2.png,2,2,2,material/77.png,j,material/172.png,j,j,浮夸,软弱,friend,friend,friend,1,1,1,material/172.png,,,,,,,,,,,,,,,,,0,86,86,71,,,,,,,,,,,,,,,1,0.65886592865,,,,,,,,,moral_self_bias,15,22,59.9908747248,f,001,2018_Apr_02_1525,
冷血,material/instr2_1.png,material/instr2_1.png,material/instr2_1.png,2,2,2,material/35.png,f,material/135.png,f,f,冷血,冷漠,self,self,self,1,1,1,material/135.png,,,,,,,,,,,,,,,,,0,87,87,34,,,,,,,,,,,,,,,1,0.575911998749,,,,,,,,,moral_self_bias,15,22,59.9908747248,f,001,2018_Apr_02_1525,
,,,,,,,,,,,,,,,,,,,,,30-29= ?,,,,,,,,,,,,,,,,,,,,0,0,0,73,,,,,,,,,,,,,,,,,,,,,moral_self_bias,15,22,59.9908747248,f,001,2018_Apr_02_1525,
,,,,,,,,,,,,,,,,,,,,,2+1= ?,,,,,,,,,,,,,,,,,,,,0,1,1,7,,,,,,,,,,,,,,,,,,,,,moral_self_bias,15,22,59.9908747248,f,001,2018_Apr_02_1525,
,,,,,,,,,,,,,,,,,,,,,4+1= ?,,,,,,,,,,,,,,,,,,,,0,2,2,25,,,,,,,,,,,,,,,,,,,,,moral_self_bias,15,22,59.9908747248,f,001,2018_Apr_02_1525,
,,,,,,,,,,,,,,,,,,,,,11-5= ?,,,,,,,,,,,,,,,,,,,,0,3,3,107,,,,,,,,,,,,,,,,,,,,,moral_self_bias,15,22,59.9908747248,f,001,2018_Apr_02_1525,
,,,,,,,,,,,,,,,,,,,,,32-32= ?,,,,,,,,,,,,,,,,,,,,0,4,4,80,,,,,,,,,,,,,,,,,,,,,moral_self_bias,15,22,59.9908747248,f,001,2018_Apr_02_1525,
,,,,,,,,,,,,,,,,,,,,,2^2= ?,,,,,,,,,,,,,,,,,,,,0,5,5,49,,,,,,,,,,,,,,,,,,,,,moral_self_bias,15,22,59.9908747248,f,001,2018_Apr_02_1525,
,,,,,,,,,,,,,,,,,,,,,7+2= ?,,,,,,,,,,,,,,,,,,,,0,6,6,47,,,,,,,,,,,,,,,,,,,,,moral_self_bias,15,22,59.9908747248,f,001,2018_Apr_02_1525,
,,,,,,,,,,,,,,,,,,,,,3+3= ?,,,,,,,,,,,,,,,,,,,,0,7,7,18,,,,,,,,,,,,,,,,,,,,,moral_self_bias,15,22,59.9908747248,f,001,2018_Apr_02_1525,
,,,,,,,,,,,,,,,,,,,,,9-6= ?,,,,,,,,,,,,,,,,,,,,0,8,8,24,,,,,,,,,,,,,,,,,,,,,moral_self_bias,15,22,59.9908747248,f,001,2018_Apr_02_1525,
,,,,,,,,,,,,,,,,,,,,,9-3= ?,,,,,,,,,,,,,,,,,,,,0,9,9,15,,,,,,,,,,,,,,,,,,,,,moral_self_bias,15,22,59.9908747248,f,001,2018_Apr_02_1525,
,,,,,,,,,,,,,,,,,,,,,22-22= ?,,,,,,,,,,,,,,,,,,,,0,10,10,93,,,,,,,,,,,,,,,,,,,,,moral_self_bias,15,22,59.9908747248,f,001,2018_Apr_02_1525,
,,,,,,,,,,,,,,,,,,,,,7*1= ?,,,,,,,,,,,,,,,,,,,,0,11,11,113,,,,,,,,,,,,,,,,,,,,,moral_self_bias,15,22,59.9908747248,f,001,2018_Apr_02_1525,
,,,,,,,,,,,,,,,,,,,,,1+8= ?,,,,,,,,,,,,,,,,,,,,0,12,12,6,,,,,,,,,,,,,,,,,,,,,moral_self_bias,15,22,59.9908747248,f,001,2018_Apr_02_1525,
,,,,,,,,,,,,,,,,,,,,,6*0= ?,,,,,,,,,,,,,,,,,,,,0,13,13,87,,,,,,,,,,,,,,,,,,,,,moral_self_bias,15,22,59.9908747248,f,001,2018_Apr_02_1525,
,,,,,,,,,,,,,,,,,,,,,2+2= ?,,,,,,,,,,,,,,,,,,,,0,14,14,8,,,,,,,,,,,,,,,,,,,,,moral_self_bias,15,22,59.9908747248,f,001,2018_Apr_02_1525,
,,,,,,,,,,,,,,,,,,,,,50-42= ?,,,,,,,,,,,,,,,,,,,,0,15,15,81,,,,,,,,,,,,,,,,,,,,,moral_self_bias,15,22,59.9908747248,f,001,2018_Apr_02_1525,
,,,,,,,,,,,,,,,,,,,,,5-3= ?,,,,,,,,,,,,,,,,,,,,0,16,16,116,,,,,,,,,,,,,,,,,,,,,moral_self_bias,15,22,59.9908747248,f,001,2018_Apr_02_1525,
,,,,,,,,,,,,,,,,,,,,,4/4= ?,,,,,,,,,,,,,,,,,,,,0,17,17,55,,,,,,,,,,,,,,,,,,,,,moral_self_bias,15,22,59.9908747248,f,001,2018_Apr_02_1525,
,,,,,,,,,,,,,,,,,,,,,5+2= ?,,,,,,,,,,,,,,,,,,,,0,18,18,35,,,,,,,,,,,,,,,,,,,,,moral_self_bias,15,22,59.9908747248,f,001,2018_Apr_02_1525,
,,,,,,,,,,,,,,,,,,,,,81/9= ?,,,,,,,,,,,,,,,,,,,,0,19,19,75,,,,,,,,,,,,,,,,,,,,,moral_self_bias,15,22,59.9908747248,f,001,2018_Apr_02_1525,
,,,,,,,,,,,,,,,,,,,,,12-5=？,,,,,,,,,,,,,,,,,,,,0,20,20,65,,,,,,,,,,,,,,,,,,,,,moral_self_bias,15,22,59.9908747248,f,001,2018_Apr_02_1525,
,,,,,,,,,,,,,,,,,,,,,90/45= ?,,,,,,,,,,,,,,,,,,,,0,21,21,74,,,,,,,,,,,,,,,,,,,,,moral_self_bias,15,22,59.9908747248,f,001,2018_Apr_02_1525,
,,,,,,,,,,,,,,,,,,,,,8-6= ?,,,,,,,,,,,,,,,,,,,,0,22,22,42,,,,,,,,,,,,,,,,,,,,,moral_self_bias,15,22,59.9908747248,f,001,2018_Apr_02_1525,
,,,,,,,,,,,,,,,,,,,,,3^1= ?,,,,,,,,,,,,,,,,,,,,0,23,23,101,,,,,,,,,,,,,,,,,,,,,moral_self_bias,15,22,59.9908747248,f,001,2018_Apr_02_1525,
,,,,,,,,,,,,,,,,,,,,,9-7= ?,,,,,,,,,,,,,,,,,,,,0,24,24,30,,,,,,,,,,,,,,,,,,,,,moral_self_bias,15,22,59.9908747248,f,001,2018_Apr_02_1525,
,,,,,,,,,,,,,,,,,,,,,3+5= ?,,,,,,,,,,,,,,,,,,,,0,25,25,20,,,,,,,,,,,,,,,,,,,,,moral_self_bias,15,22,59.9908747248,f,001,2018_Apr_02_1525,
,,,,,,,,,,,,,,,,,,,,,56/7= ?,,,,,,,,,,,,,,,,,,,,0,26,26,77,,,,,,,,,,,,,,,,,,,,,moral_self_bias,15,22,59.9908747248,f,001,2018_Apr_02_1525,
,,,,,,,,,,,,,,,,,,,,,9-4= ?,,,,,,,,,,,,,,,,,,,,0,27,27,22,,,,,,,,,,,,,,,,,,,,,moral_self_bias,15,22,59.9908747248,f,001,2018_Apr_02_1525,
,,,,,,,,,,,,,,,,,,,,,9/3= ?,,,,,,,,,,,,,,,,,,,,0,28,28,56,,,,,,,,,,,,,,,,,,,,,moral_self_bias,15,22,59.9908747248,f,001,2018_Apr_02_1525,
,,,,,,,,,,,,,,,,,,,,,12/4= ?,,,,,,,,,,,,,,,,,,,,0,29,29,89,,,,,,,,,,,,,,,,,,,,,moral_self_bias,15,22,59.9908747248,f,001,2018_Apr_02_1525,
,,,,,,,,,,,,,,,,,,,,,6^0= ?,,,,,,,,,,,,,,,,,,,,0,30,30,114,,,,,,,,,,,,,,,,,,,,,moral_self_bias,15,22,59.9908747248,f,001,2018_Apr_02_1525,
,,,,,,,,,,,,,,,,,,,,,2+7= ?,,,,,,,,,,,,,,,,,,,,0,31,31,13,,,,,,,,,,,,,,,,,,,,,moral_self_bias,15,22,59.9908747248,f,001,2018_Apr_02_1525,
,,,,,,,,,,,,,,,,,,,,,10-5=？,,,,,,,,,,,,,,,,,,,,0,32,32,67,,,,,,,,,,,,,,,,,,,,,moral_self_bias,15,22,59.9908747248,f,001,2018_Apr_02_1525,
,,,,,,,,,,,,,,,,,,,,,15-10=？,,,,,,,,,,,,,,,,,,,,0,33,33,61,,,,,,,,,,,,,,,,,,,,,moral_self_bias,15,22,59.9908747248,f,001,2018_Apr_02_1525,
,,,,,,,,,,,,,,,,,,,,,9-9= ?,,,,,,,,,,,,,,,,,,,,0,34,34,32,,,,,,,,,,,,,,,,,,,,,moral_self_bias,15,22,59.9908747248,f,001,2018_Apr_02_1525,
,,,,,,,,,,,,,,,,,,,,,11-4=？,,,,,,,,,,,,,,,,,,,,0,35,35,66,,,,,,,,,,,,,,,,,,,,,moral_self_bias,15,22,59.9908747248,f,001,2018_Apr_02_1525,
,,,,,,,,,,,,,,,,,,,,,9-8= ?,,,,,,,,,,,,,,,,,,,,0,36,36,31,,,,,,,,,,,,,,,,,,,,,moral_self_bias,15,22,59.9908747248,f,001,2018_Apr_02_1525,
,,,,,,,,,,,,,,,,,,,,,12-7= ?,,,,,,,,,,,,,,,,,,,,0,37,37,115,,,,,,,,,,,,,,,,,,,,,moral_self_bias,15,22,59.9908747248,f,001,2018_Apr_02_1525,
,,,,,,,,,,,,,,,,,,,,,8-2= ?,,,,,,,,,,,,,,,,,,,,0,38,38,38,,,,,,,,,,,,,,,,,,,,,moral_self_bias,15,22,59.9908747248,f,001,2018_Apr_02_1525,
,,,,,,,,,,,,,,,,,,,,,1+1= ?,,,,,,,,,,,,,,,,,,,,0,39,39,0,,,,,,,,,,,,,,,,,,,,,moral_self_bias,15,22,59.9908747248,f,001,2018_Apr_02_1525,
,,,,,,,,,,,,,,,,,,,,,3^2= ?,,,,,,,,,,,,,,,,,,,,0,40,40,50,,,,,,,,,,,,,,,,,,,,,moral_self_bias,15,22,59.9908747248,f,001,2018_Apr_02_1525,
,,,,,,,,,,,,,,,,,,,,,6/2= ?,,,,,,,,,,,,,,,,,,,,0,41,41,58,,,,,,,,,,,,,,,,,,,,,moral_self_bias,15,22,59.9908747248,f,001,2018_Apr_02_1525,
,,,,,,,,,,,,,,,,,,,,,3*2= ?,,,,,,,,,,,,,,,,,,,,0,42,42,53,,,,,,,,,,,,,,,,,,,,,moral_self_bias,15,22,59.9908747248,f,001,2018_Apr_02_1525,
,,,,,,,,,,,,,,,,,,,,,5*0= ?,,,,,,,,,,,,,,,,,,,,0,43,43,86,,,,,,,,,,,,,,,,,,,,,moral_self_bias,15,22,59.9908747248,f,001,2018_Apr_02_1525,
,,,,,,,,,,,,,,,,,,,,,9-1=?,,,,,,,,,,,,,,,,,,,,0,44,44,2,,,,,,,,,,,,,,,,,,,,,moral_self_bias,15,22,59.9908747248,f,001,2018_Apr_02_1525,
,,,,,,,,,,,,,,,,,,,,,9+0= ?,,,,,,,,,,,,,,,,,,,,0,45,45,118,,,,,,,,,,,,,,,,,,,,,moral_self_bias,15,22,59.9908747248,f,001,2018_Apr_02_1525,
,,,,,,,,,,,,,,,,,,,,,8-5= ?,,,,,,,,,,,,,,,,,,,,0,46,46,41,,,,,,,,,,,,,,,,,,,,,moral_self_bias,15,22,59.9908747248,f,001,2018_Apr_02_1525,
,,,,,,,,,,,,,,,,,,,,,4+2= ?,,,,,,,,,,,,,,,,,,,,0,47,47,26,,,,,,,,,,,,,,,,,,,,,moral_self_bias,15,22,59.9908747248,f,001,2018_Apr_02_1525,
,,,,,,,,,,,,,,,,,,,,,12/12= ?,,,,,,,,,,,,,,,,,,,,0,48,48,91,,,,,,,,,,,,,,,,,,,,,moral_self_bias,15,22,59.9908747248,f,001,2018_Apr_02_1525,
,,,,,,,,,,,,,,,,,,,,,18/2= ?,,,,,,,,,,,,,,,,,,,,0,49,49,97,,,,,,,,,,,,,,,,,,,,,moral_self_bias,15,22,59.9908747248,f,001,2018_Apr_02_1525,
,,,,,,,,,,,,,,,,,,,,,21/7= ?,,,,,,,,,,,,,,,,,,,,0,50,50,70,,,,,,,,,,,,,,,,,,,,,moral_self_bias,15,22,59.9908747248,f,001,2018_Apr_02_1525,
,,,,,,,,,,,,,,,,,,,,,23^0= ?,,,,,,,,,,,,,,,,,,,,0,51,51,94,,,,,,,,,,,,,,,,,,,,,moral_self_bias,15,22,59.9908747248,f,001,2018_Apr_02_1525,
,,,,,,,,,,,,,,,,,,,,,11-3=？,,,,,,,,,,,,,,,,,,,,0,52,52,68,,,,,,,,,,,,,,,,,,,,,moral_self_bias,15,22,59.9908747248,f,001,2018_Apr_02_1525,
,,,,,,,,,,,,,,,,,,,,,8-3= ?,,,,,,,,,,,,,,,,,,,,0,53,53,39,,,,,,,,,,,,,,,,,,,,,moral_self_bias,15,22,59.9908747248,f,001,2018_Apr_02_1525,
,,,,,,,,,,,,,,,,,,,,,1+2= ?,,,,,,,,,,,,,,,,,,,,0,54,54,1,,,,,,,,,,,,,,,,,,,,,moral_self_bias,15,22,59.9908747248,f,001,2018_Apr_02_1525,
,,,,,,,,,,,,,,,,,,,,,4^1= ?,,,,,,,,,,,,,,,,,,,,0,55,55,102,,,,,,,,,,,,,,,,,,,,,moral_self_bias,15,22,59.9908747248,f,001,2018_Apr_02_1525,
,,,,,,,,,,,,,,,,,,,,,20/5=？,,,,,,,,,,,,,,,,,,,,0,56,56,69,,,,,,,,,,,,,,,,,,,,,moral_self_bias,15,22,59.9908747248,f,001,2018_Apr_02_1525,
,,,,,,,,,,,,,,,,,,,,,8-1= ?,,,,,,,,,,,,,,,,,,,,0,57,57,33,,,,,,,,,,,,,,,,,,,,,moral_self_bias,15,22,59.9908747248,f,001,2018_Apr_02_1525,
,,,,,,,,,,,,,,,,,,,,,16-11=？,,,,,,,,,,,,,,,,,,,,0,58,58,62,,,,,,,,,,,,,,,,,,,,,moral_self_bias,15,22,59.9908747248,f,001,2018_Apr_02_1525,
,,,,,,,,,,,,,,,,,,,,,6+1= ?,,,,,,,,,,,,,,,,,,,,0,59,59,43,,,,,,,,,,,,,,,,,,,,,moral_self_bias,15,22,59.9908747248,f,001,2018_Apr_02_1525,
,,,,,,,,,,,,,,,,,,,,,2+6= ?,,,,,,,,,,,,,,,,,,,,0,60,60,12,,,,,,,,,,,,,,,,,,,,,moral_self_bias,15,22,59.9908747248,f,001,2018_Apr_02_1525,
,,,,,,,,,,,,,,,,,,,,,3+0= ?,,,,,,,,,,,,,,,,,,,,0,61,61,105,,,,,,,,,,,,,,,,,,,,,moral_self_bias,15,22,59.9908747248,f,001,2018_Apr_02_1525,
,,,,,,,,,,,,,,,,,,,,,1*8= ?,,,,,,,,,,,,,,,,,,,,0,62,62,110,,,,,,,,,,,,,,,,,,,,,moral_self_bias,15,22,59.9908747248,f,001,2018_Apr_02_1525,
,,,,,,,,,,,,,,,,,,,,,1+7= ?,,,,,,,,,,,,,,,,,,,,0,63,63,4,,,,,,,,,,,,,,,,,,,,,moral_self_bias,15,22,59.9908747248,f,001,2018_Apr_02_1525,
,,,,,,,,,,,,,,,,,,,,,8+1= ?,,,,,,,,,,,,,,,,,,,,0,64,64,48,,,,,,,,,,,,,,,,,,,,,moral_self_bias,15,22,59.9908747248,f,001,2018_Apr_02_1525,
,,,,,,,,,,,,,,,,,,,,,1+9= ?,,,,,,,,,,,,,,,,,,,,0,65,65,3,,,,,,,,,,,,,,,,,,,,,moral_self_bias,15,22,59.9908747248,f,001,2018_Apr_02_1525,
,,,,,,,,,,,,,,,,,,,,,7+1= ?,,,,,,,,,,,,,,,,,,,,0,66,66,46,,,,,,,,,,,,,,,,,,,,,moral_self_bias,15,22,59.9908747248,f,001,2018_Apr_02_1525,
,,,,,,,,,,,,,,,,,,,,,18/9= ?,,,,,,,,,,,,,,,,,,,,0,67,67,96,,,,,,,,,,,,,,,,,,,,,moral_self_bias,15,22,59.9908747248,f,001,2018_Apr_02_1525,
,,,,,,,,,,,,,,,,,,,,,43-34= ?,,,,,,,,,,,,,,,,,,,,0,68,68,79,,,,,,,,,,,,,,,,,,,,,moral_self_bias,15,22,59.9908747248,f,001,2018_Apr_02_1525,
,,,,,,,,,,,,,,,,,,,,,12-12= ?,,,,,,,,,,,,,,,,,,,,0,69,69,99,,,,,,,,,,,,,,,,,,,,,moral_self_bias,15,22,59.9908747248,f,001,2018_Apr_02_1525,
,,,,,,,,,,,,,,,,,,,,,11-8= ?,,,,,,,,,,,,,,,,,,,,0,70,70,106,,,,,,,,,,,,,,,,,,,,,moral_self_bias,15,22,59.9908747248,f,001,2018_Apr_02_1525,
,,,,,,,,,,,,,,,,,,,,,14-9=？,,,,,,,,,,,,,,,,,,,,0,71,71,63,,,,,,,,,,,,,,,,,,,,,moral_self_bias,15,22,59.9908747248,f,001,2018_Apr_02_1525,
,,,,,,,,,,,,,,,,,,,,,13-5= ?,,,,,,,,,,,,,,,,,,,,0,72,72,98,,,,,,,,,,,,,,,,,,,,,moral_self_bias,15,22,59.9908747248,f,001,2018_Apr_02_1525,
,,,,,,,,,,,,,,,,,,,,,29-27= ?,,,,,,,,,,,,,,,,,,,,0,73,73,72,,,,,,,,,,,,,,,,,,,,,moral_self_bias,15,22,59.9908747248,f,001,2018_Apr_02_1525,
,,,,,,,,,,,,,,,,,,,,,3+2= ?,,,,,,,,,,,,,,,,,,,,0,74,74,17,,,,,,,,,,,,,,,,,,,,,moral_self_bias,15,22,59.9908747248,f,001,2018_Apr_02_1525,
,,,,,,,,,,,,,,,,,,,,,4+3= ?,,,,,,,,,,,,,,,,,,,,0,75,75,27,,,,,,,,,,,,,,,,,,,,,moral_self_bias,15,22,59.9908747248,f,001,2018_Apr_02_1525,
,,,,,,,,,,,,,,,,,,,,,8/4= ?,,,,,,,,,,,,,,,,,,,,0,76,76,57,,,,,,,,,,,,,,,,,,,,,moral_self_bias,15,22,59.9908747248,f,001,2018_Apr_02_1525,
,,,,,,,,,,,,,,,,,,,,,6^0= ?,,,,,,,,,,,,,,,,,,,,0,77,77,103,,,,,,,,,,,,,,,,,,,,,moral_self_bias,15,22,59.9908747248,f,001,2018_Apr_02_1525,
,,,,,,,,,,,,,,,,,,,,,13-6=？,,,,,,,,,,,,,,,,,,,,0,78,78,64,,,,,,,,,,,,,,,,,,,,,moral_self_bias,15,22,59.9908747248,f,001,2018_Apr_02_1525,
,,,,,,,,,,,,,,,,,,,,,1^2= ?,,,,,,,,,,,,,,,,,,,,0,79,79,51,,,,,,,,,,,,,,,,,,,,,moral_self_bias,15,22,59.9908747248,f,001,2018_Apr_02_1525,
,,,,,,,,,,,,,,,,,,,,,2+3= ?,,,,,,,,,,,,,,,,,,,,0,80,80,9,,,,,,,,,,,,,,,,,,,,,moral_self_bias,15,22,59.9908747248,f,001,2018_Apr_02_1525,
,,,,,,,,,,,,,,,,,,,,,49/7 = ?,,,,,,,,,,,,,,,,,,,,0,81,81,78,,,,,,,,,,,,,,,,,,,,,moral_self_bias,15,22,59.9908747248,f,001,2018_Apr_02_1525,
,,,,,,,,,,,,,,,,,,,,,7*0= ?,,,,,,,,,,,,,,,,,,,,0,82,82,88,,,,,,,,,,,,,,,,,,,,,moral_self_bias,15,22,59.9908747248,f,001,2018_Apr_02_1525,
,,,,,,,,,,,,,,,,,,,,,1+6= ?,,,,,,,,,,,,,,,,,,,,0,83,83,5,,,,,,,,,,,,,,,,,,,,,moral_self_bias,15,22,59.9908747248,f,001,2018_Apr_02_1525,
,,,,,,,,,,,,,,,,,,,,,72/9= ?,,,,,,,,,,,,,,,,,,,,0,84,84,76,,,,,,,,,,,,,,,,,,,,,moral_self_bias,15,22,59.9908747248,f,001,2018_Apr_02_1525,
,,,,,,,,,,,,,,,,,,,,,13-9= ?,,,,,,,,,,,,,,,,,,,,0,85,85,92,,,,,,,,,,,,,,,,,,,,,moral_self_bias,15,22,59.9908747248,f,001,2018_Apr_02_1525,
,,,,,,,,,,,,,,,,,,,,,2*4= ?,,,,,,,,,,,,,,,,,,,,0,86,86,84,,,,,,,,,,,,,,,,,,,,,moral_self_bias,15,22,59.9908747248,f,001,2018_Apr_02_1525,
,,,,,,,,,,,,,,,,,,,,,6+3= ?,,,,,,,,,,,,,,,,,,,,0,87,87,45,,,,,,,,,,,,,,,,,,,,,moral_self_bias,15,22,59.9908747248,f,001,2018_Apr_02_1525,
,,,,,,,,,,,,,,,,,,,,,4*1= ?,,,,,,,,,,,,,,,,,,,,0,88,88,85,,,,,,,,,,,,,,,,,,,,,moral_self_bias,15,22,59.9908747248,f,001,2018_Apr_02_1525,
,,,,,,,,,,,,,,,,,,,,,3+1= ?,,,,,,,,,,,,,,,,,,,,0,89,89,16,,,,,,,,,,,,,,,,,,,,,moral_self_bias,15,22,59.9908747248,f,001,2018_Apr_02_1525,
,,,,,,,,,,,,,,,,,,,,,17-12= ? ,,,,,,,,,,,,,,,,,,,,0,90,90,104,,,,,,,,,,,,,,,,,,,,,moral_self_bias,15,22,59.9908747248,f,001,2018_Apr_02_1525,
,,,,,,,,,,,,,,,,,,,,,2*3= ?,,,,,,,,,,,,,,,,,,,,0,91,91,108,,,,,,,,,,,,,,,,,,,,,moral_self_bias,15,22,59.9908747248,f,001,2018_Apr_02_1525,
,,,,,,,,,,,,,,,,,,,,,21/3= ? ,,,,,,,,,,,,,,,,,,,,0,92,92,95,,,,,,,,,,,,,,,,,,,,,moral_self_bias,15,22,59.9908747248,f,001,2018_Apr_02_1525,
,,,,,,,,,,,,,,,,,,,,,4*2= ?,,,,,,,,,,,,,,,,,,,,0,93,93,82,,,,,,,,,,,,,,,,,,,,,moral_self_bias,15,22,59.9908747248,f,001,2018_Apr_02_1525,
,,,,,,,,,,,,,,,,,,,,,5/1= ?,,,,,,,,,,,,,,,,,,,,0,94,94,59,,,,,,,,,,,,,,,,,,,,,moral_self_bias,15,22,59.9908747248,f,001,2018_Apr_02_1525,
,,,,,,,,,,,,,,,,,,,,,2+4= ?,,,,,,,,,,,,,,,,,,,,0,95,95,10,,,,,,,,,,,,,,,,,,,,,moral_self_bias,15,22,59.9908747248,f,001,2018_Apr_02_1525,
,,,,,,,,,,,,,,,,,,,,,11-11= ?,,,,,,,,,,,,,,,,,,,,0,96,96,119,,,,,,,,,,,,,,,,,,,,,moral_self_bias,15,22,59.9908747248,f,001,2018_Apr_02_1525,
,,,,,,,,,,,,,,,,,,,,,5+3= ?,,,,,,,,,,,,,,,,,,,,0,97,97,36,,,,,,,,,,,,,,,,,,,,,moral_self_bias,15,22,59.9908747248,f,001,2018_Apr_02_1525,
,,,,,,,,,,,,,,,,,,,,,10-9= ?,,,,,,,,,,,,,,,,,,,,0,98,98,112,,,,,,,,,,,,,,,,,,,,,moral_self_bias,15,22,59.9908747248,f,001,2018_Apr_02_1525,
,,,,,,,,,,,,,,,,,,,,,5+1= ?,,,,,,,,,,,,,,,,,,,,0,99,99,34,,,,,,,,,,,,,,,,,,,,,moral_self_bias,15,22,59.9908747248,f,001,2018_Apr_02_1525,
,,,,,,,,,,,,,,,,,,,,,9-5= ?,,,,,,,,,,,,,,,,,,,,0,100,100,23,,,,,,,,,,,,,,,,,,,,,moral_self_bias,15,22,59.9908747248,f,001,2018_Apr_02_1525,
,,,,,,,,,,,,,,,,,,,,,4+5= ?,,,,,,,,,,,,,,,,,,,,0,101,101,29,,,,,,,,,,,,,,,,,,,,,moral_self_bias,15,22,59.9908747248,f,001,2018_Apr_02_1525,
,,,,,,,,,,,,,,,,,,,,,12/6= ?,,,,,,,,,,,,,,,,,,,,0,102,102,90,,,,,,,,,,,,,,,,,,,,,moral_self_bias,15,22,59.9908747248,f,001,2018_Apr_02_1525,
,,,,,,,,,,,,,,,,,,,,,8-4= ?,,,,,,,,,,,,,,,,,,,,0,103,103,40,,,,,,,,,,,,,,,,,,,,,moral_self_bias,15,22,59.9908747248,f,001,2018_Apr_02_1525,
,,,,,,,,,,,,,,,,,,,,,22/11= ?,,,,,,,,,,,,,,,,,,,,0,104,104,71,,,,,,,,,,,,,,,,,,,,,moral_self_bias,15,22,59.9908747248,f,001,2018_Apr_02_1525,
,,,,,,,,,,,,,,,,,,,,,5+4= ?,,,,,,,,,,,,,,,,,,,,0,105,105,37,,,,,,,,,,,,,,,,,,,,,moral_self_bias,15,22,59.9908747248,f,001,2018_Apr_02_1525,
,,,,,,,,,,,,,,,,,,,,,1*9= ?,,,,,,,,,,,,,,,,,,,,0,106,106,109,,,,,,,,,,,,,,,,,,,,,moral_self_bias,15,22,59.9908747248,f,001,2018_Apr_02_1525,
,,,,,,,,,,,,,,,,,,,,,9-2= ?,,,,,,,,,,,,,,,,,,,,0,107,107,14,,,,,,,,,,,,,,,,,,,,,moral_self_bias,15,22,59.9908747248,f,001,2018_Apr_02_1525,
,,,,,,,,,,,,,,,,,,,,,3+4= ?,,,,,,,,,,,,,,,,,,,,0,108,108,19,,,,,,,,,,,,,,,,,,,,,moral_self_bias,15,22,59.9908747248,f,001,2018_Apr_02_1525,
,,,,,,,,,,,,,,,,,,,,,7-0= ?,,,,,,,,,,,,,,,,,,,,0,109,109,117,,,,,,,,,,,,,,,,,,,,,moral_self_bias,15,22,59.9908747248,f,001,2018_Apr_02_1525,
,,,,,,,,,,,,,,,,,,,,,3*1= ?,,,,,,,,,,,,,,,,,,,,0,110,110,83,,,,,,,,,,,,,,,,,,,,,moral_self_bias,15,22,59.9908747248,f,001,2018_Apr_02_1525,
,,,,,,,,,,,,,,,,,,,,,3+6= ?,,,,,,,,,,,,,,,,,,,,0,111,111,21,,,,,,,,,,,,,,,,,,,,,moral_self_bias,15,22,59.9908747248,f,001,2018_Apr_02_1525,
,,,,,,,,,,,,,,,,,,,,,19-17= ?,,,,,,,,,,,,,,,,,,,,0,112,112,100,,,,,,,,,,,,,,,,,,,,,moral_self_bias,15,22,59.9908747248,f,001,2018_Apr_02_1525,
,,,,,,,,,,,,,,,,,,,,,4+4= ?,,,,,,,,,,,,,,,,,,,,0,113,113,28,,,,,,,,,,,,,,,,,,,,,moral_self_bias,15,22,59.9908747248,f,001,2018_Apr_02_1525,
,,,,,,,,,,,,,,,,,,,,,2+5= ?,,,,,,,,,,,,,,,,,,,,0,114,114,11,,,,,,,,,,,,,,,,,,,,,moral_self_bias,15,22,59.9908747248,f,001,2018_Apr_02_1525,
,,,,,,,,,,,,,,,,,,,,,3*3= ?,,,,,,,,,,,,,,,,,,,,0,115,115,54,,,,,,,,,,,,,,,,,,,,,moral_self_bias,15,22,59.9908747248,f,001,2018_Apr_02_1525,
,,,,,,,,,,,,,,,,,,,,,1-1= ?,,,,,,,,,,,,,,,,,,,,0,116,116,52,,,,,,,,,,,,,,,,,,,,,moral_self_bias,15,22,59.9908747248,f,001,2018_Apr_02_1525,
,,,,,,,,,,,,,,,,,,,,,32-23=？,,,,,,,,,,,,,,,,,,,,0,117,117,60,,,,,,,,,,,,,,,,,,,,,moral_self_bias,15,22,59.9908747248,f,001,2018_Apr_02_1525,
,,,,,,,,,,,,,,,,,,,,,6+2= ?,,,,,,,,,,,,,,,,,,,,0,118,118,44,,,,,,,,,,,,,,,,,,,,,moral_self_bias,15,22,59.9908747248,f,001,2018_Apr_02_1525,
,,,,,,,,,,,,,,,,,,,,,8*1= ?,,,,,,,,,,,,,,,,,,,,0,119,119,111,,,,,,,,,,,,,,,,,,,,,moral_self_bias,15,22,59.9908747248,f,001,2018_Apr_02_1525,
,,,,,,,,,,,,,,,,,,,,,,,,,,,,,,,,,,,,,,,,,,,,,,,,,,,,,,,,,3,2.64382195473,,,,,,,moral_self_bias,15,22,59.9908747248,f,001,2018_Apr_02_1525,
,,,,,,,,,,,,,,,,,,,,,,material/39.png,2,恶毒,material/139.png,2,material/139.png,恶毒,2,f,f,f,1,1,1,凶残,,,,,,,,,0,0,0,118,0,0,0,0,,,,,,,f,1,10.4580481052,j,0,3.22505187988,moral_self_bias,15,22,59.9908747248,f,001,2018_Apr_02_1525,
,,,,,,,,,,,,,,,,,,,,,,material/39.png,2,恶毒,material/139.png,2,material/139.png,恶毒,2,f,f,f,1,1,1,凶残,,,,,,,,,0,0,0,118,,,,,,,,,,,,,,,,,moral_self_bias,15,22,59.9908747248,f,001,2018_Apr_02_1525,
,,,,,,,,,,,,,,,,,,,,,,material/15.png,1,纯洁,material/115.png,1,material/115.png,纯洁,1,f,f,f,1,1,1,清白,,,,,,,,,0,1,1,94,0,0,0,0,,,,,,,f,1,4.64052295685,j,0,1.60793495178,moral_self_bias,15,22,59.9908747248,f,001,2018_Apr_02_1525,
,,,,,,,,,,,,,,,,,,,,,,material/15.png,1,纯洁,material/115.png,1,material/115.png,纯洁,1,f,f,f,1,1,1,清白,,,,,,,,,0,1,1,94,,,,,,,,,,,,,,,,,moral_self_bias,15,22,59.9908747248,f,001,2018_Apr_02_1525,
,,,,,,,,,,,,,,,,,,,,,,material/175.png,2,残虐,material/73.png,2,material/73.png,残虐,2,f,f,f,1,1,1,无情,,,,,,,,,0,2,2,165,0,0,0,0,,,,,,,f,1,1.25789403915,f,1,2.14189720154,moral_self_bias,15,22,59.9908747248,f,001,2018_Apr_02_1525,
,,,,,,,,,,,,,,,,,,,,,,material/175.png,2,残虐,material/73.png,2,material/73.png,残虐,2,f,f,f,1,1,1,无情,,,,,,,,,0,2,2,165,,,,,,,,,,,,,,,,,moral_self_bias,15,22,59.9908747248,f,001,2018_Apr_02_1525,
,,,,,,,,,,,,,,,,,,,,,,material/138.png,2,无德,material/38.png,2,material/38.png,无德,2,j,j,j,1,1,1,缺德,,,,,,,,,0,3,3,37,0,0,0,0,,,,,,,f,0,3.5719871521,j,0,1.52441287041,moral_self_bias,15,22,59.9908747248,f,001,2018_Apr_02_1525,
,,,,,,,,,,,,,,,,,,,,,,material/138.png,2,无德,material/38.png,2,material/38.png,无德,2,j,j,j,1,1,1,缺德,,,,,,,,,0,3,3,37,,,,,,,,,,,,,,,,,moral_self_bias,15,22,59.9908747248,f,001,2018_Apr_02_1525,
,,,,,,,,,,,,,,,,,,,,,,material/103.png,1,仁慈,material/3.png,1,material/3.png,仁慈,1,j,j,j,1,1,1,仁厚,,,,,,,,,0,4,4,2,0,0,0,0,,,,,,,f,0,0.841493844986,f,1,1.24214601517,moral_self_bias,15,22,59.9908747248,f,001,2018_Apr_02_1525,
,,,,,,,,,,,,,,,,,,,,,,material/103.png,1,仁慈,material/3.png,1,material/3.png,仁慈,1,j,j,j,1,1,1,仁厚,,,,,,,,,0,4,4,2,,,,,,,,,,,,,,,,,moral_self_bias,15,22,59.9908747248,f,001,2018_Apr_02_1525,
,,,,,,,,,,,,,,,,,,,,,,material/22.png,1,才学,material/122.png,1,material/22.png,博学,1,f,f,f,2,2,2,才学,,,,,,,,,0,5,5,101,0,0,0,0,,,,,,,f,1,1.04057407379,f,1,0.65807890892,moral_self_bias,15,22,59.9908747248,f,001,2018_Apr_02_1525,
,,,,,,,,,,,,,,,,,,,,,,material/22.png,1,才学,material/122.png,1,material/22.png,博学,1,f,f,f,2,2,2,才学,,,,,,,,,0,5,5,101,,,,,,,,,,,,,,,,,moral_self_bias,15,22,59.9908747248,f,001,2018_Apr_02_1525,
,,,,,,,,,,,,,,,,,,,,,,material/149.png,2,白痴,material/49.png,2,material/149.png,痴呆,2,j,j,j,2,2,2,白痴,,,,,,,,,0,6,6,48,0,0,0,0,,,,,,,f,0,0.699504137039,f,1,0.590548992157,moral_self_bias,15,22,59.9908747248,f,001,2018_Apr_02_1525,
,,,,,,,,,,,,,,,,,,,,,,material/149.png,2,白痴,material/49.png,2,material/149.png,痴呆,2,j,j,j,2,2,2,白痴,,,,,,,,,0,6,6,48,,,,,,,,,,,,,,,,,moral_self_bias,15,22,59.9908747248,f,001,2018_Apr_02_1525,
,,,,,,,,,,,,,,,,,,,,,,material/40.png,2,狠毒,material/140.png,2,material/140.png,狠毒,2,f,f,f,1,1,1,邪恶,,,,,,,,,0,7,7,119,0,0,0,0,,,,,,,f,1,0.707682847977,j,0,0.59156703949,moral_self_bias,15,22,59.9908747248,f,001,2018_Apr_02_1525,
,,,,,,,,,,,,,,,,,,,,,,material/40.png,2,狠毒,material/140.png,2,material/140.png,狠毒,2,f,f,f,1,1,1,邪恶,,,,,,,,,0,7,7,119,,,,,,,,,,,,,,,,,moral_self_bias,15,22,59.9908747248,f,001,2018_Apr_02_1525,
,,,,,,,,,,,,,,,,,,,,,,material/66.png,1,独立,material/66.png,1,material/165.png,正义,1,f,f,f,1,1,1,正义,,,,,,,,,0,8,8,164,0,0,0,0,,,,,,,f,1,0.642114162445,j,0,1.14127111435,moral_self_bias,15,22,59.9908747248,f,001,2018_Apr_02_1525,
,,,,,,,,,,,,,,,,,,,,,,material/66.png,1,独立,material/66.png,1,material/165.png,正义,1,f,f,f,1,1,1,正义,,,,,,,,,0,8,8,164,,,,,,,,,,,,,,,,,moral_self_bias,15,22,59.9908747248,f,001,2018_Apr_02_1525,
,,,,,,,,,,,,,,,,,,,,,,material/6.png,1,厚道,material/106.png,1,material/106.png,厚道,1,f,f,f,1,1,1,诚实,,,,,,,,,0,9,9,85,0,0,0,0,,,,,,,f,1,1.2581551075,j,0,0.557790994644,moral_self_bias,15,22,59.9908747248,f,001,2018_Apr_02_1525,
,,,,,,,,,,,,,,,,,,,,,,material/6.png,1,厚道,material/106.png,1,material/106.png,厚道,1,f,f,f,1,1,1,诚实,,,,,,,,,0,9,9,85,,,,,,,,,,,,,,,,,moral_self_bias,15,22,59.9908747248,f,001,2018_Apr_02_1525,
,,,,,,,,,,,,,,,,,,,,,,material/11.png,1,高尚,material/111.png,1,material/111.png,高尚,1,f,f,f,1,1,1,高雅,,,,,,,,,0,10,10,90,0,0,0,0,,,,,,,f,1,8.97504806519,j,0,1.65844917297,moral_self_bias,15,22,59.9908747248,f,001,2018_Apr_02_1525,
,,,,,,,,,,,,,,,,,,,,,,material/11.png,1,高尚,material/111.png,1,material/111.png,高尚,1,f,f,f,1,1,1,高雅,,,,,,,,,0,10,10,90,,,,,,,,,,,,,,,,,moral_self_bias,15,22,59.9908747248,f,001,2018_Apr_02_1525,
,,,,,,,,,,,,,,,,,,,,,,material/160.png,2,笨拙,material/60.png,2,material/160.png,粗拙,2,j,j,j,2,2,2,笨拙,,,,,,,,,0,11,11,59,0,0,0,0,,,,,,,f,0,0.974566936493,f,1,0.574789047241,moral_self_bias,15,22,59.9908747248,f,001,2018_Apr_02_1525,
,,,,,,,,,,,,,,,,,,,,,,material/160.png,2,笨拙,material/60.png,2,material/160.png,粗拙,2,j,j,j,2,2,2,笨拙,,,,,,,,,0,11,11,59,,,,,,,,,,,,,,,,,moral_self_bias,15,22,59.9908747248,f,001,2018_Apr_02_1525,
,,,,,,,,,,,,,,,,,,,,,,material/114.png,1,爱国,material/14.png,1,material/14.png,爱国,1,j,j,j,1,1,1,忠贞,,,,,,,,,0,12,12,13,0,0,0,0,,,,,,,f,0,0.95782494545,f,1,0.541203975677,moral_self_bias,15,22,59.9908747248,f,001,2018_Apr_02_1525,
,,,,,,,,,,,,,,,,,,,,,,material/114.png,1,爱国,material/14.png,1,material/14.png,爱国,1,j,j,j,1,1,1,忠贞,,,,,,,,,0,12,12,13,,,,,,,,,,,,,,,,,moral_self_bias,15,22,59.9908747248,f,001,2018_Apr_02_1525,
,,,,,,,,,,,,,,,,,,,,,,material/43.png,2,虚荣,material/143.png,2,material/143.png,虚荣,2,f,f,f,1,1,1,拜金,,,,,,,,,0,13,13,122,0,0,0,0,,,,,,,f,1,0.916413068771,j,0,0.474727153778,moral_self_bias,15,22,59.9908747248,f,001,2018_Apr_02_1525,
,,,,,,,,,,,,,,,,,,,,,,material/43.png,2,虚荣,material/143.png,2,material/143.png,虚荣,2,f,f,f,1,1,1,拜金,,,,,,,,,0,13,13,122,,,,,,,,,,,,,,,,,moral_self_bias,15,22,59.9908747248,f,001,2018_Apr_02_1525,
,,,,,,,,,,,,,,,,,,,,,,material/177.png,2,谄媚,material/72.png,2,material/72.png,谄媚,2,j,j,j,1,1,1,恶心,,,,,,,,,0,14,14,69,,,,,,,,,,,j,1,1.34147191048,,,,moral_self_bias,15,22,59.9908747248,f,001,2018_Apr_02_1525,
,,,,,,,,,,,,,,,,,,,,,,material/59.png,2,智障,material/159.png,2,material/59.png,弱智,2,f,f,f,2,2,2,智障,,,,,,,,,0,15,15,138,0,0,0,0,,,,,,,f,1,1.17497491837,f,1,0.476031064987,moral_self_bias,15,22,59.9908747248,f,001,2018_Apr_02_1525,
,,,,,,,,,,,,,,,,,,,,,,material/59.png,2,智障,material/159.png,2,material/59.png,弱智,2,f,f,f,2,2,2,智障,,,,,,,,,0,15,15,138,,,,,,,,,,,,,,,,,moral_self_bias,15,22,59.9908747248,f,001,2018_Apr_02_1525,
,,,,,,,,,,,,,,,,,,,,,,material/81.png,2,呆笨,material/179.png,2,material/83.png,差生,2,f,f,f,2,2,2,无助,,,,,,,,,0,16,16,158,,,,,,,,,,,j,0,0.791254043579,,,,moral_self_bias,15,22,59.9908747248,f,001,2018_Apr_02_1525,
,,,,,,,,,,,,,,,,,,,,,,material/51.png,2,糊涂,material/151.png,2,material/51.png,迷糊,2,f,f,f,2,2,2,糊涂,,,,,,,,,0,17,17,130,,,,,,,,,,,j,0,0.766224145889,,,,moral_self_bias,15,22,59.9908747248,f,001,2018_Apr_02_1525,
,,,,,,,,,,,,,,,,,,,,,,material/5.png,1,诚信,material/105.png,1,material/105.png,诚信,1,f,f,f,1,1,1,守信,,,,,,,,,0,18,18,84,,,,,,,,,,,j,0,1.34198904037,,,,moral_self_bias,15,22,59.9908747248,f,001,2018_Apr_02_1525,
,,,,,,,,,,,,,,,,,,,,,,material/106.png,1,诚实,material/6.png,1,material/6.png,诚实,1,j,j,j,1,1,1,厚道,,,,,,,,,0,19,19,5,0,0,0,0,,,,,,,f,0,0.62516784668,f,1,0.424992084503,moral_self_bias,15,22,59.9908747248,f,001,2018_Apr_02_1525,
,,,,,,,,,,,,,,,,,,,,,,material/106.png,1,诚实,material/6.png,1,material/6.png,诚实,1,j,j,j,1,1,1,厚道,,,,,,,,,0,19,19,5,,,,,,,,,,,,,,,,,moral_self_bias,15,22,59.9908747248,f,001,2018_Apr_02_1525,
,,,,,,,,,,,,,,,,,,,,,,material/108.png,1,公道,material/8.png,1,material/8.png,公道,1,j,j,j,1,1,1,无私,,,,,,,,,0,20,20,7,,,,,,,,,,,j,1,0.757560968399,,,,moral_self_bias,15,22,59.9908747248,f,001,2018_Apr_02_1525,
,,,,,,,,,,,,,,,,,,,,,,material/178.png,2,窝囊,material/82.png,2,material/82.png,窝囊,2,j,j,j,2,2,2,毛糙,,,,,,,,,0,21,21,78,,,,,,,,,,,j,1,0.840440988541,,,,moral_self_bias,15,22,59.9908747248,f,001,2018_Apr_02_1525,
,,,,,,,,,,,,,,,,,,,,,,material/136.png,2,说谎,material/36.png,2,material/36.png,说谎,2,j,j,j,1,1,1,撒谎,,,,,,,,,0,22,22,35,,,,,,,,,,,j,1,0.758698940277,,,,moral_self_bias,15,22,59.9908747248,f,001,2018_Apr_02_1525,
,,,,,,,,,,,,,,,,,,,,,,material/58.png,2,肤浅,material/158.png,2,material/58.png,浅薄,2,f,f,f,2,2,2,肤浅,,,,,,,,,0,23,23,137,,,,,,,,,,,j,0,0.707552909851,,,,moral_self_bias,15,22,59.9908747248,f,001,2018_Apr_02_1525,
,,,,,,,,,,,,,,,,,,,,,,material/36.png,2,撒谎,material/136.png,2,material/136.png,撒谎,2,f,f,f,1,1,1,说谎,,,,,,,,,0,24,24,115,,,,,,,,,,,j,0,0.874886035919,,,,moral_self_bias,15,22,59.9908747248,f,001,2018_Apr_02_1525,
,,,,,,,,,,,,,,,,,,,,,,material/105.png,1,守信,material/5.png,1,material/5.png,守信,1,j,j,j,1,1,1,诚信,,,,,,,,,0,25,25,4,0,0,0,0,,,,,,,f,0,0.823673009872,f,1,0.40847992897,moral_self_bias,15,22,59.9908747248,f,001,2018_Apr_02_1525,
,,,,,,,,,,,,,,,,,,,,,,material/105.png,1,守信,material/5.png,1,material/5.png,守信,1,j,j,j,1,1,1,诚信,,,,,,,,,0,25,25,4,,,,,,,,,,,,,,,,,moral_self_bias,15,22,59.9908747248,f,001,2018_Apr_02_1525,
,,,,,,,,,,,,,,,,,,,,,,material/27.png,1,卓越,material/127.png,1,material/27.png,超群,1,f,f,f,2,2,2,卓越,,,,,,,,,0,26,26,106,,,,,,,,,,,j,0,0.916980028152,,,,moral_self_bias,15,22,59.9908747248,f,001,2018_Apr_02_1525,
,,,,,,,,,,,,,,,,,,,,,,material/125.png,1,果敢,material/25.png,1,material/125.png,果断,1,j,j,j,2,2,2,果敢,,,,,,,,,0,27,27,24,,,,,,,,,,,j,1,1.00821590424,,,,moral_self_bias,15,22,59.9908747248,f,001,2018_Apr_02_1525,
,,,,,,,,,,,,,,,,,,,,,,material/38.png,2,缺德,material/138.png,2,material/138.png,缺德,2,f,f,f,1,1,1,无德,,,,,,,,,0,28,28,117,0,0,0,0,,,,,,,f,1,0.67518901825,f,1,0.182829141617,moral_self_bias,15,22,59.9908747248,f,001,2018_Apr_02_1525,
,,,,,,,,,,,,,,,,,,,,,,material/38.png,2,缺德,material/138.png,2,material/138.png,缺德,2,f,f,f,1,1,1,无德,,,,,,,,,0,28,28,117,,,,,,,,,,,,,,,,,moral_self_bias,15,22,59.9908747248,f,001,2018_Apr_02_1525,
,,,,,,,,,,,,,,,,,,,,,,material/168.png,1,机变,material/170.png,1,material/168.png,坚忍,1,f,f,f,2,2,2,机变,,,,,,,,,0,29,29,149,,,,,,,,,,,j,0,1.25072717667,,,,moral_self_bias,15,22,59.9908747248,f,001,2018_Apr_02_1525,
,,,,,,,,,,,,,,,,,,,,,,material/143.png,2,拜金,material/43.png,2,material/43.png,拜金,2,j,j,j,1,1,1,虚荣,,,,,,,,,0,30,30,42,,,,,,,,,,,j,1,0.872486114502,,,,moral_self_bias,15,22,59.9908747248,f,001,2018_Apr_02_1525,
,,,,,,,,,,,,,,,,,,,,,,material/171.png,1,高效,material/67.png,1,material/171.png,骁勇,1,j,j,j,2,2,2,高效,,,,,,,,,0,31,31,65,,,,,,,,,,,j,1,0.666724920273,,,,moral_self_bias,15,22,59.9908747248,f,001,2018_Apr_02_1525,
,,,,,,,,,,,,,,,,,,,,,,material/120.png,1,能干,material/20.png,1,material/120.png,厉害,1,j,j,j,2,2,2,能干,,,,,,,,,0,32,32,19,,,,,,,,,,,j,1,0.704762935638,,,,moral_self_bias,15,22,59.9908747248,f,001,2018_Apr_02_1525,
,,,,,,,,,,,,,,,,,,,,,,material/3.png,1,仁厚,material/103.png,1,material/103.png,仁厚,1,f,f,f,1,1,1,仁慈,,,,,,,,,0,33,33,82,0,0,0,0,,,,,,,f,1,0.785645961761,f,1,0.540565013885,moral_self_bias,15,22,59.9908747248,f,001,2018_Apr_02_1525,
,,,,,,,,,,,,,,,,,,,,,,material/3.png,1,仁厚,material/103.png,1,material/103.png,仁厚,1,f,f,f,1,1,1,仁慈,,,,,,,,,0,33,33,82,,,,,,,,,,,,,,,,,moral_self_bias,15,22,59.9908747248,f,001,2018_Apr_02_1525,
,,,,,,,,,,,,,,,,,,,,,,material/140.png,2,邪恶,material/40.png,2,material/40.png,邪恶,2,j,j,j,1,1,1,狠毒,,,,,,,,,0,34,34,39,0,0,0,0,,,,,,,f,0,0.783309936523,f,1,1.37423610687,moral_self_bias,15,22,59.9908747248,f,001,2018_Apr_02_1525,
,,,,,,,,,,,,,,,,,,,,,,material/140.png,2,邪恶,material/40.png,2,material/40.png,邪恶,2,j,j,j,1,1,1,狠毒,,,,,,,,,0,34,34,39,,,,,,,,,,,,,,,,,moral_self_bias,15,22,59.9908747248,f,001,2018_Apr_02_1525,
,,,,,,,,,,,,,,,,,,,,,,material/21.png,1,干练,material/121.png,1,material/21.png,精干,1,f,f,f,2,2,2,干练,,,,,,,,,0,35,35,100,,,,,,,,,,,j,0,0.741790056229,,,,moral_self_bias,15,22,59.9908747248,f,001,2018_Apr_02_1525,
,,,,,,,,,,,,,,,,,,,,,,material/77.png,2,浮夸,material/172.png,2,material/172.png,浮夸,2,f,f,f,1,1,1,软弱,,,,,,,,,0,36,36,151,0,0,0,0,,,,,,,f,1,1.15772986412,f,1,0.258333206177,moral_self_bias,15,22,59.9908747248,f,001,2018_Apr_02_1525,
,,,,,,,,,,,,,,,,,,,,,,material/77.png,2,浮夸,material/172.png,2,material/172.png,浮夸,2,f,f,f,1,1,1,软弱,,,,,,,,,0,36,36,151,,,,,,,,,,,,,,,,,moral_self_bias,15,22,59.9908747248,f,001,2018_Apr_02_1525,
,,,,,,,,,,,,,,,,,,,,,,material/12.png,1,忠心,material/112.png,1,material/112.png,忠心,1,f,f,f,1,1,1,忠诚,,,,,,,,,0,37,37,91,0,0,0,0,,,,,,,f,1,0.957834005356,f,1,0.208175897598,moral_self_bias,15,22,59.9908747248,f,001,2018_Apr_02_1525,
,,,,,,,,,,,,,,,,,,,,,,material/12.png,1,忠心,material/112.png,1,material/112.png,忠心,1,f,f,f,1,1,1,忠诚,,,,,,,,,0,37,37,91,,,,,,,,,,,,,,,,,moral_self_bias,15,22,59.9908747248,f,001,2018_Apr_02_1525,
,,,,,,,,,,,,,,,,,,,,,,material/127.png,1,超群,material/27.png,1,material/127.png,卓越,1,j,j,j,2,2,2,超群,,,,,,,,,0,38,38,26,,,,,,,,,,,j,1,0.787343978882,,,,moral_self_bias,15,22,59.9908747248,f,001,2018_Apr_02_1525,
,,,,,,,,,,,,,,,,,,,,,,material/56.png,2,愚昧,material/156.png,2,material/56.png,愚钝,2,f,f,f,2,2,2,愚昧,,,,,,,,,0,39,39,135,0,0,0,0,,,,,,,f,1,1.26652193069,f,1,0.140748977661,moral_self_bias,15,22,59.9908747248,f,001,2018_Apr_02_1525,
,,,,,,,,,,,,,,,,,,,,,,material/56.png,2,愚昧,material/156.png,2,material/56.png,愚钝,2,f,f,f,2,2,2,愚昧,,,,,,,,,0,39,39,135,,,,,,,,,,,,,,,,,moral_self_bias,15,22,59.9908747248,f,001,2018_Apr_02_1525,
,,,,,,,,,,,,,,,,,,,,,,material/79.png,2,薄弱,material/81.png,2,material/183.png,无助,2,j,j,j,2,2,2,颓废,,,,,,,,,0,40,40,77,,,,,,,,,,,j,1,0.783747196198,,,,moral_self_bias,15,22,59.9908747248,f,001,2018_Apr_02_1525,
,,,,,,,,,,,,,,,,,,,,,,material/101.png,1,善良,material/1.png,1,material/1.png,善良,1,j,j,j,1,1,1,博爱,,,,,,,,,0,41,41,0,0,0,0,0,,,,,,,f,0,1.08633208275,f,1,0.190674066544,moral_self_bias,15,22,59.9908747248,f,001,2018_Apr_02_1525,
,,,,,,,,,,,,,,,,,,,,,,material/101.png,1,善良,material/1.png,1,material/1.png,善良,1,j,j,j,1,1,1,博爱,,,,,,,,,0,41,41,0,,,,,,,,,,,,,,,,,moral_self_bias,15,22,59.9908747248,f,001,2018_Apr_02_1525,
,,,,,,,,,,,,,,,,,,,,,,material/19.png,1,灵活,material/119.png,1,material/19.png,机灵,1,f,f,f,2,2,2,灵活,,,,,,,,,0,42,42,98,,,,,,,,,,,j,0,0.89172410965,,,,moral_self_bias,15,22,59.9908747248,f,001,2018_Apr_02_1525,
,,,,,,,,,,,,,,,,,,,,,,material/115.png,1,清白,material/15.png,1,material/15.png,清白,1,j,j,j,1,1,1,纯洁,,,,,,,,,0,43,43,14,,,,,,,,,,,j,1,0.607521057129,,,,moral_self_bias,15,22,59.9908747248,f,001,2018_Apr_02_1525,
,,,,,,,,,,,,,,,,,,,,,,material/122.png,1,博学,material/22.png,1,material/122.png,才学,1,j,j,j,2,2,2,博学,,,,,,,,,0,44,44,21,0,0,0,0,,,,,,,f,0,0.7745449543,f,1,0.174206972122,moral_self_bias,15,22,59.9908747248,f,001,2018_Apr_02_1525,
,,,,,,,,,,,,,,,,,,,,,,material/122.png,1,博学,material/22.png,1,material/122.png,才学,1,j,j,j,2,2,2,博学,,,,,,,,,0,44,44,21,,,,,,,,,,,,,,,,,moral_self_bias,15,22,59.9908747248,f,001,2018_Apr_02_1525,
,,,,,,,,,,,,,,,,,,,,,,material/55.png,2,盲从,material/155.png,2,material/55.png,盲目,2,f,f,f,2,2,2,盲从,,,,,,,,,0,45,45,134,,,,,,,,,,,j,0,1.55791187286,,,,moral_self_bias,15,22,59.9908747248,f,001,2018_Apr_02_1525,
,,,,,,,,,,,,,,,,,,,,,,material/121.png,1,精干,material/21.png,1,material/121.png,干练,1,j,j,j,2,2,2,精干,,,,,,,,,0,46,46,20,0,0,0,0,,,,,,,f,0,1.07457304001,f,1,0.174390077591,moral_self_bias,15,22,59.9908747248,f,001,2018_Apr_02_1525,
,,,,,,,,,,,,,,,,,,,,,,material/121.png,1,精干,material/21.png,1,material/121.png,干练,1,j,j,j,2,2,2,精干,,,,,,,,,0,46,46,20,,,,,,,,,,,,,,,,,moral_self_bias,15,22,59.9908747248,f,001,2018_Apr_02_1525,
,,,,,,,,,,,,,,,,,,,,,,material/78.png,2,厌学,material/181.png,2,material/184.png,犹豫,2,f,f,f,2,2,2,草率,,,,,,,,,0,47,47,160,0,0,0,0,,,,,,,f,1,1.80797600746,j,0,0.324314117432,moral_self_bias,15,22,59.9908747248,f,001,2018_Apr_02_1525,
,,,,,,,,,,,,,,,,,,,,,,material/78.png,2,厌学,material/181.png,2,material/184.png,犹豫,2,f,f,f,2,2,2,草率,,,,,,,,,0,47,47,160,,,,,,,,,,,,,,,,,moral_self_bias,15,22,59.9908747248,f,001,2018_Apr_02_1525,
,,,,,,,,,,,,,,,,,,,,,,material/158.png,2,浅薄,material/58.png,2,material/158.png,肤浅,2,j,j,j,2,2,2,浅薄,,,,,,,,,0,48,48,57,0,0,0,0,,,,,,,f,0,0.79071521759,j,0,0.441295862198,moral_self_bias,15,22,59.9908747248,f,001,2018_Apr_02_1525,
,,,,,,,,,,,,,,,,,,,,,,material/158.png,2,浅薄,material/58.png,2,material/158.png,肤浅,2,j,j,j,2,2,2,浅薄,,,,,,,,,0,48,48,57,,,,,,,,,,,,,,,,,moral_self_bias,15,22,59.9908747248,f,001,2018_Apr_02_1525,
,,,,,,,,,,,,,,,,,,,,,,material/32.png,2,背叛,material/132.png,2,material/132.png,背叛,2,f,f,f,1,1,1,不忠,,,,,,,,,0,49,49,111,0,0,0,0,,,,,,,f,1,2.13713812828,f,1,1.34130382538,moral_self_bias,15,22,59.9908747248,f,001,2018_Apr_02_1525,
,,,,,,,,,,,,,,,,,,,,,,material/32.png,2,背叛,material/132.png,2,material/132.png,背叛,2,f,f,f,1,1,1,不忠,,,,,,,,,0,49,49,111,,,,,,,,,,,,,,,,,moral_self_bias,15,22,59.9908747248,f,001,2018_Apr_02_1525,
,,,,,,,,,,,,,,,,,,,,,,material/71.png,1,严谨,material/68.png,1,material/71.png,广博,1,j,j,j,2,2,2,严谨,,,,,,,,,0,50,50,66,0,0,0,0,,,,,,,f,0,0.674882888794,f,1,0.208023071289,moral_self_bias,15,22,59.9908747248,f,001,2018_Apr_02_1525,
,,,,,,,,,,,,,,,,,,,,,,material/71.png,1,严谨,material/68.png,1,material/71.png,广博,1,j,j,j,2,2,2,严谨,,,,,,,,,0,50,50,66,,,,,,,,,,,,,,,,,moral_self_bias,15,22,59.9908747248,f,001,2018_Apr_02_1525,
,,,,,,,,,,,,,,,,,,,,,,material/72.png,2,软弱,material/77.png,2,material/77.png,软弱,2,j,j,j,1,1,1,谄媚,,,,,,,,,0,51,51,73,0,0,0,0,,,,,,,f,0,0.775403022766,j,0,2.23513698578,moral_self_bias,15,22,59.9908747248,f,001,2018_Apr_02_1525,
,,,,,,,,,,,,,,,,,,,,,,material/72.png,2,软弱,material/77.png,2,material/77.png,软弱,2,j,j,j,1,1,1,谄媚,,,,,,,,,0,51,51,73,,,,,,,,,,,,,,,,,moral_self_bias,15,22,59.9908747248,f,001,2018_Apr_02_1525,
,,,,,,,,,,,,,,,,,,,,,,material/75.png,2,卑劣,material/74.png,2,material/74.png,卑劣,2,j,j,j,1,1,1,害人,,,,,,,,,0,52,52,70,0,0,0,0,,,,,,,f,0,0.874294042587,f,1,0.991922855377,moral_self_bias,15,22,59.9908747248,f,001,2018_Apr_02_1525,
,,,,,,,,,,,,,,,,,,,,,,material/75.png,2,卑劣,material/74.png,2,material/74.png,卑劣,2,j,j,j,1,1,1,害人,,,,,,,,,0,52,52,70,,,,,,,,,,,,,,,,,moral_self_bias,15,22,59.9908747248,f,001,2018_Apr_02_1525,
,,,,,,,,,,,,,,,,,,,,,,material/20.png,1,厉害,material/120.png,1,material/20.png,能干,1,f,f,f,2,2,2,厉害,,,,,,,,,0,53,53,99,0,0,0,0,,,,,,,f,1,0.724479913712,j,0,1.84245204926,moral_self_bias,15,22,59.9908747248,f,001,2018_Apr_02_1525,
,,,,,,,,,,,,,,,,,,,,,,material/20.png,1,厉害,material/120.png,1,material/20.png,能干,1,f,f,f,2,2,2,厉害,,,,,,,,,0,53,53,99,,,,,,,,,,,,,,,,,moral_self_bias,15,22,59.9908747248,f,001,2018_Apr_02_1525,
,,,,,,,,,,,,,,,,,,,,,,material/118.png,1,机敏,material/18.png,1,material/118.png,敏锐,1,j,j,j,2,2,2,机敏,,,,,,,,,0,54,54,17,,,,,,,,,,,j,1,0.907721996307,,,,moral_self_bias,15,22,59.9908747248,f,001,2018_Apr_02_1525,
,,,,,,,,,,,,,,,,,,,,,,material/52.png,2,拖延,material/152.png,2,material/52.png,缓慢,2,f,f,f,2,2,2,拖延,,,,,,,,,0,55,55,131,,,,,,,,,,,j,0,0.642315864563,,,,moral_self_bias,15,22,59.9908747248,f,001,2018_Apr_02_1525,
,,,,,,,,,,,,,,,,,,,,,,material/156.png,2,愚钝,material/56.png,2,material/156.png,愚昧,2,j,j,j,2,2,2,愚钝,,,,,,,,,0,56,56,55,0,0,0,0,,,,,,,f,0,0.775429010391,f,1,0.640683174133,moral_self_bias,15,22,59.9908747248,f,001,2018_Apr_02_1525,
,,,,,,,,,,,,,,,,,,,,,,material/156.png,2,愚钝,material/56.png,2,material/156.png,愚昧,2,j,j,j,2,2,2,愚钝,,,,,,,,,0,56,56,55,,,,,,,,,,,,,,,,,moral_self_bias,15,22,59.9908747248,f,001,2018_Apr_02_1525,
,,,,,,,,,,,,,,,,,,,,,,material/117.png,1,聪颖,material/17.png,1,material/117.png,聪明,1,j,j,j,2,2,2,聪颖,,,,,,,,,0,57,57,16,0,0,0,0,,,,,,,f,0,1.77495098114,f,1,0.43999004364,moral_self_bias,15,22,59.9908747248,f,001,2018_Apr_02_1525,
,,,,,,,,,,,,,,,,,,,,,,material/117.png,1,聪颖,material/17.png,1,material/117.png,聪明,1,j,j,j,2,2,2,聪颖,,,,,,,,,0,57,57,16,,,,,,,,,,,,,,,,,moral_self_bias,15,22,59.9908747248,f,001,2018_Apr_02_1525,
,,,,,,,,,,,,,,,,,,,,,,material/182.png,2,健忘,material/184.png,2,material/80.png,厌学,2,f,f,f,2,2,2,才尽,,,,,,,,,0,58,58,163,0,0,0,0,,,,,,,f,1,0.8093957901,f,1,0.168012857437,moral_self_bias,15,22,59.9908747248,f,001,2018_Apr_02_1525,
,,,,,,,,,,,,,,,,,,,,,,material/182.png,2,健忘,material/184.png,2,material/80.png,厌学,2,f,f,f,2,2,2,才尽,,,,,,,,,0,58,58,163,,,,,,,,,,,,,,,,,moral_self_bias,15,22,59.9908747248,f,001,2018_Apr_02_1525,
,,,,,,,,,,,,,,,,,,,,,,material/41.png,2,残忍,material/141.png,2,material/141.png,残忍,2,f,f,f,1,1,1,歹毒,,,,,,,,,0,59,59,120,0,0,0,0,,,,,,,f,1,0.624538898468,f,1,0.80788898468,moral_self_bias,15,22,59.9908747248,f,001,2018_Apr_02_1525,
,,,,,,,,,,,,,,,,,,,,,,material/41.png,2,残忍,material/141.png,2,material/141.png,残忍,2,f,f,f,1,1,1,歹毒,,,,,,,,,0,59,59,120,,,,,,,,,,,,,,,,,moral_self_bias,15,22,59.9908747248,f,001,2018_Apr_02_1525,
,,,,,,,,,,,,,,,,,,,,,,material/141.png,2,歹毒,material/41.png,2,material/41.png,歹毒,2,j,j,j,1,1,1,残忍,,,,,,,,,0,60,60,40,0,0,0,0,,,,,,,f,0,0.623683214188,f,1,0.417022943497,moral_self_bias,15,22,59.9908747248,f,001,2018_Apr_02_1525,
,,,,,,,,,,,,,,,,,,,,,,material/141.png,2,歹毒,material/41.png,2,material/41.png,歹毒,2,j,j,j,1,1,1,残忍,,,,,,,,,0,60,60,40,,,,,,,,,,,,,,,,,moral_self_bias,15,22,59.9908747248,f,001,2018_Apr_02_1525,
,,,,,,,,,,,,,,,,,,,,,,material/49.png,2,痴呆,material/149.png,2,material/49.png,白痴,2,f,f,f,2,2,2,痴呆,,,,,,,,,0,61,61,128,,,,,,,,,,,j,0,1.89309310913,,,,moral_self_bias,15,22,59.9908747248,f,001,2018_Apr_02_1525,
,,,,,,,,,,,,,,,,,,,,,,material/10.png,1,坚毅,material/110.png,1,material/110.png,坚毅,1,f,f,f,1,1,1,顽强,,,,,,,,,0,62,62,89,0,0,0,0,,,,,,,f,1,1.95798301697,f,1,0.524930953979,moral_self_bias,15,22,59.9908747248,f,001,2018_Apr_02_1525,
,,,,,,,,,,,,,,,,,,,,,,material/10.png,1,坚毅,material/110.png,1,material/110.png,坚毅,1,f,f,f,1,1,1,顽强,,,,,,,,,0,62,62,89,,,,,,,,,,,,,,,,,moral_self_bias,15,22,59.9908747248,f,001,2018_Apr_02_1525,
,,,,,,,,,,,,,,,,,,,,,,material/128.png,1,自律,material/28.png,1,material/128.png,克己,1,j,j,j,2,2,2,自律,,,,,,,,,0,63,63,27,0,0,0,0,,,,,,,f,0,1.10070705414,f,1,0.42453789711,moral_self_bias,15,22,59.9908747248,f,001,2018_Apr_02_1525,
,,,,,,,,,,,,,,,,,,,,,,material/128.png,1,自律,material/28.png,1,material/128.png,克己,1,j,j,j,2,2,2,自律,,,,,,,,,0,63,63,27,,,,,,,,,,,,,,,,,moral_self_bias,15,22,59.9908747248,f,001,2018_Apr_02_1525,
,,,,,,,,,,,,,,,,,,,,,,material/155.png,2,盲目,material/55.png,2,material/155.png,盲从,2,j,j,j,2,2,2,盲目,,,,,,,,,0,64,64,54,0,0,0,0,,,,,,,f,0,0.841331005096,f,1,0.134830951691,moral_self_bias,15,22,59.9908747248,f,001,2018_Apr_02_1525,
,,,,,,,,,,,,,,,,,,,,,,material/155.png,2,盲目,material/55.png,2,material/155.png,盲从,2,j,j,j,2,2,2,盲目,,,,,,,,,0,64,64,54,,,,,,,,,,,,,,,,,moral_self_bias,15,22,59.9908747248,f,001,2018_Apr_02_1525,
,,,,,,,,,,,,,,,,,,,,,,material/7.png,1,公平,material/107.png,1,material/107.png,公平,1,f,f,f,1,1,1,公正,,,,,,,,,0,65,65,86,0,0,0,0,,,,,,,f,1,1.05852508545,f,1,0.206962108612,moral_self_bias,15,22,59.9908747248,f,001,2018_Apr_02_1525,
,,,,,,,,,,,,,,,,,,,,,,material/7.png,1,公平,material/107.png,1,material/107.png,公平,1,f,f,f,1,1,1,公正,,,,,,,,,0,65,65,86,,,,,,,,,,,,,,,,,moral_self_bias,15,22,59.9908747248,f,001,2018_Apr_02_1525,
,,,,,,,,,,,,,,,,,,,,,,material/164.png,1,宽容,material/63.png,1,material/163.png,文明,1,j,j,j,1,1,1,孝顺,,,,,,,,,0,66,66,62,,,,,,,,,,,j,1,0.891932010651,,,,moral_self_bias,15,22,59.9908747248,f,001,2018_Apr_02_1525,
,,,,,,,,,,,,,,,,,,,,,,material/161.png,1,奉献,material/164.png,1,material/64.png,孝顺,1,f,f,f,1,1,1,勇敢,,,,,,,,,0,67,67,143,,,,,,,,,,,j,0,0.891623973846,,,,moral_self_bias,15,22,59.9908747248,f,001,2018_Apr_02_1525,
,,,,,,,,,,,,,,,,,,,,,,material/74.png,2,黑心,material/173.png,2,material/173.png,黑心,2,f,f,f,1,1,1,卑劣,,,,,,,,,0,68,68,152,,,,,,,,,,,j,0,0.568058013916,,,,moral_self_bias,15,22,59.9908747248,f,001,2018_Apr_02_1525,
,,,,,,,,,,,,,,,,,,,,,,material/28.png,1,克己,material/128.png,1,material/28.png,自律,1,f,f,f,2,2,2,克己,,,,,,,,,0,69,69,107,,,,,,,,,,,j,0,0.608165025711,,,,moral_self_bias,15,22,59.9908747248,f,001,2018_Apr_02_1525,
,,,,,,,,,,,,,,,,,,,,,,material/80.png,2,才尽,material/83.png,2,material/182.png,呆笨,2,j,j,j,2,2,2,健忘,,,,,,,,,0,70,70,79,,,,,,,,,,,j,1,0.908656835556,,,,moral_self_bias,15,22,59.9908747248,f,001,2018_Apr_02_1525,
,,,,,,,,,,,,,,,,,,,,,,material/112.png,1,忠诚,material/12.png,1,material/12.png,忠诚,1,j,j,j,1,1,1,忠心,,,,,,,,,0,71,71,11,0,0,0,0,,,,,,,f,0,0.806790113449,f,1,0.208733081818,moral_self_bias,15,22,59.9908747248,f,001,2018_Apr_02_1525,
,,,,,,,,,,,,,,,,,,,,,,material/112.png,1,忠诚,material/12.png,1,material/12.png,忠诚,1,j,j,j,1,1,1,忠心,,,,,,,,,0,71,71,11,,,,,,,,,,,,,,,,,moral_self_bias,15,22,59.9908747248,f,001,2018_Apr_02_1525,
,,,,,,,,,,,,,,,,,,,,,,material/132.png,2,不忠,material/32.png,2,material/32.png,不忠,2,j,j,j,1,1,1,背叛,,,,,,,,,0,72,72,31,,,,,,,,,,,j,1,0.775127887726,,,,moral_self_bias,15,22,59.9908747248,f,001,2018_Apr_02_1525,
,,,,,,,,,,,,,,,,,,,,,,material/126.png,1,勤快,material/26.png,1,material/126.png,刻苦,1,j,j,j,2,2,2,勤快,,,,,,,,,0,73,73,25,,,,,,,,,,,j,1,0.54102897644,,,,moral_self_bias,15,22,59.9908747248,f,001,2018_Apr_02_1525,
,,,,,,,,,,,,,,,,,,,,,,material/35.png,2,冷血,material/135.png,2,material/135.png,冷血,2,f,f,f,1,1,1,冷漠,,,,,,,,,0,74,74,114,0,0,0,0,,,,,,,f,1,0.6909968853,f,1,0.158319950104,moral_self_bias,15,22,59.9908747248,f,001,2018_Apr_02_1525,
,,,,,,,,,,,,,,,,,,,,,,material/35.png,2,冷血,material/135.png,2,material/135.png,冷血,2,f,f,f,1,1,1,冷漠,,,,,,,,,0,74,74,114,,,,,,,,,,,,,,,,,moral_self_bias,15,22,59.9908747248,f,001,2018_Apr_02_1525,
,,,,,,,,,,,,,,,,,,,,,,material/82.png,2,毛糙,material/183.png,2,material/178.png,薄弱,2,f,f,f,2,2,2,窝囊,,,,,,,,,0,75,75,162,,,,,,,,,,,j,0,0.957458972931,,,,moral_self_bias,15,22,59.9908747248,f,001,2018_Apr_02_1525,
,,,,,,,,,,,,,,,,,,,,,,material/9.png,1,正直,material/109.png,1,material/109.png,正直,1,f,f,f,1,1,1,秉直,,,,,,,,,0,76,76,88,,,,,,,,,,,j,0,0.909202098846,,,,moral_self_bias,15,22,59.9908747248,f,001,2018_Apr_02_1525,
,,,,,,,,,,,,,,,,,,,,,,material/167.png,1,高手,material/169.png,1,material/167.png,颖悟,1,f,f,f,2,2,2,高手,,,,,,,,,0,77,77,148,0,0,0,0,,,,,,,f,1,0.824981212616,f,1,0.142666816711,moral_self_bias,15,22,59.9908747248,f,001,2018_Apr_02_1525,
,,,,,,,,,,,,,,,,,,,,,,material/167.png,1,高手,material/169.png,1,material/167.png,颖悟,1,f,f,f,2,2,2,高手,,,,,,,,,0,77,77,148,,,,,,,,,,,,,,,,,moral_self_bias,15,22,59.9908747248,f,001,2018_Apr_02_1525,
,,,,,,,,,,,,,,,,,,,,,,material/62.png,1,坚韧,material/162.png,1,material/62.png,敬业,1,f,f,f,1,1,1,坚韧,,,,,,,,,0,78,78,141,0,0,0,0,,,,,,,f,1,0.608108997345,f,1,0.442297935486,moral_self_bias,15,22,59.9908747248,f,001,2018_Apr_02_1525,
,,,,,,,,,,,,,,,,,,,,,,material/62.png,1,坚韧,material/162.png,1,material/62.png,敬业,1,f,f,f,1,1,1,坚韧,,,,,,,,,0,78,78,141,,,,,,,,,,,,,,,,,moral_self_bias,15,22,59.9908747248,f,001,2018_Apr_02_1525,
,,,,,,,,,,,,,,,,,,,,,,material/47.png,2,死板,material/147.png,2,material/47.png,刻板,2,f,f,f,2,2,2,死板,,,,,,,,,0,79,79,126,0,0,0,0,,,,,,,f,1,1.55806493759,j,0,0.242868900299,moral_self_bias,15,22,59.9908747248,f,001,2018_Apr_02_1525,
,,,,,,,,,,,,,,,,,,,,,,material/47.png,2,死板,material/147.png,2,material/47.png,刻板,2,f,f,f,2,2,2,死板,,,,,,,,,0,79,79,126,,,,,,,,,,,,,,,,,moral_self_bias,15,22,59.9908747248,f,001,2018_Apr_02_1525,
,,,,,,,,,,,,,,,,,,,,,,material/29.png,1,好学,material/129.png,1,material/29.png,好问,1,f,f,f,2,2,2,好学,,,,,,,,,0,80,80,108,,,,,,,,,,,j,0,0.891160011292,,,,moral_self_bias,15,22,59.9908747248,f,001,2018_Apr_02_1525,
,,,,,,,,,,,,,,,,,,,,,,material/154.png,2,依靠,material/54.png,2,material/154.png,依赖,2,j,j,j,2,2,2,依靠,,,,,,,,,0,81,81,53,,,,,,,,,,,j,1,0.575479984283,,,,moral_self_bias,15,22,59.9908747248,f,001,2018_Apr_02_1525,
,,,,,,,,,,,,,,,,,,,,,,material/113.png,1,廉洁,material/13.png,1,material/13.png,廉洁,1,j,j,j,1,1,1,廉明,,,,,,,,,0,82,82,12,,,,,,,,,,,j,1,3.99117708206,,,,moral_self_bias,15,22,59.9908747248,f,001,2018_Apr_02_1525,
,,,,,,,,,,,,,,,,,,,,,,material/139.png,2,凶残,material/39.png,2,material/39.png,凶残,2,j,j,j,1,1,1,恶毒,,,,,,,,,0,83,83,38,0,0,0,0,,,,,,,f,0,0.67483997345,f,1,0.158121109009,moral_self_bias,15,22,59.9908747248,f,001,2018_Apr_02_1525,
,,,,,,,,,,,,,,,,,,,,,,material/139.png,2,凶残,material/39.png,2,material/39.png,凶残,2,j,j,j,1,1,1,恶毒,,,,,,,,,0,83,83,38,,,,,,,,,,,,,,,,,moral_self_bias,15,22,59.9908747248,f,001,2018_Apr_02_1525,
,,,,,,,,,,,,,,,,,,,,,,material/69.png,1,高明,material/69.png,1,material/69.png,高明,1,f,f,f,2,2,2,高明,,,,,,,,,0,84,84,166,0,0,0,0,,,,,,,f,1,0.875445127487,j,0,0.475471019745,moral_self_bias,15,22,59.9908747248,f,001,2018_Apr_02_1525,
,,,,,,,,,,,,,,,,,,,,,,material/69.png,1,高明,material/69.png,1,material/69.png,高明,1,f,f,f,2,2,2,高明,,,,,,,,,0,84,84,166,,,,,,,,,,,,,,,,,moral_self_bias,15,22,59.9908747248,f,001,2018_Apr_02_1525,
,,,,,,,,,,,,,,,,,,,,,,material/48.png,2,愚蠢,material/148.png,2,material/48.png,笨蛋,2,f,f,f,2,2,2,愚蠢,,,,,,,,,0,85,85,127,,,,,,,,,,,j,0,0.824304103851,,,,moral_self_bias,15,22,59.9908747248,f,001,2018_Apr_02_1525,
,,,,,,,,,,,,,,,,,,,,,,material/147.png,2,刻板,material/47.png,2,material/147.png,死板,2,j,j,j,2,2,2,刻板,,,,,,,,,0,86,86,46,0,0,0,0,,,,,,,f,0,0.706914901733,j,0,0.275677204132,moral_self_bias,15,22,59.9908747248,f,001,2018_Apr_02_1525,
,,,,,,,,,,,,,,,,,,,,,,material/147.png,2,刻板,material/47.png,2,material/147.png,死板,2,j,j,j,2,2,2,刻板,,,,,,,,,0,86,86,46,,,,,,,,,,,,,,,,,moral_self_bias,15,22,59.9908747248,f,001,2018_Apr_02_1525,
,,,,,,,,,,,,,,,,,,,,,,material/57.png,2,无知,material/157.png,2,material/57.png,无能,2,f,f,f,2,2,2,无知,,,,,,,,,0,87,87,136,0,0,0,0,,,,,,,f,1,0.940979003906,j,0,0.241273880005,moral_self_bias,15,22,59.9908747248,f,001,2018_Apr_02_1525,
,,,,,,,,,,,,,,,,,,,,,,material/57.png,2,无知,material/157.png,2,material/57.png,无能,2,f,f,f,2,2,2,无知,,,,,,,,,0,87,87,136,,,,,,,,,,,,,,,,,moral_self_bias,15,22,59.9908747248,f,001,2018_Apr_02_1525,
,,,,,,,,,,,,,,,,,,,,,,material/68.png,1,广博,material/167.png,1,material/68.png,高手,1,f,f,f,2,2,2,广博,,,,,,,,,0,88,88,146,0,0,0,0,,,,,,,f,1,1.02439785004,j,0,0.140155792236,moral_self_bias,15,22,59.9908747248,f,001,2018_Apr_02_1525,
,,,,,,,,,,,,,,,,,,,,,,material/68.png,1,广博,material/167.png,1,material/68.png,高手,1,f,f,f,2,2,2,广博,,,,,,,,,0,88,88,146,,,,,,,,,,,,,,,,,moral_self_bias,15,22,59.9908747248,f,001,2018_Apr_02_1525,
,,,,,,,,,,,,,,,,,,,,,,material/145.png,2,下流,material/45.png,2,material/45.png,下流,2,j,j,j,1,1,1,小人,,,,,,,,,0,89,89,44,0,0,0,0,,,,,,,f,0,0.791707038879,j,0,0.14066696167,moral_self_bias,15,22,59.9908747248,f,001,2018_Apr_02_1525,
,,,,,,,,,,,,,,,,,,,,,,material/145.png,2,下流,material/45.png,2,material/45.png,下流,2,j,j,j,1,1,1,小人,,,,,,,,,0,89,89,44,,,,,,,,,,,,,,,,,moral_self_bias,15,22,59.9908747248,f,001,2018_Apr_02_1525,
,,,,,,,,,,,,,,,,,,,,,,material/110.png,1,顽强,material/10.png,1,material/10.png,顽强,1,j,j,j,1,1,1,坚毅,,,,,,,,,0,90,90,9,0,0,0,0,,,,,,,f,0,3.1165471077,f,1,0.150886058807,moral_self_bias,15,22,59.9908747248,f,001,2018_Apr_02_1525,
,,,,,,,,,,,,,,,,,,,,,,material/110.png,1,顽强,material/10.png,1,material/10.png,顽强,1,j,j,j,1,1,1,坚毅,,,,,,,,,0,90,90,9,,,,,,,,,,,,,,,,,moral_self_bias,15,22,59.9908747248,f,001,2018_Apr_02_1525,
,,,,,,,,,,,,,,,,,,,,,,material/63.png,1,正义,material/166.png,1,material/66.png,仗义,1,f,f,f,1,1,1,文明,,,,,,,,,0,91,91,145,,,,,,,,,,,j,0,1.72475409508,,,,moral_self_bias,15,22,59.9908747248,f,001,2018_Apr_02_1525,
,,,,,,,,,,,,,,,,,,,,,,material/25.png,1,果断,material/125.png,1,material/25.png,果敢,1,f,f,f,2,2,2,果断,,,,,,,,,0,92,92,104,0,0,0,0,,,,,,,f,1,0.916985034943,f,1,0.141293048859,moral_self_bias,15,22,59.9908747248,f,001,2018_Apr_02_1525,
,,,,,,,,,,,,,,,,,,,,,,material/25.png,1,果断,material/125.png,1,material/25.png,果敢,1,f,f,f,2,2,2,果断,,,,,,,,,0,92,92,104,,,,,,,,,,,,,,,,,moral_self_bias,15,22,59.9908747248,f,001,2018_Apr_02_1525,
,,,,,,,,,,,,,,,,,,,,,,material/44.png,2,爽约,material/144.png,2,material/144.png,爽约,2,f,f,f,1,1,1,失信,,,,,,,,,0,93,93,123,,,,,,,,,,,j,0,0.942178964615,,,,moral_self_bias,15,22,59.9908747248,f,001,2018_Apr_02_1525,
,,,,,,,,,,,,,,,,,,,,,,material/30.png,1,上进,material/130.png,1,material/30.png,进取,1,f,f,f,2,2,2,上进,,,,,,,,,0,94,94,109,0,0,0,0,,,,,,,f,1,1.4414100647,j,0,0.508896827698,moral_self_bias,15,22,59.9908747248,f,001,2018_Apr_02_1525,
,,,,,,,,,,,,,,,,,,,,,,material/30.png,1,上进,material/130.png,1,material/30.png,进取,1,f,f,f,2,2,2,上进,,,,,,,,,0,94,94,109,,,,,,,,,,,,,,,,,moral_self_bias,15,22,59.9908747248,f,001,2018_Apr_02_1525,
,,,,,,,,,,,,,,,,,,,,,,material/183.png,2,颓废,material/182.png,2,material/79.png,才尽,2,f,f,f,2,2,2,薄弱,,,,,,,,,0,95,95,161,0,0,0,0,,,,,,,f,1,1.07465314865,f,1,0.31781411171,moral_self_bias,15,22,59.9908747248,f,001,2018_Apr_02_1525,
,,,,,,,,,,,,,,,,,,,,,,material/183.png,2,颓废,material/182.png,2,material/79.png,才尽,2,f,f,f,2,2,2,薄弱,,,,,,,,,0,95,95,161,,,,,,,,,,,,,,,,,moral_self_bias,15,22,59.9908747248,f,001,2018_Apr_02_1525,
,,,,,,,,,,,,,,,,,,,,,,material/83.png,2,差生,material/78.png,2,material/179.png,草率,2,j,j,j,2,2,2,呆笨,,,,,,,,,0,96,96,74,0,0,0,0,,,,,,,f,0,1.5574760437,j,0,0.442135095596,moral_self_bias,15,22,59.9908747248,f,001,2018_Apr_02_1525,
,,,,,,,,,,,,,,,,,,,,,,material/83.png,2,差生,material/78.png,2,material/179.png,草率,2,j,j,j,2,2,2,呆笨,,,,,,,,,0,96,96,74,,,,,,,,,,,,,,,,,moral_self_bias,15,22,59.9908747248,f,001,2018_Apr_02_1525,
,,,,,,,,,,,,,,,,,,,,,,material/37.png,2,卑鄙,material/137.png,2,material/137.png,卑鄙,2,f,f,f,1,1,1,无耻,,,,,,,,,0,97,97,116,0,0,0,0,,,,,,,f,1,0.859418869019,f,1,0.575659036636,moral_self_bias,15,22,59.9908747248,f,001,2018_Apr_02_1525,
,,,,,,,,,,,,,,,,,,,,,,material/37.png,2,卑鄙,material/137.png,2,material/137.png,卑鄙,2,f,f,f,1,1,1,无耻,,,,,,,,,0,97,97,116,,,,,,,,,,,,,,,,,moral_self_bias,15,22,59.9908747248,f,001,2018_Apr_02_1525,
,,,,,,,,,,,,,,,,,,,,,,material/76.png,2,放纵,material/176.png,2,material/176.png,放纵,2,f,f,f,1,1,1,虚伪,,,,,,,,,0,98,98,155,0,0,0,0,,,,,,,f,1,0.642387151718,f,1,0.258646965027,moral_self_bias,15,22,59.9908747248,f,001,2018_Apr_02_1525,
,,,,,,,,,,,,,,,,,,,,,,material/76.png,2,放纵,material/176.png,2,material/176.png,放纵,2,f,f,f,1,1,1,虚伪,,,,,,,,,0,98,98,155,,,,,,,,,,,,,,,,,moral_self_bias,15,22,59.9908747248,f,001,2018_Apr_02_1525,
,,,,,,,,,,,,,,,,,,,,,,material/16.png,1,睿智,material/116.png,1,material/16.png,机智,1,f,f,f,2,2,2,睿智,,,,,,,,,0,99,99,95,0,0,0,0,,,,,,,f,1,0.557657003403,f,1,0.158856868744,moral_self_bias,15,22,59.9908747248,f,001,2018_Apr_02_1525,
,,,,,,,,,,,,,,,,,,,,,,material/16.png,1,睿智,material/116.png,1,material/16.png,机智,1,f,f,f,2,2,2,睿智,,,,,,,,,0,99,99,95,,,,,,,,,,,,,,,,,moral_self_bias,15,22,59.9908747248,f,001,2018_Apr_02_1525,
,,,,,,,,,,,,,,,,,,,,,,material/84.png,2,犹豫,material/84.png,2,material/181.png,顽愚,2,f,f,f,2,2,2,顽愚,,,,,,,,,0,100,100,167,0,0,0,0,,,,,,,f,1,0.725875854492,f,1,0.158225059509,moral_self_bias,15,22,59.9908747248,f,001,2018_Apr_02_1525,
,,,,,,,,,,,,,,,,,,,,,,material/84.png,2,犹豫,material/84.png,2,material/181.png,顽愚,2,f,f,f,2,2,2,顽愚,,,,,,,,,0,100,100,167,,,,,,,,,,,,,,,,,moral_self_bias,15,22,59.9908747248,f,001,2018_Apr_02_1525,
,,,,,,,,,,,,,,,,,,,,,,material/172.png,2,无情,material/175.png,2,material/175.png,无情,2,f,f,f,1,1,1,浮夸,,,,,,,,,0,101,101,154,0,0,0,0,,,,,,,f,1,0.658498048782,f,1,0.159107923508,moral_self_bias,15,22,59.9908747248,f,001,2018_Apr_02_1525,
,,,,,,,,,,,,,,,,,,,,,,material/172.png,2,无情,material/175.png,2,material/175.png,无情,2,f,f,f,1,1,1,浮夸,,,,,,,,,0,101,101,154,,,,,,,,,,,,,,,,,moral_self_bias,15,22,59.9908747248,f,001,2018_Apr_02_1525,
,,,,,,,,,,,,,,,,,,,,,,material/180.png,2,无助,material/79.png,2,material/81.png,颓废,2,j,j,j,2,2,2,怠惰,,,,,,,,,0,102,102,75,0,0,0,0,,,,,,,f,0,0.609180927277,f,1,0.141106128693,moral_self_bias,15,22,59.9908747248,f,001,2018_Apr_02_1525,
,,,,,,,,,,,,,,,,,,,,,,material/180.png,2,无助,material/79.png,2,material/81.png,颓废,2,j,j,j,2,2,2,怠惰,,,,,,,,,0,102,102,75,,,,,,,,,,,,,,,,,moral_self_bias,15,22,59.9908747248,f,001,2018_Apr_02_1525,
,,,,,,,,,,,,,,,,,,,,,,material/107.png,1,公正,material/7.png,1,material/7.png,公正,1,j,j,j,1,1,1,公平,,,,,,,,,0,103,103,6,0,0,0,0,,,,,,,f,0,0.986501932144,j,0,0.570925951004,moral_self_bias,15,22,59.9908747248,f,001,2018_Apr_02_1525,
,,,,,,,,,,,,,,,,,,,,,,material/107.png,1,公正,material/7.png,1,material/7.png,公正,1,j,j,j,1,1,1,公平,,,,,,,,,0,103,103,6,,,,,,,,,,,,,,,,,moral_self_bias,15,22,59.9908747248,f,001,2018_Apr_02_1525,
,,,,,,,,,,,,,,,,,,,,,,material/2.png,1,爱心,material/102.png,1,material/102.png,爱心,1,f,f,f,1,1,1,善心,,,,,,,,,0,104,104,81,,,,,,,,,,,j,0,0.952178955078,,,,moral_self_bias,15,22,59.9908747248,f,001,2018_Apr_02_1525,
,,,,,,,,,,,,,,,,,,,,,,material/170.png,1,坚忍,material/71.png,1,material/170.png,严谨,1,j,j,j,2,2,2,坚忍,,,,,,,,,0,105,105,68,0,0,0,0,,,,,,,f,0,0.871771097183,f,1,0.167370080948,moral_self_bias,15,22,59.9908747248,f,001,2018_Apr_02_1525,
,,,,,,,,,,,,,,,,,,,,,,material/170.png,1,坚忍,material/71.png,1,material/170.png,严谨,1,j,j,j,2,2,2,坚忍,,,,,,,,,0,105,105,68,,,,,,,,,,,,,,,,,moral_self_bias,15,22,59.9908747248,f,001,2018_Apr_02_1525,
,,,,,,,,,,,,,,,,,,,,,,material/129.png,1,好问,material/29.png,1,material/129.png,好学,1,j,j,j,2,2,2,好问,,,,,,,,,0,106,106,28,0,0,0,0,,,,,,,f,0,0.82359290123,f,1,0.320577859879,moral_self_bias,15,22,59.9908747248,f,001,2018_Apr_02_1525,
,,,,,,,,,,,,,,,,,,,,,,material/129.png,1,好问,material/29.png,1,material/129.png,好学,1,j,j,j,2,2,2,好问,,,,,,,,,0,106,106,28,,,,,,,,,,,,,,,,,moral_self_bias,15,22,59.9908747248,f,001,2018_Apr_02_1525,
,,,,,,,,,,,,,,,,,,,,,,material/174.png,2,虚伪,material/76.png,2,material/76.png,虚伪,2,j,j,j,1,1,1,不义,,,,,,,,,0,107,107,72,0,0,0,0,,,,,,,f,0,1.2249789238,f,1,0.15887093544,moral_self_bias,15,22,59.9908747248,f,001,2018_Apr_02_1525,
,,,,,,,,,,,,,,,,,,,,,,material/174.png,2,虚伪,material/76.png,2,material/76.png,虚伪,2,j,j,j,1,1,1,不义,,,,,,,,,0,107,107,72,,,,,,,,,,,,,,,,,moral_self_bias,15,22,59.9908747248,f,001,2018_Apr_02_1525,
,,,,,,,,,,,,,,,,,,,,,,material/61.png,1,仗义,material/65.png,1,material/166.png,谦虚,1,j,j,j,1,1,1,平等,,,,,,,,,0,108,108,64,0,0,0,0,,,,,,,f,0,0.640822887421,f,1,0.500039100647,moral_self_bias,15,22,59.9908747248,f,001,2018_Apr_02_1525,
,,,,,,,,,,,,,,,,,,,,,,material/61.png,1,仗义,material/65.png,1,material/166.png,谦虚,1,j,j,j,1,1,1,平等,,,,,,,,,0,108,108,64,,,,,,,,,,,,,,,,,moral_self_bias,15,22,59.9908747248,f,001,2018_Apr_02_1525,
,,,,,,,,,,,,,,,,,,,,,,material/31.png,1,笃学,material/131.png,1,material/31.png,笃行,1,f,f,f,2,2,2,笃学,,,,,,,,,0,109,109,110,0,0,0,0,,,,,,,f,1,0.873777151108,f,1,0.136688947678,moral_self_bias,15,22,59.9908747248,f,001,2018_Apr_02_1525,
,,,,,,,,,,,,,,,,,,,,,,material/31.png,1,笃学,material/131.png,1,material/31.png,笃行,1,f,f,f,2,2,2,笃学,,,,,,,,,0,109,109,110,,,,,,,,,,,,,,,,,moral_self_bias,15,22,59.9908747248,f,001,2018_Apr_02_1525,
,,,,,,,,,,,,,,,,,,,,,,material/142.png,2,阴险,material/42.png,2,material/42.png,阴险,2,j,j,j,1,1,1,奸诈,,,,,,,,,0,110,110,41,0,0,0,0,,,,,,,f,0,1.15986704826,f,1,0.275115013123,moral_self_bias,15,22,59.9908747248,f,001,2018_Apr_02_1525,
,,,,,,,,,,,,,,,,,,,,,,material/142.png,2,阴险,material/42.png,2,material/42.png,阴险,2,j,j,j,1,1,1,奸诈,,,,,,,,,0,110,110,41,,,,,,,,,,,,,,,,,moral_self_bias,15,22,59.9908747248,f,001,2018_Apr_02_1525,
,,,,,,,,,,,,,,,,,,,,,,material/8.png,1,无私,material/108.png,1,material/108.png,无私,1,f,f,f,1,1,1,公道,,,,,,,,,0,111,111,87,0,0,0,0,,,,,,,f,1,0.573955059052,f,1,0.15829205513,moral_self_bias,15,22,59.9908747248,f,001,2018_Apr_02_1525,
,,,,,,,,,,,,,,,,,,,,,,material/8.png,1,无私,material/108.png,1,material/108.png,无私,1,f,f,f,1,1,1,公道,,,,,,,,,0,111,111,87,,,,,,,,,,,,,,,,,moral_self_bias,15,22,59.9908747248,f,001,2018_Apr_02_1525,
,,,,,,,,,,,,,,,,,,,,,,material/109.png,1,秉直,material/9.png,1,material/9.png,秉直,1,j,j,j,1,1,1,正直,,,,,,,,,0,112,112,8,0,0,0,0,,,,,,,f,0,0.521135091782,f,1,0.167291164398,moral_self_bias,15,22,59.9908747248,f,001,2018_Apr_02_1525,
,,,,,,,,,,,,,,,,,,,,,,material/109.png,1,秉直,material/9.png,1,material/9.png,秉直,1,j,j,j,1,1,1,正直,,,,,,,,,0,112,112,8,,,,,,,,,,,,,,,,,moral_self_bias,15,22,59.9908747248,f,001,2018_Apr_02_1525,
,,,,,,,,,,,,,,,,,,,,,,material/14.png,1,忠贞,material/114.png,1,material/114.png,忠贞,1,f,f,f,1,1,1,爱国,,,,,,,,,0,113,113,93,0,0,0,0,,,,,,,f,1,1.45148682594,f,1,0.150567054749,moral_self_bias,15,22,59.9908747248,f,001,2018_Apr_02_1525,
,,,,,,,,,,,,,,,,,,,,,,material/14.png,1,忠贞,material/114.png,1,material/114.png,忠贞,1,f,f,f,1,1,1,爱国,,,,,,,,,0,113,113,93,,,,,,,,,,,,,,,,,moral_self_bias,15,22,59.9908747248,f,001,2018_Apr_02_1525,
,,,,,,,,,,,,,,,,,,,,,,material/181.png,2,怠惰,material/180.png,2,material/180.png,怠惰,2,f,f,f,2,2,2,犹豫,,,,,,,,,0,114,114,159,0,0,0,0,,,,,,,f,1,0.873766899109,f,1,0.225367069244,moral_self_bias,15,22,59.9908747248,f,001,2018_Apr_02_1525,
,,,,,,,,,,,,,,,,,,,,,,material/181.png,2,怠惰,material/180.png,2,material/180.png,怠惰,2,f,f,f,2,2,2,犹豫,,,,,,,,,0,114,114,159,,,,,,,,,,,,,,,,,moral_self_bias,15,22,59.9908747248,f,001,2018_Apr_02_1525,
,,,,,,,,,,,,,,,,,,,,,,material/176.png,2,害人,material/75.png,2,material/75.png,害人,2,j,j,j,1,1,1,放纵,,,,,,,,,0,115,115,71,,,,,,,,,,,j,1,0.792254924774,,,,moral_self_bias,15,22,59.9908747248,f,001,2018_Apr_02_1525,
,,,,,,,,,,,,,,,,,,,,,,material/34.png,2,可恶,material/134.png,2,material/134.png,可恶,2,f,f,f,1,1,1,可恨,,,,,,,,,0,116,116,113,,,,,,,,,,,j,0,0.591073036194,,,,moral_self_bias,15,22,59.9908747248,f,001,2018_Apr_02_1525,
,,,,,,,,,,,,,,,,,,,,,,material/116.png,1,机智,material/16.png,1,material/116.png,睿智,1,j,j,j,2,2,2,机智,,,,,,,,,0,117,117,15,0,0,0,0,,,,,,,f,0,0.942295074463,j,0,0.141705989838,moral_self_bias,15,22,59.9908747248,f,001,2018_Apr_02_1525,
,,,,,,,,,,,,,,,,,,,,,,material/116.png,1,机智,material/16.png,1,material/116.png,睿智,1,j,j,j,2,2,2,机智,,,,,,,,,0,117,117,15,,,,,,,,,,,,,,,,,moral_self_bias,15,22,59.9908747248,f,001,2018_Apr_02_1525,
,,,,,,,,,,,,,,,,,,,,,,material/134.png,2,可恨,material/34.png,2,material/34.png,可恨,2,j,j,j,1,1,1,可恶,,,,,,,,,0,118,118,33,,,,,,,,,,,j,1,0.858268976212,,,,moral_self_bias,15,22,59.9908747248,f,001,2018_Apr_02_1525,
,,,,,,,,,,,,,,,,,,,,,,material/146.png,2,小气,material/46.png,2,material/46.png,小气,2,j,j,j,1,1,1,自私,,,,,,,,,0,119,119,45,,,,,,,,,,,j,1,1.09183096886,,,,moral_self_bias,15,22,59.9908747248,f,001,2018_Apr_02_1525,
,,,,,,,,,,,,,,,,,,,,,,material/102.png,1,善心,material/2.png,1,material/2.png,善心,1,j,j,j,1,1,1,爱心,,,,,,,,,0,120,120,1,0,0,0,0,,,,,,,f,0,0.0248990058899,j,0,1.14956998825,moral_self_bias,15,22,59.9908747248,f,001,2018_Apr_02_1525,
,,,,,,,,,,,,,,,,,,,,,,material/102.png,1,善心,material/2.png,1,material/2.png,善心,1,j,j,j,1,1,1,爱心,,,,,,,,,0,120,120,1,,,,,,,,,,,,,,,,,moral_self_bias,15,22,59.9908747248,f,001,2018_Apr_02_1525,
,,,,,,,,,,,,,,,,,,,,,,material/1.png,1,博爱,material/101.png,1,material/101.png,博爱,1,f,f,f,1,1,1,善良,,,,,,,,,0,121,121,80,0,0,0,0,,,,,,,f,1,0.874965906143,f,1,0.141080856323,moral_self_bias,15,22,59.9908747248,f,001,2018_Apr_02_1525,
,,,,,,,,,,,,,,,,,,,,,,material/1.png,1,博爱,material/101.png,1,material/101.png,博爱,1,f,f,f,1,1,1,善良,,,,,,,,,0,121,121,80,,,,,,,,,,,,,,,,,moral_self_bias,15,22,59.9908747248,f,001,2018_Apr_02_1525,
,,,,,,,,,,,,,,,,,,,,,,material/119.png,1,机灵,material/19.png,1,material/119.png,灵活,1,j,j,j,2,2,2,机灵,,,,,,,,,0,122,122,18,0,0,0,0,,,,,,,f,0,1.14179086685,f,1,0.457387924194,moral_self_bias,15,22,59.9908747248,f,001,2018_Apr_02_1525,
,,,,,,,,,,,,,,,,,,,,,,material/119.png,1,机灵,material/19.png,1,material/119.png,灵活,1,j,j,j,2,2,2,机灵,,,,,,,,,0,122,122,18,,,,,,,,,,,,,,,,,moral_self_bias,15,22,59.9908747248,f,001,2018_Apr_02_1525,
,,,,,,,,,,,,,,,,,,,,,,material/124.png,1,冷静,material/24.png,1,material/124.png,理智,1,j,j,j,2,2,2,冷静,,,,,,,,,0,123,123,23,,,,,,,,,,,j,1,0.791645050049,,,,moral_self_bias,15,22,59.9908747248,f,001,2018_Apr_02_1525,
,,,,,,,,,,,,,,,,,,,,,,material/169.png,1,颖悟,material/171.png,1,material/169.png,高效,1,f,f,f,2,2,2,颖悟,,,,,,,,,0,124,124,150,,,,,,,,,,,j,0,1.02575397491,,,,moral_self_bias,15,22,59.9908747248,f,001,2018_Apr_02_1525,
,,,,,,,,,,,,,,,,,,,,,,material/131.png,1,笃行,material/31.png,1,material/131.png,笃学,1,j,j,j,2,2,2,笃行,,,,,,,,,0,125,125,30,,,,,,,,,,,j,1,0.583590984344,,,,moral_self_bias,15,22,59.9908747248,f,001,2018_Apr_02_1525,
,,,,,,,,,,,,,,,,,,,,,,material/144.png,2,失信,material/44.png,2,material/44.png,失信,2,j,j,j,1,1,1,爽约,,,,,,,,,0,126,126,43,,,,,,,,,,,j,1,0.741351127625,,,,moral_self_bias,15,22,59.9908747248,f,001,2018_Apr_02_1525,
,,,,,,,,,,,,,,,,,,,,,,material/73.png,2,恶心,material/177.png,2,material/177.png,恶心,2,f,f,f,1,1,1,残虐,,,,,,,,,0,127,127,156,0,0,0,0,,,,,,,f,1,1.80872607231,f,1,0.157325983047,moral_self_bias,15,22,59.9908747248,f,001,2018_Apr_02_1525,
,,,,,,,,,,,,,,,,,,,,,,material/73.png,2,恶心,material/177.png,2,material/177.png,恶心,2,f,f,f,1,1,1,残虐,,,,,,,,,0,127,127,156,,,,,,,,,,,,,,,,,moral_self_bias,15,22,59.9908747248,f,001,2018_Apr_02_1525,
,,,,,,,,,,,,,,,,,,,,,,material/165.png,1,平等,material/161.png,1,material/61.png,勇敢,1,f,f,f,1,1,1,独立,,,,,,,,,0,128,128,140,,,,,,,,,,,j,0,1.07489418983,,,,moral_self_bias,15,22,59.9908747248,f,001,2018_Apr_02_1525,
,,,,,,,,,,,,,,,,,,,,,,material/150.png,2,鲁钝,material/50.png,2,material/150.png,愚笨,2,j,j,j,2,2,2,鲁钝,,,,,,,,,0,129,129,49,0,0,0,0,,,,,,,f,0,0.841495037079,j,0,0.591192960739,moral_self_bias,15,22,59.9908747248,f,001,2018_Apr_02_1525,
,,,,,,,,,,,,,,,,,,,,,,material/150.png,2,鲁钝,material/50.png,2,material/150.png,愚笨,2,j,j,j,2,2,2,鲁钝,,,,,,,,,0,129,129,49,,,,,,,,,,,,,,,,,moral_self_bias,15,22,59.9908747248,f,001,2018_Apr_02_1525,
,,,,,,,,,,,,,,,,,,,,,,material/24.png,1,理智,material/124.png,1,material/24.png,冷静,1,f,f,f,2,2,2,理智,,,,,,,,,0,130,130,103,0,0,0,0,,,,,,,f,1,0.641877889633,j,0,0.25842499733,moral_self_bias,15,22,59.9908747248,f,001,2018_Apr_02_1525,
,,,,,,,,,,,,,,,,,,,,,,material/24.png,1,理智,material/124.png,1,material/24.png,冷静,1,f,f,f,2,2,2,理智,,,,,,,,,0,130,130,103,,,,,,,,,,,,,,,,,moral_self_bias,15,22,59.9908747248,f,001,2018_Apr_02_1525,
,,,,,,,,,,,,,,,,,,,,,,material/54.png,2,依赖,material/154.png,2,material/54.png,依靠,2,f,f,f,2,2,2,依赖,,,,,,,,,0,131,131,133,0,0,0,0,,,,,,,f,1,0.741505146027,f,1,0.174210071564,moral_self_bias,15,22,59.9908747248,f,001,2018_Apr_02_1525,
,,,,,,,,,,,,,,,,,,,,,,material/54.png,2,依赖,material/154.png,2,material/54.png,依靠,2,f,f,f,2,2,2,依赖,,,,,,,,,0,131,131,133,,,,,,,,,,,,,,,,,moral_self_bias,15,22,59.9908747248,f,001,2018_Apr_02_1525,
,,,,,,,,,,,,,,,,,,,,,,material/23.png,1,有才,material/123.png,1,material/23.png,多才,1,f,f,f,2,2,2,有才,,,,,,,,,0,132,132,102,0,0,0,0,,,,,,,f,1,0.658322095871,f,1,0.674464941025,moral_self_bias,15,22,59.9908747248,f,001,2018_Apr_02_1525,
,,,,,,,,,,,,,,,,,,,,,,material/23.png,1,有才,material/123.png,1,material/23.png,多才,1,f,f,f,2,2,2,有才,,,,,,,,,0,132,132,102,,,,,,,,,,,,,,,,,moral_self_bias,15,22,59.9908747248,f,001,2018_Apr_02_1525,
,,,,,,,,,,,,,,,,,,,,,,material/53.png,2,迟缓,material/153.png,2,material/53.png,迟钝,2,f,f,f,2,2,2,迟缓,,,,,,,,,0,133,133,132,0,0,0,0,,,,,,,f,1,1.05838298798,j,0,0.275946855545,moral_self_bias,15,22,59.9908747248,f,001,2018_Apr_02_1525,
,,,,,,,,,,,,,,,,,,,,,,material/53.png,2,迟缓,material/153.png,2,material/53.png,迟钝,2,f,f,f,2,2,2,迟缓,,,,,,,,,0,133,133,132,,,,,,,,,,,,,,,,,moral_self_bias,15,22,59.9908747248,f,001,2018_Apr_02_1525,
,,,,,,,,,,,,,,,,,,,,,,material/65.png,1,勇敢,material/61.png,1,material/161.png,平等,1,j,j,j,1,1,1,谦虚,,,,,,,,,0,134,134,60,,,,,,,,,,,j,1,0.925057888031,,,,moral_self_bias,15,22,59.9908747248,f,001,2018_Apr_02_1525,
,,,,,,,,,,,,,,,,,,,,,,material/166.png,1,孝顺,material/64.png,1,material/164.png,奉献,1,j,j,j,1,1,1,仗义,,,,,,,,,0,135,135,63,0,0,0,0,,,,,,,f,0,0.842042922974,j,0,0.25812292099,moral_self_bias,15,22,59.9908747248,f,001,2018_Apr_02_1525,
,,,,,,,,,,,,,,,,,,,,,,material/166.png,1,孝顺,material/64.png,1,material/164.png,奉献,1,j,j,j,1,1,1,仗义,,,,,,,,,0,135,135,63,,,,,,,,,,,,,,,,,moral_self_bias,15,22,59.9908747248,f,001,2018_Apr_02_1525,
,,,,,,,,,,,,,,,,,,,,,,material/123.png,1,多才,material/23.png,1,material/123.png,有才,1,j,j,j,2,2,2,多才,,,,,,,,,0,136,136,22,0,0,0,0,,,,,,,f,0,0.806605815887,j,0,0.241367101669,moral_self_bias,15,22,59.9908747248,f,001,2018_Apr_02_1525,
,,,,,,,,,,,,,,,,,,,,,,material/123.png,1,多才,material/23.png,1,material/123.png,有才,1,j,j,j,2,2,2,多才,,,,,,,,,0,136,136,22,,,,,,,,,,,,,,,,,moral_self_bias,15,22,59.9908747248,f,001,2018_Apr_02_1525,
,,,,,,,,,,,,,,,,,,,,,,material/163.png,1,文明,material/163.png,1,material/63.png,宽容,1,f,f,f,1,1,1,宽容,,,,,,,,,0,137,137,142,0,0,0,0,,,,,,,f,1,0.59214091301,j,0,0.241115808487,moral_self_bias,15,22,59.9908747248,f,001,2018_Apr_02_1525,
,,,,,,,,,,,,,,,,,,,,,,material/163.png,1,文明,material/163.png,1,material/63.png,宽容,1,f,f,f,1,1,1,宽容,,,,,,,,,0,137,137,142,,,,,,,,,,,,,,,,,moral_self_bias,15,22,59.9908747248,f,001,2018_Apr_02_1525,
,,,,,,,,,,,,,,,,,,,,,,material/179.png,2,顽愚,material/178.png,2,material/84.png,毛糙,2,f,f,f,2,2,2,差生,,,,,,,,,0,138,138,157,0,0,0,0,,,,,,,f,1,0.658549070358,j,0,0.124920129776,moral_self_bias,15,22,59.9908747248,f,001,2018_Apr_02_1525,
,,,,,,,,,,,,,,,,,,,,,,material/179.png,2,顽愚,material/178.png,2,material/84.png,毛糙,2,f,f,f,2,2,2,差生,,,,,,,,,0,138,138,157,,,,,,,,,,,,,,,,,moral_self_bias,15,22,59.9908747248,f,001,2018_Apr_02_1525,
,,,,,,,,,,,,,,,,,,,,,,material/60.png,2,粗拙,material/160.png,2,material/60.png,笨拙,2,f,f,f,2,2,2,粗拙,,,,,,,,,0,139,139,139,0,0,0,0,,,,,,,f,1,0.558463096619,j,0,0.138697862625,moral_self_bias,15,22,59.9908747248,f,001,2018_Apr_02_1525,
,,,,,,,,,,,,,,,,,,,,,,material/60.png,2,粗拙,material/160.png,2,material/60.png,笨拙,2,f,f,f,2,2,2,粗拙,,,,,,,,,0,139,139,139,,,,,,,,,,,,,,,,,moral_self_bias,15,22,59.9908747248,f,001,2018_Apr_02_1525,
,,,,,,,,,,,,,,,,,,,,,,material/153.png,2,迟钝,material/53.png,2,material/153.png,迟缓,2,j,j,j,2,2,2,迟钝,,,,,,,,,0,140,140,52,0,0,0,0,,,,,,,f,0,0.690804004669,j,0,0.137082099915,moral_self_bias,15,22,59.9908747248,f,001,2018_Apr_02_1525,
,,,,,,,,,,,,,,,,,,,,,,material/153.png,2,迟钝,material/53.png,2,material/153.png,迟缓,2,j,j,j,2,2,2,迟钝,,,,,,,,,0,140,140,52,,,,,,,,,,,,,,,,,moral_self_bias,15,22,59.9908747248,f,001,2018_Apr_02_1525,
,,,,,,,,,,,,,,,,,,,,,,material/111.png,1,高雅,material/11.png,1,material/11.png,高雅,1,j,j,j,1,1,1,高尚,,,,,,,,,0,141,141,10,,,,,,,,,,,j,1,0.754786968231,,,,moral_self_bias,15,22,59.9908747248,f,001,2018_Apr_02_1525,
,,,,,,,,,,,,,,,,,,,,,,material/104.png,1,友爱,material/4.png,1,material/4.png,友爱,1,j,j,j,1,1,1,友善,,,,,,,,,0,142,142,3,,,,,,,,,,,j,1,0.758048057556,,,,moral_self_bias,15,22,59.9908747248,f,001,2018_Apr_02_1525,
,,,,,,,,,,,,,,,,,,,,,,material/152.png,2,缓慢,material/52.png,2,material/152.png,拖延,2,j,j,j,2,2,2,缓慢,,,,,,,,,0,143,143,51,0,0,0,0,,,,,,,f,0,0.691505908966,f,1,0.25768995285,moral_self_bias,15,22,59.9908747248,f,001,2018_Apr_02_1525,
,,,,,,,,,,,,,,,,,,,,,,material/152.png,2,缓慢,material/52.png,2,material/152.png,拖延,2,j,j,j,2,2,2,缓慢,,,,,,,,,0,143,143,51,,,,,,,,,,,,,,,,,moral_self_bias,15,22,59.9908747248,f,001,2018_Apr_02_1525,
,,,,,,,,,,,,,,,,,,,,,,material/133.png,2,腐败,material/33.png,2,material/33.png,腐败,2,j,j,j,1,1,1,贪污,,,,,,,,,0,144,144,32,0,0,0,0,,,,,,,f,0,0.807777881622,f,1,0.167575120926,moral_self_bias,15,22,59.9908747248,f,001,2018_Apr_02_1525,
,,,,,,,,,,,,,,,,,,,,,,material/133.png,2,腐败,material/33.png,2,material/33.png,腐败,2,j,j,j,1,1,1,贪污,,,,,,,,,0,144,144,32,,,,,,,,,,,,,,,,,moral_self_bias,15,22,59.9908747248,f,001,2018_Apr_02_1525,
,,,,,,,,,,,,,,,,,,,,,,material/4.png,1,友善,material/104.png,1,material/104.png,友善,1,f,f,f,1,1,1,友爱,,,,,,,,,0,145,145,83,,,,,,,,,,,j,0,0.816375017166,,,,moral_self_bias,15,22,59.9908747248,f,001,2018_Apr_02_1525,
,,,,,,,,,,,,,,,,,,,,,,material/50.png,2,愚笨,material/150.png,2,material/50.png,鲁钝,2,f,f,f,2,2,2,愚笨,,,,,,,,,0,146,146,129,,,,,,,,,,,j,0,0.991843938828,,,,moral_self_bias,15,22,59.9908747248,f,001,2018_Apr_02_1525,
,,,,,,,,,,,,,,,,,,,,,,material/70.png,1,全面,material/168.png,1,material/70.png,机变,1,f,f,f,2,2,2,全面,,,,,,,,,0,147,147,147,,,,,,,,,,,j,0,0.82577419281,,,,moral_self_bias,15,22,59.9908747248,f,001,2018_Apr_02_1525,
,,,,,,,,,,,,,,,,,,,,,,material/184.png,2,草率,material/80.png,2,material/78.png,健忘,2,j,j,j,2,2,2,厌学,,,,,,,,,0,148,148,76,0,0,0,0,,,,,,,f,0,1.07487297058,f,1,0.15062212944,moral_self_bias,15,22,59.9908747248,f,001,2018_Apr_02_1525,
,,,,,,,,,,,,,,,,,,,,,,material/184.png,2,草率,material/80.png,2,material/78.png,健忘,2,j,j,j,2,2,2,厌学,,,,,,,,,0,148,148,76,,,,,,,,,,,,,,,,,moral_self_bias,15,22,59.9908747248,f,001,2018_Apr_02_1525,
,,,,,,,,,,,,,,,,,,,,,,material/45.png,2,小人,material/145.png,2,material/145.png,小人,2,f,f,f,1,1,1,下流,,,,,,,,,0,149,149,124,,,,,,,,,,,j,0,0.691725969315,,,,moral_self_bias,15,22,59.9908747248,f,001,2018_Apr_02_1525,
,,,,,,,,,,,,,,,,,,,,,,material/162.png,1,敬业,material/62.png,1,material/162.png,坚韧,1,j,j,j,1,1,1,敬业,,,,,,,,,0,150,150,61,0,0,0,0,,,,,,,f,0,0.583112955093,f,1,0.90785908699,moral_self_bias,15,22,59.9908747248,f,001,2018_Apr_02_1525,
,,,,,,,,,,,,,,,,,,,,,,material/162.png,1,敬业,material/62.png,1,material/162.png,坚韧,1,j,j,j,1,1,1,敬业,,,,,,,,,0,150,150,61,,,,,,,,,,,,,,,,,moral_self_bias,15,22,59.9908747248,f,001,2018_Apr_02_1525,
,,,,,,,,,,,,,,,,,,,,,,material/137.png,2,无耻,material/37.png,2,material/37.png,无耻,2,j,j,j,1,1,1,卑鄙,,,,,,,,,0,151,151,36,,,,,,,,,,,j,1,2.47456908226,,,,moral_self_bias,15,22,59.9908747248,f,001,2018_Apr_02_1525,
,,,,,,,,,,,,,,,,,,,,,,material/135.png,2,冷漠,material/35.png,2,material/35.png,冷漠,2,j,j,j,1,1,1,冷血,,,,,,,,,0,152,152,34,,,,,,,,,,,j,1,1.89187717438,,,,moral_self_bias,15,22,59.9908747248,f,001,2018_Apr_02_1525,
,,,,,,,,,,,,,,,,,,,,,,material/148.png,2,笨蛋,material/48.png,2,material/148.png,愚蠢,2,j,j,j,2,2,2,笨蛋,,,,,,,,,0,153,153,47,0,0,0,0,,,,,,,f,0,0.649691820145,j,0,0.175055980682,moral_self_bias,15,22,59.9908747248,f,001,2018_Apr_02_1525,
,,,,,,,,,,,,,,,,,,,,,,material/148.png,2,笨蛋,material/48.png,2,material/148.png,愚蠢,2,j,j,j,2,2,2,笨蛋,,,,,,,,,0,153,153,47,,,,,,,,,,,,,,,,,moral_self_bias,15,22,59.9908747248,f,001,2018_Apr_02_1525,
,,,,,,,,,,,,,,,,,,,,,,material/46.png,2,自私,material/146.png,2,material/146.png,自私,2,f,f,f,1,1,1,小气,,,,,,,,,0,154,154,125,0,0,0,0,,,,,,,f,1,0.97554397583,f,1,0.225313901901,moral_self_bias,15,22,59.9908747248,f,001,2018_Apr_02_1525,
,,,,,,,,,,,,,,,,,,,,,,material/46.png,2,自私,material/146.png,2,material/146.png,自私,2,f,f,f,1,1,1,小气,,,,,,,,,0,154,154,125,,,,,,,,,,,,,,,,,moral_self_bias,15,22,59.9908747248,f,001,2018_Apr_02_1525,
,,,,,,,,,,,,,,,,,,,,,,material/157.png,2,无能,material/57.png,2,material/157.png,无知,2,j,j,j,2,2,2,无能,,,,,,,,,0,155,155,56,0,0,0,0,,,,,,,f,0,0.642024040222,f,1,0.341264009476,moral_self_bias,15,22,59.9908747248,f,001,2018_Apr_02_1525,
,,,,,,,,,,,,,,,,,,,,,,material/157.png,2,无能,material/57.png,2,material/157.png,无知,2,j,j,j,2,2,2,无能,,,,,,,,,0,155,155,56,,,,,,,,,,,,,,,,,moral_self_bias,15,22,59.9908747248,f,001,2018_Apr_02_1525,
,,,,,,,,,,,,,,,,,,,,,,material/159.png,2,弱智,material/59.png,2,material/159.png,智障,2,j,j,j,2,2,2,弱智,,,,,,,,,0,156,156,58,0,0,0,0,,,,,,,f,0,0.941130876541,f,1,0.408960103989,moral_self_bias,15,22,59.9908747248,f,001,2018_Apr_02_1525,
,,,,,,,,,,,,,,,,,,,,,,material/159.png,2,弱智,material/59.png,2,material/159.png,智障,2,j,j,j,2,2,2,弱智,,,,,,,,,0,156,156,58,,,,,,,,,,,,,,,,,moral_self_bias,15,22,59.9908747248,f,001,2018_Apr_02_1525,
,,,,,,,,,,,,,,,,,,,,,,material/173.png,2,不义,material/174.png,2,material/174.png,不义,2,f,f,f,1,1,1,黑心,,,,,,,,,0,157,157,153,,,,,,,,,,,j,0,1.3583009243,,,,moral_self_bias,15,22,59.9908747248,f,001,2018_Apr_02_1525,
,,,,,,,,,,,,,,,,,,,,,,material/26.png,1,刻苦,material/126.png,1,material/26.png,勤快,1,f,f,f,2,2,2,刻苦,,,,,,,,,0,158,158,105,0,0,0,0,,,,,,,f,1,0.658128976822,f,1,0.424689054489,moral_self_bias,15,22,59.9908747248,f,001,2018_Apr_02_1525,
,,,,,,,,,,,,,,,,,,,,,,material/26.png,1,刻苦,material/126.png,1,material/26.png,勤快,1,f,f,f,2,2,2,刻苦,,,,,,,,,0,158,158,105,,,,,,,,,,,,,,,,,moral_self_bias,15,22,59.9908747248,f,001,2018_Apr_02_1525,
,,,,,,,,,,,,,,,,,,,,,,material/17.png,1,聪明,material/117.png,1,material/17.png,聪颖,1,f,f,f,2,2,2,聪明,,,,,,,,,0,159,159,96,0,0,0,0,,,,,,,f,1,0.724347114563,f,1,0.124675035477,moral_self_bias,15,22,59.9908747248,f,001,2018_Apr_02_1525,
,,,,,,,,,,,,,,,,,,,,,,material/17.png,1,聪明,material/117.png,1,material/17.png,聪颖,1,f,f,f,2,2,2,聪明,,,,,,,,,0,159,159,96,,,,,,,,,,,,,,,,,moral_self_bias,15,22,59.9908747248,f,001,2018_Apr_02_1525,
,,,,,,,,,,,,,,,,,,,,,,material/151.png,2,迷糊,material/51.png,2,material/151.png,糊涂,2,j,j,j,2,2,2,迷糊,,,,,,,,,0,160,160,50,,,,,,,,,,,j,1,0.971530914307,,,,moral_self_bias,15,22,59.9908747248,f,001,2018_Apr_02_1525,
,,,,,,,,,,,,,,,,,,,,,,material/13.png,1,廉明,material/113.png,1,material/113.png,廉明,1,f,f,f,1,1,1,廉洁,,,,,,,,,0,161,161,92,,,,,,,,,,,j,0,0.775098085403,,,,moral_self_bias,15,22,59.9908747248,f,001,2018_Apr_02_1525,
,,,,,,,,,,,,,,,,,,,,,,material/64.png,1,谦虚,material/165.png,1,material/65.png,独立,1,f,f,f,1,1,1,奉献,,,,,,,,,0,162,162,144,0,0,0,0,,,,,,,f,1,0.825299978256,f,1,0.124648809433,moral_self_bias,15,22,59.9908747248,f,001,2018_Apr_02_1525,
,,,,,,,,,,,,,,,,,,,,,,material/64.png,1,谦虚,material/165.png,1,material/65.png,独立,1,f,f,f,1,1,1,奉献,,,,,,,,,0,162,162,144,,,,,,,,,,,,,,,,,moral_self_bias,15,22,59.9908747248,f,001,2018_Apr_02_1525,
,,,,,,,,,,,,,,,,,,,,,,material/42.png,2,奸诈,material/142.png,2,material/142.png,奸诈,2,f,f,f,1,1,1,阴险,,,,,,,,,0,163,163,121,0,0,0,0,,,,,,,f,1,0.923999071121,f,1,0.408165931702,moral_self_bias,15,22,59.9908747248,f,001,2018_Apr_02_1525,
,,,,,,,,,,,,,,,,,,,,,,material/42.png,2,奸诈,material/142.png,2,material/142.png,奸诈,2,f,f,f,1,1,1,阴险,,,,,,,,,0,163,163,121,,,,,,,,,,,,,,,,,moral_self_bias,15,22,59.9908747248,f,001,2018_Apr_02_1525,
,,,,,,,,,,,,,,,,,,,,,,material/33.png,2,贪污,material/133.png,2,material/133.png,贪污,2,f,f,f,1,1,1,腐败,,,,,,,,,0,164,164,112,0,0,0,0,,,,,,,f,1,0.791991949081,f,1,0.141367912292,moral_self_bias,15,22,59.9908747248,f,001,2018_Apr_02_1525,
,,,,,,,,,,,,,,,,,,,,,,material/33.png,2,贪污,material/133.png,2,material/133.png,贪污,2,f,f,f,1,1,1,腐败,,,,,,,,,0,164,164,112,,,,,,,,,,,,,,,,,moral_self_bias,15,22,59.9908747248,f,001,2018_Apr_02_1525,
