Block1_Old,Num_Source3,Num_Source2,Num_Source1,valence1,valence2,valence3,Num_Old2,Corr_S1,Num_Old1,Corr_S3,Corr_S2,Block3_Old,Block2_Old,Source_2,Source_3,Source_1,domain3,domain2,domain1,Num_Old3,math,Num_All2,valence_all1,All_Words3,Num_All1,valence_all2,Num_All3,All_Words1,valence_all3,Corr_Rec2,Corr_Rec3,Corr_Rec1,domian_all3,domian_all2,domian_all1,All_Words2,trials.thisRepN,trials.thisTrialN,trials.thisN,trials.thisIndex,trials_2.thisRepN,trials_2.thisTrialN,trials_2.thisN,trials_2.thisIndex,trials_4.thisRepN,trials_4.thisTrialN,trials_4.thisN,trials_4.thisIndex,trials_3.thisRepN,trials_3.thisTrialN,trials_3.thisN,trials_3.thisIndex,block_resp_1.keys,block_resp_1.rt,words_rating.keys,words_rating.rt,block_resp_2.keys,block_resp_2.rt,Rec_resp.keys,Rec_resp.corr,Rec_resp.rt,Source_resp.keys,Source_resp.corr,Source_resp.rt,expName,participant,Age,frameRate,Sex,session,date,
,,,,,,,,,,,,,,,,,,,,,,,,,,,,,,,,,,,,,,,,,,,,,,,,,,,,,3,12.8428399563,,,,,,,,,,,moral_self_bias,21,20,59.9984264786,m,001,2018_Apr_02_1723,
背叛,material/instr2_1.png,material/instr2_1.png,material/instr2_1.png,2,2,2,material/32.png,f,material/132.png,f,f,背叛,不忠,self,self,self,1,1,1,material/132.png,,,,,,,,,,,,,,,,,0,0,0,31,,,,,,,,,,,,,,,None,,,,,,,,,,moral_self_bias,21,20,59.9984264786,m,001,2018_Apr_02_1723,
敬业,material/instr2_2.png,material/instr2_2.png,material/instr2_2.png,1,1,1,material/62.png,j,material/162.png,j,j,坚韧,坚韧,friend,friend,friend,1,1,1,material/62.png,,,,,,,,,,,,,,,,,0,1,1,61,,,,,,,,,,,,,,,1,2.00821614265,,,,,,,,,moral_self_bias,21,20,59.9984264786,m,001,2018_Apr_02_1723,
机变,material/instr2_2.png,material/instr2_2.png,material/instr2_2.png,1,1,1,material/70.png,j,material/168.png,j,j,全面,全面,friend,friend,friend,2,2,2,material/70.png,,,,,,,,,,,,,,,,,0,2,2,67,,,,,,,,,,,,,,,2,1.32554101944,,,,,,,,,moral_self_bias,21,20,59.9984264786,m,001,2018_Apr_02_1723,
宽容,material/instr2_2.png,material/instr2_2.png,material/instr2_2.png,1,1,1,material/163.png,j,material/163.png,j,j,文明,宽容,friend,friend,friend,1,1,1,material/63.png,,,,,,,,,,,,,,,,,0,3,3,62,,,,,,,,,,,,,,,4,1.47438383102,,,,,,,,,moral_self_bias,21,20,59.9984264786,m,001,2018_Apr_02_1723,
孝顺,material/instr2_1.png,material/instr2_1.png,material/instr2_1.png,1,1,1,material/161.png,f,material/164.png,f,f,奉献,勇敢,self,self,self,1,1,1,material/64.png,,,,,,,,,,,,,,,,,0,4,4,63,,,,,,,,,,,,,,,5,1.40897893906,,,,,,,,,moral_self_bias,21,20,59.9984264786,m,001,2018_Apr_02_1723,
卑鄙,material/instr2_2.png,material/instr2_2.png,material/instr2_2.png,2,2,2,material/37.png,j,material/137.png,j,j,卑鄙,无耻,friend,friend,friend,1,1,1,material/137.png,,,,,,,,,,,,,,,,,0,5,5,36,,,,,,,,,,,,,,,2,1.5917429924,,,,,,,,,moral_self_bias,21,20,59.9984264786,m,001,2018_Apr_02_1723,
可恶,material/instr2_1.png,material/instr2_1.png,material/instr2_1.png,2,2,2,material/34.png,f,material/134.png,f,f,可恶,可恨,self,self,self,1,1,1,material/134.png,,,,,,,,,,,,,,,,,0,6,6,33,,,,,,,,,,,,,,,2,1.60788607597,,,,,,,,,moral_self_bias,21,20,59.9984264786,m,001,2018_Apr_02_1723,
廉明,material/instr2_2.png,material/instr2_2.png,material/instr2_2.png,1,1,1,material/13.png,j,material/113.png,j,j,廉明,廉洁,friend,friend,friend,1,1,1,material/113.png,,,,,,,,,,,,,,,,,0,7,7,12,,,,,,,,,,,,,,,4,1.43344593048,,,,,,,,,moral_self_bias,21,20,59.9984264786,m,001,2018_Apr_02_1723,
怠惰,material/instr2_2.png,material/instr2_2.png,material/instr2_2.png,2,2,2,material/181.png,j,material/180.png,j,j,怠惰,犹豫,friend,friend,friend,2,2,2,material/180.png,,,,,,,,,,,,,,,,,0,8,8,79,,,,,,,,,,,,,,,3,1.82365393639,,,,,,,,,moral_self_bias,21,20,59.9984264786,m,001,2018_Apr_02_1723,
无情,material/instr2_1.png,material/instr2_1.png,material/instr2_1.png,2,2,2,material/172.png,f,material/175.png,f,f,无情,浮夸,self,self,self,1,1,1,material/175.png,,,,,,,,,,,,,,,,,0,9,9,74,,,,,,,,,,,,,,,1,2.16036701202,,,,,,,,,moral_self_bias,21,20,59.9984264786,m,001,2018_Apr_02_1723,
厌学,material/instr2_2.png,material/instr2_2.png,material/instr2_2.png,2,2,2,material/182.png,j,material/184.png,j,j,健忘,才尽,friend,friend,friend,2,2,2,material/80.png,,,,,,,,,,,,,,,,,0,10,10,83,,,,,,,,,,,,,,,2,1.94138407707,,,,,,,,,moral_self_bias,21,20,59.9984264786,m,001,2018_Apr_02_1723,
虚荣,material/instr2_1.png,material/instr2_1.png,material/instr2_1.png,2,2,2,material/43.png,f,material/143.png,f,f,虚荣,拜金,self,self,self,1,1,1,material/143.png,,,,,,,,,,,,,,,,,0,11,11,42,,,,,,,,,,,,,,,3,1.57274103165,,,,,,,,,moral_self_bias,21,20,59.9984264786,m,001,2018_Apr_02_1723,
依靠,material/instr2_1.png,material/instr2_1.png,material/instr2_1.png,2,2,2,material/54.png,f,material/154.png,f,f,依赖,依赖,self,self,self,2,2,2,material/54.png,,,,,,,,,,,,,,,,,0,12,12,53,,,,,,,,,,,,,,,5,1.1085729599,,,,,,,,,moral_self_bias,21,20,59.9984264786,m,001,2018_Apr_02_1723,
冷静,material/instr2_1.png,material/instr2_1.png,material/instr2_1.png,1,1,1,material/24.png,f,material/124.png,f,f,理智,理智,self,self,self,2,2,2,material/24.png,,,,,,,,,,,,,,,,,0,13,13,23,,,,,,,,,,,,,,,5,0.892087936401,,,,,,,,,moral_self_bias,21,20,59.9984264786,m,001,2018_Apr_02_1723,
博学,material/instr2_1.png,material/instr2_1.png,material/instr2_1.png,1,1,1,material/22.png,f,material/122.png,f,f,才学,才学,self,self,self,2,2,2,material/22.png,,,,,,,,,,,,,,,,,0,14,14,21,,,,,,,,,,,,,,,4,1.15791201591,,,,,,,,,moral_self_bias,21,20,59.9984264786,m,001,2018_Apr_02_1723,
机灵,material/instr2_2.png,material/instr2_2.png,material/instr2_2.png,1,1,1,material/19.png,j,material/119.png,j,j,灵活,灵活,friend,friend,friend,2,2,2,material/19.png,,,,,,,,,,,,,,,,,0,15,15,18,,,,,,,,,,,,,,,1,1.45899701118,,,,,,,,,moral_self_bias,21,20,59.9984264786,m,001,2018_Apr_02_1723,
正直,material/instr2_2.png,material/instr2_2.png,material/instr2_2.png,1,1,1,material/9.png,j,material/109.png,j,j,正直,秉直,friend,friend,friend,1,1,1,material/109.png,,,,,,,,,,,,,,,,,0,16,16,8,,,,,,,,,,,,,,,3,1.24203801155,,,,,,,,,moral_self_bias,21,20,59.9984264786,m,001,2018_Apr_02_1723,
勇敢,material/instr2_2.png,material/instr2_2.png,material/instr2_2.png,1,1,1,material/165.png,j,material/161.png,j,j,平等,独立,friend,friend,friend,1,1,1,material/61.png,,,,,,,,,,,,,,,,,0,17,17,60,,,,,,,,,,,,,,,4,1.42628288269,,,,,,,,,moral_self_bias,21,20,59.9984264786,m,001,2018_Apr_02_1723,
仗义,material/instr2_1.png,material/instr2_1.png,material/instr2_1.png,1,1,1,material/63.png,f,material/166.png,f,f,正义,文明,self,self,self,1,1,1,material/66.png,,,,,,,,,,,,,,,,,0,18,18,65,,,,,,,,,,,,,,,4,1.62582302094,,,,,,,,,moral_self_bias,21,20,59.9984264786,m,001,2018_Apr_02_1723,
无私,material/instr2_2.png,material/instr2_2.png,material/instr2_2.png,1,1,1,material/8.png,j,material/108.png,j,j,无私,公道,friend,friend,friend,1,1,1,material/108.png,,,,,,,,,,,,,,,,,0,19,19,7,,,,,,,,,,,,,,,1,1.17583489418,,,,,,,,,moral_self_bias,21,20,59.9984264786,m,001,2018_Apr_02_1723,
刻板,material/instr2_2.png,material/instr2_2.png,material/instr2_2.png,2,2,2,material/47.png,j,material/147.png,j,j,死板,死板,friend,friend,friend,2,2,2,material/47.png,,,,,,,,,,,,,,,,,0,20,20,46,,,,,,,,,,,,,,,1,1.1410741806,,,,,,,,,moral_self_bias,21,20,59.9984264786,m,001,2018_Apr_02_1723,
薄弱,material/instr2_1.png,material/instr2_1.png,material/instr2_1.png,2,2,2,material/82.png,f,material/183.png,f,f,毛糙,窝囊,self,self,self,2,2,2,material/178.png,,,,,,,,,,,,,,,,,0,21,21,82,,,,,,,,,,,,,,,3,1.67531204224,,,,,,,,,moral_self_bias,21,20,59.9984264786,m,001,2018_Apr_02_1723,
高手,material/instr2_2.png,material/instr2_2.png,material/instr2_2.png,1,1,1,material/68.png,j,material/167.png,j,j,广博,广博,friend,friend,friend,2,2,2,material/68.png,,,,,,,,,,,,,,,,,0,22,22,66,,,,,,,,,,,,,,,2,1.09211707115,,,,,,,,,moral_self_bias,21,20,59.9984264786,m,001,2018_Apr_02_1723,
诚信,material/instr2_1.png,material/instr2_1.png,material/instr2_1.png,1,1,1,material/5.png,f,material/105.png,f,f,诚信,守信,self,self,self,1,1,1,material/105.png,,,,,,,,,,,,,,,,,0,23,23,4,,,,,,,,,,,,,,,4,2.71638393402,,,,,,,,,moral_self_bias,21,20,59.9984264786,m,001,2018_Apr_02_1723,
聪颖,material/instr2_2.png,material/instr2_2.png,material/instr2_2.png,1,1,1,material/17.png,j,material/117.png,j,j,聪明,聪明,friend,friend,friend,2,2,2,material/17.png,,,,,,,,,,,,,,,,,0,24,24,16,,,,,,,,,,,,,,,3,1.62511587143,,,,,,,,,moral_self_bias,21,20,59.9984264786,m,001,2018_Apr_02_1723,
忠贞,material/instr2_2.png,material/instr2_2.png,material/instr2_2.png,1,1,1,material/14.png,j,material/114.png,j,j,忠贞,爱国,friend,friend,friend,1,1,1,material/114.png,,,,,,,,,,,,,,,,,0,25,25,13,,,,,,,,,,,,,,,2,1.64612388611,,,,,,,,,moral_self_bias,21,20,59.9984264786,m,001,2018_Apr_02_1723,
犹豫,material/instr2_1.png,material/instr2_1.png,material/instr2_1.png,2,2,2,material/78.png,f,material/181.png,f,f,厌学,草率,self,self,self,2,2,2,material/184.png,,,,,,,,,,,,,,,,,0,26,26,80,,,,,,,,,,,,,,,5,1.89184880257,,,,,,,,,moral_self_bias,21,20,59.9984264786,m,001,2018_Apr_02_1723,
愚钝,material/instr2_1.png,material/instr2_1.png,material/instr2_1.png,2,2,2,material/56.png,f,material/156.png,f,f,愚昧,愚昧,self,self,self,2,2,2,material/56.png,,,,,,,,,,,,,,,,,0,27,27,55,,,,,,,,,,,,,,,2,1.27642917633,,,,,,,,,moral_self_bias,21,20,59.9984264786,m,001,2018_Apr_02_1723,
友善,material/instr2_1.png,material/instr2_1.png,material/instr2_1.png,1,1,1,material/4.png,f,material/104.png,f,f,友善,友爱,self,self,self,1,1,1,material/104.png,,,,,,,,,,,,,,,,,0,28,28,3,,,,,,,,,,,,,,,4,1.34147286415,,,,,,,,,moral_self_bias,21,20,59.9984264786,m,001,2018_Apr_02_1723,
果敢,material/instr2_1.png,material/instr2_1.png,material/instr2_1.png,1,1,1,material/25.png,f,material/125.png,f,f,果断,果断,self,self,self,2,2,2,material/25.png,,,,,,,,,,,,,,,,,0,29,29,24,,,,,,,,,,,,,,,4,1.55758213997,,,,,,,,,moral_self_bias,21,20,59.9984264786,m,001,2018_Apr_02_1723,
浅薄,material/instr2_2.png,material/instr2_2.png,material/instr2_2.png,2,2,2,material/58.png,j,material/158.png,j,j,肤浅,肤浅,friend,friend,friend,2,2,2,material/58.png,,,,,,,,,,,,,,,,,0,30,30,57,,,,,,,,,,,,,,,2,1.27491593361,,,,,,,,,moral_self_bias,21,20,59.9984264786,m,001,2018_Apr_02_1723,
仁厚,material/instr2_1.png,material/instr2_1.png,material/instr2_1.png,1,1,1,material/3.png,f,material/103.png,f,f,仁厚,仁慈,self,self,self,1,1,1,material/103.png,,,,,,,,,,,,,,,,,0,31,31,2,,,,,,,,,,,,,,,5,0.999925136566,,,,,,,,,moral_self_bias,21,20,59.9984264786,m,001,2018_Apr_02_1723,
爱心,material/instr2_1.png,material/instr2_1.png,material/instr2_1.png,1,1,1,material/2.png,f,material/102.png,f,f,爱心,善心,self,self,self,1,1,1,material/102.png,,,,,,,,,,,,,,,,,0,32,32,1,,,,,,,,,,,,,,,5,0.792143106461,,,,,,,,,moral_self_bias,21,20,59.9984264786,m,001,2018_Apr_02_1723,
颖悟,material/instr2_2.png,material/instr2_2.png,material/instr2_2.png,1,1,1,material/167.png,j,material/169.png,j,j,高手,高手,friend,friend,friend,2,2,2,material/167.png,,,,,,,,,,,,,,,,,0,33,33,68,,,,,,,,,,,,,,,2,1.21622014046,,,,,,,,,moral_self_bias,21,20,59.9984264786,m,001,2018_Apr_02_1723,
公平,material/instr2_2.png,material/instr2_2.png,material/instr2_2.png,1,1,1,material/7.png,j,material/107.png,j,j,公平,公正,friend,friend,friend,1,1,1,material/107.png,,,,,,,,,,,,,,,,,0,34,34,6,,,,,,,,,,,,,,,1,1.54208302498,,,,,,,,,moral_self_bias,21,20,59.9984264786,m,001,2018_Apr_02_1723,
坚毅,material/instr2_2.png,material/instr2_2.png,material/instr2_2.png,1,1,1,material/10.png,j,material/110.png,j,j,坚毅,顽强,friend,friend,friend,1,1,1,material/110.png,,,,,,,,,,,,,,,,,0,35,35,9,,,,,,,,,,,,,,,1,1.20944786072,,,,,,,,,moral_self_bias,21,20,59.9984264786,m,001,2018_Apr_02_1723,
忠心,material/instr2_1.png,material/instr2_1.png,material/instr2_1.png,1,1,1,material/12.png,f,material/112.png,f,f,忠心,忠诚,self,self,self,1,1,1,material/112.png,,,,,,,,,,,,,,,,,0,36,36,11,,,,,,,,,,,,,,,4,1.00882601738,,,,,,,,,moral_self_bias,21,20,59.9984264786,m,001,2018_Apr_02_1723,
白痴,material/instr2_2.png,material/instr2_2.png,material/instr2_2.png,2,2,2,material/49.png,j,material/149.png,j,j,痴呆,痴呆,friend,friend,friend,2,2,2,material/49.png,,,,,,,,,,,,,,,,,0,37,37,48,,,,,,,,,,,,,,,2,1.94321608543,,,,,,,,,moral_self_bias,21,20,59.9984264786,m,001,2018_Apr_02_1723,
超群,material/instr2_2.png,material/instr2_2.png,material/instr2_2.png,1,1,1,material/27.png,j,material/127.png,j,j,卓越,卓越,friend,friend,friend,2,2,2,material/27.png,,,,,,,,,,,,,,,,,0,38,38,26,,,,,,,,,,,,,,,2,1.16266202927,,,,,,,,,moral_self_bias,21,20,59.9984264786,m,001,2018_Apr_02_1723,
进取,material/instr2_1.png,material/instr2_1.png,material/instr2_1.png,1,1,1,material/30.png,f,material/130.png,f,f,上进,上进,self,self,self,2,2,2,material/30.png,,,,,,,,,,,,,,,,,0,39,39,29,,,,,,,,,,,,,,,4,2.25657391548,,,,,,,,,moral_self_bias,21,20,59.9984264786,m,001,2018_Apr_02_1723,
自律,material/instr2_2.png,material/instr2_2.png,material/instr2_2.png,1,1,1,material/28.png,j,material/128.png,j,j,克己,克己,friend,friend,friend,2,2,2,material/28.png,,,,,,,,,,,,,,,,,0,40,40,27,,,,,,,,,,,,,,,1,2.54236578941,,,,,,,,,moral_self_bias,21,20,59.9984264786,m,001,2018_Apr_02_1723,
奸诈,material/instr2_1.png,material/instr2_1.png,material/instr2_1.png,2,2,2,material/42.png,f,material/142.png,f,f,奸诈,阴险,self,self,self,1,1,1,material/142.png,,,,,,,,,,,,,,,,,0,41,41,41,,,,,,,,,,,,,,,4,2.20885705948,,,,,,,,,moral_self_bias,21,20,59.9984264786,m,001,2018_Apr_02_1723,
笨拙,material/instr2_1.png,material/instr2_1.png,material/instr2_1.png,2,2,2,material/60.png,f,material/160.png,f,f,粗拙,粗拙,self,self,self,2,2,2,material/60.png,,,,,,,,,,,,,,,,,0,42,42,59,,,,,,,,,,,,,,,2,1.49230003357,,,,,,,,,moral_self_bias,21,20,59.9984264786,m,001,2018_Apr_02_1723,
差生,material/instr2_2.png,material/instr2_2.png,material/instr2_2.png,2,2,2,material/81.png,j,material/179.png,j,j,呆笨,无助,friend,friend,friend,2,2,2,material/83.png,,,,,,,,,,,,,,,,,0,43,43,78,,,,,,,,,,,,,,,1,1.92472290993,,,,,,,,,moral_self_bias,21,20,59.9984264786,m,001,2018_Apr_02_1723,
迟钝,material/instr2_1.png,material/instr2_1.png,material/instr2_1.png,2,2,2,material/53.png,f,material/153.png,f,f,迟缓,迟缓,self,self,self,2,2,2,material/53.png,,,,,,,,,,,,,,,,,0,44,44,52,,,,,,,,,,,,,,,3,1.07596993446,,,,,,,,,moral_self_bias,21,20,59.9984264786,m,001,2018_Apr_02_1723,
勤快,material/instr2_2.png,material/instr2_2.png,material/instr2_2.png,1,1,1,material/26.png,j,material/126.png,j,j,刻苦,刻苦,friend,friend,friend,2,2,2,material/26.png,,,,,,,,,,,,,,,,,0,45,45,25,,,,,,,,,,,,,,,4,1.55839300156,,,,,,,,,moral_self_bias,21,20,59.9984264786,m,001,2018_Apr_02_1723,
无能,material/instr2_2.png,material/instr2_2.png,material/instr2_2.png,2,2,2,material/57.png,j,material/157.png,j,j,无知,无知,friend,friend,friend,2,2,2,material/57.png,,,,,,,,,,,,,,,,,0,46,46,56,,,,,,,,,,,,,,,2,1.14144682884,,,,,,,,,moral_self_bias,21,20,59.9984264786,m,001,2018_Apr_02_1723,
撒谎,material/instr2_1.png,material/instr2_1.png,material/instr2_1.png,2,2,2,material/36.png,f,material/136.png,f,f,撒谎,说谎,self,self,self,1,1,1,material/136.png,,,,,,,,,,,,,,,,,0,47,47,35,,,,,,,,,,,,,,,5,1.39233803749,,,,,,,,,moral_self_bias,21,20,59.9984264786,m,001,2018_Apr_02_1723,
冷血,material/instr2_1.png,material/instr2_1.png,material/instr2_1.png,2,2,2,material/35.png,f,material/135.png,f,f,冷血,冷漠,self,self,self,1,1,1,material/135.png,,,,,,,,,,,,,,,,,0,48,48,34,,,,,,,,,,,,,,,3,1.87541103363,,,,,,,,,moral_self_bias,21,20,59.9984264786,m,001,2018_Apr_02_1723,
残忍,material/instr2_2.png,material/instr2_2.png,material/instr2_2.png,2,2,2,material/41.png,j,material/141.png,j,j,残忍,歹毒,friend,friend,friend,1,1,1,material/141.png,,,,,,,,,,,,,,,,,0,49,49,40,,,,,,,,,,,,,,,3,2.24209690094,,,,,,,,,moral_self_bias,21,20,59.9984264786,m,001,2018_Apr_02_1723,
黑心,material/instr2_2.png,material/instr2_2.png,material/instr2_2.png,2,2,2,material/74.png,j,material/173.png,j,j,黑心,卑劣,friend,friend,friend,1,1,1,material/173.png,,,,,,,,,,,,,,,,,0,50,50,72,,,,,,,,,,,,,,,1,1.9071598053,,,,,,,,,moral_self_bias,21,20,59.9984264786,m,001,2018_Apr_02_1723,
坚忍,material/instr2_1.png,material/instr2_1.png,material/instr2_1.png,1,1,1,material/168.png,f,material/170.png,f,f,机变,机变,self,self,self,2,2,2,material/168.png,,,,,,,,,,,,,,,,,0,51,51,69,,,,,,,,,,,,,,,5,0.908831834793,,,,,,,,,moral_self_bias,21,20,59.9984264786,m,001,2018_Apr_02_1723,
纯洁,material/instr2_2.png,material/instr2_2.png,material/instr2_2.png,1,1,1,material/15.png,j,material/115.png,j,j,纯洁,清白,friend,friend,friend,1,1,1,material/115.png,,,,,,,,,,,,,,,,,0,52,52,14,,,,,,,,,,,,,,,2,1.5674290657,,,,,,,,,moral_self_bias,21,20,59.9984264786,m,001,2018_Apr_02_1723,
恶毒,material/instr2_2.png,material/instr2_2.png,material/instr2_2.png,2,2,2,material/39.png,j,material/139.png,j,j,恶毒,凶残,friend,friend,friend,1,1,1,material/139.png,,,,,,,,,,,,,,,,,0,53,53,38,,,,,,,,,,,,,,,4,1.69776511192,,,,,,,,,moral_self_bias,21,20,59.9984264786,m,001,2018_Apr_02_1723,
盲目,material/instr2_1.png,material/instr2_1.png,material/instr2_1.png,2,2,2,material/55.png,f,material/155.png,f,f,盲从,盲从,self,self,self,2,2,2,material/55.png,,,,,,,,,,,,,,,,,0,54,54,54,,,,,,,,,,,,,,,5,1.37562704086,,,,,,,,,moral_self_bias,21,20,59.9984264786,m,001,2018_Apr_02_1723,
自私,material/instr2_2.png,material/instr2_2.png,material/instr2_2.png,2,2,2,material/46.png,j,material/146.png,j,j,自私,小气,friend,friend,friend,1,1,1,material/146.png,,,,,,,,,,,,,,,,,0,55,55,45,,,,,,,,,,,,,,,2,1.82545518875,,,,,,,,,moral_self_bias,21,20,59.9984264786,m,001,2018_Apr_02_1723,
鲁钝,material/instr2_2.png,material/instr2_2.png,material/instr2_2.png,2,2,2,material/50.png,j,material/150.png,j,j,愚笨,愚笨,friend,friend,friend,2,2,2,material/50.png,,,,,,,,,,,,,,,,,0,56,56,49,,,,,,,,,,,,,,,2,1.00953698158,,,,,,,,,moral_self_bias,21,20,59.9984264786,m,001,2018_Apr_02_1723,
高尚,material/instr2_1.png,material/instr2_1.png,material/instr2_1.png,1,1,1,material/11.png,f,material/111.png,f,f,高尚,高雅,self,self,self,1,1,1,material/111.png,,,,,,,,,,,,,,,,,0,57,57,10,,,,,,,,,,,,,,,4,1.27607107162,,,,,,,,,moral_self_bias,21,20,59.9984264786,m,001,2018_Apr_02_1723,
缺德,material/instr2_2.png,material/instr2_2.png,material/instr2_2.png,2,2,2,material/38.png,j,material/138.png,j,j,缺德,无德,friend,friend,friend,1,1,1,material/138.png,,,,,,,,,,,,,,,,,0,58,58,37,,,,,,,,,,,,,,,5,1.8764629364,,,,,,,,,moral_self_bias,21,20,59.9984264786,m,001,2018_Apr_02_1723,
好问,material/instr2_1.png,material/instr2_1.png,material/instr2_1.png,1,1,1,material/29.png,f,material/129.png,f,f,好学,好学,self,self,self,2,2,2,material/29.png,,,,,,,,,,,,,,,,,0,59,59,28,,,,,,,,,,,,,,,4,1.05878901482,,,,,,,,,moral_self_bias,21,20,59.9984264786,m,001,2018_Apr_02_1723,
爽约,material/instr2_2.png,material/instr2_2.png,material/instr2_2.png,2,2,2,material/44.png,j,material/144.png,j,j,爽约,失信,friend,friend,friend,1,1,1,material/144.png,,,,,,,,,,,,,,,,,0,60,60,43,,,,,,,,,,,,,,,1,1.52598810196,,,,,,,,,moral_self_bias,21,20,59.9984264786,m,001,2018_Apr_02_1723,
浮夸,material/instr2_2.png,material/instr2_2.png,material/instr2_2.png,2,2,2,material/77.png,j,material/172.png,j,j,浮夸,软弱,friend,friend,friend,1,1,1,material/172.png,,,,,,,,,,,,,,,,,0,61,61,71,,,,,,,,,,,,,,,3,1.93832612038,,,,,,,,,moral_self_bias,21,20,59.9984264786,m,001,2018_Apr_02_1723,
弱智,material/instr2_1.png,material/instr2_1.png,material/instr2_1.png,2,2,2,material/59.png,f,material/159.png,f,f,智障,智障,self,self,self,2,2,2,material/59.png,,,,,,,,,,,,,,,,,0,62,62,58,,,,,,,,,,,,,,,1,2.0921599865,,,,,,,,,moral_self_bias,21,20,59.9984264786,m,001,2018_Apr_02_1723,
才尽,material/instr2_1.png,material/instr2_1.png,material/instr2_1.png,2,2,2,material/183.png,f,material/182.png,f,f,颓废,薄弱,self,self,self,2,2,2,material/79.png,,,,,,,,,,,,,,,,,0,63,63,81,,,,,,,,,,,,,,,1,0.752999067307,,,,,,,,,moral_self_bias,21,20,59.9984264786,m,001,2018_Apr_02_1723,
笃行,material/instr2_1.png,material/instr2_1.png,material/instr2_1.png,1,1,1,material/31.png,f,material/131.png,f,f,笃学,笃学,self,self,self,2,2,2,material/31.png,,,,,,,,,,,,,,,,,0,64,64,30,,,,,,,,,,,,,,,4,1.24143004417,,,,,,,,,moral_self_bias,21,20,59.9984264786,m,001,2018_Apr_02_1723,
高效,material/instr2_1.png,material/instr2_1.png,material/instr2_1.png,1,1,1,material/169.png,f,material/171.png,f,f,颖悟,颖悟,self,self,self,2,2,2,material/169.png,,,,,,,,,,,,,,,,,0,65,65,70,,,,,,,,,,,,,,,4,0.809504985809,,,,,,,,,moral_self_bias,21,20,59.9984264786,m,001,2018_Apr_02_1723,
机敏,material/instr2_2.png,material/instr2_2.png,material/instr2_2.png,1,1,1,material/18.png,j,material/118.png,j,j,敏锐,敏锐,friend,friend,friend,2,2,2,material/18.png,,,,,,,,,,,,,,,,,0,66,66,17,,,,,,,,,,,,,,,1,1.77585506439,,,,,,,,,moral_self_bias,21,20,59.9984264786,m,001,2018_Apr_02_1723,
博爱,material/instr2_1.png,material/instr2_1.png,material/instr2_1.png,1,1,1,material/1.png,f,material/101.png,f,f,博爱,善良,self,self,self,1,1,1,material/101.png,,,,,,,,,,,,,,,,,0,67,67,0,,,,,,,,,,,,,,,5,0.758449792862,,,,,,,,,moral_self_bias,21,20,59.9984264786,m,001,2018_Apr_02_1723,
恶心,material/instr2_1.png,material/instr2_1.png,material/instr2_1.png,2,2,2,material/73.png,f,material/177.png,f,f,恶心,残虐,self,self,self,1,1,1,material/177.png,,,,,,,,,,,,,,,,,0,68,68,76,,,,,,,,,,,,,,,2,1.18375611305,,,,,,,,,moral_self_bias,21,20,59.9984264786,m,001,2018_Apr_02_1723,
小人,material/instr2_2.png,material/instr2_2.png,material/instr2_2.png,2,2,2,material/45.png,j,material/145.png,j,j,小人,下流,friend,friend,friend,1,1,1,material/145.png,,,,,,,,,,,,,,,,,0,69,69,44,,,,,,,,,,,,,,,1,1.29273819923,,,,,,,,,moral_self_bias,21,20,59.9984264786,m,001,2018_Apr_02_1723,
顽愚,material/instr2_1.png,material/instr2_1.png,material/instr2_1.png,2,2,2,material/84.png,f,material/84.png,f,f,犹豫,顽愚,self,self,self,2,2,2,material/181.png,,,,,,,,,,,,,,,,,0,70,70,87,,,,,,,,,,,,,,,4,1.43407607079,,,,,,,,,moral_self_bias,21,20,59.9984264786,m,001,2018_Apr_02_1723,
狠毒,material/instr2_2.png,material/instr2_2.png,material/instr2_2.png,2,2,2,material/40.png,j,material/140.png,j,j,狠毒,邪恶,friend,friend,friend,1,1,1,material/140.png,,,,,,,,,,,,,,,,,0,71,71,39,,,,,,,,,,,,,,,3,1.00933504105,,,,,,,,,moral_self_bias,21,20,59.9984264786,m,001,2018_Apr_02_1723,
残虐,material/instr2_1.png,material/instr2_1.png,material/instr2_1.png,2,2,2,material/175.png,f,material/73.png,f,f,残虐,无情,self,self,self,1,1,1,material/73.png,,,,,,,,,,,,,,,,,0,72,72,85,,,,,,,,,,,,,,,2,1.07634711266,,,,,,,,,moral_self_bias,21,20,59.9984264786,m,001,2018_Apr_02_1723,
迷糊,material/instr2_2.png,material/instr2_2.png,material/instr2_2.png,2,2,2,material/51.png,j,material/151.png,j,j,糊涂,糊涂,friend,friend,friend,2,2,2,material/51.png,,,,,,,,,,,,,,,,,0,73,73,50,,,,,,,,,,,,,,,5,1.6932258606,,,,,,,,,moral_self_bias,21,20,59.9984264786,m,001,2018_Apr_02_1723,
毛糙,material/instr2_2.png,material/instr2_2.png,material/instr2_2.png,2,2,2,material/179.png,j,material/178.png,j,j,顽愚,差生,friend,friend,friend,2,2,2,material/84.png,,,,,,,,,,,,,,,,,0,74,74,77,,,,,,,,,,,,,,,2,1.42606806755,,,,,,,,,moral_self_bias,21,20,59.9984264786,m,001,2018_Apr_02_1723,
机智,material/instr2_2.png,material/instr2_2.png,material/instr2_2.png,1,1,1,material/16.png,j,material/116.png,j,j,睿智,睿智,friend,friend,friend,2,2,2,material/16.png,,,,,,,,,,,,,,,,,0,75,75,15,,,,,,,,,,,,,,,3,1.64374399185,,,,,,,,,moral_self_bias,21,20,59.9984264786,m,001,2018_Apr_02_1723,
独立,material/instr2_1.png,material/instr2_1.png,material/instr2_1.png,1,1,1,material/64.png,f,material/165.png,f,f,谦虚,奉献,self,self,self,1,1,1,material/65.png,,,,,,,,,,,,,,,,,0,76,76,64,,,,,,,,,,,,,,,4,0.958784103394,,,,,,,,,moral_self_bias,21,20,59.9984264786,m,001,2018_Apr_02_1723,
精干,material/instr2_1.png,material/instr2_1.png,material/instr2_1.png,1,1,1,material/21.png,f,material/121.png,f,f,干练,干练,self,self,self,2,2,2,material/21.png,,,,,,,,,,,,,,,,,0,77,77,20,,,,,,,,,,,,,,,3,1.72594308853,,,,,,,,,moral_self_bias,21,20,59.9984264786,m,001,2018_Apr_02_1723,
高明,material/instr2_1.png,material/instr2_1.png,material/instr2_1.png,1,1,1,material/69.png,f,material/69.png,f,f,高明,高明,self,self,self,2,2,2,material/69.png,,,,,,,,,,,,,,,,,0,78,78,86,,,,,,,,,,,,,,,4,1.2590970993,,,,,,,,,moral_self_bias,21,20,59.9984264786,m,001,2018_Apr_02_1723,
笨蛋,material/instr2_2.png,material/instr2_2.png,material/instr2_2.png,2,2,2,material/48.png,j,material/148.png,j,j,愚蠢,愚蠢,friend,friend,friend,2,2,2,material/48.png,,,,,,,,,,,,,,,,,0,79,79,47,,,,,,,,,,,,,,,2,0.125602006912,,,,,,,,,moral_self_bias,21,20,59.9984264786,m,001,2018_Apr_02_1723,
正义,material/instr2_1.png,material/instr2_1.png,material/instr2_1.png,1,1,1,material/66.png,f,material/66.png,f,f,独立,正义,self,self,self,1,1,1,material/165.png,,,,,,,,,,,,,,,,,0,80,80,84,,,,,,,,,,,,,,,4,1.8755698204,,,,,,,,,moral_self_bias,21,20,59.9984264786,m,001,2018_Apr_02_1723,
缓慢,material/instr2_1.png,material/instr2_1.png,material/instr2_1.png,2,2,2,material/52.png,f,material/152.png,f,f,拖延,拖延,self,self,self,2,2,2,material/52.png,,,,,,,,,,,,,,,,,0,81,81,51,,,,,,,,,,,,,,,2,0.94241809845,,,,,,,,,moral_self_bias,21,20,59.9984264786,m,001,2018_Apr_02_1723,
多才,material/instr2_1.png,material/instr2_1.png,material/instr2_1.png,1,1,1,material/23.png,f,material/123.png,f,f,有才,有才,self,self,self,2,2,2,material/23.png,,,,,,,,,,,,,,,,,0,82,82,22,,,,,,,,,,,,,,,4,1.72577881813,,,,,,,,,moral_self_bias,21,20,59.9984264786,m,001,2018_Apr_02_1723,
放纵,material/instr2_1.png,material/instr2_1.png,material/instr2_1.png,2,2,2,material/76.png,f,material/176.png,f,f,放纵,虚伪,self,self,self,1,1,1,material/176.png,,,,,,,,,,,,,,,,,0,83,83,75,,,,,,,,,,,,,,,4,1.05887007713,,,,,,,,,moral_self_bias,21,20,59.9984264786,m,001,2018_Apr_02_1723,
厚道,material/instr2_2.png,material/instr2_2.png,material/instr2_2.png,1,1,1,material/6.png,j,material/106.png,j,j,厚道,诚实,friend,friend,friend,1,1,1,material/106.png,,,,,,,,,,,,,,,,,0,84,84,5,,,,,,,,,,,,,,,2,2.10905790329,,,,,,,,,moral_self_bias,21,20,59.9984264786,m,001,2018_Apr_02_1723,
贪污,material/instr2_1.png,material/instr2_1.png,material/instr2_1.png,2,2,2,material/33.png,f,material/133.png,f,f,贪污,腐败,self,self,self,1,1,1,material/133.png,,,,,,,,,,,,,,,,,0,85,85,32,,,,,,,,,,,,,,,4,0.966485023499,,,,,,,,,moral_self_bias,21,20,59.9984264786,m,001,2018_Apr_02_1723,
能干,material/instr2_2.png,material/instr2_2.png,material/instr2_2.png,1,1,1,material/20.png,j,material/120.png,j,j,厉害,厉害,friend,friend,friend,2,2,2,material/20.png,,,,,,,,,,,,,,,,,0,86,86,19,,,,,,,,,,,,,,,2,1.44276809692,,,,,,,,,moral_self_bias,21,20,59.9984264786,m,001,2018_Apr_02_1723,
不义,material/instr2_2.png,material/instr2_2.png,material/instr2_2.png,2,2,2,material/173.png,j,material/174.png,j,j,不义,黑心,friend,friend,friend,1,1,1,material/174.png,,,,,,,,,,,,,,,,,0,87,87,73,,,,,,,,,,,,,,,4,1.37546801567,,,,,,,,,moral_self_bias,21,20,59.9984264786,m,001,2018_Apr_02_1723,
,,,,,,,,,,,,,,,,,,,,,19-17= ?,,,,,,,,,,,,,,,,,,,,0,0,0,100,,,,,,,,,,,,,,,,,,,,,moral_self_bias,21,20,59.9984264786,m,001,2018_Apr_02_1723,
,,,,,,,,,,,,,,,,,,,,,12/6= ?,,,,,,,,,,,,,,,,,,,,0,1,1,90,,,,,,,,,,,,,,,,,,,,,moral_self_bias,21,20,59.9984264786,m,001,2018_Apr_02_1723,
,,,,,,,,,,,,,,,,,,,,,1+1= ?,,,,,,,,,,,,,,,,,,,,0,2,2,0,,,,,,,,,,,,,,,,,,,,,moral_self_bias,21,20,59.9984264786,m,001,2018_Apr_02_1723,
,,,,,,,,,,,,,,,,,,,,,14-9=？,,,,,,,,,,,,,,,,,,,,0,3,3,63,,,,,,,,,,,,,,,,,,,,,moral_self_bias,21,20,59.9984264786,m,001,2018_Apr_02_1723,
,,,,,,,,,,,,,,,,,,,,,2^2= ?,,,,,,,,,,,,,,,,,,,,0,4,4,49,,,,,,,,,,,,,,,,,,,,,moral_self_bias,21,20,59.9984264786,m,001,2018_Apr_02_1723,
,,,,,,,,,,,,,,,,,,,,,3+4= ?,,,,,,,,,,,,,,,,,,,,0,5,5,19,,,,,,,,,,,,,,,,,,,,,moral_self_bias,21,20,59.9984264786,m,001,2018_Apr_02_1723,
,,,,,,,,,,,,,,,,,,,,,2*4= ?,,,,,,,,,,,,,,,,,,,,0,6,6,84,,,,,,,,,,,,,,,,,,,,,moral_self_bias,21,20,59.9984264786,m,001,2018_Apr_02_1723,
,,,,,,,,,,,,,,,,,,,,,6*0= ?,,,,,,,,,,,,,,,,,,,,0,7,7,87,,,,,,,,,,,,,,,,,,,,,moral_self_bias,21,20,59.9984264786,m,001,2018_Apr_02_1723,
,,,,,,,,,,,,,,,,,,,,,8-4= ?,,,,,,,,,,,,,,,,,,,,0,8,8,40,,,,,,,,,,,,,,,,,,,,,moral_self_bias,21,20,59.9984264786,m,001,2018_Apr_02_1723,
,,,,,,,,,,,,,,,,,,,,,4*2= ?,,,,,,,,,,,,,,,,,,,,0,9,9,82,,,,,,,,,,,,,,,,,,,,,moral_self_bias,21,20,59.9984264786,m,001,2018_Apr_02_1723,
,,,,,,,,,,,,,,,,,,,,,1*9= ?,,,,,,,,,,,,,,,,,,,,0,10,10,109,,,,,,,,,,,,,,,,,,,,,moral_self_bias,21,20,59.9984264786,m,001,2018_Apr_02_1723,
,,,,,,,,,,,,,,,,,,,,,8+1= ?,,,,,,,,,,,,,,,,,,,,0,11,11,48,,,,,,,,,,,,,,,,,,,,,moral_self_bias,21,20,59.9984264786,m,001,2018_Apr_02_1723,
,,,,,,,,,,,,,,,,,,,,,9-1=?,,,,,,,,,,,,,,,,,,,,0,12,12,2,,,,,,,,,,,,,,,,,,,,,moral_self_bias,21,20,59.9984264786,m,001,2018_Apr_02_1723,
,,,,,,,,,,,,,,,,,,,,,16-11=？,,,,,,,,,,,,,,,,,,,,0,13,13,62,,,,,,,,,,,,,,,,,,,,,moral_self_bias,21,20,59.9984264786,m,001,2018_Apr_02_1723,
,,,,,,,,,,,,,,,,,,,,,13-6=？,,,,,,,,,,,,,,,,,,,,0,14,14,64,,,,,,,,,,,,,,,,,,,,,moral_self_bias,21,20,59.9984264786,m,001,2018_Apr_02_1723,
,,,,,,,,,,,,,,,,,,,,,7+1= ?,,,,,,,,,,,,,,,,,,,,0,15,15,46,,,,,,,,,,,,,,,,,,,,,moral_self_bias,21,20,59.9984264786,m,001,2018_Apr_02_1723,
,,,,,,,,,,,,,,,,,,,,,4+5= ?,,,,,,,,,,,,,,,,,,,,0,16,16,29,,,,,,,,,,,,,,,,,,,,,moral_self_bias,21,20,59.9984264786,m,001,2018_Apr_02_1723,
,,,,,,,,,,,,,,,,,,,,,5+1= ?,,,,,,,,,,,,,,,,,,,,0,17,17,34,,,,,,,,,,,,,,,,,,,,,moral_self_bias,21,20,59.9984264786,m,001,2018_Apr_02_1723,
,,,,,,,,,,,,,,,,,,,,,7*1= ?,,,,,,,,,,,,,,,,,,,,0,18,18,113,,,,,,,,,,,,,,,,,,,,,moral_self_bias,21,20,59.9984264786,m,001,2018_Apr_02_1723,
,,,,,,,,,,,,,,,,,,,,,8-2= ?,,,,,,,,,,,,,,,,,,,,0,19,19,38,,,,,,,,,,,,,,,,,,,,,moral_self_bias,21,20,59.9984264786,m,001,2018_Apr_02_1723,
,,,,,,,,,,,,,,,,,,,,,3^2= ?,,,,,,,,,,,,,,,,,,,,0,20,20,50,,,,,,,,,,,,,,,,,,,,,moral_self_bias,21,20,59.9984264786,m,001,2018_Apr_02_1723,
,,,,,,,,,,,,,,,,,,,,,13-9= ?,,,,,,,,,,,,,,,,,,,,0,21,21,92,,,,,,,,,,,,,,,,,,,,,moral_self_bias,21,20,59.9984264786,m,001,2018_Apr_02_1723,
,,,,,,,,,,,,,,,,,,,,,10-5=？,,,,,,,,,,,,,,,,,,,,0,22,22,67,,,,,,,,,,,,,,,,,,,,,moral_self_bias,21,20,59.9984264786,m,001,2018_Apr_02_1723,
,,,,,,,,,,,,,,,,,,,,,9-7= ?,,,,,,,,,,,,,,,,,,,,0,23,23,30,,,,,,,,,,,,,,,,,,,,,moral_self_bias,21,20,59.9984264786,m,001,2018_Apr_02_1723,
,,,,,,,,,,,,,,,,,,,,,3*2= ?,,,,,,,,,,,,,,,,,,,,0,24,24,53,,,,,,,,,,,,,,,,,,,,,moral_self_bias,21,20,59.9984264786,m,001,2018_Apr_02_1723,
,,,,,,,,,,,,,,,,,,,,,12-12= ?,,,,,,,,,,,,,,,,,,,,0,25,25,99,,,,,,,,,,,,,,,,,,,,,moral_self_bias,21,20,59.9984264786,m,001,2018_Apr_02_1723,
,,,,,,,,,,,,,,,,,,,,,1+8= ?,,,,,,,,,,,,,,,,,,,,0,26,26,6,,,,,,,,,,,,,,,,,,,,,moral_self_bias,21,20,59.9984264786,m,001,2018_Apr_02_1723,
,,,,,,,,,,,,,,,,,,,,,6^0= ?,,,,,,,,,,,,,,,,,,,,0,27,27,114,,,,,,,,,,,,,,,,,,,,,moral_self_bias,21,20,59.9984264786,m,001,2018_Apr_02_1723,
,,,,,,,,,,,,,,,,,,,,,7-0= ?,,,,,,,,,,,,,,,,,,,,0,28,28,117,,,,,,,,,,,,,,,,,,,,,moral_self_bias,21,20,59.9984264786,m,001,2018_Apr_02_1723,
,,,,,,,,,,,,,,,,,,,,,12/12= ?,,,,,,,,,,,,,,,,,,,,0,29,29,91,,,,,,,,,,,,,,,,,,,,,moral_self_bias,21,20,59.9984264786,m,001,2018_Apr_02_1723,
,,,,,,,,,,,,,,,,,,,,,6+1= ?,,,,,,,,,,,,,,,,,,,,0,30,30,43,,,,,,,,,,,,,,,,,,,,,moral_self_bias,21,20,59.9984264786,m,001,2018_Apr_02_1723,
,,,,,,,,,,,,,,,,,,,,,3+1= ?,,,,,,,,,,,,,,,,,,,,0,31,31,16,,,,,,,,,,,,,,,,,,,,,moral_self_bias,21,20,59.9984264786,m,001,2018_Apr_02_1723,
,,,,,,,,,,,,,,,,,,,,,50-42= ?,,,,,,,,,,,,,,,,,,,,0,32,32,81,,,,,,,,,,,,,,,,,,,,,moral_self_bias,21,20,59.9984264786,m,001,2018_Apr_02_1723,
,,,,,,,,,,,,,,,,,,,,,81/9= ?,,,,,,,,,,,,,,,,,,,,0,33,33,75,,,,,,,,,,,,,,,,,,,,,moral_self_bias,21,20,59.9984264786,m,001,2018_Apr_02_1723,
,,,,,,,,,,,,,,,,,,,,,21/3= ? ,,,,,,,,,,,,,,,,,,,,0,34,34,95,,,,,,,,,,,,,,,,,,,,,moral_self_bias,21,20,59.9984264786,m,001,2018_Apr_02_1723,
,,,,,,,,,,,,,,,,,,,,,15-10=？,,,,,,,,,,,,,,,,,,,,0,35,35,61,,,,,,,,,,,,,,,,,,,,,moral_self_bias,21,20,59.9984264786,m,001,2018_Apr_02_1723,
,,,,,,,,,,,,,,,,,,,,,6+3= ?,,,,,,,,,,,,,,,,,,,,0,36,36,45,,,,,,,,,,,,,,,,,,,,,moral_self_bias,21,20,59.9984264786,m,001,2018_Apr_02_1723,
,,,,,,,,,,,,,,,,,,,,,2+5= ?,,,,,,,,,,,,,,,,,,,,0,37,37,11,,,,,,,,,,,,,,,,,,,,,moral_self_bias,21,20,59.9984264786,m,001,2018_Apr_02_1723,
,,,,,,,,,,,,,,,,,,,,,5+3= ?,,,,,,,,,,,,,,,,,,,,0,38,38,36,,,,,,,,,,,,,,,,,,,,,moral_self_bias,21,20,59.9984264786,m,001,2018_Apr_02_1723,
,,,,,,,,,,,,,,,,,,,,,11-8= ?,,,,,,,,,,,,,,,,,,,,0,39,39,106,,,,,,,,,,,,,,,,,,,,,moral_self_bias,21,20,59.9984264786,m,001,2018_Apr_02_1723,
,,,,,,,,,,,,,,,,,,,,,9-4= ?,,,,,,,,,,,,,,,,,,,,0,40,40,22,,,,,,,,,,,,,,,,,,,,,moral_self_bias,21,20,59.9984264786,m,001,2018_Apr_02_1723,
,,,,,,,,,,,,,,,,,,,,,1*8= ?,,,,,,,,,,,,,,,,,,,,0,41,41,110,,,,,,,,,,,,,,,,,,,,,moral_self_bias,21,20,59.9984264786,m,001,2018_Apr_02_1723,
,,,,,,,,,,,,,,,,,,,,,2+2= ?,,,,,,,,,,,,,,,,,,,,0,42,42,8,,,,,,,,,,,,,,,,,,,,,moral_self_bias,21,20,59.9984264786,m,001,2018_Apr_02_1723,
,,,,,,,,,,,,,,,,,,,,,9-3= ?,,,,,,,,,,,,,,,,,,,,0,43,43,15,,,,,,,,,,,,,,,,,,,,,moral_self_bias,21,20,59.9984264786,m,001,2018_Apr_02_1723,
,,,,,,,,,,,,,,,,,,,,,9+0= ?,,,,,,,,,,,,,,,,,,,,0,44,44,118,,,,,,,,,,,,,,,,,,,,,moral_self_bias,21,20,59.9984264786,m,001,2018_Apr_02_1723,
,,,,,,,,,,,,,,,,,,,,,3+2= ?,,,,,,,,,,,,,,,,,,,,0,45,45,17,,,,,,,,,,,,,,,,,,,,,moral_self_bias,21,20,59.9984264786,m,001,2018_Apr_02_1723,
,,,,,,,,,,,,,,,,,,,,,1-1= ?,,,,,,,,,,,,,,,,,,,,0,46,46,52,,,,,,,,,,,,,,,,,,,,,moral_self_bias,21,20,59.9984264786,m,001,2018_Apr_02_1723,
,,,,,,,,,,,,,,,,,,,,,32-32= ?,,,,,,,,,,,,,,,,,,,,0,47,47,80,,,,,,,,,,,,,,,,,,,,,moral_self_bias,21,20,59.9984264786,m,001,2018_Apr_02_1723,
,,,,,,,,,,,,,,,,,,,,,4+2= ?,,,,,,,,,,,,,,,,,,,,0,48,48,26,,,,,,,,,,,,,,,,,,,,,moral_self_bias,21,20,59.9984264786,m,001,2018_Apr_02_1723,
,,,,,,,,,,,,,,,,,,,,,17-12= ? ,,,,,,,,,,,,,,,,,,,,0,49,49,104,,,,,,,,,,,,,,,,,,,,,moral_self_bias,21,20,59.9984264786,m,001,2018_Apr_02_1723,
,,,,,,,,,,,,,,,,,,,,,6^0= ?,,,,,,,,,,,,,,,,,,,,0,50,50,103,,,,,,,,,,,,,,,,,,,,,moral_self_bias,21,20,59.9984264786,m,001,2018_Apr_02_1723,
,,,,,,,,,,,,,,,,,,,,,4*1= ?,,,,,,,,,,,,,,,,,,,,0,51,51,85,,,,,,,,,,,,,,,,,,,,,moral_self_bias,21,20,59.9984264786,m,001,2018_Apr_02_1723,
,,,,,,,,,,,,,,,,,,,,,5*0= ?,,,,,,,,,,,,,,,,,,,,0,52,52,86,,,,,,,,,,,,,,,,,,,,,moral_self_bias,21,20,59.9984264786,m,001,2018_Apr_02_1723,
,,,,,,,,,,,,,,,,,,,,,13-5= ?,,,,,,,,,,,,,,,,,,,,0,53,53,98,,,,,,,,,,,,,,,,,,,,,moral_self_bias,21,20,59.9984264786,m,001,2018_Apr_02_1723,
,,,,,,,,,,,,,,,,,,,,,11-5= ?,,,,,,,,,,,,,,,,,,,,0,54,54,107,,,,,,,,,,,,,,,,,,,,,moral_self_bias,21,20,59.9984264786,m,001,2018_Apr_02_1723,
,,,,,,,,,,,,,,,,,,,,,5/1= ?,,,,,,,,,,,,,,,,,,,,0,55,55,59,,,,,,,,,,,,,,,,,,,,,moral_self_bias,21,20,59.9984264786,m,001,2018_Apr_02_1723,
,,,,,,,,,,,,,,,,,,,,,20/5=？,,,,,,,,,,,,,,,,,,,,0,56,56,69,,,,,,,,,,,,,,,,,,,,,moral_self_bias,21,20,59.9984264786,m,001,2018_Apr_02_1723,
,,,,,,,,,,,,,,,,,,,,,43-34= ?,,,,,,,,,,,,,,,,,,,,0,57,57,79,,,,,,,,,,,,,,,,,,,,,moral_self_bias,21,20,59.9984264786,m,001,2018_Apr_02_1723,
,,,,,,,,,,,,,,,,,,,,,7*0= ?,,,,,,,,,,,,,,,,,,,,0,58,58,88,,,,,,,,,,,,,,,,,,,,,moral_self_bias,21,20,59.9984264786,m,001,2018_Apr_02_1723,
,,,,,,,,,,,,,,,,,,,,,4/4= ?,,,,,,,,,,,,,,,,,,,,0,59,59,55,,,,,,,,,,,,,,,,,,,,,moral_self_bias,21,20,59.9984264786,m,001,2018_Apr_02_1723,
,,,,,,,,,,,,,,,,,,,,,1+2= ?,,,,,,,,,,,,,,,,,,,,0,60,60,1,,,,,,,,,,,,,,,,,,,,,moral_self_bias,21,20,59.9984264786,m,001,2018_Apr_02_1723,
,,,,,,,,,,,,,,,,,,,,,30-29= ?,,,,,,,,,,,,,,,,,,,,0,61,61,73,,,,,,,,,,,,,,,,,,,,,moral_self_bias,21,20,59.9984264786,m,001,2018_Apr_02_1723,
,,,,,,,,,,,,,,,,,,,,,2+7= ?,,,,,,,,,,,,,,,,,,,,0,62,62,13,,,,,,,,,,,,,,,,,,,,,moral_self_bias,21,20,59.9984264786,m,001,2018_Apr_02_1723,
,,,,,,,,,,,,,,,,,,,,,3+6= ?,,,,,,,,,,,,,,,,,,,,0,63,63,21,,,,,,,,,,,,,,,,,,,,,moral_self_bias,21,20,59.9984264786,m,001,2018_Apr_02_1723,
,,,,,,,,,,,,,,,,,,,,,11-3=？,,,,,,,,,,,,,,,,,,,,0,64,64,68,,,,,,,,,,,,,,,,,,,,,moral_self_bias,21,20,59.9984264786,m,001,2018_Apr_02_1723,
,,,,,,,,,,,,,,,,,,,,,8-5= ?,,,,,,,,,,,,,,,,,,,,0,65,65,41,,,,,,,,,,,,,,,,,,,,,moral_self_bias,21,20,59.9984264786,m,001,2018_Apr_02_1723,
,,,,,,,,,,,,,,,,,,,,,1^2= ?,,,,,,,,,,,,,,,,,,,,0,66,66,51,,,,,,,,,,,,,,,,,,,,,moral_self_bias,21,20,59.9984264786,m,001,2018_Apr_02_1723,
,,,,,,,,,,,,,,,,,,,,,4+3= ?,,,,,,,,,,,,,,,,,,,,0,67,67,27,,,,,,,,,,,,,,,,,,,,,moral_self_bias,21,20,59.9984264786,m,001,2018_Apr_02_1723,
,,,,,,,,,,,,,,,,,,,,,8-3= ?,,,,,,,,,,,,,,,,,,,,0,68,68,39,,,,,,,,,,,,,,,,,,,,,moral_self_bias,21,20,59.9984264786,m,001,2018_Apr_02_1723,
,,,,,,,,,,,,,,,,,,,,,4+1= ?,,,,,,,,,,,,,,,,,,,,0,69,69,25,,,,,,,,,,,,,,,,,,,,,moral_self_bias,21,20,59.9984264786,m,001,2018_Apr_02_1723,
,,,,,,,,,,,,,,,,,,,,,22/11= ?,,,,,,,,,,,,,,,,,,,,0,70,70,71,,,,,,,,,,,,,,,,,,,,,moral_self_bias,21,20,59.9984264786,m,001,2018_Apr_02_1723,
,,,,,,,,,,,,,,,,,,,,,18/2= ?,,,,,,,,,,,,,,,,,,,,0,71,71,97,,,,,,,,,,,,,,,,,,,,,moral_self_bias,21,20,59.9984264786,m,001,2018_Apr_02_1723,
,,,,,,,,,,,,,,,,,,,,,90/45= ?,,,,,,,,,,,,,,,,,,,,0,72,72,74,,,,,,,,,,,,,,,,,,,,,moral_self_bias,21,20,59.9984264786,m,001,2018_Apr_02_1723,
,,,,,,,,,,,,,,,,,,,,,1+6= ?,,,,,,,,,,,,,,,,,,,,0,73,73,5,,,,,,,,,,,,,,,,,,,,,moral_self_bias,21,20,59.9984264786,m,001,2018_Apr_02_1723,
,,,,,,,,,,,,,,,,,,,,,12-5=？,,,,,,,,,,,,,,,,,,,,0,74,74,65,,,,,,,,,,,,,,,,,,,,,moral_self_bias,21,20,59.9984264786,m,001,2018_Apr_02_1723,
,,,,,,,,,,,,,,,,,,,,,3*1= ?,,,,,,,,,,,,,,,,,,,,0,75,75,83,,,,,,,,,,,,,,,,,,,,,moral_self_bias,21,20,59.9984264786,m,001,2018_Apr_02_1723,
,,,,,,,,,,,,,,,,,,,,,12-7= ?,,,,,,,,,,,,,,,,,,,,0,76,76,115,,,,,,,,,,,,,,,,,,,,,moral_self_bias,21,20,59.9984264786,m,001,2018_Apr_02_1723,
,,,,,,,,,,,,,,,,,,,,,56/7= ?,,,,,,,,,,,,,,,,,,,,0,77,77,77,,,,,,,,,,,,,,,,,,,,,moral_self_bias,21,20,59.9984264786,m,001,2018_Apr_02_1723,
,,,,,,,,,,,,,,,,,,,,,6+2= ?,,,,,,,,,,,,,,,,,,,,0,78,78,44,,,,,,,,,,,,,,,,,,,,,moral_self_bias,21,20,59.9984264786,m,001,2018_Apr_02_1723,
,,,,,,,,,,,,,,,,,,,,,3^1= ?,,,,,,,,,,,,,,,,,,,,0,79,79,101,,,,,,,,,,,,,,,,,,,,,moral_self_bias,21,20,59.9984264786,m,001,2018_Apr_02_1723,
,,,,,,,,,,,,,,,,,,,,,72/9= ?,,,,,,,,,,,,,,,,,,,,0,80,80,76,,,,,,,,,,,,,,,,,,,,,moral_self_bias,21,20,59.9984264786,m,001,2018_Apr_02_1723,
,,,,,,,,,,,,,,,,,,,,,5-3= ?,,,,,,,,,,,,,,,,,,,,0,81,81,116,,,,,,,,,,,,,,,,,,,,,moral_self_bias,21,20,59.9984264786,m,001,2018_Apr_02_1723,
,,,,,,,,,,,,,,,,,,,,,9-9= ?,,,,,,,,,,,,,,,,,,,,0,82,82,32,,,,,,,,,,,,,,,,,,,,,moral_self_bias,21,20,59.9984264786,m,001,2018_Apr_02_1723,
,,,,,,,,,,,,,,,,,,,,,2+3= ?,,,,,,,,,,,,,,,,,,,,0,83,83,9,,,,,,,,,,,,,,,,,,,,,moral_self_bias,21,20,59.9984264786,m,001,2018_Apr_02_1723,
,,,,,,,,,,,,,,,,,,,,,3+3= ?,,,,,,,,,,,,,,,,,,,,0,84,84,18,,,,,,,,,,,,,,,,,,,,,moral_self_bias,21,20,59.9984264786,m,001,2018_Apr_02_1723,
,,,,,,,,,,,,,,,,,,,,,23^0= ?,,,,,,,,,,,,,,,,,,,,0,85,85,94,,,,,,,,,,,,,,,,,,,,,moral_self_bias,21,20,59.9984264786,m,001,2018_Apr_02_1723,
,,,,,,,,,,,,,,,,,,,,,9-2= ?,,,,,,,,,,,,,,,,,,,,0,86,86,14,,,,,,,,,,,,,,,,,,,,,moral_self_bias,21,20,59.9984264786,m,001,2018_Apr_02_1723,
,,,,,,,,,,,,,,,,,,,,,22-22= ?,,,,,,,,,,,,,,,,,,,,0,87,87,93,,,,,,,,,,,,,,,,,,,,,moral_self_bias,21,20,59.9984264786,m,001,2018_Apr_02_1723,
,,,,,,,,,,,,,,,,,,,,,5+2= ?,,,,,,,,,,,,,,,,,,,,0,88,88,35,,,,,,,,,,,,,,,,,,,,,moral_self_bias,21,20,59.9984264786,m,001,2018_Apr_02_1723,
,,,,,,,,,,,,,,,,,,,,,8-1= ?,,,,,,,,,,,,,,,,,,,,0,89,89,33,,,,,,,,,,,,,,,,,,,,,moral_self_bias,21,20,59.9984264786,m,001,2018_Apr_02_1723,
,,,,,,,,,,,,,,,,,,,,,8/4= ?,,,,,,,,,,,,,,,,,,,,0,90,90,57,,,,,,,,,,,,,,,,,,,,,moral_self_bias,21,20,59.9984264786,m,001,2018_Apr_02_1723,
,,,,,,,,,,,,,,,,,,,,,11-4=？,,,,,,,,,,,,,,,,,,,,0,91,91,66,,,,,,,,,,,,,,,,,,,,,moral_self_bias,21,20,59.9984264786,m,001,2018_Apr_02_1723,
,,,,,,,,,,,,,,,,,,,,,4+4= ?,,,,,,,,,,,,,,,,,,,,0,92,92,28,,,,,,,,,,,,,,,,,,,,,moral_self_bias,21,20,59.9984264786,m,001,2018_Apr_02_1723,
,,,,,,,,,,,,,,,,,,,,,29-27= ?,,,,,,,,,,,,,,,,,,,,0,93,93,72,,,,,,,,,,,,,,,,,,,,,moral_self_bias,21,20,59.9984264786,m,001,2018_Apr_02_1723,
,,,,,,,,,,,,,,,,,,,,,2+1= ?,,,,,,,,,,,,,,,,,,,,0,94,94,7,,,,,,,,,,,,,,,,,,,,,moral_self_bias,21,20,59.9984264786,m,001,2018_Apr_02_1723,
,,,,,,,,,,,,,,,,,,,,,21/7= ?,,,,,,,,,,,,,,,,,,,,0,95,95,70,,,,,,,,,,,,,,,,,,,,,moral_self_bias,21,20,59.9984264786,m,001,2018_Apr_02_1723,
,,,,,,,,,,,,,,,,,,,,,10-9= ?,,,,,,,,,,,,,,,,,,,,0,96,96,112,,,,,,,,,,,,,,,,,,,,,moral_self_bias,21,20,59.9984264786,m,001,2018_Apr_02_1723,
,,,,,,,,,,,,,,,,,,,,,1+7= ?,,,,,,,,,,,,,,,,,,,,0,97,97,4,,,,,,,,,,,,,,,,,,,,,moral_self_bias,21,20,59.9984264786,m,001,2018_Apr_02_1723,
,,,,,,,,,,,,,,,,,,,,,5+4= ?,,,,,,,,,,,,,,,,,,,,0,98,98,37,,,,,,,,,,,,,,,,,,,,,moral_self_bias,21,20,59.9984264786,m,001,2018_Apr_02_1723,
,,,,,,,,,,,,,,,,,,,,,11-11= ?,,,,,,,,,,,,,,,,,,,,0,99,99,119,,,,,,,,,,,,,,,,,,,,,moral_self_bias,21,20,59.9984264786,m,001,2018_Apr_02_1723,
,,,,,,,,,,,,,,,,,,,,,3+0= ?,,,,,,,,,,,,,,,,,,,,0,100,100,105,,,,,,,,,,,,,,,,,,,,,moral_self_bias,21,20,59.9984264786,m,001,2018_Apr_02_1723,
,,,,,,,,,,,,,,,,,,,,,49/7 = ?,,,,,,,,,,,,,,,,,,,,0,101,101,78,,,,,,,,,,,,,,,,,,,,,moral_self_bias,21,20,59.9984264786,m,001,2018_Apr_02_1723,
,,,,,,,,,,,,,,,,,,,,,1+9= ?,,,,,,,,,,,,,,,,,,,,0,102,102,3,,,,,,,,,,,,,,,,,,,,,moral_self_bias,21,20,59.9984264786,m,001,2018_Apr_02_1723,
,,,,,,,,,,,,,,,,,,,,,8*1= ?,,,,,,,,,,,,,,,,,,,,0,103,103,111,,,,,,,,,,,,,,,,,,,,,moral_self_bias,21,20,59.9984264786,m,001,2018_Apr_02_1723,
,,,,,,,,,,,,,,,,,,,,,32-23=？,,,,,,,,,,,,,,,,,,,,0,104,104,60,,,,,,,,,,,,,,,,,,,,,moral_self_bias,21,20,59.9984264786,m,001,2018_Apr_02_1723,
,,,,,,,,,,,,,,,,,,,,,12/4= ?,,,,,,,,,,,,,,,,,,,,0,105,105,89,,,,,,,,,,,,,,,,,,,,,moral_self_bias,21,20,59.9984264786,m,001,2018_Apr_02_1723,
,,,,,,,,,,,,,,,,,,,,,2+6= ?,,,,,,,,,,,,,,,,,,,,0,106,106,12,,,,,,,,,,,,,,,,,,,,,moral_self_bias,21,20,59.9984264786,m,001,2018_Apr_02_1723,
,,,,,,,,,,,,,,,,,,,,,3*3= ?,,,,,,,,,,,,,,,,,,,,0,107,107,54,,,,,,,,,,,,,,,,,,,,,moral_self_bias,21,20,59.9984264786,m,001,2018_Apr_02_1723,
,,,,,,,,,,,,,,,,,,,,,2*3= ?,,,,,,,,,,,,,,,,,,,,0,108,108,108,,,,,,,,,,,,,,,,,,,,,moral_self_bias,21,20,59.9984264786,m,001,2018_Apr_02_1723,
,,,,,,,,,,,,,,,,,,,,,9-6= ?,,,,,,,,,,,,,,,,,,,,0,109,109,24,,,,,,,,,,,,,,,,,,,,,moral_self_bias,21,20,59.9984264786,m,001,2018_Apr_02_1723,
,,,,,,,,,,,,,,,,,,,,,6/2= ?,,,,,,,,,,,,,,,,,,,,0,110,110,58,,,,,,,,,,,,,,,,,,,,,moral_self_bias,21,20,59.9984264786,m,001,2018_Apr_02_1723,
,,,,,,,,,,,,,,,,,,,,,3+5= ?,,,,,,,,,,,,,,,,,,,,0,111,111,20,,,,,,,,,,,,,,,,,,,,,moral_self_bias,21,20,59.9984264786,m,001,2018_Apr_02_1723,
,,,,,,,,,,,,,,,,,,,,,7+2= ?,,,,,,,,,,,,,,,,,,,,0,112,112,47,,,,,,,,,,,,,,,,,,,,,moral_self_bias,21,20,59.9984264786,m,001,2018_Apr_02_1723,
,,,,,,,,,,,,,,,,,,,,,18/9= ?,,,,,,,,,,,,,,,,,,,,0,113,113,96,,,,,,,,,,,,,,,,,,,,,moral_self_bias,21,20,59.9984264786,m,001,2018_Apr_02_1723,
,,,,,,,,,,,,,,,,,,,,,4^1= ?,,,,,,,,,,,,,,,,,,,,0,114,114,102,,,,,,,,,,,,,,,,,,,,,moral_self_bias,21,20,59.9984264786,m,001,2018_Apr_02_1723,
,,,,,,,,,,,,,,,,,,,,,9-8= ?,,,,,,,,,,,,,,,,,,,,0,115,115,31,,,,,,,,,,,,,,,,,,,,,moral_self_bias,21,20,59.9984264786,m,001,2018_Apr_02_1723,
,,,,,,,,,,,,,,,,,,,,,9/3= ?,,,,,,,,,,,,,,,,,,,,0,116,116,56,,,,,,,,,,,,,,,,,,,,,moral_self_bias,21,20,59.9984264786,m,001,2018_Apr_02_1723,
,,,,,,,,,,,,,,,,,,,,,8-6= ?,,,,,,,,,,,,,,,,,,,,0,117,117,42,,,,,,,,,,,,,,,,,,,,,moral_self_bias,21,20,59.9984264786,m,001,2018_Apr_02_1723,
,,,,,,,,,,,,,,,,,,,,,2+4= ?,,,,,,,,,,,,,,,,,,,,0,118,118,10,,,,,,,,,,,,,,,,,,,,,moral_self_bias,21,20,59.9984264786,m,001,2018_Apr_02_1723,
,,,,,,,,,,,,,,,,,,,,,9-5= ?,,,,,,,,,,,,,,,,,,,,0,119,119,23,,,,,,,,,,,,,,,,,,,,,moral_self_bias,21,20,59.9984264786,m,001,2018_Apr_02_1723,
,,,,,,,,,,,,,,,,,,,,,,,,,,,,,,,,,,,,,,,,,,,,,,,,,,,,,,,,,3,2.19414710999,,,,,,,moral_self_bias,21,20,59.9984264786,m,001,2018_Apr_02_1723,
,,,,,,,,,,,,,,,,,,,,,,material/69.png,1,高明,material/69.png,1,material/69.png,高明,1,f,f,f,2,2,2,高明,,,,,,,,,0,0,0,166,0,0,0,0,,,,,,,f,1,4.80782818794,f,0,1.97313380241,moral_self_bias,21,20,59.9984264786,m,001,2018_Apr_02_1723,
,,,,,,,,,,,,,,,,,,,,,,material/69.png,1,高明,material/69.png,1,material/69.png,高明,1,f,f,f,2,2,2,高明,,,,,,,,,0,0,0,166,,,,,,,,,,,,,,,,,moral_self_bias,21,20,59.9984264786,m,001,2018_Apr_02_1723,
,,,,,,,,,,,,,,,,,,,,,,material/24.png,1,理智,material/124.png,1,material/24.png,冷静,1,f,f,f,2,2,2,理智,,,,,,,,,0,1,1,103,,,,,,,,,,,j,0,2.2567949295,,,,moral_self_bias,21,20,59.9984264786,m,001,2018_Apr_02_1723,
,,,,,,,,,,,,,,,,,,,,,,material/42.png,2,奸诈,material/142.png,2,material/142.png,奸诈,2,f,f,f,1,1,1,阴险,,,,,,,,,0,2,2,121,0,0,0,0,,,,,,,f,1,2.32497596741,j,1,1.40924215317,moral_self_bias,21,20,59.9984264786,m,001,2018_Apr_02_1723,
,,,,,,,,,,,,,,,,,,,,,,material/42.png,2,奸诈,material/142.png,2,material/142.png,奸诈,2,f,f,f,1,1,1,阴险,,,,,,,,,0,2,2,121,,,,,,,,,,,,,,,,,moral_self_bias,21,20,59.9984264786,m,001,2018_Apr_02_1723,
,,,,,,,,,,,,,,,,,,,,,,material/122.png,1,博学,material/22.png,1,material/122.png,才学,1,j,j,j,2,2,2,博学,,,,,,,,,0,3,3,21,0,0,0,0,,,,,,,f,0,2.89191389084,j,1,1.92562294006,moral_self_bias,21,20,59.9984264786,m,001,2018_Apr_02_1723,
,,,,,,,,,,,,,,,,,,,,,,material/122.png,1,博学,material/22.png,1,material/122.png,才学,1,j,j,j,2,2,2,博学,,,,,,,,,0,3,3,21,,,,,,,,,,,,,,,,,moral_self_bias,21,20,59.9984264786,m,001,2018_Apr_02_1723,
,,,,,,,,,,,,,,,,,,,,,,material/39.png,2,恶毒,material/139.png,2,material/139.png,恶毒,2,f,f,f,1,1,1,凶残,,,,,,,,,0,4,4,118,0,0,0,0,,,,,,,f,1,1.45846486092,j,1,1.05840682983,moral_self_bias,21,20,59.9984264786,m,001,2018_Apr_02_1723,
,,,,,,,,,,,,,,,,,,,,,,material/39.png,2,恶毒,material/139.png,2,material/139.png,恶毒,2,f,f,f,1,1,1,凶残,,,,,,,,,0,4,4,118,,,,,,,,,,,,,,,,,moral_self_bias,21,20,59.9984264786,m,001,2018_Apr_02_1723,
,,,,,,,,,,,,,,,,,,,,,,material/8.png,1,无私,material/108.png,1,material/108.png,无私,1,f,f,f,1,1,1,公道,,,,,,,,,0,5,5,87,0,0,0,0,,,,,,,f,1,1.52444291115,f,0,0.958209991455,moral_self_bias,21,20,59.9984264786,m,001,2018_Apr_02_1723,
,,,,,,,,,,,,,,,,,,,,,,material/8.png,1,无私,material/108.png,1,material/108.png,无私,1,f,f,f,1,1,1,公道,,,,,,,,,0,5,5,87,,,,,,,,,,,,,,,,,moral_self_bias,21,20,59.9984264786,m,001,2018_Apr_02_1723,
,,,,,,,,,,,,,,,,,,,,,,material/146.png,2,小气,material/46.png,2,material/46.png,小气,2,j,j,j,1,1,1,自私,,,,,,,,,0,6,6,45,,,,,,,,,,,j,1,1.57523107529,,,,moral_self_bias,21,20,59.9984264786,m,001,2018_Apr_02_1723,
,,,,,,,,,,,,,,,,,,,,,,material/19.png,1,灵活,material/119.png,1,material/19.png,机灵,1,f,f,f,2,2,2,灵活,,,,,,,,,0,7,7,98,,,,,,,,,,,j,0,1.05796289444,,,,moral_self_bias,21,20,59.9984264786,m,001,2018_Apr_02_1723,
,,,,,,,,,,,,,,,,,,,,,,material/184.png,2,草率,material/80.png,2,material/78.png,健忘,2,j,j,j,2,2,2,厌学,,,,,,,,,0,8,8,76,0,0,0,0,,,,,,,f,0,1.23459887505,j,1,0.708197832108,moral_self_bias,21,20,59.9984264786,m,001,2018_Apr_02_1723,
,,,,,,,,,,,,,,,,,,,,,,material/184.png,2,草率,material/80.png,2,material/78.png,健忘,2,j,j,j,2,2,2,厌学,,,,,,,,,0,8,8,76,,,,,,,,,,,,,,,,,moral_self_bias,21,20,59.9984264786,m,001,2018_Apr_02_1723,
,,,,,,,,,,,,,,,,,,,,,,material/156.png,2,愚钝,material/56.png,2,material/156.png,愚昧,2,j,j,j,2,2,2,愚钝,,,,,,,,,0,9,9,55,0,0,0,0,,,,,,,f,0,0.924865007401,j,1,0.391835927963,moral_self_bias,21,20,59.9984264786,m,001,2018_Apr_02_1723,
,,,,,,,,,,,,,,,,,,,,,,material/156.png,2,愚钝,material/56.png,2,material/156.png,愚昧,2,j,j,j,2,2,2,愚钝,,,,,,,,,0,9,9,55,,,,,,,,,,,,,,,,,moral_self_bias,21,20,59.9984264786,m,001,2018_Apr_02_1723,
,,,,,,,,,,,,,,,,,,,,,,material/158.png,2,浅薄,material/58.png,2,material/158.png,肤浅,2,j,j,j,2,2,2,浅薄,,,,,,,,,0,10,10,57,,,,,,,,,,,j,1,2.95758199692,,,,moral_self_bias,21,20,59.9984264786,m,001,2018_Apr_02_1723,
,,,,,,,,,,,,,,,,,,,,,,material/66.png,1,独立,material/66.png,1,material/165.png,正义,1,f,f,f,1,1,1,正义,,,,,,,,,0,11,11,164,0,0,0,0,,,,,,,f,1,1.1747469902,f,0,0.892256975174,moral_self_bias,21,20,59.9984264786,m,001,2018_Apr_02_1723,
,,,,,,,,,,,,,,,,,,,,,,material/66.png,1,独立,material/66.png,1,material/165.png,正义,1,f,f,f,1,1,1,正义,,,,,,,,,0,11,11,164,,,,,,,,,,,,,,,,,moral_self_bias,21,20,59.9984264786,m,001,2018_Apr_02_1723,
,,,,,,,,,,,,,,,,,,,,,,material/76.png,2,放纵,material/176.png,2,material/176.png,放纵,2,f,f,f,1,1,1,虚伪,,,,,,,,,0,12,12,155,0,0,0,0,,,,,,,f,1,2.7579100132,j,1,0.975444078445,moral_self_bias,21,20,59.9984264786,m,001,2018_Apr_02_1723,
,,,,,,,,,,,,,,,,,,,,,,material/76.png,2,放纵,material/176.png,2,material/176.png,放纵,2,f,f,f,1,1,1,虚伪,,,,,,,,,0,12,12,155,,,,,,,,,,,,,,,,,moral_self_bias,21,20,59.9984264786,m,001,2018_Apr_02_1723,
,,,,,,,,,,,,,,,,,,,,,,material/65.png,1,勇敢,material/61.png,1,material/161.png,平等,1,j,j,j,1,1,1,谦虚,,,,,,,,,0,13,13,60,0,0,0,0,,,,,,,f,0,1.60970902443,f,0,0.592402935028,moral_self_bias,21,20,59.9984264786,m,001,2018_Apr_02_1723,
,,,,,,,,,,,,,,,,,,,,,,material/65.png,1,勇敢,material/61.png,1,material/161.png,平等,1,j,j,j,1,1,1,谦虚,,,,,,,,,0,13,13,60,,,,,,,,,,,,,,,,,moral_self_bias,21,20,59.9984264786,m,001,2018_Apr_02_1723,
,,,,,,,,,,,,,,,,,,,,,,material/50.png,2,愚笨,material/150.png,2,material/50.png,鲁钝,2,f,f,f,2,2,2,愚笨,,,,,,,,,0,14,14,129,0,0,0,0,,,,,,,f,1,1.00905299187,j,1,0.542143821716,moral_self_bias,21,20,59.9984264786,m,001,2018_Apr_02_1723,
,,,,,,,,,,,,,,,,,,,,,,material/50.png,2,愚笨,material/150.png,2,material/50.png,鲁钝,2,f,f,f,2,2,2,愚笨,,,,,,,,,0,14,14,129,,,,,,,,,,,,,,,,,moral_self_bias,21,20,59.9984264786,m,001,2018_Apr_02_1723,
,,,,,,,,,,,,,,,,,,,,,,material/162.png,1,敬业,material/62.png,1,material/162.png,坚韧,1,j,j,j,1,1,1,敬业,,,,,,,,,0,15,15,61,0,0,0,0,,,,,,,f,0,1.20922398567,f,0,1.05115795135,moral_self_bias,21,20,59.9984264786,m,001,2018_Apr_02_1723,
,,,,,,,,,,,,,,,,,,,,,,material/162.png,1,敬业,material/62.png,1,material/162.png,坚韧,1,j,j,j,1,1,1,敬业,,,,,,,,,0,15,15,61,,,,,,,,,,,,,,,,,moral_self_bias,21,20,59.9984264786,m,001,2018_Apr_02_1723,
,,,,,,,,,,,,,,,,,,,,,,material/143.png,2,拜金,material/43.png,2,material/43.png,拜金,2,j,j,j,1,1,1,虚荣,,,,,,,,,0,16,16,42,0,0,0,0,,,,,,,f,0,1.14208984375,j,1,0.124814033508,moral_self_bias,21,20,59.9984264786,m,001,2018_Apr_02_1723,
,,,,,,,,,,,,,,,,,,,,,,material/143.png,2,拜金,material/43.png,2,material/43.png,拜金,2,j,j,j,1,1,1,虚荣,,,,,,,,,0,16,16,42,,,,,,,,,,,,,,,,,moral_self_bias,21,20,59.9984264786,m,001,2018_Apr_02_1723,
,,,,,,,,,,,,,,,,,,,,,,material/38.png,2,缺德,material/138.png,2,material/138.png,缺德,2,f,f,f,1,1,1,无德,,,,,,,,,0,17,17,117,0,0,0,0,,,,,,,f,1,0.958342075348,j,1,0.159744024277,moral_self_bias,21,20,59.9984264786,m,001,2018_Apr_02_1723,
,,,,,,,,,,,,,,,,,,,,,,material/38.png,2,缺德,material/138.png,2,material/138.png,缺德,2,f,f,f,1,1,1,无德,,,,,,,,,0,17,17,117,,,,,,,,,,,,,,,,,moral_self_bias,21,20,59.9984264786,m,001,2018_Apr_02_1723,
,,,,,,,,,,,,,,,,,,,,,,material/163.png,1,文明,material/163.png,1,material/63.png,宽容,1,f,f,f,1,1,1,宽容,,,,,,,,,0,18,18,142,0,0,0,0,,,,,,,f,1,0.975109100342,j,1,0.0916090011597,moral_self_bias,21,20,59.9984264786,m,001,2018_Apr_02_1723,
,,,,,,,,,,,,,,,,,,,,,,material/163.png,1,文明,material/163.png,1,material/63.png,宽容,1,f,f,f,1,1,1,宽容,,,,,,,,,0,18,18,142,,,,,,,,,,,,,,,,,moral_self_bias,21,20,59.9984264786,m,001,2018_Apr_02_1723,
,,,,,,,,,,,,,,,,,,,,,,material/3.png,1,仁厚,material/103.png,1,material/103.png,仁厚,1,f,f,f,1,1,1,仁慈,,,,,,,,,0,19,19,82,0,0,0,0,,,,,,,f,1,1.5573079586,j,1,0.0924639701843,moral_self_bias,21,20,59.9984264786,m,001,2018_Apr_02_1723,
,,,,,,,,,,,,,,,,,,,,,,material/3.png,1,仁厚,material/103.png,1,material/103.png,仁厚,1,f,f,f,1,1,1,仁慈,,,,,,,,,0,19,19,82,,,,,,,,,,,,,,,,,moral_self_bias,21,20,59.9984264786,m,001,2018_Apr_02_1723,
,,,,,,,,,,,,,,,,,,,,,,material/27.png,1,卓越,material/127.png,1,material/27.png,超群,1,f,f,f,2,2,2,卓越,,,,,,,,,0,20,20,106,0,0,0,0,,,,,,,f,1,1.00796198845,j,1,0.0919809341431,moral_self_bias,21,20,59.9984264786,m,001,2018_Apr_02_1723,
,,,,,,,,,,,,,,,,,,,,,,material/27.png,1,卓越,material/127.png,1,material/27.png,超群,1,f,f,f,2,2,2,卓越,,,,,,,,,0,20,20,106,,,,,,,,,,,,,,,,,moral_self_bias,21,20,59.9984264786,m,001,2018_Apr_02_1723,
,,,,,,,,,,,,,,,,,,,,,,material/58.png,2,肤浅,material/158.png,2,material/58.png,浅薄,2,f,f,f,2,2,2,肤浅,,,,,,,,,0,21,21,137,0,0,0,0,,,,,,,f,1,5.15933680534,j,1,1.22605800629,moral_self_bias,21,20,59.9984264786,m,001,2018_Apr_02_1723,
,,,,,,,,,,,,,,,,,,,,,,material/58.png,2,肤浅,material/158.png,2,material/58.png,浅薄,2,f,f,f,2,2,2,肤浅,,,,,,,,,0,21,21,137,,,,,,,,,,,,,,,,,moral_self_bias,21,20,59.9984264786,m,001,2018_Apr_02_1723,
,,,,,,,,,,,,,,,,,,,,,,material/115.png,1,清白,material/15.png,1,material/15.png,清白,1,j,j,j,1,1,1,纯洁,,,,,,,,,0,22,22,14,,,,,,,,,,,j,1,1.48312211037,,,,moral_self_bias,21,20,59.9984264786,m,001,2018_Apr_02_1723,
,,,,,,,,,,,,,,,,,,,,,,material/179.png,2,顽愚,material/178.png,2,material/84.png,毛糙,2,f,f,f,2,2,2,差生,,,,,,,,,0,23,23,157,0,0,0,0,,,,,,,f,1,1.22450494766,j,1,0.108236074448,moral_self_bias,21,20,59.9984264786,m,001,2018_Apr_02_1723,
,,,,,,,,,,,,,,,,,,,,,,material/179.png,2,顽愚,material/178.png,2,material/84.png,毛糙,2,f,f,f,2,2,2,差生,,,,,,,,,0,23,23,157,,,,,,,,,,,,,,,,,moral_self_bias,21,20,59.9984264786,m,001,2018_Apr_02_1723,
,,,,,,,,,,,,,,,,,,,,,,material/159.png,2,弱智,material/59.png,2,material/159.png,智障,2,j,j,j,2,2,2,弱智,,,,,,,,,0,24,24,58,0,0,0,0,,,,,,,f,0,1.02385687828,j,1,0.101547956467,moral_self_bias,21,20,59.9984264786,m,001,2018_Apr_02_1723,
,,,,,,,,,,,,,,,,,,,,,,material/159.png,2,弱智,material/59.png,2,material/159.png,智障,2,j,j,j,2,2,2,弱智,,,,,,,,,0,24,24,58,,,,,,,,,,,,,,,,,moral_self_bias,21,20,59.9984264786,m,001,2018_Apr_02_1723,
,,,,,,,,,,,,,,,,,,,,,,material/31.png,1,笃学,material/131.png,1,material/31.png,笃行,1,f,f,f,2,2,2,笃学,,,,,,,,,0,25,25,110,,,,,,,,,,,j,0,2.11591506004,,,,moral_self_bias,21,20,59.9984264786,m,001,2018_Apr_02_1723,
,,,,,,,,,,,,,,,,,,,,,,material/13.png,1,廉明,material/113.png,1,material/113.png,廉明,1,f,f,f,1,1,1,廉洁,,,,,,,,,0,26,26,92,,,,,,,,,,,j,0,1.19104814529,,,,moral_self_bias,21,20,59.9984264786,m,001,2018_Apr_02_1723,
,,,,,,,,,,,,,,,,,,,,,,material/113.png,1,廉洁,material/13.png,1,material/13.png,廉洁,1,j,j,j,1,1,1,廉明,,,,,,,,,0,27,27,12,0,0,0,0,,,,,,,f,0,1.14146208763,j,1,0.0747051239014,moral_self_bias,21,20,59.9984264786,m,001,2018_Apr_02_1723,
,,,,,,,,,,,,,,,,,,,,,,material/113.png,1,廉洁,material/13.png,1,material/13.png,廉洁,1,j,j,j,1,1,1,廉明,,,,,,,,,0,27,27,12,,,,,,,,,,,,,,,,,moral_self_bias,21,20,59.9984264786,m,001,2018_Apr_02_1723,
,,,,,,,,,,,,,,,,,,,,,,material/182.png,2,健忘,material/184.png,2,material/80.png,厌学,2,f,f,f,2,2,2,才尽,,,,,,,,,0,28,28,163,0,0,0,0,,,,,,,f,1,2.19269895554,f,0,0.574959039688,moral_self_bias,21,20,59.9984264786,m,001,2018_Apr_02_1723,
,,,,,,,,,,,,,,,,,,,,,,material/182.png,2,健忘,material/184.png,2,material/80.png,厌学,2,f,f,f,2,2,2,才尽,,,,,,,,,0,28,28,163,,,,,,,,,,,,,,,,,moral_self_bias,21,20,59.9984264786,m,001,2018_Apr_02_1723,
,,,,,,,,,,,,,,,,,,,,,,material/35.png,2,冷血,material/135.png,2,material/135.png,冷血,2,f,f,f,1,1,1,冷漠,,,,,,,,,0,29,29,114,0,0,0,0,,,,,,,f,1,1.04167795181,j,1,0.475185155869,moral_self_bias,21,20,59.9984264786,m,001,2018_Apr_02_1723,
,,,,,,,,,,,,,,,,,,,,,,material/35.png,2,冷血,material/135.png,2,material/135.png,冷血,2,f,f,f,1,1,1,冷漠,,,,,,,,,0,29,29,114,,,,,,,,,,,,,,,,,moral_self_bias,21,20,59.9984264786,m,001,2018_Apr_02_1723,
,,,,,,,,,,,,,,,,,,,,,,material/108.png,1,公道,material/8.png,1,material/8.png,公道,1,j,j,j,1,1,1,无私,,,,,,,,,0,30,30,7,0,0,0,0,,,,,,,f,0,1.09105706215,j,1,1.09198689461,moral_self_bias,21,20,59.9984264786,m,001,2018_Apr_02_1723,
,,,,,,,,,,,,,,,,,,,,,,material/108.png,1,公道,material/8.png,1,material/8.png,公道,1,j,j,j,1,1,1,无私,,,,,,,,,0,30,30,7,,,,,,,,,,,,,,,,,moral_self_bias,21,20,59.9984264786,m,001,2018_Apr_02_1723,
,,,,,,,,,,,,,,,,,,,,,,material/114.png,1,爱国,material/14.png,1,material/14.png,爱国,1,j,j,j,1,1,1,忠贞,,,,,,,,,0,31,31,13,,,,,,,,,,,j,1,0.967175006866,,,,moral_self_bias,21,20,59.9984264786,m,001,2018_Apr_02_1723,
,,,,,,,,,,,,,,,,,,,,,,material/172.png,2,无情,material/175.png,2,material/175.png,无情,2,f,f,f,1,1,1,浮夸,,,,,,,,,0,32,32,154,0,0,0,0,,,,,,,f,1,1.28356695175,j,1,0.091392993927,moral_self_bias,21,20,59.9984264786,m,001,2018_Apr_02_1723,
,,,,,,,,,,,,,,,,,,,,,,material/172.png,2,无情,material/175.png,2,material/175.png,无情,2,f,f,f,1,1,1,浮夸,,,,,,,,,0,32,32,154,,,,,,,,,,,,,,,,,moral_self_bias,21,20,59.9984264786,m,001,2018_Apr_02_1723,
,,,,,,,,,,,,,,,,,,,,,,material/78.png,2,厌学,material/181.png,2,material/184.png,犹豫,2,f,f,f,2,2,2,草率,,,,,,,,,0,33,33,160,0,0,0,0,,,,,,,f,1,1.24161291122,j,1,1.30873203278,moral_self_bias,21,20,59.9984264786,m,001,2018_Apr_02_1723,
,,,,,,,,,,,,,,,,,,,,,,material/78.png,2,厌学,material/181.png,2,material/184.png,犹豫,2,f,f,f,2,2,2,草率,,,,,,,,,0,33,33,160,,,,,,,,,,,,,,,,,moral_self_bias,21,20,59.9984264786,m,001,2018_Apr_02_1723,
,,,,,,,,,,,,,,,,,,,,,,material/80.png,2,才尽,material/83.png,2,material/182.png,呆笨,2,j,j,j,2,2,2,健忘,,,,,,,,,0,34,34,79,0,0,0,0,,,,,,,f,0,0.891438961029,j,1,0.0926220417023,moral_self_bias,21,20,59.9984264786,m,001,2018_Apr_02_1723,
,,,,,,,,,,,,,,,,,,,,,,material/80.png,2,才尽,material/83.png,2,material/182.png,呆笨,2,j,j,j,2,2,2,健忘,,,,,,,,,0,34,34,79,,,,,,,,,,,,,,,,,moral_self_bias,21,20,59.9984264786,m,001,2018_Apr_02_1723,
,,,,,,,,,,,,,,,,,,,,,,material/160.png,2,笨拙,material/60.png,2,material/160.png,粗拙,2,j,j,j,2,2,2,笨拙,,,,,,,,,0,35,35,59,0,0,0,0,,,,,,,f,0,0.774663925171,j,1,0.108503818512,moral_self_bias,21,20,59.9984264786,m,001,2018_Apr_02_1723,
,,,,,,,,,,,,,,,,,,,,,,material/160.png,2,笨拙,material/60.png,2,material/160.png,粗拙,2,j,j,j,2,2,2,笨拙,,,,,,,,,0,35,35,59,,,,,,,,,,,,,,,,,moral_self_bias,21,20,59.9984264786,m,001,2018_Apr_02_1723,
,,,,,,,,,,,,,,,,,,,,,,material/164.png,1,宽容,material/63.png,1,material/163.png,文明,1,j,j,j,1,1,1,孝顺,,,,,,,,,0,36,36,62,0,0,0,0,,,,,,,f,0,2.86756110191,j,1,0.0912749767303,moral_self_bias,21,20,59.9984264786,m,001,2018_Apr_02_1723,
,,,,,,,,,,,,,,,,,,,,,,material/164.png,1,宽容,material/63.png,1,material/163.png,文明,1,j,j,j,1,1,1,孝顺,,,,,,,,,0,36,36,62,,,,,,,,,,,,,,,,,moral_self_bias,21,20,59.9984264786,m,001,2018_Apr_02_1723,
,,,,,,,,,,,,,,,,,,,,,,material/153.png,2,迟钝,material/53.png,2,material/153.png,迟缓,2,j,j,j,2,2,2,迟钝,,,,,,,,,0,37,37,52,,,,,,,,,,,j,1,1.04203701019,,,,moral_self_bias,21,20,59.9984264786,m,001,2018_Apr_02_1723,
,,,,,,,,,,,,,,,,,,,,,,material/149.png,2,白痴,material/49.png,2,material/149.png,痴呆,2,j,j,j,2,2,2,白痴,,,,,,,,,0,38,38,48,0,0,0,0,,,,,,,f,0,0.975800037384,j,1,0.125524044037,moral_self_bias,21,20,59.9984264786,m,001,2018_Apr_02_1723,
,,,,,,,,,,,,,,,,,,,,,,material/149.png,2,白痴,material/49.png,2,material/149.png,痴呆,2,j,j,j,2,2,2,白痴,,,,,,,,,0,38,38,48,,,,,,,,,,,,,,,,,moral_self_bias,21,20,59.9984264786,m,001,2018_Apr_02_1723,
,,,,,,,,,,,,,,,,,,,,,,material/12.png,1,忠心,material/112.png,1,material/112.png,忠心,1,f,f,f,1,1,1,忠诚,,,,,,,,,0,39,39,91,0,0,0,0,,,,,,,f,1,1.02565407753,f,0,0.126048088074,moral_self_bias,21,20,59.9984264786,m,001,2018_Apr_02_1723,
,,,,,,,,,,,,,,,,,,,,,,material/12.png,1,忠心,material/112.png,1,material/112.png,忠心,1,f,f,f,1,1,1,忠诚,,,,,,,,,0,39,39,91,,,,,,,,,,,,,,,,,moral_self_bias,21,20,59.9984264786,m,001,2018_Apr_02_1723,
,,,,,,,,,,,,,,,,,,,,,,material/120.png,1,能干,material/20.png,1,material/120.png,厉害,1,j,j,j,2,2,2,能干,,,,,,,,,0,40,40,19,0,0,0,0,,,,,,,f,0,0.808230876923,f,0,0.125846862793,moral_self_bias,21,20,59.9984264786,m,001,2018_Apr_02_1723,
,,,,,,,,,,,,,,,,,,,,,,material/120.png,1,能干,material/20.png,1,material/120.png,厉害,1,j,j,j,2,2,2,能干,,,,,,,,,0,40,40,19,,,,,,,,,,,,,,,,,moral_self_bias,21,20,59.9984264786,m,001,2018_Apr_02_1723,
,,,,,,,,,,,,,,,,,,,,,,material/151.png,2,迷糊,material/51.png,2,material/151.png,糊涂,2,j,j,j,2,2,2,迷糊,,,,,,,,,0,41,41,50,0,0,0,0,,,,,,,f,0,2.70747804642,j,1,0.34118103981,moral_self_bias,21,20,59.9984264786,m,001,2018_Apr_02_1723,
,,,,,,,,,,,,,,,,,,,,,,material/151.png,2,迷糊,material/51.png,2,material/151.png,糊涂,2,j,j,j,2,2,2,迷糊,,,,,,,,,0,41,41,50,,,,,,,,,,,,,,,,,moral_self_bias,21,20,59.9984264786,m,001,2018_Apr_02_1723,
,,,,,,,,,,,,,,,,,,,,,,material/144.png,2,失信,material/44.png,2,material/44.png,失信,2,j,j,j,1,1,1,爽约,,,,,,,,,0,42,42,43,0,0,0,0,,,,,,,f,0,1.25809907913,j,1,0.0760719776154,moral_self_bias,21,20,59.9984264786,m,001,2018_Apr_02_1723,
,,,,,,,,,,,,,,,,,,,,,,material/144.png,2,失信,material/44.png,2,material/44.png,失信,2,j,j,j,1,1,1,爽约,,,,,,,,,0,42,42,43,,,,,,,,,,,,,,,,,moral_self_bias,21,20,59.9984264786,m,001,2018_Apr_02_1723,
,,,,,,,,,,,,,,,,,,,,,,material/109.png,1,秉直,material/9.png,1,material/9.png,秉直,1,j,j,j,1,1,1,正直,,,,,,,,,0,43,43,8,,,,,,,,,,,j,1,1.356580019,,,,moral_self_bias,21,20,59.9984264786,m,001,2018_Apr_02_1723,
,,,,,,,,,,,,,,,,,,,,,,material/121.png,1,精干,material/21.png,1,material/121.png,干练,1,j,j,j,2,2,2,精干,,,,,,,,,0,44,44,20,0,0,0,0,,,,,,,f,0,1.12557411194,j,1,0.0932168960571,moral_self_bias,21,20,59.9984264786,m,001,2018_Apr_02_1723,
,,,,,,,,,,,,,,,,,,,,,,material/121.png,1,精干,material/21.png,1,material/121.png,干练,1,j,j,j,2,2,2,精干,,,,,,,,,0,44,44,20,,,,,,,,,,,,,,,,,moral_self_bias,21,20,59.9984264786,m,001,2018_Apr_02_1723,
,,,,,,,,,,,,,,,,,,,,,,material/77.png,2,浮夸,material/172.png,2,material/172.png,浮夸,2,f,f,f,1,1,1,软弱,,,,,,,,,0,45,45,151,0,0,0,0,,,,,,,f,1,1.22507095337,j,1,0.125777006149,moral_self_bias,21,20,59.9984264786,m,001,2018_Apr_02_1723,
,,,,,,,,,,,,,,,,,,,,,,material/77.png,2,浮夸,material/172.png,2,material/172.png,浮夸,2,f,f,f,1,1,1,软弱,,,,,,,,,0,45,45,151,,,,,,,,,,,,,,,,,moral_self_bias,21,20,59.9984264786,m,001,2018_Apr_02_1723,
,,,,,,,,,,,,,,,,,,,,,,material/103.png,1,仁慈,material/3.png,1,material/3.png,仁慈,1,j,j,j,1,1,1,仁厚,,,,,,,,,0,46,46,2,0,0,0,0,,,,,,,f,0,1.7582449913,f,0,0.124907970428,moral_self_bias,21,20,59.9984264786,m,001,2018_Apr_02_1723,
,,,,,,,,,,,,,,,,,,,,,,material/103.png,1,仁慈,material/3.png,1,material/3.png,仁慈,1,j,j,j,1,1,1,仁厚,,,,,,,,,0,46,46,2,,,,,,,,,,,,,,,,,moral_self_bias,21,20,59.9984264786,m,001,2018_Apr_02_1723,
,,,,,,,,,,,,,,,,,,,,,,material/34.png,2,可恶,material/134.png,2,material/134.png,可恶,2,f,f,f,1,1,1,可恨,,,,,,,,,0,47,47,113,0,0,0,0,,,,,,,f,1,2.52423882484,j,1,0.658251047134,moral_self_bias,21,20,59.9984264786,m,001,2018_Apr_02_1723,
,,,,,,,,,,,,,,,,,,,,,,material/34.png,2,可恶,material/134.png,2,material/134.png,可恶,2,f,f,f,1,1,1,可恨,,,,,,,,,0,47,47,113,,,,,,,,,,,,,,,,,moral_self_bias,21,20,59.9984264786,m,001,2018_Apr_02_1723,
,,,,,,,,,,,,,,,,,,,,,,material/123.png,1,多才,material/23.png,1,material/123.png,有才,1,j,j,j,2,2,2,多才,,,,,,,,,0,48,48,22,0,0,0,0,,,,,,,f,0,1.89203596115,j,1,0.857944965363,moral_self_bias,21,20,59.9984264786,m,001,2018_Apr_02_1723,
,,,,,,,,,,,,,,,,,,,,,,material/123.png,1,多才,material/23.png,1,material/123.png,有才,1,j,j,j,2,2,2,多才,,,,,,,,,0,48,48,22,,,,,,,,,,,,,,,,,moral_self_bias,21,20,59.9984264786,m,001,2018_Apr_02_1723,
,,,,,,,,,,,,,,,,,,,,,,material/107.png,1,公正,material/7.png,1,material/7.png,公正,1,j,j,j,1,1,1,公平,,,,,,,,,0,49,49,6,0,0,0,0,,,,,,,f,0,1.62486720085,j,1,0.824728012085,moral_self_bias,21,20,59.9984264786,m,001,2018_Apr_02_1723,
,,,,,,,,,,,,,,,,,,,,,,material/107.png,1,公正,material/7.png,1,material/7.png,公正,1,j,j,j,1,1,1,公平,,,,,,,,,0,49,49,6,,,,,,,,,,,,,,,,,moral_self_bias,21,20,59.9984264786,m,001,2018_Apr_02_1723,
,,,,,,,,,,,,,,,,,,,,,,material/116.png,1,机智,material/16.png,1,material/116.png,睿智,1,j,j,j,2,2,2,机智,,,,,,,,,0,50,50,15,0,0,0,0,,,,,,,f,0,1.19146800041,f,0,0.126327037811,moral_self_bias,21,20,59.9984264786,m,001,2018_Apr_02_1723,
,,,,,,,,,,,,,,,,,,,,,,material/116.png,1,机智,material/16.png,1,material/116.png,睿智,1,j,j,j,2,2,2,机智,,,,,,,,,0,50,50,15,,,,,,,,,,,,,,,,,moral_self_bias,21,20,59.9984264786,m,001,2018_Apr_02_1723,
,,,,,,,,,,,,,,,,,,,,,,material/183.png,2,颓废,material/182.png,2,material/79.png,才尽,2,f,f,f,2,2,2,薄弱,,,,,,,,,0,51,51,161,,,,,,,,,,,j,0,1.69162011147,,,,moral_self_bias,21,20,59.9984264786,m,001,2018_Apr_02_1723,
,,,,,,,,,,,,,,,,,,,,,,material/161.png,1,奉献,material/164.png,1,material/64.png,孝顺,1,f,f,f,1,1,1,勇敢,,,,,,,,,0,52,52,143,,,,,,,,,,,j,0,0.775650978088,,,,moral_self_bias,21,20,59.9984264786,m,001,2018_Apr_02_1723,
,,,,,,,,,,,,,,,,,,,,,,material/177.png,2,谄媚,material/72.png,2,material/72.png,谄媚,2,j,j,j,1,1,1,恶心,,,,,,,,,0,53,53,69,,,,,,,,,,,j,1,0.707566022873,,,,moral_self_bias,21,20,59.9984264786,m,001,2018_Apr_02_1723,
,,,,,,,,,,,,,,,,,,,,,,material/18.png,1,敏锐,material/118.png,1,material/18.png,机敏,1,f,f,f,2,2,2,敏锐,,,,,,,,,0,54,54,97,0,0,0,0,,,,,,,f,1,1.94201421738,j,1,0.15930891037,moral_self_bias,21,20,59.9984264786,m,001,2018_Apr_02_1723,
,,,,,,,,,,,,,,,,,,,,,,material/18.png,1,敏锐,material/118.png,1,material/18.png,机敏,1,f,f,f,2,2,2,敏锐,,,,,,,,,0,54,54,97,,,,,,,,,,,,,,,,,moral_self_bias,21,20,59.9984264786,m,001,2018_Apr_02_1723,
,,,,,,,,,,,,,,,,,,,,,,material/14.png,1,忠贞,material/114.png,1,material/114.png,忠贞,1,f,f,f,1,1,1,爱国,,,,,,,,,0,55,55,93,,,,,,,,,,,j,0,0.758249998093,,,,moral_self_bias,21,20,59.9984264786,m,001,2018_Apr_02_1723,
,,,,,,,,,,,,,,,,,,,,,,material/72.png,2,软弱,material/77.png,2,material/77.png,软弱,2,j,j,j,1,1,1,谄媚,,,,,,,,,0,56,56,73,,,,,,,,,,,j,1,0.792504072189,,,,moral_self_bias,21,20,59.9984264786,m,001,2018_Apr_02_1723,
,,,,,,,,,,,,,,,,,,,,,,material/101.png,1,善良,material/1.png,1,material/1.png,善良,1,j,j,j,1,1,1,博爱,,,,,,,,,0,57,57,0,,,,,,,,,,,j,1,0.841032028198,,,,moral_self_bias,21,20,59.9984264786,m,001,2018_Apr_02_1723,
,,,,,,,,,,,,,,,,,,,,,,material/70.png,1,全面,material/168.png,1,material/70.png,机变,1,f,f,f,2,2,2,全面,,,,,,,,,0,58,58,147,,,,,,,,,,,j,0,2.27376508713,,,,moral_self_bias,21,20,59.9984264786,m,001,2018_Apr_02_1723,
,,,,,,,,,,,,,,,,,,,,,,material/133.png,2,腐败,material/33.png,2,material/33.png,腐败,2,j,j,j,1,1,1,贪污,,,,,,,,,0,59,59,32,,,,,,,,,,,j,1,0.774079799652,,,,moral_self_bias,21,20,59.9984264786,m,001,2018_Apr_02_1723,
,,,,,,,,,,,,,,,,,,,,,,material/40.png,2,狠毒,material/140.png,2,material/140.png,狠毒,2,f,f,f,1,1,1,邪恶,,,,,,,,,0,60,60,119,,,,,,,,,,,j,0,0.774785995483,,,,moral_self_bias,21,20,59.9984264786,m,001,2018_Apr_02_1723,
,,,,,,,,,,,,,,,,,,,,,,material/79.png,2,薄弱,material/81.png,2,material/183.png,无助,2,j,j,j,2,2,2,颓废,,,,,,,,,0,61,61,77,,,,,,,,,,,j,1,0.691649198532,,,,moral_self_bias,21,20,59.9984264786,m,001,2018_Apr_02_1723,
,,,,,,,,,,,,,,,,,,,,,,material/150.png,2,鲁钝,material/50.png,2,material/150.png,愚笨,2,j,j,j,2,2,2,鲁钝,,,,,,,,,0,62,62,49,0,0,0,0,,,,,,,f,0,0.908037900925,j,1,0.192920923233,moral_self_bias,21,20,59.9984264786,m,001,2018_Apr_02_1723,
,,,,,,,,,,,,,,,,,,,,,,material/150.png,2,鲁钝,material/50.png,2,material/150.png,愚笨,2,j,j,j,2,2,2,鲁钝,,,,,,,,,0,62,62,49,,,,,,,,,,,,,,,,,moral_self_bias,21,20,59.9984264786,m,001,2018_Apr_02_1723,
,,,,,,,,,,,,,,,,,,,,,,material/104.png,1,友爱,material/4.png,1,material/4.png,友爱,1,j,j,j,1,1,1,友善,,,,,,,,,0,63,63,3,,,,,,,,,,,j,1,1.95817708969,,,,moral_self_bias,21,20,59.9984264786,m,001,2018_Apr_02_1723,
,,,,,,,,,,,,,,,,,,,,,,material/1.png,1,博爱,material/101.png,1,material/101.png,博爱,1,f,f,f,1,1,1,善良,,,,,,,,,0,64,64,80,0,0,0,0,,,,,,,f,1,1.14106798172,j,1,0.10799407959,moral_self_bias,21,20,59.9984264786,m,001,2018_Apr_02_1723,
,,,,,,,,,,,,,,,,,,,,,,material/1.png,1,博爱,material/101.png,1,material/101.png,博爱,1,f,f,f,1,1,1,善良,,,,,,,,,0,64,64,80,,,,,,,,,,,,,,,,,moral_self_bias,21,20,59.9984264786,m,001,2018_Apr_02_1723,
,,,,,,,,,,,,,,,,,,,,,,material/147.png,2,刻板,material/47.png,2,material/147.png,死板,2,j,j,j,2,2,2,刻板,,,,,,,,,0,65,65,46,0,0,0,0,,,,,,,f,0,1.25781917572,j,1,0.158861875534,moral_self_bias,21,20,59.9984264786,m,001,2018_Apr_02_1723,
,,,,,,,,,,,,,,,,,,,,,,material/147.png,2,刻板,material/47.png,2,material/147.png,死板,2,j,j,j,2,2,2,刻板,,,,,,,,,0,65,65,46,,,,,,,,,,,,,,,,,moral_self_bias,21,20,59.9984264786,m,001,2018_Apr_02_1723,
,,,,,,,,,,,,,,,,,,,,,,material/52.png,2,拖延,material/152.png,2,material/52.png,缓慢,2,f,f,f,2,2,2,拖延,,,,,,,,,0,66,66,131,,,,,,,,,,,j,0,1.2416741848,,,,moral_self_bias,21,20,59.9984264786,m,001,2018_Apr_02_1723,
,,,,,,,,,,,,,,,,,,,,,,material/134.png,2,可恨,material/34.png,2,material/34.png,可恨,2,j,j,j,1,1,1,可恶,,,,,,,,,0,67,67,33,,,,,,,,,,,j,1,1.6343960762,,,,moral_self_bias,21,20,59.9984264786,m,001,2018_Apr_02_1723,
,,,,,,,,,,,,,,,,,,,,,,material/174.png,2,虚伪,material/76.png,2,material/76.png,虚伪,2,j,j,j,1,1,1,不义,,,,,,,,,0,68,68,72,,,,,,,,,,,j,1,0.675435066223,,,,moral_self_bias,21,20,59.9984264786,m,001,2018_Apr_02_1723,
,,,,,,,,,,,,,,,,,,,,,,material/117.png,1,聪颖,material/17.png,1,material/117.png,聪明,1,j,j,j,2,2,2,聪颖,,,,,,,,,0,69,69,16,,,,,,,,,,,j,1,0.71817612648,,,,moral_self_bias,21,20,59.9984264786,m,001,2018_Apr_02_1723,
,,,,,,,,,,,,,,,,,,,,,,material/180.png,2,无助,material/79.png,2,material/81.png,颓废,2,j,j,j,2,2,2,怠惰,,,,,,,,,0,70,70,75,,,,,,,,,,,j,1,0.640827894211,,,,moral_self_bias,21,20,59.9984264786,m,001,2018_Apr_02_1723,
,,,,,,,,,,,,,,,,,,,,,,material/4.png,1,友善,material/104.png,1,material/104.png,友善,1,f,f,f,1,1,1,友爱,,,,,,,,,0,71,71,83,0,0,0,0,,,,,,,f,1,0.808940887451,j,1,0.142050027847,moral_self_bias,21,20,59.9984264786,m,001,2018_Apr_02_1723,
,,,,,,,,,,,,,,,,,,,,,,material/4.png,1,友善,material/104.png,1,material/104.png,友善,1,f,f,f,1,1,1,友爱,,,,,,,,,0,71,71,83,,,,,,,,,,,,,,,,,moral_self_bias,21,20,59.9984264786,m,001,2018_Apr_02_1723,
,,,,,,,,,,,,,,,,,,,,,,material/170.png,1,坚忍,material/71.png,1,material/170.png,严谨,1,j,j,j,2,2,2,坚忍,,,,,,,,,0,72,72,68,,,,,,,,,,,j,1,0.80819106102,,,,moral_self_bias,21,20,59.9984264786,m,001,2018_Apr_02_1723,
,,,,,,,,,,,,,,,,,,,,,,material/138.png,2,无德,material/38.png,2,material/38.png,无德,2,j,j,j,1,1,1,缺德,,,,,,,,,0,73,73,37,,,,,,,,,,,j,1,0.708911895752,,,,moral_self_bias,21,20,59.9984264786,m,001,2018_Apr_02_1723,
,,,,,,,,,,,,,,,,,,,,,,material/154.png,2,依靠,material/54.png,2,material/154.png,依赖,2,j,j,j,2,2,2,依靠,,,,,,,,,0,74,74,53,0,0,0,0,,,,,,,f,0,1.39153313637,f,0,0.633955001831,moral_self_bias,21,20,59.9984264786,m,001,2018_Apr_02_1723,
,,,,,,,,,,,,,,,,,,,,,,material/154.png,2,依靠,material/54.png,2,material/154.png,依赖,2,j,j,j,2,2,2,依靠,,,,,,,,,0,74,74,53,,,,,,,,,,,,,,,,,moral_self_bias,21,20,59.9984264786,m,001,2018_Apr_02_1723,
,,,,,,,,,,,,,,,,,,,,,,material/74.png,2,黑心,material/173.png,2,material/173.png,黑心,2,f,f,f,1,1,1,卑劣,,,,,,,,,0,75,75,152,0,0,0,0,,,,,,,f,1,3.84235286713,j,1,0.375470161438,moral_self_bias,21,20,59.9984264786,m,001,2018_Apr_02_1723,
,,,,,,,,,,,,,,,,,,,,,,material/74.png,2,黑心,material/173.png,2,material/173.png,黑心,2,f,f,f,1,1,1,卑劣,,,,,,,,,0,75,75,152,,,,,,,,,,,,,,,,,moral_self_bias,21,20,59.9984264786,m,001,2018_Apr_02_1723,
,,,,,,,,,,,,,,,,,,,,,,material/105.png,1,守信,material/5.png,1,material/5.png,守信,1,j,j,j,1,1,1,诚信,,,,,,,,,0,76,76,4,0,0,0,0,,,,,,,f,0,0.823549032211,j,1,0.141278982162,moral_self_bias,21,20,59.9984264786,m,001,2018_Apr_02_1723,
,,,,,,,,,,,,,,,,,,,,,,material/105.png,1,守信,material/5.png,1,material/5.png,守信,1,j,j,j,1,1,1,诚信,,,,,,,,,0,76,76,4,,,,,,,,,,,,,,,,,moral_self_bias,21,20,59.9984264786,m,001,2018_Apr_02_1723,
,,,,,,,,,,,,,,,,,,,,,,material/129.png,1,好问,material/29.png,1,material/129.png,好学,1,j,j,j,2,2,2,好问,,,,,,,,,0,77,77,28,0,0,0,0,,,,,,,f,0,1.39156699181,j,1,0.0752830505371,moral_self_bias,21,20,59.9984264786,m,001,2018_Apr_02_1723,
,,,,,,,,,,,,,,,,,,,,,,material/129.png,1,好问,material/29.png,1,material/129.png,好学,1,j,j,j,2,2,2,好问,,,,,,,,,0,77,77,28,,,,,,,,,,,,,,,,,moral_self_bias,21,20,59.9984264786,m,001,2018_Apr_02_1723,
,,,,,,,,,,,,,,,,,,,,,,material/48.png,2,愚蠢,material/148.png,2,material/48.png,笨蛋,2,f,f,f,2,2,2,愚蠢,,,,,,,,,0,78,78,127,0,0,0,0,,,,,,,f,1,1.80922818184,j,1,0.501428127289,moral_self_bias,21,20,59.9984264786,m,001,2018_Apr_02_1723,
,,,,,,,,,,,,,,,,,,,,,,material/48.png,2,愚蠢,material/148.png,2,material/48.png,笨蛋,2,f,f,f,2,2,2,愚蠢,,,,,,,,,0,78,78,127,,,,,,,,,,,,,,,,,moral_self_bias,21,20,59.9984264786,m,001,2018_Apr_02_1723,
,,,,,,,,,,,,,,,,,,,,,,material/43.png,2,虚荣,material/143.png,2,material/143.png,虚荣,2,f,f,f,1,1,1,拜金,,,,,,,,,0,79,79,122,,,,,,,,,,,j,0,0.924364089966,,,,moral_self_bias,21,20,59.9984264786,m,001,2018_Apr_02_1723,
,,,,,,,,,,,,,,,,,,,,,,material/20.png,1,厉害,material/120.png,1,material/20.png,能干,1,f,f,f,2,2,2,厉害,,,,,,,,,0,80,80,99,0,0,0,0,,,,,,,f,1,0.88308095932,j,1,0.124428987503,moral_self_bias,21,20,59.9984264786,m,001,2018_Apr_02_1723,
,,,,,,,,,,,,,,,,,,,,,,material/20.png,1,厉害,material/120.png,1,material/20.png,能干,1,f,f,f,2,2,2,厉害,,,,,,,,,0,80,80,99,,,,,,,,,,,,,,,,,moral_self_bias,21,20,59.9984264786,m,001,2018_Apr_02_1723,
,,,,,,,,,,,,,,,,,,,,,,material/47.png,2,死板,material/147.png,2,material/47.png,刻板,2,f,f,f,2,2,2,死板,,,,,,,,,0,81,81,126,,,,,,,,,,,j,0,1.55887818336,,,,moral_self_bias,21,20,59.9984264786,m,001,2018_Apr_02_1723,
,,,,,,,,,,,,,,,,,,,,,,material/84.png,2,犹豫,material/84.png,2,material/181.png,顽愚,2,f,f,f,2,2,2,顽愚,,,,,,,,,0,82,82,167,,,,,,,,,,,j,0,0.591089010239,,,,moral_self_bias,21,20,59.9984264786,m,001,2018_Apr_02_1723,
,,,,,,,,,,,,,,,,,,,,,,material/71.png,1,严谨,material/68.png,1,material/71.png,广博,1,j,j,j,2,2,2,严谨,,,,,,,,,0,83,83,66,0,0,0,0,,,,,,,f,0,1.14080095291,f,0,0.192128896713,moral_self_bias,21,20,59.9984264786,m,001,2018_Apr_02_1723,
,,,,,,,,,,,,,,,,,,,,,,material/71.png,1,严谨,material/68.png,1,material/71.png,广博,1,j,j,j,2,2,2,严谨,,,,,,,,,0,83,83,66,,,,,,,,,,,,,,,,,moral_self_bias,21,20,59.9984264786,m,001,2018_Apr_02_1723,
,,,,,,,,,,,,,,,,,,,,,,material/53.png,2,迟缓,material/153.png,2,material/53.png,迟钝,2,f,f,f,2,2,2,迟缓,,,,,,,,,0,84,84,132,,,,,,,,,,,j,0,1.24054098129,,,,moral_self_bias,21,20,59.9984264786,m,001,2018_Apr_02_1723,
,,,,,,,,,,,,,,,,,,,,,,material/21.png,1,干练,material/121.png,1,material/21.png,精干,1,f,f,f,2,2,2,干练,,,,,,,,,0,85,85,100,,,,,,,,,,,j,0,2.67533898354,,,,moral_self_bias,21,20,59.9984264786,m,001,2018_Apr_02_1723,
,,,,,,,,,,,,,,,,,,,,,,material/45.png,2,小人,material/145.png,2,material/145.png,小人,2,f,f,f,1,1,1,下流,,,,,,,,,0,86,86,124,,,,,,,,,,,j,0,1.5411028862,,,,moral_self_bias,21,20,59.9984264786,m,001,2018_Apr_02_1723,
,,,,,,,,,,,,,,,,,,,,,,material/51.png,2,糊涂,material/151.png,2,material/51.png,迷糊,2,f,f,f,2,2,2,糊涂,,,,,,,,,0,87,87,130,,,,,,,,,,,j,0,0.82475399971,,,,moral_self_bias,21,20,59.9984264786,m,001,2018_Apr_02_1723,
,,,,,,,,,,,,,,,,,,,,,,material/181.png,2,怠惰,material/180.png,2,material/180.png,怠惰,2,f,f,f,2,2,2,犹豫,,,,,,,,,0,88,88,159,0,0,0,0,,,,,,,f,1,1.14262413979,j,1,0.291407108307,moral_self_bias,21,20,59.9984264786,m,001,2018_Apr_02_1723,
,,,,,,,,,,,,,,,,,,,,,,material/181.png,2,怠惰,material/180.png,2,material/180.png,怠惰,2,f,f,f,2,2,2,犹豫,,,,,,,,,0,88,88,159,,,,,,,,,,,,,,,,,moral_self_bias,21,20,59.9984264786,m,001,2018_Apr_02_1723,
,,,,,,,,,,,,,,,,,,,,,,material/54.png,2,依赖,material/154.png,2,material/54.png,依靠,2,f,f,f,2,2,2,依赖,,,,,,,,,0,89,89,133,0,0,0,0,,,,,,,f,1,0.850316047668,f,0,0.174615859985,moral_self_bias,21,20,59.9984264786,m,001,2018_Apr_02_1723,
,,,,,,,,,,,,,,,,,,,,,,material/54.png,2,依赖,material/154.png,2,material/54.png,依靠,2,f,f,f,2,2,2,依赖,,,,,,,,,0,89,89,133,,,,,,,,,,,,,,,,,moral_self_bias,21,20,59.9984264786,m,001,2018_Apr_02_1723,
,,,,,,,,,,,,,,,,,,,,,,material/9.png,1,正直,material/109.png,1,material/109.png,正直,1,f,f,f,1,1,1,秉直,,,,,,,,,0,90,90,88,0,0,0,0,,,,,,,f,1,1.39171695709,f,0,0.175773859024,moral_self_bias,21,20,59.9984264786,m,001,2018_Apr_02_1723,
,,,,,,,,,,,,,,,,,,,,,,material/9.png,1,正直,material/109.png,1,material/109.png,正直,1,f,f,f,1,1,1,秉直,,,,,,,,,0,90,90,88,,,,,,,,,,,,,,,,,moral_self_bias,21,20,59.9984264786,m,001,2018_Apr_02_1723,
,,,,,,,,,,,,,,,,,,,,,,material/44.png,2,爽约,material/144.png,2,material/144.png,爽约,2,f,f,f,1,1,1,失信,,,,,,,,,0,91,91,123,0,0,0,0,,,,,,,f,1,0.97489118576,j,1,0.12486410141,moral_self_bias,21,20,59.9984264786,m,001,2018_Apr_02_1723,
,,,,,,,,,,,,,,,,,,,,,,material/44.png,2,爽约,material/144.png,2,material/144.png,爽约,2,f,f,f,1,1,1,失信,,,,,,,,,0,91,91,123,,,,,,,,,,,,,,,,,moral_self_bias,21,20,59.9984264786,m,001,2018_Apr_02_1723,
,,,,,,,,,,,,,,,,,,,,,,material/25.png,1,果断,material/125.png,1,material/25.png,果敢,1,f,f,f,2,2,2,果断,,,,,,,,,0,92,92,104,0,0,0,0,,,,,,,f,1,1.32378292084,j,1,0.707958936691,moral_self_bias,21,20,59.9984264786,m,001,2018_Apr_02_1723,
,,,,,,,,,,,,,,,,,,,,,,material/25.png,1,果断,material/125.png,1,material/25.png,果敢,1,f,f,f,2,2,2,果断,,,,,,,,,0,92,92,104,,,,,,,,,,,,,,,,,moral_self_bias,21,20,59.9984264786,m,001,2018_Apr_02_1723,
,,,,,,,,,,,,,,,,,,,,,,material/10.png,1,坚毅,material/110.png,1,material/110.png,坚毅,1,f,f,f,1,1,1,顽强,,,,,,,,,0,93,93,89,,,,,,,,,,,j,0,2.42439103127,,,,moral_self_bias,21,20,59.9984264786,m,001,2018_Apr_02_1723,
,,,,,,,,,,,,,,,,,,,,,,material/157.png,2,无能,material/57.png,2,material/157.png,无知,2,j,j,j,2,2,2,无能,,,,,,,,,0,94,94,56,,,,,,,,,,,j,1,0.775125026703,,,,moral_self_bias,21,20,59.9984264786,m,001,2018_Apr_02_1723,
,,,,,,,,,,,,,,,,,,,,,,material/178.png,2,窝囊,material/82.png,2,material/82.png,窝囊,2,j,j,j,2,2,2,毛糙,,,,,,,,,0,95,95,78,,,,,,,,,,,j,1,1.10847783089,,,,moral_self_bias,21,20,59.9984264786,m,001,2018_Apr_02_1723,
,,,,,,,,,,,,,,,,,,,,,,material/168.png,1,机变,material/170.png,1,material/168.png,坚忍,1,f,f,f,2,2,2,机变,,,,,,,,,0,96,96,149,,,,,,,,,,,j,0,0.758430957794,,,,moral_self_bias,21,20,59.9984264786,m,001,2018_Apr_02_1723,
,,,,,,,,,,,,,,,,,,,,,,material/57.png,2,无知,material/157.png,2,material/57.png,无能,2,f,f,f,2,2,2,无知,,,,,,,,,0,97,97,136,,,,,,,,,,,j,0,0.925169944763,,,,moral_self_bias,21,20,59.9984264786,m,001,2018_Apr_02_1723,
,,,,,,,,,,,,,,,,,,,,,,material/22.png,1,才学,material/122.png,1,material/22.png,博学,1,f,f,f,2,2,2,才学,,,,,,,,,0,98,98,101,,,,,,,,,,,j,0,3.60849285126,,,,moral_self_bias,21,20,59.9984264786,m,001,2018_Apr_02_1723,
,,,,,,,,,,,,,,,,,,,,,,material/68.png,1,广博,material/167.png,1,material/68.png,高手,1,f,f,f,2,2,2,广博,,,,,,,,,0,99,99,146,0,0,0,0,,,,,,,f,1,3.35688304901,f,0,0.174250841141,moral_self_bias,21,20,59.9984264786,m,001,2018_Apr_02_1723,
,,,,,,,,,,,,,,,,,,,,,,material/68.png,1,广博,material/167.png,1,material/68.png,高手,1,f,f,f,2,2,2,广博,,,,,,,,,0,99,99,146,,,,,,,,,,,,,,,,,moral_self_bias,21,20,59.9984264786,m,001,2018_Apr_02_1723,
,,,,,,,,,,,,,,,,,,,,,,material/6.png,1,厚道,material/106.png,1,material/106.png,厚道,1,f,f,f,1,1,1,诚实,,,,,,,,,0,100,100,85,0,0,0,0,,,,,,,f,1,0.791780948639,f,0,0.158293962479,moral_self_bias,21,20,59.9984264786,m,001,2018_Apr_02_1723,
,,,,,,,,,,,,,,,,,,,,,,material/6.png,1,厚道,material/106.png,1,material/106.png,厚道,1,f,f,f,1,1,1,诚实,,,,,,,,,0,100,100,85,,,,,,,,,,,,,,,,,moral_self_bias,21,20,59.9984264786,m,001,2018_Apr_02_1723,
,,,,,,,,,,,,,,,,,,,,,,material/169.png,1,颖悟,material/171.png,1,material/169.png,高效,1,f,f,f,2,2,2,颖悟,,,,,,,,,0,101,101,150,,,,,,,,,,,j,0,1.05911517143,,,,moral_self_bias,21,20,59.9984264786,m,001,2018_Apr_02_1723,
,,,,,,,,,,,,,,,,,,,,,,material/60.png,2,粗拙,material/160.png,2,material/60.png,笨拙,2,f,f,f,2,2,2,粗拙,,,,,,,,,0,102,102,139,,,,,,,,,,,j,0,0.891800880432,,,,moral_self_bias,21,20,59.9984264786,m,001,2018_Apr_02_1723,
,,,,,,,,,,,,,,,,,,,,,,material/33.png,2,贪污,material/133.png,2,material/133.png,贪污,2,f,f,f,1,1,1,腐败,,,,,,,,,0,103,103,112,,,,,,,,,,,j,0,0.700731039047,,,,moral_self_bias,21,20,59.9984264786,m,001,2018_Apr_02_1723,
,,,,,,,,,,,,,,,,,,,,,,material/55.png,2,盲从,material/155.png,2,material/55.png,盲目,2,f,f,f,2,2,2,盲从,,,,,,,,,0,104,104,134,,,,,,,,,,,j,0,0.625267982483,,,,moral_self_bias,21,20,59.9984264786,m,001,2018_Apr_02_1723,
,,,,,,,,,,,,,,,,,,,,,,material/112.png,1,忠诚,material/12.png,1,material/12.png,忠诚,1,j,j,j,1,1,1,忠心,,,,,,,,,0,105,105,11,0,0,0,0,,,,,,,f,0,2.57532906532,f,0,0.409045934677,moral_self_bias,21,20,59.9984264786,m,001,2018_Apr_02_1723,
,,,,,,,,,,,,,,,,,,,,,,material/112.png,1,忠诚,material/12.png,1,material/12.png,忠诚,1,j,j,j,1,1,1,忠心,,,,,,,,,0,105,105,11,,,,,,,,,,,,,,,,,moral_self_bias,21,20,59.9984264786,m,001,2018_Apr_02_1723,
,,,,,,,,,,,,,,,,,,,,,,material/175.png,2,残虐,material/73.png,2,material/73.png,残虐,2,f,f,f,1,1,1,无情,,,,,,,,,0,106,106,165,0,0,0,0,,,,,,,f,1,1.14086318016,j,1,0.425420045853,moral_self_bias,21,20,59.9984264786,m,001,2018_Apr_02_1723,
,,,,,,,,,,,,,,,,,,,,,,material/175.png,2,残虐,material/73.png,2,material/73.png,残虐,2,f,f,f,1,1,1,无情,,,,,,,,,0,106,106,165,,,,,,,,,,,,,,,,,moral_self_bias,21,20,59.9984264786,m,001,2018_Apr_02_1723,
,,,,,,,,,,,,,,,,,,,,,,material/166.png,1,孝顺,material/64.png,1,material/164.png,奉献,1,j,j,j,1,1,1,仗义,,,,,,,,,0,107,107,63,0,0,0,0,,,,,,,f,0,1.40076398849,f,0,0.190466165543,moral_self_bias,21,20,59.9984264786,m,001,2018_Apr_02_1723,
,,,,,,,,,,,,,,,,,,,,,,material/166.png,1,孝顺,material/64.png,1,material/164.png,奉献,1,j,j,j,1,1,1,仗义,,,,,,,,,0,107,107,63,,,,,,,,,,,,,,,,,moral_self_bias,21,20,59.9984264786,m,001,2018_Apr_02_1723,
,,,,,,,,,,,,,,,,,,,,,,material/132.png,2,不忠,material/32.png,2,material/32.png,不忠,2,j,j,j,1,1,1,背叛,,,,,,,,,0,108,108,31,0,0,0,0,,,,,,,f,0,1.29100108147,j,1,0.609112024307,moral_self_bias,21,20,59.9984264786,m,001,2018_Apr_02_1723,
,,,,,,,,,,,,,,,,,,,,,,material/132.png,2,不忠,material/32.png,2,material/32.png,不忠,2,j,j,j,1,1,1,背叛,,,,,,,,,0,108,108,31,,,,,,,,,,,,,,,,,moral_self_bias,21,20,59.9984264786,m,001,2018_Apr_02_1723,
,,,,,,,,,,,,,,,,,,,,,,material/15.png,1,纯洁,material/115.png,1,material/115.png,纯洁,1,f,f,f,1,1,1,清白,,,,,,,,,0,109,109,94,0,0,0,0,,,,,,,f,1,0.792075157166,f,0,0.1917719841,moral_self_bias,21,20,59.9984264786,m,001,2018_Apr_02_1723,
,,,,,,,,,,,,,,,,,,,,,,material/15.png,1,纯洁,material/115.png,1,material/115.png,纯洁,1,f,f,f,1,1,1,清白,,,,,,,,,0,109,109,94,,,,,,,,,,,,,,,,,moral_self_bias,21,20,59.9984264786,m,001,2018_Apr_02_1723,
,,,,,,,,,,,,,,,,,,,,,,material/16.png,1,睿智,material/116.png,1,material/16.png,机智,1,f,f,f,2,2,2,睿智,,,,,,,,,0,110,110,95,0,0,0,0,,,,,,,f,1,0.758334875107,f,0,0.158283948898,moral_self_bias,21,20,59.9984264786,m,001,2018_Apr_02_1723,
,,,,,,,,,,,,,,,,,,,,,,material/16.png,1,睿智,material/116.png,1,material/16.png,机智,1,f,f,f,2,2,2,睿智,,,,,,,,,0,110,110,95,,,,,,,,,,,,,,,,,moral_self_bias,21,20,59.9984264786,m,001,2018_Apr_02_1723,
,,,,,,,,,,,,,,,,,,,,,,material/119.png,1,机灵,material/19.png,1,material/119.png,灵活,1,j,j,j,2,2,2,机灵,,,,,,,,,0,111,111,18,0,0,0,0,,,,,,,f,0,0.673998832703,f,0,0.158387899399,moral_self_bias,21,20,59.9984264786,m,001,2018_Apr_02_1723,
,,,,,,,,,,,,,,,,,,,,,,material/119.png,1,机灵,material/19.png,1,material/119.png,灵活,1,j,j,j,2,2,2,机灵,,,,,,,,,0,111,111,18,,,,,,,,,,,,,,,,,moral_self_bias,21,20,59.9984264786,m,001,2018_Apr_02_1723,
,,,,,,,,,,,,,,,,,,,,,,material/135.png,2,冷漠,material/35.png,2,material/35.png,冷漠,2,j,j,j,1,1,1,冷血,,,,,,,,,0,112,112,34,0,0,0,0,,,,,,,f,0,1.07523584366,j,1,0.242134094238,moral_self_bias,21,20,59.9984264786,m,001,2018_Apr_02_1723,
,,,,,,,,,,,,,,,,,,,,,,material/135.png,2,冷漠,material/35.png,2,material/35.png,冷漠,2,j,j,j,1,1,1,冷血,,,,,,,,,0,112,112,34,,,,,,,,,,,,,,,,,moral_self_bias,21,20,59.9984264786,m,001,2018_Apr_02_1723,
,,,,,,,,,,,,,,,,,,,,,,material/102.png,1,善心,material/2.png,1,material/2.png,善心,1,j,j,j,1,1,1,爱心,,,,,,,,,0,113,113,1,,,,,,,,,,,j,1,2.10843110085,,,,moral_self_bias,21,20,59.9984264786,m,001,2018_Apr_02_1723,
,,,,,,,,,,,,,,,,,,,,,,material/131.png,1,笃行,material/31.png,1,material/131.png,笃学,1,j,j,j,2,2,2,笃行,,,,,,,,,0,114,114,30,,,,,,,,,,,j,1,1.07545614243,,,,moral_self_bias,21,20,59.9984264786,m,001,2018_Apr_02_1723,
,,,,,,,,,,,,,,,,,,,,,,material/5.png,1,诚信,material/105.png,1,material/105.png,诚信,1,f,f,f,1,1,1,守信,,,,,,,,,0,115,115,84,,,,,,,,,,,j,0,1.20851492882,,,,moral_self_bias,21,20,59.9984264786,m,001,2018_Apr_02_1723,
,,,,,,,,,,,,,,,,,,,,,,material/155.png,2,盲目,material/55.png,2,material/155.png,盲从,2,j,j,j,2,2,2,盲目,,,,,,,,,0,116,116,54,0,0,0,0,,,,,,,f,0,1.55822610855,f,0,1.97582197189,moral_self_bias,21,20,59.9984264786,m,001,2018_Apr_02_1723,
,,,,,,,,,,,,,,,,,,,,,,material/155.png,2,盲目,material/55.png,2,material/155.png,盲从,2,j,j,j,2,2,2,盲目,,,,,,,,,0,116,116,54,,,,,,,,,,,,,,,,,moral_self_bias,21,20,59.9984264786,m,001,2018_Apr_02_1723,
,,,,,,,,,,,,,,,,,,,,,,material/106.png,1,诚实,material/6.png,1,material/6.png,诚实,1,j,j,j,1,1,1,厚道,,,,,,,,,0,117,117,5,0,0,0,0,,,,,,,f,0,2.37522912025,f,0,0.19278216362,moral_self_bias,21,20,59.9984264786,m,001,2018_Apr_02_1723,
,,,,,,,,,,,,,,,,,,,,,,material/106.png,1,诚实,material/6.png,1,material/6.png,诚实,1,j,j,j,1,1,1,厚道,,,,,,,,,0,117,117,5,,,,,,,,,,,,,,,,,moral_self_bias,21,20,59.9984264786,m,001,2018_Apr_02_1723,
,,,,,,,,,,,,,,,,,,,,,,material/49.png,2,痴呆,material/149.png,2,material/49.png,白痴,2,f,f,f,2,2,2,痴呆,,,,,,,,,0,118,118,128,0,0,0,0,,,,,,,f,1,0.97459602356,j,1,0.0930728912354,moral_self_bias,21,20,59.9984264786,m,001,2018_Apr_02_1723,
,,,,,,,,,,,,,,,,,,,,,,material/49.png,2,痴呆,material/149.png,2,material/49.png,白痴,2,f,f,f,2,2,2,痴呆,,,,,,,,,0,118,118,128,,,,,,,,,,,,,,,,,moral_self_bias,21,20,59.9984264786,m,001,2018_Apr_02_1723,
,,,,,,,,,,,,,,,,,,,,,,material/64.png,1,谦虚,material/165.png,1,material/65.png,独立,1,f,f,f,1,1,1,奉献,,,,,,,,,0,119,119,144,0,0,0,0,,,,,,,f,1,1.14091491699,f,0,0.142270088196,moral_self_bias,21,20,59.9984264786,m,001,2018_Apr_02_1723,
,,,,,,,,,,,,,,,,,,,,,,material/64.png,1,谦虚,material/165.png,1,material/65.png,独立,1,f,f,f,1,1,1,奉献,,,,,,,,,0,119,119,144,,,,,,,,,,,,,,,,,moral_self_bias,21,20,59.9984264786,m,001,2018_Apr_02_1723,
,,,,,,,,,,,,,,,,,,,,,,material/83.png,2,差生,material/78.png,2,material/179.png,草率,2,j,j,j,2,2,2,呆笨,,,,,,,,,0,120,120,74,0,0,0,0,,,,,,,f,0,0.99103307724,j,1,0.10960483551,moral_self_bias,21,20,59.9984264786,m,001,2018_Apr_02_1723,
,,,,,,,,,,,,,,,,,,,,,,material/83.png,2,差生,material/78.png,2,material/179.png,草率,2,j,j,j,2,2,2,呆笨,,,,,,,,,0,120,120,74,,,,,,,,,,,,,,,,,moral_self_bias,21,20,59.9984264786,m,001,2018_Apr_02_1723,
,,,,,,,,,,,,,,,,,,,,,,material/7.png,1,公平,material/107.png,1,material/107.png,公平,1,f,f,f,1,1,1,公正,,,,,,,,,0,121,121,86,0,0,0,0,,,,,,,f,1,1.1581659317,j,1,0.0840799808502,moral_self_bias,21,20,59.9984264786,m,001,2018_Apr_02_1723,
,,,,,,,,,,,,,,,,,,,,,,material/7.png,1,公平,material/107.png,1,material/107.png,公平,1,f,f,f,1,1,1,公正,,,,,,,,,0,121,121,86,,,,,,,,,,,,,,,,,moral_self_bias,21,20,59.9984264786,m,001,2018_Apr_02_1723,
,,,,,,,,,,,,,,,,,,,,,,material/152.png,2,缓慢,material/52.png,2,material/152.png,拖延,2,j,j,j,2,2,2,缓慢,,,,,,,,,0,122,122,51,0,0,0,0,,,,,,,f,0,1.72494912148,j,1,0.0905430316925,moral_self_bias,21,20,59.9984264786,m,001,2018_Apr_02_1723,
,,,,,,,,,,,,,,,,,,,,,,material/152.png,2,缓慢,material/52.png,2,material/152.png,拖延,2,j,j,j,2,2,2,缓慢,,,,,,,,,0,122,122,51,,,,,,,,,,,,,,,,,moral_self_bias,21,20,59.9984264786,m,001,2018_Apr_02_1723,
,,,,,,,,,,,,,,,,,,,,,,material/2.png,1,爱心,material/102.png,1,material/102.png,爱心,1,f,f,f,1,1,1,善心,,,,,,,,,0,123,123,81,0,0,0,0,,,,,,,f,1,0.950222969055,f,0,0.142606019974,moral_self_bias,21,20,59.9984264786,m,001,2018_Apr_02_1723,
,,,,,,,,,,,,,,,,,,,,,,material/2.png,1,爱心,material/102.png,1,material/102.png,爱心,1,f,f,f,1,1,1,善心,,,,,,,,,0,123,123,81,,,,,,,,,,,,,,,,,moral_self_bias,21,20,59.9984264786,m,001,2018_Apr_02_1723,
,,,,,,,,,,,,,,,,,,,,,,material/81.png,2,呆笨,material/179.png,2,material/83.png,差生,2,f,f,f,2,2,2,无助,,,,,,,,,0,124,124,158,,,,,,,,,,,j,0,1.0251967907,,,,moral_self_bias,21,20,59.9984264786,m,001,2018_Apr_02_1723,
,,,,,,,,,,,,,,,,,,,,,,material/137.png,2,无耻,material/37.png,2,material/37.png,无耻,2,j,j,j,1,1,1,卑鄙,,,,,,,,,0,125,125,36,,,,,,,,,,,j,1,0.924389123917,,,,moral_self_bias,21,20,59.9984264786,m,001,2018_Apr_02_1723,
,,,,,,,,,,,,,,,,,,,,,,material/82.png,2,毛糙,material/183.png,2,material/178.png,薄弱,2,f,f,f,2,2,2,窝囊,,,,,,,,,0,126,126,162,,,,,,,,,,,j,0,0.625113010406,,,,moral_self_bias,21,20,59.9984264786,m,001,2018_Apr_02_1723,
,,,,,,,,,,,,,,,,,,,,,,material/28.png,1,克己,material/128.png,1,material/28.png,自律,1,f,f,f,2,2,2,克己,,,,,,,,,0,127,127,107,,,,,,,,,,,j,0,0.522331953049,,,,moral_self_bias,21,20,59.9984264786,m,001,2018_Apr_02_1723,
,,,,,,,,,,,,,,,,,,,,,,material/139.png,2,凶残,material/39.png,2,material/39.png,凶残,2,j,j,j,1,1,1,恶毒,,,,,,,,,0,128,128,38,,,,,,,,,,,j,1,0.824917078018,,,,moral_self_bias,21,20,59.9984264786,m,001,2018_Apr_02_1723,
,,,,,,,,,,,,,,,,,,,,,,material/17.png,1,聪明,material/117.png,1,material/17.png,聪颖,1,f,f,f,2,2,2,聪明,,,,,,,,,0,129,129,96,0,0,0,0,,,,,,,f,1,3.52569699287,f,0,0.158957958221,moral_self_bias,21,20,59.9984264786,m,001,2018_Apr_02_1723,
,,,,,,,,,,,,,,,,,,,,,,material/17.png,1,聪明,material/117.png,1,material/17.png,聪颖,1,f,f,f,2,2,2,聪明,,,,,,,,,0,129,129,96,,,,,,,,,,,,,,,,,moral_self_bias,21,20,59.9984264786,m,001,2018_Apr_02_1723,
,,,,,,,,,,,,,,,,,,,,,,material/141.png,2,歹毒,material/41.png,2,material/41.png,歹毒,2,j,j,j,1,1,1,残忍,,,,,,,,,0,130,130,40,0,0,0,0,,,,,,,f,0,1.24051594734,j,1,0.275301933289,moral_self_bias,21,20,59.9984264786,m,001,2018_Apr_02_1723,
,,,,,,,,,,,,,,,,,,,,,,material/141.png,2,歹毒,material/41.png,2,material/41.png,歹毒,2,j,j,j,1,1,1,残忍,,,,,,,,,0,130,130,40,,,,,,,,,,,,,,,,,moral_self_bias,21,20,59.9984264786,m,001,2018_Apr_02_1723,
,,,,,,,,,,,,,,,,,,,,,,material/63.png,1,正义,material/166.png,1,material/66.png,仗义,1,f,f,f,1,1,1,文明,,,,,,,,,0,131,131,145,,,,,,,,,,,j,0,1.0082449913,,,,moral_self_bias,21,20,59.9984264786,m,001,2018_Apr_02_1723,
,,,,,,,,,,,,,,,,,,,,,,material/173.png,2,不义,material/174.png,2,material/174.png,不义,2,f,f,f,1,1,1,黑心,,,,,,,,,0,132,132,153,0,0,0,0,,,,,,,f,1,1.1919798851,j,1,0.425055027008,moral_self_bias,21,20,59.9984264786,m,001,2018_Apr_02_1723,
,,,,,,,,,,,,,,,,,,,,,,material/173.png,2,不义,material/174.png,2,material/174.png,不义,2,f,f,f,1,1,1,黑心,,,,,,,,,0,132,132,153,,,,,,,,,,,,,,,,,moral_self_bias,21,20,59.9984264786,m,001,2018_Apr_02_1723,
,,,,,,,,,,,,,,,,,,,,,,material/29.png,1,好学,material/129.png,1,material/29.png,好问,1,f,f,f,2,2,2,好学,,,,,,,,,0,133,133,108,,,,,,,,,,,j,0,0.80872797966,,,,moral_self_bias,21,20,59.9984264786,m,001,2018_Apr_02_1723,
,,,,,,,,,,,,,,,,,,,,,,material/128.png,1,自律,material/28.png,1,material/128.png,克己,1,j,j,j,2,2,2,自律,,,,,,,,,0,134,134,27,0,0,0,0,,,,,,,f,0,1.72503685951,f,0,1.02480316162,moral_self_bias,21,20,59.9984264786,m,001,2018_Apr_02_1723,
,,,,,,,,,,,,,,,,,,,,,,material/128.png,1,自律,material/28.png,1,material/128.png,克己,1,j,j,j,2,2,2,自律,,,,,,,,,0,134,134,27,,,,,,,,,,,,,,,,,moral_self_bias,21,20,59.9984264786,m,001,2018_Apr_02_1723,
,,,,,,,,,,,,,,,,,,,,,,material/26.png,1,刻苦,material/126.png,1,material/26.png,勤快,1,f,f,f,2,2,2,刻苦,,,,,,,,,0,135,135,105,,,,,,,,,,,j,0,1.024736166,,,,moral_self_bias,21,20,59.9984264786,m,001,2018_Apr_02_1723,
,,,,,,,,,,,,,,,,,,,,,,material/165.png,1,平等,material/161.png,1,material/61.png,勇敢,1,f,f,f,1,1,1,独立,,,,,,,,,0,136,136,140,,,,,,,,,,,j,0,0.558057069778,,,,moral_self_bias,21,20,59.9984264786,m,001,2018_Apr_02_1723,
,,,,,,,,,,,,,,,,,,,,,,material/142.png,2,阴险,material/42.png,2,material/42.png,阴险,2,j,j,j,1,1,1,奸诈,,,,,,,,,0,137,137,41,,,,,,,,,,,j,1,0.541259050369,,,,moral_self_bias,21,20,59.9984264786,m,001,2018_Apr_02_1723,
,,,,,,,,,,,,,,,,,,,,,,material/127.png,1,超群,material/27.png,1,material/127.png,卓越,1,j,j,j,2,2,2,超群,,,,,,,,,0,138,138,26,,,,,,,,,,,j,1,0.574208021164,,,,moral_self_bias,21,20,59.9984264786,m,001,2018_Apr_02_1723,
,,,,,,,,,,,,,,,,,,,,,,material/110.png,1,顽强,material/10.png,1,material/10.png,顽强,1,j,j,j,1,1,1,坚毅,,,,,,,,,0,139,139,9,,,,,,,,,,,j,1,1.50800585747,,,,moral_self_bias,21,20,59.9984264786,m,001,2018_Apr_02_1723,
,,,,,,,,,,,,,,,,,,,,,,material/118.png,1,机敏,material/18.png,1,material/118.png,敏锐,1,j,j,j,2,2,2,机敏,,,,,,,,,0,140,140,17,0,0,0,0,,,,,,,f,0,1.34235095978,f,0,0.242274999619,moral_self_bias,21,20,59.9984264786,m,001,2018_Apr_02_1723,
,,,,,,,,,,,,,,,,,,,,,,material/118.png,1,机敏,material/18.png,1,material/118.png,敏锐,1,j,j,j,2,2,2,机敏,,,,,,,,,0,140,140,17,,,,,,,,,,,,,,,,,moral_self_bias,21,20,59.9984264786,m,001,2018_Apr_02_1723,
,,,,,,,,,,,,,,,,,,,,,,material/176.png,2,害人,material/75.png,2,material/75.png,害人,2,j,j,j,1,1,1,放纵,,,,,,,,,0,141,141,71,,,,,,,,,,,j,1,0.642477989197,,,,moral_self_bias,21,20,59.9984264786,m,001,2018_Apr_02_1723,
,,,,,,,,,,,,,,,,,,,,,,material/145.png,2,下流,material/45.png,2,material/45.png,下流,2,j,j,j,1,1,1,小人,,,,,,,,,0,142,142,44,,,,,,,,,,,j,1,0.508106946945,,,,moral_self_bias,21,20,59.9984264786,m,001,2018_Apr_02_1723,
,,,,,,,,,,,,,,,,,,,,,,material/140.png,2,邪恶,material/40.png,2,material/40.png,邪恶,2,j,j,j,1,1,1,狠毒,,,,,,,,,0,143,143,39,,,,,,,,,,,j,1,0.492048025131,,,,moral_self_bias,21,20,59.9984264786,m,001,2018_Apr_02_1723,
,,,,,,,,,,,,,,,,,,,,,,material/61.png,1,仗义,material/65.png,1,material/166.png,谦虚,1,j,j,j,1,1,1,平等,,,,,,,,,0,144,144,64,0,0,0,0,,,,,,,f,0,1.20815992355,f,0,0.191162109375,moral_self_bias,21,20,59.9984264786,m,001,2018_Apr_02_1723,
,,,,,,,,,,,,,,,,,,,,,,material/61.png,1,仗义,material/65.png,1,material/166.png,谦虚,1,j,j,j,1,1,1,平等,,,,,,,,,0,144,144,64,,,,,,,,,,,,,,,,,moral_self_bias,21,20,59.9984264786,m,001,2018_Apr_02_1723,
,,,,,,,,,,,,,,,,,,,,,,material/171.png,1,高效,material/67.png,1,material/171.png,骁勇,1,j,j,j,2,2,2,高效,,,,,,,,,0,145,145,65,,,,,,,,,,,j,1,0.691019058228,,,,moral_self_bias,21,20,59.9984264786,m,001,2018_Apr_02_1723,
,,,,,,,,,,,,,,,,,,,,,,material/130.png,1,进取,material/30.png,1,material/130.png,上进,1,j,j,j,2,2,2,进取,,,,,,,,,0,146,146,29,,,,,,,,,,,j,1,0.625579118729,,,,moral_self_bias,21,20,59.9984264786,m,001,2018_Apr_02_1723,
,,,,,,,,,,,,,,,,,,,,,,material/36.png,2,撒谎,material/136.png,2,material/136.png,撒谎,2,f,f,f,1,1,1,说谎,,,,,,,,,0,147,147,115,0,0,0,0,,,,,,,f,1,1.54103899002,j,1,0.225440979004,moral_self_bias,21,20,59.9984264786,m,001,2018_Apr_02_1723,
,,,,,,,,,,,,,,,,,,,,,,material/36.png,2,撒谎,material/136.png,2,material/136.png,撒谎,2,f,f,f,1,1,1,说谎,,,,,,,,,0,147,147,115,,,,,,,,,,,,,,,,,moral_self_bias,21,20,59.9984264786,m,001,2018_Apr_02_1723,
,,,,,,,,,,,,,,,,,,,,,,material/111.png,1,高雅,material/11.png,1,material/11.png,高雅,1,j,j,j,1,1,1,高尚,,,,,,,,,0,148,148,10,,,,,,,,,,,j,1,1.92485904694,,,,moral_self_bias,21,20,59.9984264786,m,001,2018_Apr_02_1723,
,,,,,,,,,,,,,,,,,,,,,,material/41.png,2,残忍,material/141.png,2,material/141.png,残忍,2,f,f,f,1,1,1,歹毒,,,,,,,,,0,149,149,120,0,0,0,0,,,,,,,f,1,1.27508592606,j,1,0.144670963287,moral_self_bias,21,20,59.9984264786,m,001,2018_Apr_02_1723,
,,,,,,,,,,,,,,,,,,,,,,material/41.png,2,残忍,material/141.png,2,material/141.png,残忍,2,f,f,f,1,1,1,歹毒,,,,,,,,,0,149,149,120,,,,,,,,,,,,,,,,,moral_self_bias,21,20,59.9984264786,m,001,2018_Apr_02_1723,
,,,,,,,,,,,,,,,,,,,,,,material/148.png,2,笨蛋,material/48.png,2,material/148.png,愚蠢,2,j,j,j,2,2,2,笨蛋,,,,,,,,,0,150,150,47,0,0,0,0,,,,,,,f,0,2.55927300453,j,1,0.109354019165,moral_self_bias,21,20,59.9984264786,m,001,2018_Apr_02_1723,
,,,,,,,,,,,,,,,,,,,,,,material/148.png,2,笨蛋,material/48.png,2,material/148.png,愚蠢,2,j,j,j,2,2,2,笨蛋,,,,,,,,,0,150,150,47,,,,,,,,,,,,,,,,,moral_self_bias,21,20,59.9984264786,m,001,2018_Apr_02_1723,
,,,,,,,,,,,,,,,,,,,,,,material/124.png,1,冷静,material/24.png,1,material/124.png,理智,1,j,j,j,2,2,2,冷静,,,,,,,,,0,151,151,23,0,0,0,0,,,,,,,f,0,1.14205408096,f,0,0.156846046448,moral_self_bias,21,20,59.9984264786,m,001,2018_Apr_02_1723,
,,,,,,,,,,,,,,,,,,,,,,material/124.png,1,冷静,material/24.png,1,material/124.png,理智,1,j,j,j,2,2,2,冷静,,,,,,,,,0,151,151,23,,,,,,,,,,,,,,,,,moral_self_bias,21,20,59.9984264786,m,001,2018_Apr_02_1723,
,,,,,,,,,,,,,,,,,,,,,,material/136.png,2,说谎,material/36.png,2,material/36.png,说谎,2,j,j,j,1,1,1,撒谎,,,,,,,,,0,152,152,35,0,0,0,0,,,,,,,f,0,0.708432912827,f,0,0.600566864014,moral_self_bias,21,20,59.9984264786,m,001,2018_Apr_02_1723,
,,,,,,,,,,,,,,,,,,,,,,material/136.png,2,说谎,material/36.png,2,material/36.png,说谎,2,j,j,j,1,1,1,撒谎,,,,,,,,,0,152,152,35,,,,,,,,,,,,,,,,,moral_self_bias,21,20,59.9984264786,m,001,2018_Apr_02_1723,
,,,,,,,,,,,,,,,,,,,,,,material/73.png,2,恶心,material/177.png,2,material/177.png,恶心,2,f,f,f,1,1,1,残虐,,,,,,,,,0,153,153,156,0,0,0,0,,,,,,,f,1,3.23948001862,j,1,0.807671070099,moral_self_bias,21,20,59.9984264786,m,001,2018_Apr_02_1723,
,,,,,,,,,,,,,,,,,,,,,,material/73.png,2,恶心,material/177.png,2,material/177.png,恶心,2,f,f,f,1,1,1,残虐,,,,,,,,,0,153,153,156,,,,,,,,,,,,,,,,,moral_self_bias,21,20,59.9984264786,m,001,2018_Apr_02_1723,
,,,,,,,,,,,,,,,,,,,,,,material/126.png,1,勤快,material/26.png,1,material/126.png,刻苦,1,j,j,j,2,2,2,勤快,,,,,,,,,0,154,154,25,0,0,0,0,,,,,,,f,0,2.59087896347,f,0,0.191949129105,moral_self_bias,21,20,59.9984264786,m,001,2018_Apr_02_1723,
,,,,,,,,,,,,,,,,,,,,,,material/126.png,1,勤快,material/26.png,1,material/126.png,刻苦,1,j,j,j,2,2,2,勤快,,,,,,,,,0,154,154,25,,,,,,,,,,,,,,,,,moral_self_bias,21,20,59.9984264786,m,001,2018_Apr_02_1723,
,,,,,,,,,,,,,,,,,,,,,,material/75.png,2,卑劣,material/74.png,2,material/74.png,卑劣,2,j,j,j,1,1,1,害人,,,,,,,,,0,155,155,70,,,,,,,,,,,j,1,0.691551923752,,,,moral_self_bias,21,20,59.9984264786,m,001,2018_Apr_02_1723,
,,,,,,,,,,,,,,,,,,,,,,material/167.png,1,高手,material/169.png,1,material/167.png,颖悟,1,f,f,f,2,2,2,高手,,,,,,,,,0,156,156,148,,,,,,,,,,,j,0,1.17505788803,,,,moral_self_bias,21,20,59.9984264786,m,001,2018_Apr_02_1723,
,,,,,,,,,,,,,,,,,,,,,,material/59.png,2,智障,material/159.png,2,material/59.png,弱智,2,f,f,f,2,2,2,智障,,,,,,,,,0,157,157,138,,,,,,,,,,,j,0,0.575455904007,,,,moral_self_bias,21,20,59.9984264786,m,001,2018_Apr_02_1723,
,,,,,,,,,,,,,,,,,,,,,,material/62.png,1,坚韧,material/162.png,1,material/62.png,敬业,1,f,f,f,1,1,1,坚韧,,,,,,,,,0,158,158,141,,,,,,,,,,,j,0,1.30785703659,,,,moral_self_bias,21,20,59.9984264786,m,001,2018_Apr_02_1723,
,,,,,,,,,,,,,,,,,,,,,,material/67.png,1,骁勇,material/70.png,1,material/67.png,全面,1,j,j,j,2,2,2,骁勇,,,,,,,,,0,159,159,67,0,0,0,0,,,,,,,f,0,1.02477407455,f,0,0.274245977402,moral_self_bias,21,20,59.9984264786,m,001,2018_Apr_02_1723,
,,,,,,,,,,,,,,,,,,,,,,material/67.png,1,骁勇,material/70.png,1,material/67.png,全面,1,j,j,j,2,2,2,骁勇,,,,,,,,,0,159,159,67,,,,,,,,,,,,,,,,,moral_self_bias,21,20,59.9984264786,m,001,2018_Apr_02_1723,
,,,,,,,,,,,,,,,,,,,,,,material/30.png,1,上进,material/130.png,1,material/30.png,进取,1,f,f,f,2,2,2,上进,,,,,,,,,0,160,160,109,0,0,0,0,,,,,,,f,1,0.806968927383,f,0,0.1583070755,moral_self_bias,21,20,59.9984264786,m,001,2018_Apr_02_1723,
,,,,,,,,,,,,,,,,,,,,,,material/30.png,1,上进,material/130.png,1,material/30.png,进取,1,f,f,f,2,2,2,上进,,,,,,,,,0,160,160,109,,,,,,,,,,,,,,,,,moral_self_bias,21,20,59.9984264786,m,001,2018_Apr_02_1723,
,,,,,,,,,,,,,,,,,,,,,,material/125.png,1,果敢,material/25.png,1,material/125.png,果断,1,j,j,j,2,2,2,果敢,,,,,,,,,0,161,161,24,0,0,0,0,,,,,,,f,0,0.841149091721,f,0,0.141362190247,moral_self_bias,21,20,59.9984264786,m,001,2018_Apr_02_1723,
,,,,,,,,,,,,,,,,,,,,,,material/125.png,1,果敢,material/25.png,1,material/125.png,果断,1,j,j,j,2,2,2,果敢,,,,,,,,,0,161,161,24,,,,,,,,,,,,,,,,,moral_self_bias,21,20,59.9984264786,m,001,2018_Apr_02_1723,
,,,,,,,,,,,,,,,,,,,,,,material/56.png,2,愚昧,material/156.png,2,material/56.png,愚钝,2,f,f,f,2,2,2,愚昧,,,,,,,,,0,162,162,135,0,0,0,0,,,,,,,f,1,1.06763386726,j,1,0.0920641422272,moral_self_bias,21,20,59.9984264786,m,001,2018_Apr_02_1723,
,,,,,,,,,,,,,,,,,,,,,,material/56.png,2,愚昧,material/156.png,2,material/56.png,愚钝,2,f,f,f,2,2,2,愚昧,,,,,,,,,0,162,162,135,,,,,,,,,,,,,,,,,moral_self_bias,21,20,59.9984264786,m,001,2018_Apr_02_1723,
,,,,,,,,,,,,,,,,,,,,,,material/23.png,1,有才,material/123.png,1,material/23.png,多才,1,f,f,f,2,2,2,有才,,,,,,,,,0,163,163,102,0,0,0,0,,,,,,,f,1,1.60852098465,f,0,0.157816886902,moral_self_bias,21,20,59.9984264786,m,001,2018_Apr_02_1723,
,,,,,,,,,,,,,,,,,,,,,,material/23.png,1,有才,material/123.png,1,material/23.png,多才,1,f,f,f,2,2,2,有才,,,,,,,,,0,163,163,102,,,,,,,,,,,,,,,,,moral_self_bias,21,20,59.9984264786,m,001,2018_Apr_02_1723,
,,,,,,,,,,,,,,,,,,,,,,material/46.png,2,自私,material/146.png,2,material/146.png,自私,2,f,f,f,1,1,1,小气,,,,,,,,,0,164,164,125,0,0,0,0,,,,,,,f,1,0.790699958801,f,0,0.17483496666,moral_self_bias,21,20,59.9984264786,m,001,2018_Apr_02_1723,
,,,,,,,,,,,,,,,,,,,,,,material/46.png,2,自私,material/146.png,2,material/146.png,自私,2,f,f,f,1,1,1,小气,,,,,,,,,0,164,164,125,,,,,,,,,,,,,,,,,moral_self_bias,21,20,59.9984264786,m,001,2018_Apr_02_1723,
,,,,,,,,,,,,,,,,,,,,,,material/11.png,1,高尚,material/111.png,1,material/111.png,高尚,1,f,f,f,1,1,1,高雅,,,,,,,,,0,165,165,90,0,0,0,0,,,,,,,f,1,1.09175777435,f,0,0.19127702713,moral_self_bias,21,20,59.9984264786,m,001,2018_Apr_02_1723,
,,,,,,,,,,,,,,,,,,,,,,material/11.png,1,高尚,material/111.png,1,material/111.png,高尚,1,f,f,f,1,1,1,高雅,,,,,,,,,0,165,165,90,,,,,,,,,,,,,,,,,moral_self_bias,21,20,59.9984264786,m,001,2018_Apr_02_1723,
,,,,,,,,,,,,,,,,,,,,,,material/32.png,2,背叛,material/132.png,2,material/132.png,背叛,2,f,f,f,1,1,1,不忠,,,,,,,,,0,166,166,111,0,0,0,0,,,,,,,f,1,0.990648984909,j,1,0.0586409568787,moral_self_bias,21,20,59.9984264786,m,001,2018_Apr_02_1723,
,,,,,,,,,,,,,,,,,,,,,,material/32.png,2,背叛,material/132.png,2,material/132.png,背叛,2,f,f,f,1,1,1,不忠,,,,,,,,,0,166,166,111,,,,,,,,,,,,,,,,,moral_self_bias,21,20,59.9984264786,m,001,2018_Apr_02_1723,
,,,,,,,,,,,,,,,,,,,,,,material/37.png,2,卑鄙,material/137.png,2,material/137.png,卑鄙,2,f,f,f,1,1,1,无耻,,,,,,,,,0,167,167,116,0,0,0,0,,,,,,,f,1,6.0640308857,j,1,0.691669940948,moral_self_bias,21,20,59.9984264786,m,001,2018_Apr_02_1723,
,,,,,,,,,,,,,,,,,,,,,,material/37.png,2,卑鄙,material/137.png,2,material/137.png,卑鄙,2,f,f,f,1,1,1,无耻,,,,,,,,,0,167,167,116,,,,,,,,,,,,,,,,,moral_self_bias,21,20,59.9984264786,m,001,2018_Apr_02_1723,
