Block1_Old,Num_Source3,Num_Source2,Num_Source1,valence1,valence2,valence3,Num_Old2,Corr_S1,Num_Old1,Corr_S3,Corr_S2,Block3_Old,Block2_Old,Source_2,Source_3,Source_1,domain3,domain2,domain1,Num_Old3,math,Num_All2,valence_all1,All_Words3,Num_All1,valence_all2,Num_All3,All_Words1,valence_all3,Corr_Rec2,Corr_Rec3,Corr_Rec1,domian_all3,domian_all2,domian_all1,All_Words2,trials.thisRepN,trials.thisTrialN,trials.thisN,trials.thisIndex,trials_2.thisRepN,trials_2.thisTrialN,trials_2.thisN,trials_2.thisIndex,trials_4.thisRepN,trials_4.thisTrialN,trials_4.thisN,trials_4.thisIndex,trials_3.thisRepN,trials_3.thisTrialN,trials_3.thisN,trials_3.thisIndex,block_resp_1.keys,block_resp_1.rt,words_rating.keys,words_rating.rt,block_resp_2.keys,block_resp_2.rt,Rec_resp.keys,Rec_resp.corr,Rec_resp.rt,Source_resp.keys,Source_resp.corr,Source_resp.rt,expName,participant,Age,frameRate,Sex,session,date,
,,,,,,,,,,,,,,,,,,,,,,,,,,,,,,,,,,,,,,,,,,,,,,,,,,,,,2,35.5591299534,,,,,,,,,,,moral_self_bias,23,19,59.9980831759,f,001,2018_Apr_02_1802,
高效,material/instr2_1.png,material/instr2_1.png,material/instr2_1.png,1,1,1,material/169.png,f,material/171.png,f,f,颖悟,颖悟,self,self,self,2,2,2,material/169.png,,,,,,,,,,,,,,,,,0,0,0,70,,,,,,,,,,,,,,,4,2.65875387192,,,,,,,,,moral_self_bias,23,19,59.9980831759,f,001,2018_Apr_02_1802,
超群,material/instr2_2.png,material/instr2_2.png,material/instr2_2.png,1,1,1,material/27.png,j,material/127.png,j,j,卓越,卓越,friend,friend,friend,2,2,2,material/27.png,,,,,,,,,,,,,,,,,0,1,1,26,,,,,,,,,,,,,,,4,2.55026292801,,,,,,,,,moral_self_bias,23,19,59.9980831759,f,001,2018_Apr_02_1802,
缺德,material/instr2_2.png,material/instr2_2.png,material/instr2_2.png,2,2,2,material/38.png,j,material/138.png,j,j,缺德,无德,friend,friend,friend,1,1,1,material/138.png,,,,,,,,,,,,,,,,,0,2,2,37,,,,,,,,,,,,,,,1,1.29217219353,,,,,,,,,moral_self_bias,23,19,59.9980831759,f,001,2018_Apr_02_1802,
狠毒,material/instr2_2.png,material/instr2_2.png,material/instr2_2.png,2,2,2,material/40.png,j,material/140.png,j,j,狠毒,邪恶,friend,friend,friend,1,1,1,material/140.png,,,,,,,,,,,,,,,,,0,3,3,39,,,,,,,,,,,,,,,2,1.57518911362,,,,,,,,,moral_self_bias,23,19,59.9980831759,f,001,2018_Apr_02_1802,
虚荣,material/instr2_1.png,material/instr2_1.png,material/instr2_1.png,2,2,2,material/43.png,f,material/143.png,f,f,虚荣,拜金,self,self,self,1,1,1,material/143.png,,,,,,,,,,,,,,,,,0,4,4,42,,,,,,,,,,,,,,,None,,,,,,,,,,moral_self_bias,23,19,59.9980831759,f,001,2018_Apr_02_1802,
笨拙,material/instr2_1.png,material/instr2_1.png,material/instr2_1.png,2,2,2,material/60.png,f,material/160.png,f,f,粗拙,粗拙,self,self,self,2,2,2,material/60.png,,,,,,,,,,,,,,,,,0,5,5,59,,,,,,,,,,,,,,,4,2.27537417412,,,,,,,,,moral_self_bias,23,19,59.9980831759,f,001,2018_Apr_02_1802,
顽愚,material/instr2_1.png,material/instr2_1.png,material/instr2_1.png,2,2,2,material/84.png,f,material/84.png,f,f,犹豫,顽愚,self,self,self,2,2,2,material/181.png,,,,,,,,,,,,,,,,,0,6,6,87,,,,,,,,,,,,,,,2,1.79212379456,,,,,,,,,moral_self_bias,23,19,59.9980831759,f,001,2018_Apr_02_1802,
高明,material/instr2_1.png,material/instr2_1.png,material/instr2_1.png,1,1,1,material/69.png,f,material/69.png,f,f,高明,高明,self,self,self,2,2,2,material/69.png,,,,,,,,,,,,,,,,,0,7,7,86,,,,,,,,,,,,,,,4,1.50892496109,,,,,,,,,moral_self_bias,23,19,59.9980831759,f,001,2018_Apr_02_1802,
愚钝,material/instr2_1.png,material/instr2_1.png,material/instr2_1.png,2,2,2,material/56.png,f,material/156.png,f,f,愚昧,愚昧,self,self,self,2,2,2,material/56.png,,,,,,,,,,,,,,,,,0,8,8,55,,,,,,,,,,,,,,,4,1.44198918343,,,,,,,,,moral_self_bias,23,19,59.9980831759,f,001,2018_Apr_02_1802,
仗义,material/instr2_1.png,material/instr2_1.png,material/instr2_1.png,1,1,1,material/63.png,f,material/166.png,f,f,正义,文明,self,self,self,1,1,1,material/66.png,,,,,,,,,,,,,,,,,0,9,9,65,,,,,,,,,,,,,,,5,1.57544517517,,,,,,,,,moral_self_bias,23,19,59.9980831759,f,001,2018_Apr_02_1802,
勇敢,material/instr2_2.png,material/instr2_2.png,material/instr2_2.png,1,1,1,material/165.png,j,material/161.png,j,j,平等,独立,friend,friend,friend,1,1,1,material/61.png,,,,,,,,,,,,,,,,,0,10,10,60,,,,,,,,,,,,,,,5,1.54203701019,,,,,,,,,moral_self_bias,23,19,59.9980831759,f,001,2018_Apr_02_1802,
迟钝,material/instr2_1.png,material/instr2_1.png,material/instr2_1.png,2,2,2,material/53.png,f,material/153.png,f,f,迟缓,迟缓,self,self,self,2,2,2,material/53.png,,,,,,,,,,,,,,,,,0,11,11,52,,,,,,,,,,,,,,,5,1.14999604225,,,,,,,,,moral_self_bias,23,19,59.9980831759,f,001,2018_Apr_02_1802,
忠心,material/instr2_1.png,material/instr2_1.png,material/instr2_1.png,1,1,1,material/12.png,f,material/112.png,f,f,忠心,忠诚,self,self,self,1,1,1,material/112.png,,,,,,,,,,,,,,,,,0,12,12,11,,,,,,,,,,,,,,,4,1.55901193619,,,,,,,,,moral_self_bias,23,19,59.9980831759,f,001,2018_Apr_02_1802,
无情,material/instr2_1.png,material/instr2_1.png,material/instr2_1.png,2,2,2,material/172.png,f,material/175.png,f,f,无情,浮夸,self,self,self,1,1,1,material/175.png,,,,,,,,,,,,,,,,,0,13,13,74,,,,,,,,,,,,,,,3,2.62636613846,,,,,,,,,moral_self_bias,23,19,59.9980831759,f,001,2018_Apr_02_1802,
正直,material/instr2_2.png,material/instr2_2.png,material/instr2_2.png,1,1,1,material/9.png,j,material/109.png,j,j,正直,秉直,friend,friend,friend,1,1,1,material/109.png,,,,,,,,,,,,,,,,,0,14,14,8,,,,,,,,,,,,,,,4,1.65845108032,,,,,,,,,moral_self_bias,23,19,59.9980831759,f,001,2018_Apr_02_1802,
冷静,material/instr2_1.png,material/instr2_1.png,material/instr2_1.png,1,1,1,material/24.png,f,material/124.png,f,f,理智,理智,self,self,self,2,2,2,material/24.png,,,,,,,,,,,,,,,,,0,15,15,23,,,,,,,,,,,,,,,4,1.3089389801,,,,,,,,,moral_self_bias,23,19,59.9980831759,f,001,2018_Apr_02_1802,
能干,material/instr2_2.png,material/instr2_2.png,material/instr2_2.png,1,1,1,material/20.png,j,material/120.png,j,j,厉害,厉害,friend,friend,friend,2,2,2,material/20.png,,,,,,,,,,,,,,,,,0,16,16,19,,,,,,,,,,,,,,,5,1.25856399536,,,,,,,,,moral_self_bias,23,19,59.9980831759,f,001,2018_Apr_02_1802,
黑心,material/instr2_2.png,material/instr2_2.png,material/instr2_2.png,2,2,2,material/74.png,j,material/173.png,j,j,黑心,卑劣,friend,friend,friend,1,1,1,material/173.png,,,,,,,,,,,,,,,,,0,17,17,72,,,,,,,,,,,,,,,1,0.992617845535,,,,,,,,,moral_self_bias,23,19,59.9980831759,f,001,2018_Apr_02_1802,
高手,material/instr2_2.png,material/instr2_2.png,material/instr2_2.png,1,1,1,material/68.png,j,material/167.png,j,j,广博,广博,friend,friend,friend,2,2,2,material/68.png,,,,,,,,,,,,,,,,,0,18,18,66,,,,,,,,,,,,,,,4,1.89982390404,,,,,,,,,moral_self_bias,23,19,59.9980831759,f,001,2018_Apr_02_1802,
进取,material/instr2_1.png,material/instr2_1.png,material/instr2_1.png,1,1,1,material/30.png,f,material/130.png,f,f,上进,上进,self,self,self,2,2,2,material/30.png,,,,,,,,,,,,,,,,,0,19,19,29,,,,,,,,,,,,,,,4,1.44275093079,,,,,,,,,moral_self_bias,23,19,59.9980831759,f,001,2018_Apr_02_1802,
无能,material/instr2_2.png,material/instr2_2.png,material/instr2_2.png,2,2,2,material/57.png,j,material/157.png,j,j,无知,无知,friend,friend,friend,2,2,2,material/57.png,,,,,,,,,,,,,,,,,0,20,20,56,,,,,,,,,,,,,,,1,0.942412853241,,,,,,,,,moral_self_bias,23,19,59.9980831759,f,001,2018_Apr_02_1802,
怠惰,material/instr2_2.png,material/instr2_2.png,material/instr2_2.png,2,2,2,material/181.png,j,material/180.png,j,j,怠惰,犹豫,friend,friend,friend,2,2,2,material/180.png,,,,,,,,,,,,,,,,,0,21,21,79,,,,,,,,,,,,,,,2,1.34143805504,,,,,,,,,moral_self_bias,23,19,59.9980831759,f,001,2018_Apr_02_1802,
多才,material/instr2_1.png,material/instr2_1.png,material/instr2_1.png,1,1,1,material/23.png,f,material/123.png,f,f,有才,有才,self,self,self,2,2,2,material/23.png,,,,,,,,,,,,,,,,,0,22,22,22,,,,,,,,,,,,,,,3,1.24187111855,,,,,,,,,moral_self_bias,23,19,59.9980831759,f,001,2018_Apr_02_1802,
可恶,material/instr2_1.png,material/instr2_1.png,material/instr2_1.png,2,2,2,material/34.png,f,material/134.png,f,f,可恶,可恨,self,self,self,1,1,1,material/134.png,,,,,,,,,,,,,,,,,0,23,23,33,,,,,,,,,,,,,,,2,1.57519698143,,,,,,,,,moral_self_bias,23,19,59.9980831759,f,001,2018_Apr_02_1802,
无私,material/instr2_2.png,material/instr2_2.png,material/instr2_2.png,1,1,1,material/8.png,j,material/108.png,j,j,无私,公道,friend,friend,friend,1,1,1,material/108.png,,,,,,,,,,,,,,,,,0,24,24,7,,,,,,,,,,,,,,,4,1.29230189323,,,,,,,,,moral_self_bias,23,19,59.9980831759,f,001,2018_Apr_02_1802,
冷血,material/instr2_1.png,material/instr2_1.png,material/instr2_1.png,2,2,2,material/35.png,f,material/135.png,f,f,冷血,冷漠,self,self,self,1,1,1,material/135.png,,,,,,,,,,,,,,,,,0,25,25,34,,,,,,,,,,,,,,,3,1.5924179554,,,,,,,,,moral_self_bias,23,19,59.9980831759,f,001,2018_Apr_02_1802,
诚信,material/instr2_1.png,material/instr2_1.png,material/instr2_1.png,1,1,1,material/5.png,f,material/105.png,f,f,诚信,守信,self,self,self,1,1,1,material/105.png,,,,,,,,,,,,,,,,,0,26,26,4,,,,,,,,,,,,,,,4,1.18282389641,,,,,,,,,moral_self_bias,23,19,59.9980831759,f,001,2018_Apr_02_1802,
正义,material/instr2_1.png,material/instr2_1.png,material/instr2_1.png,1,1,1,material/66.png,f,material/66.png,f,f,独立,正义,self,self,self,1,1,1,material/165.png,,,,,,,,,,,,,,,,,0,27,27,84,,,,,,,,,,,,,,,4,0.94206905365,,,,,,,,,moral_self_bias,23,19,59.9980831759,f,001,2018_Apr_02_1802,
贪污,material/instr2_1.png,material/instr2_1.png,material/instr2_1.png,2,2,2,material/33.png,f,material/133.png,f,f,贪污,腐败,self,self,self,1,1,1,material/133.png,,,,,,,,,,,,,,,,,0,28,28,32,,,,,,,,,,,,,,,2,1.32596492767,,,,,,,,,moral_self_bias,23,19,59.9980831759,f,001,2018_Apr_02_1802,
纯洁,material/instr2_2.png,material/instr2_2.png,material/instr2_2.png,1,1,1,material/15.png,j,material/115.png,j,j,纯洁,清白,friend,friend,friend,1,1,1,material/115.png,,,,,,,,,,,,,,,,,0,29,29,14,,,,,,,,,,,,,,,4,1.77665615082,,,,,,,,,moral_self_bias,23,19,59.9980831759,f,001,2018_Apr_02_1802,
勤快,material/instr2_2.png,material/instr2_2.png,material/instr2_2.png,1,1,1,material/26.png,j,material/126.png,j,j,刻苦,刻苦,friend,friend,friend,2,2,2,material/26.png,,,,,,,,,,,,,,,,,0,30,30,25,,,,,,,,,,,,,,,3,1.56667613983,,,,,,,,,moral_self_bias,23,19,59.9980831759,f,001,2018_Apr_02_1802,
缓慢,material/instr2_1.png,material/instr2_1.png,material/instr2_1.png,2,2,2,material/52.png,f,material/152.png,f,f,拖延,拖延,self,self,self,2,2,2,material/52.png,,,,,,,,,,,,,,,,,0,31,31,51,,,,,,,,,,,,,,,4,1.49143218994,,,,,,,,,moral_self_bias,23,19,59.9980831759,f,001,2018_Apr_02_1802,
坚忍,material/instr2_1.png,material/instr2_1.png,material/instr2_1.png,1,1,1,material/168.png,f,material/170.png,f,f,机变,机变,self,self,self,2,2,2,material/168.png,,,,,,,,,,,,,,,,,0,32,32,69,,,,,,,,,,,,,,,3,1.37494802475,,,,,,,,,moral_self_bias,23,19,59.9980831759,f,001,2018_Apr_02_1802,
浮夸,material/instr2_2.png,material/instr2_2.png,material/instr2_2.png,2,2,2,material/77.png,j,material/172.png,j,j,浮夸,软弱,friend,friend,friend,1,1,1,material/172.png,,,,,,,,,,,,,,,,,0,33,33,71,,,,,,,,,,,,,,,4,1.80879616737,,,,,,,,,moral_self_bias,23,19,59.9980831759,f,001,2018_Apr_02_1802,
坚毅,material/instr2_2.png,material/instr2_2.png,material/instr2_2.png,1,1,1,material/10.png,j,material/110.png,j,j,坚毅,顽强,friend,friend,friend,1,1,1,material/110.png,,,,,,,,,,,,,,,,,0,34,34,9,,,,,,,,,,,,,,,5,0.975924015045,,,,,,,,,moral_self_bias,23,19,59.9980831759,f,001,2018_Apr_02_1802,
博学,material/instr2_1.png,material/instr2_1.png,material/instr2_1.png,1,1,1,material/22.png,f,material/122.png,f,f,才学,才学,self,self,self,2,2,2,material/22.png,,,,,,,,,,,,,,,,,0,35,35,21,,,,,,,,,,,,,,,3,2.52602791786,,,,,,,,,moral_self_bias,23,19,59.9980831759,f,001,2018_Apr_02_1802,
不义,material/instr2_2.png,material/instr2_2.png,material/instr2_2.png,2,2,2,material/173.png,j,material/174.png,j,j,不义,黑心,friend,friend,friend,1,1,1,material/174.png,,,,,,,,,,,,,,,,,0,36,36,73,,,,,,,,,,,,,,,2,1.17527914047,,,,,,,,,moral_self_bias,23,19,59.9980831759,f,001,2018_Apr_02_1802,
恶毒,material/instr2_2.png,material/instr2_2.png,material/instr2_2.png,2,2,2,material/39.png,j,material/139.png,j,j,恶毒,凶残,friend,friend,friend,1,1,1,material/139.png,,,,,,,,,,,,,,,,,0,37,37,38,,,,,,,,,,,,,,,1,0.825630187988,,,,,,,,,moral_self_bias,23,19,59.9980831759,f,001,2018_Apr_02_1802,
廉明,material/instr2_2.png,material/instr2_2.png,material/instr2_2.png,1,1,1,material/13.png,j,material/113.png,j,j,廉明,廉洁,friend,friend,friend,1,1,1,material/113.png,,,,,,,,,,,,,,,,,0,38,38,12,,,,,,,,,,,,,,,4,1.27533602715,,,,,,,,,moral_self_bias,23,19,59.9980831759,f,001,2018_Apr_02_1802,
独立,material/instr2_1.png,material/instr2_1.png,material/instr2_1.png,1,1,1,material/64.png,f,material/165.png,f,f,谦虚,奉献,self,self,self,1,1,1,material/65.png,,,,,,,,,,,,,,,,,0,39,39,64,,,,,,,,,,,,,,,4,1.50849199295,,,,,,,,,moral_self_bias,23,19,59.9980831759,f,001,2018_Apr_02_1802,
宽容,material/instr2_2.png,material/instr2_2.png,material/instr2_2.png,1,1,1,material/163.png,j,material/163.png,j,j,文明,宽容,friend,friend,friend,1,1,1,material/63.png,,,,,,,,,,,,,,,,,0,40,40,62,,,,,,,,,,,,,,,5,1.05856084824,,,,,,,,,moral_self_bias,23,19,59.9980831759,f,001,2018_Apr_02_1802,
依靠,material/instr2_1.png,material/instr2_1.png,material/instr2_1.png,2,2,2,material/54.png,f,material/154.png,f,f,依赖,依赖,self,self,self,2,2,2,material/54.png,,,,,,,,,,,,,,,,,0,41,41,53,,,,,,,,,,,,,,,4,1.34178900719,,,,,,,,,moral_self_bias,23,19,59.9980831759,f,001,2018_Apr_02_1802,
厌学,material/instr2_2.png,material/instr2_2.png,material/instr2_2.png,2,2,2,material/182.png,j,material/184.png,j,j,健忘,才尽,friend,friend,friend,2,2,2,material/80.png,,,,,,,,,,,,,,,,,0,42,42,83,,,,,,,,,,,,,,,2,1.68376922607,,,,,,,,,moral_self_bias,23,19,59.9980831759,f,001,2018_Apr_02_1802,
自律,material/instr2_2.png,material/instr2_2.png,material/instr2_2.png,1,1,1,material/28.png,j,material/128.png,j,j,克己,克己,friend,friend,friend,2,2,2,material/28.png,,,,,,,,,,,,,,,,,0,43,43,27,,,,,,,,,,,,,,,4,1.75768399239,,,,,,,,,moral_self_bias,23,19,59.9980831759,f,001,2018_Apr_02_1802,
恶心,material/instr2_1.png,material/instr2_1.png,material/instr2_1.png,2,2,2,material/73.png,f,material/177.png,f,f,恶心,残虐,self,self,self,1,1,1,material/177.png,,,,,,,,,,,,,,,,,0,44,44,76,,,,,,,,,,,,,,,1,0.824928045273,,,,,,,,,moral_self_bias,23,19,59.9980831759,f,001,2018_Apr_02_1802,
残虐,material/instr2_1.png,material/instr2_1.png,material/instr2_1.png,2,2,2,material/175.png,f,material/73.png,f,f,残虐,无情,self,self,self,1,1,1,material/73.png,,,,,,,,,,,,,,,,,0,45,45,85,,,,,,,,,,,,,,,3,2.35825896263,,,,,,,,,moral_self_bias,23,19,59.9980831759,f,001,2018_Apr_02_1802,
颖悟,material/instr2_2.png,material/instr2_2.png,material/instr2_2.png,1,1,1,material/167.png,j,material/169.png,j,j,高手,高手,friend,friend,friend,2,2,2,material/167.png,,,,,,,,,,,,,,,,,0,46,46,68,,,,,,,,,,,,,,,5,1.44245386124,,,,,,,,,moral_self_bias,23,19,59.9980831759,f,001,2018_Apr_02_1802,
爱心,material/instr2_1.png,material/instr2_1.png,material/instr2_1.png,1,1,1,material/2.png,f,material/102.png,f,f,爱心,善心,self,self,self,1,1,1,material/102.png,,,,,,,,,,,,,,,,,0,47,47,1,,,,,,,,,,,,,,,3,1.52562499046,,,,,,,,,moral_self_bias,23,19,59.9980831759,f,001,2018_Apr_02_1802,
高尚,material/instr2_1.png,material/instr2_1.png,material/instr2_1.png,1,1,1,material/11.png,f,material/111.png,f,f,高尚,高雅,self,self,self,1,1,1,material/111.png,,,,,,,,,,,,,,,,,0,48,48,10,,,,,,,,,,,,,,,3,1.32562017441,,,,,,,,,moral_self_bias,23,19,59.9980831759,f,001,2018_Apr_02_1802,
背叛,material/instr2_1.png,material/instr2_1.png,material/instr2_1.png,2,2,2,material/32.png,f,material/132.png,f,f,背叛,不忠,self,self,self,1,1,1,material/132.png,,,,,,,,,,,,,,,,,0,49,49,31,,,,,,,,,,,,,,,1,2.24236798286,,,,,,,,,moral_self_bias,23,19,59.9980831759,f,001,2018_Apr_02_1802,
友善,material/instr2_1.png,material/instr2_1.png,material/instr2_1.png,1,1,1,material/4.png,f,material/104.png,f,f,友善,友爱,self,self,self,1,1,1,material/104.png,,,,,,,,,,,,,,,,,0,50,50,3,,,,,,,,,,,,,,,4,1.54252910614,,,,,,,,,moral_self_bias,23,19,59.9980831759,f,001,2018_Apr_02_1802,
公平,material/instr2_2.png,material/instr2_2.png,material/instr2_2.png,1,1,1,material/7.png,j,material/107.png,j,j,公平,公正,friend,friend,friend,1,1,1,material/107.png,,,,,,,,,,,,,,,,,0,51,51,6,,,,,,,,,,,,,,,5,1.89202022552,,,,,,,,,moral_self_bias,23,19,59.9980831759,f,001,2018_Apr_02_1802,
白痴,material/instr2_2.png,material/instr2_2.png,material/instr2_2.png,2,2,2,material/49.png,j,material/149.png,j,j,痴呆,痴呆,friend,friend,friend,2,2,2,material/49.png,,,,,,,,,,,,,,,,,0,52,52,48,,,,,,,,,,,,,,,1,1.95877313614,,,,,,,,,moral_self_bias,23,19,59.9980831759,f,001,2018_Apr_02_1802,
刻板,material/instr2_2.png,material/instr2_2.png,material/instr2_2.png,2,2,2,material/47.png,j,material/147.png,j,j,死板,死板,friend,friend,friend,2,2,2,material/47.png,,,,,,,,,,,,,,,,,0,53,53,46,,,,,,,,,,,,,,,2,2.00830101967,,,,,,,,,moral_self_bias,23,19,59.9980831759,f,001,2018_Apr_02_1802,
犹豫,material/instr2_1.png,material/instr2_1.png,material/instr2_1.png,2,2,2,material/78.png,f,material/181.png,f,f,厌学,草率,self,self,self,2,2,2,material/184.png,,,,,,,,,,,,,,,,,0,54,54,80,,,,,,,,,,,,,,,3,2.07438898087,,,,,,,,,moral_self_bias,23,19,59.9980831759,f,001,2018_Apr_02_1802,
迷糊,material/instr2_2.png,material/instr2_2.png,material/instr2_2.png,2,2,2,material/51.png,j,material/151.png,j,j,糊涂,糊涂,friend,friend,friend,2,2,2,material/51.png,,,,,,,,,,,,,,,,,0,55,55,50,,,,,,,,,,,,,,,1,2.0760641098,,,,,,,,,moral_self_bias,23,19,59.9980831759,f,001,2018_Apr_02_1802,
爽约,material/instr2_2.png,material/instr2_2.png,material/instr2_2.png,2,2,2,material/44.png,j,material/144.png,j,j,爽约,失信,friend,friend,friend,1,1,1,material/144.png,,,,,,,,,,,,,,,,,0,56,56,43,,,,,,,,,,,,,,,1,1.45910716057,,,,,,,,,moral_self_bias,23,19,59.9980831759,f,001,2018_Apr_02_1802,
薄弱,material/instr2_1.png,material/instr2_1.png,material/instr2_1.png,2,2,2,material/82.png,f,material/183.png,f,f,毛糙,窝囊,self,self,self,2,2,2,material/178.png,,,,,,,,,,,,,,,,,0,57,57,82,,,,,,,,,,,,,,,1,1.59318900108,,,,,,,,,moral_self_bias,23,19,59.9980831759,f,001,2018_Apr_02_1802,
机灵,material/instr2_2.png,material/instr2_2.png,material/instr2_2.png,1,1,1,material/19.png,j,material/119.png,j,j,灵活,灵活,friend,friend,friend,2,2,2,material/19.png,,,,,,,,,,,,,,,,,0,58,58,18,,,,,,,,,,,,,,,4,1.90822005272,,,,,,,,,moral_self_bias,23,19,59.9980831759,f,001,2018_Apr_02_1802,
差生,material/instr2_2.png,material/instr2_2.png,material/instr2_2.png,2,2,2,material/81.png,j,material/179.png,j,j,呆笨,无助,friend,friend,friend,2,2,2,material/83.png,,,,,,,,,,,,,,,,,0,59,59,78,,,,,,,,,,,,,,,1,0.976213932037,,,,,,,,,moral_self_bias,23,19,59.9980831759,f,001,2018_Apr_02_1802,
聪颖,material/instr2_2.png,material/instr2_2.png,material/instr2_2.png,1,1,1,material/17.png,j,material/117.png,j,j,聪明,聪明,friend,friend,friend,2,2,2,material/17.png,,,,,,,,,,,,,,,,,0,60,60,16,,,,,,,,,,,,,,,5,1.508425951,,,,,,,,,moral_self_bias,23,19,59.9980831759,f,001,2018_Apr_02_1802,
毛糙,material/instr2_2.png,material/instr2_2.png,material/instr2_2.png,2,2,2,material/179.png,j,material/178.png,j,j,顽愚,差生,friend,friend,friend,2,2,2,material/84.png,,,,,,,,,,,,,,,,,0,61,61,77,,,,,,,,,,,,,,,1,1.04220509529,,,,,,,,,moral_self_bias,23,19,59.9980831759,f,001,2018_Apr_02_1802,
笨蛋,material/instr2_2.png,material/instr2_2.png,material/instr2_2.png,2,2,2,material/48.png,j,material/148.png,j,j,愚蠢,愚蠢,friend,friend,friend,2,2,2,material/48.png,,,,,,,,,,,,,,,,,0,62,62,47,,,,,,,,,,,,,,,1,0.966114044189,,,,,,,,,moral_self_bias,23,19,59.9980831759,f,001,2018_Apr_02_1802,
盲目,material/instr2_1.png,material/instr2_1.png,material/instr2_1.png,2,2,2,material/55.png,f,material/155.png,f,f,盲从,盲从,self,self,self,2,2,2,material/55.png,,,,,,,,,,,,,,,,,0,63,63,54,,,,,,,,,,,,,,,1,1.49160504341,,,,,,,,,moral_self_bias,23,19,59.9980831759,f,001,2018_Apr_02_1802,
撒谎,material/instr2_1.png,material/instr2_1.png,material/instr2_1.png,2,2,2,material/36.png,f,material/136.png,f,f,撒谎,说谎,self,self,self,1,1,1,material/136.png,,,,,,,,,,,,,,,,,0,64,64,35,,,,,,,,,,,,,,,2,1.37535810471,,,,,,,,,moral_self_bias,23,19,59.9980831759,f,001,2018_Apr_02_1802,
奸诈,material/instr2_1.png,material/instr2_1.png,material/instr2_1.png,2,2,2,material/42.png,f,material/142.png,f,f,奸诈,阴险,self,self,self,1,1,1,material/142.png,,,,,,,,,,,,,,,,,0,65,65,41,,,,,,,,,,,,,,,1,0.892241954803,,,,,,,,,moral_self_bias,23,19,59.9980831759,f,001,2018_Apr_02_1802,
好问,material/instr2_1.png,material/instr2_1.png,material/instr2_1.png,1,1,1,material/29.png,f,material/129.png,f,f,好学,好学,self,self,self,2,2,2,material/29.png,,,,,,,,,,,,,,,,,0,66,66,28,,,,,,,,,,,,,,,4,1.52487492561,,,,,,,,,moral_self_bias,23,19,59.9980831759,f,001,2018_Apr_02_1802,
笃行,material/instr2_1.png,material/instr2_1.png,material/instr2_1.png,1,1,1,material/31.png,f,material/131.png,f,f,笃学,笃学,self,self,self,2,2,2,material/31.png,,,,,,,,,,,,,,,,,0,67,67,30,,,,,,,,,,,,,,,1,1.06004190445,,,,,,,,,moral_self_bias,23,19,59.9980831759,f,001,2018_Apr_02_1802,
精干,material/instr2_1.png,material/instr2_1.png,material/instr2_1.png,1,1,1,material/21.png,f,material/121.png,f,f,干练,干练,self,self,self,2,2,2,material/21.png,,,,,,,,,,,,,,,,,0,68,68,20,,,,,,,,,,,,,,,4,1.74290394783,,,,,,,,,moral_self_bias,23,19,59.9980831759,f,001,2018_Apr_02_1802,
弱智,material/instr2_1.png,material/instr2_1.png,material/instr2_1.png,2,2,2,material/59.png,f,material/159.png,f,f,智障,智障,self,self,self,2,2,2,material/59.png,,,,,,,,,,,,,,,,,0,69,69,58,,,,,,,,,,,,,,,1,1.28361010551,,,,,,,,,moral_self_bias,23,19,59.9980831759,f,001,2018_Apr_02_1802,
残忍,material/instr2_2.png,material/instr2_2.png,material/instr2_2.png,2,2,2,material/41.png,j,material/141.png,j,j,残忍,歹毒,friend,friend,friend,1,1,1,material/141.png,,,,,,,,,,,,,,,,,0,70,70,40,,,,,,,,,,,,,,,1,0.775599956512,,,,,,,,,moral_self_bias,23,19,59.9980831759,f,001,2018_Apr_02_1802,
自私,material/instr2_2.png,material/instr2_2.png,material/instr2_2.png,2,2,2,material/46.png,j,material/146.png,j,j,自私,小气,friend,friend,friend,1,1,1,material/146.png,,,,,,,,,,,,,,,,,0,71,71,45,,,,,,,,,,,,,,,2,1.67555809021,,,,,,,,,moral_self_bias,23,19,59.9980831759,f,001,2018_Apr_02_1802,
敬业,material/instr2_2.png,material/instr2_2.png,material/instr2_2.png,1,1,1,material/62.png,j,material/162.png,j,j,坚韧,坚韧,friend,friend,friend,1,1,1,material/62.png,,,,,,,,,,,,,,,,,0,72,72,61,,,,,,,,,,,,,,,4,1.59236311913,,,,,,,,,moral_self_bias,23,19,59.9980831759,f,001,2018_Apr_02_1802,
博爱,material/instr2_1.png,material/instr2_1.png,material/instr2_1.png,1,1,1,material/1.png,f,material/101.png,f,f,博爱,善良,self,self,self,1,1,1,material/101.png,,,,,,,,,,,,,,,,,0,73,73,0,,,,,,,,,,,,,,,4,1.10899591446,,,,,,,,,moral_self_bias,23,19,59.9980831759,f,001,2018_Apr_02_1802,
忠贞,material/instr2_2.png,material/instr2_2.png,material/instr2_2.png,1,1,1,material/14.png,j,material/114.png,j,j,忠贞,爱国,friend,friend,friend,1,1,1,material/114.png,,,,,,,,,,,,,,,,,0,74,74,13,,,,,,,,,,,,,,,4,0.842290878296,,,,,,,,,moral_self_bias,23,19,59.9980831759,f,001,2018_Apr_02_1802,
机变,material/instr2_2.png,material/instr2_2.png,material/instr2_2.png,1,1,1,material/70.png,j,material/168.png,j,j,全面,全面,friend,friend,friend,2,2,2,material/70.png,,,,,,,,,,,,,,,,,0,75,75,67,,,,,,,,,,,,,,,4,1.62561607361,,,,,,,,,moral_self_bias,23,19,59.9980831759,f,001,2018_Apr_02_1802,
才尽,material/instr2_1.png,material/instr2_1.png,material/instr2_1.png,2,2,2,material/183.png,f,material/182.png,f,f,颓废,薄弱,self,self,self,2,2,2,material/79.png,,,,,,,,,,,,,,,,,0,76,76,81,,,,,,,,,,,,,,,4,1.87589502335,,,,,,,,,moral_self_bias,23,19,59.9980831759,f,001,2018_Apr_02_1802,
卑鄙,material/instr2_2.png,material/instr2_2.png,material/instr2_2.png,2,2,2,material/37.png,j,material/137.png,j,j,卑鄙,无耻,friend,friend,friend,1,1,1,material/137.png,,,,,,,,,,,,,,,,,0,77,77,36,,,,,,,,,,,,,,,1,0.725707054138,,,,,,,,,moral_self_bias,23,19,59.9980831759,f,001,2018_Apr_02_1802,
孝顺,material/instr2_1.png,material/instr2_1.png,material/instr2_1.png,1,1,1,material/161.png,f,material/164.png,f,f,奉献,勇敢,self,self,self,1,1,1,material/64.png,,,,,,,,,,,,,,,,,0,78,78,63,,,,,,,,,,,,,,,4,0.825603961945,,,,,,,,,moral_self_bias,23,19,59.9980831759,f,001,2018_Apr_02_1802,
鲁钝,material/instr2_2.png,material/instr2_2.png,material/instr2_2.png,2,2,2,material/50.png,j,material/150.png,j,j,愚笨,愚笨,friend,friend,friend,2,2,2,material/50.png,,,,,,,,,,,,,,,,,0,79,79,49,,,,,,,,,,,,,,,1,0.825614929199,,,,,,,,,moral_self_bias,23,19,59.9980831759,f,001,2018_Apr_02_1802,
仁厚,material/instr2_1.png,material/instr2_1.png,material/instr2_1.png,1,1,1,material/3.png,f,material/103.png,f,f,仁厚,仁慈,self,self,self,1,1,1,material/103.png,,,,,,,,,,,,,,,,,0,80,80,2,,,,,,,,,,,,,,,4,1.44234800339,,,,,,,,,moral_self_bias,23,19,59.9980831759,f,001,2018_Apr_02_1802,
果敢,material/instr2_1.png,material/instr2_1.png,material/instr2_1.png,1,1,1,material/25.png,f,material/125.png,f,f,果断,果断,self,self,self,2,2,2,material/25.png,,,,,,,,,,,,,,,,,0,81,81,24,,,,,,,,,,,,,,,1,0.750446081161,,,,,,,,,moral_self_bias,23,19,59.9980831759,f,001,2018_Apr_02_1802,
小人,material/instr2_2.png,material/instr2_2.png,material/instr2_2.png,2,2,2,material/45.png,j,material/145.png,j,j,小人,下流,friend,friend,friend,1,1,1,material/145.png,,,,,,,,,,,,,,,,,0,82,82,44,,,,,,,,,,,,,,,1,0.775574922562,,,,,,,,,moral_self_bias,23,19,59.9980831759,f,001,2018_Apr_02_1802,
放纵,material/instr2_1.png,material/instr2_1.png,material/instr2_1.png,2,2,2,material/76.png,f,material/176.png,f,f,放纵,虚伪,self,self,self,1,1,1,material/176.png,,,,,,,,,,,,,,,,,0,83,83,75,,,,,,,,,,,,,,,2,1.77656793594,,,,,,,,,moral_self_bias,23,19,59.9980831759,f,001,2018_Apr_02_1802,
厚道,material/instr2_2.png,material/instr2_2.png,material/instr2_2.png,1,1,1,material/6.png,j,material/106.png,j,j,厚道,诚实,friend,friend,friend,1,1,1,material/106.png,,,,,,,,,,,,,,,,,0,84,84,5,,,,,,,,,,,,,,,4,1.14229607582,,,,,,,,,moral_self_bias,23,19,59.9980831759,f,001,2018_Apr_02_1802,
浅薄,material/instr2_2.png,material/instr2_2.png,material/instr2_2.png,2,2,2,material/58.png,j,material/158.png,j,j,肤浅,肤浅,friend,friend,friend,2,2,2,material/58.png,,,,,,,,,,,,,,,,,0,85,85,57,,,,,,,,,,,,,,,1,1.45894408226,,,,,,,,,moral_self_bias,23,19,59.9980831759,f,001,2018_Apr_02_1802,
机敏,material/instr2_2.png,material/instr2_2.png,material/instr2_2.png,1,1,1,material/18.png,j,material/118.png,j,j,敏锐,敏锐,friend,friend,friend,2,2,2,material/18.png,,,,,,,,,,,,,,,,,0,86,86,17,,,,,,,,,,,,,,,4,1.80883812904,,,,,,,,,moral_self_bias,23,19,59.9980831759,f,001,2018_Apr_02_1802,
机智,material/instr2_2.png,material/instr2_2.png,material/instr2_2.png,1,1,1,material/16.png,j,material/116.png,j,j,睿智,睿智,friend,friend,friend,2,2,2,material/16.png,,,,,,,,,,,,,,,,,0,87,87,15,,,,,,,,,,,,,,,4,0.992169857025,,,,,,,,,moral_self_bias,23,19,59.9980831759,f,001,2018_Apr_02_1802,
,,,,,,,,,,,,,,,,,,,,,8-6= ?,,,,,,,,,,,,,,,,,,,,0,0,0,42,,,,,,,,,,,,,,,,,,,,,moral_self_bias,23,19,59.9980831759,f,001,2018_Apr_02_1802,
,,,,,,,,,,,,,,,,,,,,,9-1=?,,,,,,,,,,,,,,,,,,,,0,1,1,2,,,,,,,,,,,,,,,,,,,,,moral_self_bias,23,19,59.9980831759,f,001,2018_Apr_02_1802,
,,,,,,,,,,,,,,,,,,,,,13-9= ?,,,,,,,,,,,,,,,,,,,,0,2,2,92,,,,,,,,,,,,,,,,,,,,,moral_self_bias,23,19,59.9980831759,f,001,2018_Apr_02_1802,
,,,,,,,,,,,,,,,,,,,,,56/7= ?,,,,,,,,,,,,,,,,,,,,0,3,3,77,,,,,,,,,,,,,,,,,,,,,moral_self_bias,23,19,59.9980831759,f,001,2018_Apr_02_1802,
,,,,,,,,,,,,,,,,,,,,,3*1= ?,,,,,,,,,,,,,,,,,,,,0,4,4,83,,,,,,,,,,,,,,,,,,,,,moral_self_bias,23,19,59.9980831759,f,001,2018_Apr_02_1802,
,,,,,,,,,,,,,,,,,,,,,12-5=？,,,,,,,,,,,,,,,,,,,,0,5,5,65,,,,,,,,,,,,,,,,,,,,,moral_self_bias,23,19,59.9980831759,f,001,2018_Apr_02_1802,
,,,,,,,,,,,,,,,,,,,,,20/5=？,,,,,,,,,,,,,,,,,,,,0,6,6,69,,,,,,,,,,,,,,,,,,,,,moral_self_bias,23,19,59.9980831759,f,001,2018_Apr_02_1802,
,,,,,,,,,,,,,,,,,,,,,2+6= ?,,,,,,,,,,,,,,,,,,,,0,7,7,12,,,,,,,,,,,,,,,,,,,,,moral_self_bias,23,19,59.9980831759,f,001,2018_Apr_02_1802,
,,,,,,,,,,,,,,,,,,,,,5+3= ?,,,,,,,,,,,,,,,,,,,,0,8,8,36,,,,,,,,,,,,,,,,,,,,,moral_self_bias,23,19,59.9980831759,f,001,2018_Apr_02_1802,
,,,,,,,,,,,,,,,,,,,,,9-2= ?,,,,,,,,,,,,,,,,,,,,0,9,9,14,,,,,,,,,,,,,,,,,,,,,moral_self_bias,23,19,59.9980831759,f,001,2018_Apr_02_1802,
,,,,,,,,,,,,,,,,,,,,,2+1= ?,,,,,,,,,,,,,,,,,,,,0,10,10,7,,,,,,,,,,,,,,,,,,,,,moral_self_bias,23,19,59.9980831759,f,001,2018_Apr_02_1802,
,,,,,,,,,,,,,,,,,,,,,8-2= ?,,,,,,,,,,,,,,,,,,,,0,11,11,38,,,,,,,,,,,,,,,,,,,,,moral_self_bias,23,19,59.9980831759,f,001,2018_Apr_02_1802,
,,,,,,,,,,,,,,,,,,,,,3+0= ?,,,,,,,,,,,,,,,,,,,,0,12,12,105,,,,,,,,,,,,,,,,,,,,,moral_self_bias,23,19,59.9980831759,f,001,2018_Apr_02_1802,
,,,,,,,,,,,,,,,,,,,,,1^2= ?,,,,,,,,,,,,,,,,,,,,0,13,13,51,,,,,,,,,,,,,,,,,,,,,moral_self_bias,23,19,59.9980831759,f,001,2018_Apr_02_1802,
,,,,,,,,,,,,,,,,,,,,,4+3= ?,,,,,,,,,,,,,,,,,,,,0,14,14,27,,,,,,,,,,,,,,,,,,,,,moral_self_bias,23,19,59.9980831759,f,001,2018_Apr_02_1802,
,,,,,,,,,,,,,,,,,,,,,81/9= ?,,,,,,,,,,,,,,,,,,,,0,15,15,75,,,,,,,,,,,,,,,,,,,,,moral_self_bias,23,19,59.9980831759,f,001,2018_Apr_02_1802,
,,,,,,,,,,,,,,,,,,,,,5+4= ?,,,,,,,,,,,,,,,,,,,,0,16,16,37,,,,,,,,,,,,,,,,,,,,,moral_self_bias,23,19,59.9980831759,f,001,2018_Apr_02_1802,
,,,,,,,,,,,,,,,,,,,,,7*0= ?,,,,,,,,,,,,,,,,,,,,0,17,17,88,,,,,,,,,,,,,,,,,,,,,moral_self_bias,23,19,59.9980831759,f,001,2018_Apr_02_1802,
,,,,,,,,,,,,,,,,,,,,,23^0= ?,,,,,,,,,,,,,,,,,,,,0,18,18,94,,,,,,,,,,,,,,,,,,,,,moral_self_bias,23,19,59.9980831759,f,001,2018_Apr_02_1802,
,,,,,,,,,,,,,,,,,,,,,21/7= ?,,,,,,,,,,,,,,,,,,,,0,19,19,70,,,,,,,,,,,,,,,,,,,,,moral_self_bias,23,19,59.9980831759,f,001,2018_Apr_02_1802,
,,,,,,,,,,,,,,,,,,,,,49/7 = ?,,,,,,,,,,,,,,,,,,,,0,20,20,78,,,,,,,,,,,,,,,,,,,,,moral_self_bias,23,19,59.9980831759,f,001,2018_Apr_02_1802,
,,,,,,,,,,,,,,,,,,,,,6+2= ?,,,,,,,,,,,,,,,,,,,,0,21,21,44,,,,,,,,,,,,,,,,,,,,,moral_self_bias,23,19,59.9980831759,f,001,2018_Apr_02_1802,
,,,,,,,,,,,,,,,,,,,,,4/4= ?,,,,,,,,,,,,,,,,,,,,0,22,22,55,,,,,,,,,,,,,,,,,,,,,moral_self_bias,23,19,59.9980831759,f,001,2018_Apr_02_1802,
,,,,,,,,,,,,,,,,,,,,,8-4= ?,,,,,,,,,,,,,,,,,,,,0,23,23,40,,,,,,,,,,,,,,,,,,,,,moral_self_bias,23,19,59.9980831759,f,001,2018_Apr_02_1802,
,,,,,,,,,,,,,,,,,,,,,3+5= ?,,,,,,,,,,,,,,,,,,,,0,24,24,20,,,,,,,,,,,,,,,,,,,,,moral_self_bias,23,19,59.9980831759,f,001,2018_Apr_02_1802,
,,,,,,,,,,,,,,,,,,,,,12-12= ?,,,,,,,,,,,,,,,,,,,,0,25,25,99,,,,,,,,,,,,,,,,,,,,,moral_self_bias,23,19,59.9980831759,f,001,2018_Apr_02_1802,
,,,,,,,,,,,,,,,,,,,,,2+5= ?,,,,,,,,,,,,,,,,,,,,0,26,26,11,,,,,,,,,,,,,,,,,,,,,moral_self_bias,23,19,59.9980831759,f,001,2018_Apr_02_1802,
,,,,,,,,,,,,,,,,,,,,,9-3= ?,,,,,,,,,,,,,,,,,,,,0,27,27,15,,,,,,,,,,,,,,,,,,,,,moral_self_bias,23,19,59.9980831759,f,001,2018_Apr_02_1802,
,,,,,,,,,,,,,,,,,,,,,3+6= ?,,,,,,,,,,,,,,,,,,,,0,28,28,21,,,,,,,,,,,,,,,,,,,,,moral_self_bias,23,19,59.9980831759,f,001,2018_Apr_02_1802,
,,,,,,,,,,,,,,,,,,,,,5+2= ?,,,,,,,,,,,,,,,,,,,,0,29,29,35,,,,,,,,,,,,,,,,,,,,,moral_self_bias,23,19,59.9980831759,f,001,2018_Apr_02_1802,
,,,,,,,,,,,,,,,,,,,,,1+6= ?,,,,,,,,,,,,,,,,,,,,0,30,30,5,,,,,,,,,,,,,,,,,,,,,moral_self_bias,23,19,59.9980831759,f,001,2018_Apr_02_1802,
,,,,,,,,,,,,,,,,,,,,,6+1= ?,,,,,,,,,,,,,,,,,,,,0,31,31,43,,,,,,,,,,,,,,,,,,,,,moral_self_bias,23,19,59.9980831759,f,001,2018_Apr_02_1802,
,,,,,,,,,,,,,,,,,,,,,3+2= ?,,,,,,,,,,,,,,,,,,,,0,32,32,17,,,,,,,,,,,,,,,,,,,,,moral_self_bias,23,19,59.9980831759,f,001,2018_Apr_02_1802,
,,,,,,,,,,,,,,,,,,,,,29-27= ?,,,,,,,,,,,,,,,,,,,,0,33,33,72,,,,,,,,,,,,,,,,,,,,,moral_self_bias,23,19,59.9980831759,f,001,2018_Apr_02_1802,
,,,,,,,,,,,,,,,,,,,,,13-6=？,,,,,,,,,,,,,,,,,,,,0,34,34,64,,,,,,,,,,,,,,,,,,,,,moral_self_bias,23,19,59.9980831759,f,001,2018_Apr_02_1802,
,,,,,,,,,,,,,,,,,,,,,6*0= ?,,,,,,,,,,,,,,,,,,,,0,35,35,87,,,,,,,,,,,,,,,,,,,,,moral_self_bias,23,19,59.9980831759,f,001,2018_Apr_02_1802,
,,,,,,,,,,,,,,,,,,,,,7*1= ?,,,,,,,,,,,,,,,,,,,,0,36,36,113,,,,,,,,,,,,,,,,,,,,,moral_self_bias,23,19,59.9980831759,f,001,2018_Apr_02_1802,
,,,,,,,,,,,,,,,,,,,,,11-3=？,,,,,,,,,,,,,,,,,,,,0,37,37,68,,,,,,,,,,,,,,,,,,,,,moral_self_bias,23,19,59.9980831759,f,001,2018_Apr_02_1802,
,,,,,,,,,,,,,,,,,,,,,9-8= ?,,,,,,,,,,,,,,,,,,,,0,38,38,31,,,,,,,,,,,,,,,,,,,,,moral_self_bias,23,19,59.9980831759,f,001,2018_Apr_02_1802,
,,,,,,,,,,,,,,,,,,,,,5*0= ?,,,,,,,,,,,,,,,,,,,,0,39,39,86,,,,,,,,,,,,,,,,,,,,,moral_self_bias,23,19,59.9980831759,f,001,2018_Apr_02_1802,
,,,,,,,,,,,,,,,,,,,,,7+2= ?,,,,,,,,,,,,,,,,,,,,0,40,40,47,,,,,,,,,,,,,,,,,,,,,moral_self_bias,23,19,59.9980831759,f,001,2018_Apr_02_1802,
,,,,,,,,,,,,,,,,,,,,,13-5= ?,,,,,,,,,,,,,,,,,,,,0,41,41,98,,,,,,,,,,,,,,,,,,,,,moral_self_bias,23,19,59.9980831759,f,001,2018_Apr_02_1802,
,,,,,,,,,,,,,,,,,,,,,3+4= ?,,,,,,,,,,,,,,,,,,,,0,42,42,19,,,,,,,,,,,,,,,,,,,,,moral_self_bias,23,19,59.9980831759,f,001,2018_Apr_02_1802,
,,,,,,,,,,,,,,,,,,,,,12/12= ?,,,,,,,,,,,,,,,,,,,,0,43,43,91,,,,,,,,,,,,,,,,,,,,,moral_self_bias,23,19,59.9980831759,f,001,2018_Apr_02_1802,
,,,,,,,,,,,,,,,,,,,,,1+7= ?,,,,,,,,,,,,,,,,,,,,0,44,44,4,,,,,,,,,,,,,,,,,,,,,moral_self_bias,23,19,59.9980831759,f,001,2018_Apr_02_1802,
,,,,,,,,,,,,,,,,,,,,,8-3= ?,,,,,,,,,,,,,,,,,,,,0,45,45,39,,,,,,,,,,,,,,,,,,,,,moral_self_bias,23,19,59.9980831759,f,001,2018_Apr_02_1802,
,,,,,,,,,,,,,,,,,,,,,2+4= ?,,,,,,,,,,,,,,,,,,,,0,46,46,10,,,,,,,,,,,,,,,,,,,,,moral_self_bias,23,19,59.9980831759,f,001,2018_Apr_02_1802,
,,,,,,,,,,,,,,,,,,,,,32-32= ?,,,,,,,,,,,,,,,,,,,,0,47,47,80,,,,,,,,,,,,,,,,,,,,,moral_self_bias,23,19,59.9980831759,f,001,2018_Apr_02_1802,
,,,,,,,,,,,,,,,,,,,,,2*3= ?,,,,,,,,,,,,,,,,,,,,0,48,48,108,,,,,,,,,,,,,,,,,,,,,moral_self_bias,23,19,59.9980831759,f,001,2018_Apr_02_1802,
,,,,,,,,,,,,,,,,,,,,,9-5= ?,,,,,,,,,,,,,,,,,,,,0,49,49,23,,,,,,,,,,,,,,,,,,,,,moral_self_bias,23,19,59.9980831759,f,001,2018_Apr_02_1802,
,,,,,,,,,,,,,,,,,,,,,1*8= ?,,,,,,,,,,,,,,,,,,,,0,50,50,110,,,,,,,,,,,,,,,,,,,,,moral_self_bias,23,19,59.9980831759,f,001,2018_Apr_02_1802,
,,,,,,,,,,,,,,,,,,,,,8/4= ?,,,,,,,,,,,,,,,,,,,,0,51,51,57,,,,,,,,,,,,,,,,,,,,,moral_self_bias,23,19,59.9980831759,f,001,2018_Apr_02_1802,
,,,,,,,,,,,,,,,,,,,,,2+3= ?,,,,,,,,,,,,,,,,,,,,0,52,52,9,,,,,,,,,,,,,,,,,,,,,moral_self_bias,23,19,59.9980831759,f,001,2018_Apr_02_1802,
,,,,,,,,,,,,,,,,,,,,,17-12= ? ,,,,,,,,,,,,,,,,,,,,0,53,53,104,,,,,,,,,,,,,,,,,,,,,moral_self_bias,23,19,59.9980831759,f,001,2018_Apr_02_1802,
,,,,,,,,,,,,,,,,,,,,,90/45= ?,,,,,,,,,,,,,,,,,,,,0,54,54,74,,,,,,,,,,,,,,,,,,,,,moral_self_bias,23,19,59.9980831759,f,001,2018_Apr_02_1802,
,,,,,,,,,,,,,,,,,,,,,1*9= ?,,,,,,,,,,,,,,,,,,,,0,55,55,109,,,,,,,,,,,,,,,,,,,,,moral_self_bias,23,19,59.9980831759,f,001,2018_Apr_02_1802,
,,,,,,,,,,,,,,,,,,,,,2^2= ?,,,,,,,,,,,,,,,,,,,,0,56,56,49,,,,,,,,,,,,,,,,,,,,,moral_self_bias,23,19,59.9980831759,f,001,2018_Apr_02_1802,
,,,,,,,,,,,,,,,,,,,,,1+2= ?,,,,,,,,,,,,,,,,,,,,0,57,57,1,,,,,,,,,,,,,,,,,,,,,moral_self_bias,23,19,59.9980831759,f,001,2018_Apr_02_1802,
,,,,,,,,,,,,,,,,,,,,,12/4= ?,,,,,,,,,,,,,,,,,,,,0,58,58,89,,,,,,,,,,,,,,,,,,,,,moral_self_bias,23,19,59.9980831759,f,001,2018_Apr_02_1802,
,,,,,,,,,,,,,,,,,,,,,3*2= ?,,,,,,,,,,,,,,,,,,,,0,59,59,53,,,,,,,,,,,,,,,,,,,,,moral_self_bias,23,19,59.9980831759,f,001,2018_Apr_02_1802,
,,,,,,,,,,,,,,,,,,,,,18/2= ?,,,,,,,,,,,,,,,,,,,,0,60,60,97,,,,,,,,,,,,,,,,,,,,,moral_self_bias,23,19,59.9980831759,f,001,2018_Apr_02_1802,
,,,,,,,,,,,,,,,,,,,,,30-29= ?,,,,,,,,,,,,,,,,,,,,0,61,61,73,,,,,,,,,,,,,,,,,,,,,moral_self_bias,23,19,59.9980831759,f,001,2018_Apr_02_1802,
,,,,,,,,,,,,,,,,,,,,,22/11= ?,,,,,,,,,,,,,,,,,,,,0,62,62,71,,,,,,,,,,,,,,,,,,,,,moral_self_bias,23,19,59.9980831759,f,001,2018_Apr_02_1802,
,,,,,,,,,,,,,,,,,,,,,4+5= ?,,,,,,,,,,,,,,,,,,,,0,63,63,29,,,,,,,,,,,,,,,,,,,,,moral_self_bias,23,19,59.9980831759,f,001,2018_Apr_02_1802,
,,,,,,,,,,,,,,,,,,,,,43-34= ?,,,,,,,,,,,,,,,,,,,,0,64,64,79,,,,,,,,,,,,,,,,,,,,,moral_self_bias,23,19,59.9980831759,f,001,2018_Apr_02_1802,
,,,,,,,,,,,,,,,,,,,,,11-8= ?,,,,,,,,,,,,,,,,,,,,0,65,65,106,,,,,,,,,,,,,,,,,,,,,moral_self_bias,23,19,59.9980831759,f,001,2018_Apr_02_1802,
,,,,,,,,,,,,,,,,,,,,,7-0= ?,,,,,,,,,,,,,,,,,,,,0,66,66,117,,,,,,,,,,,,,,,,,,,,,moral_self_bias,23,19,59.9980831759,f,001,2018_Apr_02_1802,
,,,,,,,,,,,,,,,,,,,,,72/9= ?,,,,,,,,,,,,,,,,,,,,0,67,67,76,,,,,,,,,,,,,,,,,,,,,moral_self_bias,23,19,59.9980831759,f,001,2018_Apr_02_1802,
,,,,,,,,,,,,,,,,,,,,,1-1= ?,,,,,,,,,,,,,,,,,,,,0,68,68,52,,,,,,,,,,,,,,,,,,,,,moral_self_bias,23,19,59.9980831759,f,001,2018_Apr_02_1802,
,,,,,,,,,,,,,,,,,,,,,5+1= ?,,,,,,,,,,,,,,,,,,,,0,69,69,34,,,,,,,,,,,,,,,,,,,,,moral_self_bias,23,19,59.9980831759,f,001,2018_Apr_02_1802,
,,,,,,,,,,,,,,,,,,,,,4+1= ?,,,,,,,,,,,,,,,,,,,,0,70,70,25,,,,,,,,,,,,,,,,,,,,,moral_self_bias,23,19,59.9980831759,f,001,2018_Apr_02_1802,
,,,,,,,,,,,,,,,,,,,,,9/3= ?,,,,,,,,,,,,,,,,,,,,0,71,71,56,,,,,,,,,,,,,,,,,,,,,moral_self_bias,23,19,59.9980831759,f,001,2018_Apr_02_1802,
,,,,,,,,,,,,,,,,,,,,,1+1= ?,,,,,,,,,,,,,,,,,,,,0,72,72,0,,,,,,,,,,,,,,,,,,,,,moral_self_bias,23,19,59.9980831759,f,001,2018_Apr_02_1802,
,,,,,,,,,,,,,,,,,,,,,21/3= ? ,,,,,,,,,,,,,,,,,,,,0,73,73,95,,,,,,,,,,,,,,,,,,,,,moral_self_bias,23,19,59.9980831759,f,001,2018_Apr_02_1802,
,,,,,,,,,,,,,,,,,,,,,11-11= ?,,,,,,,,,,,,,,,,,,,,0,74,74,119,,,,,,,,,,,,,,,,,,,,,moral_self_bias,23,19,59.9980831759,f,001,2018_Apr_02_1802,
,,,,,,,,,,,,,,,,,,,,,15-10=？,,,,,,,,,,,,,,,,,,,,0,75,75,61,,,,,,,,,,,,,,,,,,,,,moral_self_bias,23,19,59.9980831759,f,001,2018_Apr_02_1802,
,,,,,,,,,,,,,,,,,,,,,8-5= ?,,,,,,,,,,,,,,,,,,,,0,76,76,41,,,,,,,,,,,,,,,,,,,,,moral_self_bias,23,19,59.9980831759,f,001,2018_Apr_02_1802,
,,,,,,,,,,,,,,,,,,,,,9-6= ?,,,,,,,,,,,,,,,,,,,,0,77,77,24,,,,,,,,,,,,,,,,,,,,,moral_self_bias,23,19,59.9980831759,f,001,2018_Apr_02_1802,
,,,,,,,,,,,,,,,,,,,,,6^0= ?,,,,,,,,,,,,,,,,,,,,0,78,78,103,,,,,,,,,,,,,,,,,,,,,moral_self_bias,23,19,59.9980831759,f,001,2018_Apr_02_1802,
,,,,,,,,,,,,,,,,,,,,,4*1= ?,,,,,,,,,,,,,,,,,,,,0,79,79,85,,,,,,,,,,,,,,,,,,,,,moral_self_bias,23,19,59.9980831759,f,001,2018_Apr_02_1802,
,,,,,,,,,,,,,,,,,,,,,11-4=？,,,,,,,,,,,,,,,,,,,,0,80,80,66,,,,,,,,,,,,,,,,,,,,,moral_self_bias,23,19,59.9980831759,f,001,2018_Apr_02_1802,
,,,,,,,,,,,,,,,,,,,,,16-11=？,,,,,,,,,,,,,,,,,,,,0,81,81,62,,,,,,,,,,,,,,,,,,,,,moral_self_bias,23,19,59.9980831759,f,001,2018_Apr_02_1802,
,,,,,,,,,,,,,,,,,,,,,5-3= ?,,,,,,,,,,,,,,,,,,,,0,82,82,116,,,,,,,,,,,,,,,,,,,,,moral_self_bias,23,19,59.9980831759,f,001,2018_Apr_02_1802,
,,,,,,,,,,,,,,,,,,,,,2*4= ?,,,,,,,,,,,,,,,,,,,,0,83,83,84,,,,,,,,,,,,,,,,,,,,,moral_self_bias,23,19,59.9980831759,f,001,2018_Apr_02_1802,
,,,,,,,,,,,,,,,,,,,,,6+3= ?,,,,,,,,,,,,,,,,,,,,0,84,84,45,,,,,,,,,,,,,,,,,,,,,moral_self_bias,23,19,59.9980831759,f,001,2018_Apr_02_1802,
,,,,,,,,,,,,,,,,,,,,,32-23=？,,,,,,,,,,,,,,,,,,,,0,85,85,60,,,,,,,,,,,,,,,,,,,,,moral_self_bias,23,19,59.9980831759,f,001,2018_Apr_02_1802,
,,,,,,,,,,,,,,,,,,,,,1+8= ?,,,,,,,,,,,,,,,,,,,,0,86,86,6,,,,,,,,,,,,,,,,,,,,,moral_self_bias,23,19,59.9980831759,f,001,2018_Apr_02_1802,
,,,,,,,,,,,,,,,,,,,,,4+4= ?,,,,,,,,,,,,,,,,,,,,0,87,87,28,,,,,,,,,,,,,,,,,,,,,moral_self_bias,23,19,59.9980831759,f,001,2018_Apr_02_1802,
,,,,,,,,,,,,,,,,,,,,,12-7= ?,,,,,,,,,,,,,,,,,,,,0,88,88,115,,,,,,,,,,,,,,,,,,,,,moral_self_bias,23,19,59.9980831759,f,001,2018_Apr_02_1802,
,,,,,,,,,,,,,,,,,,,,,3*3= ?,,,,,,,,,,,,,,,,,,,,0,89,89,54,,,,,,,,,,,,,,,,,,,,,moral_self_bias,23,19,59.9980831759,f,001,2018_Apr_02_1802,
,,,,,,,,,,,,,,,,,,,,,50-42= ?,,,,,,,,,,,,,,,,,,,,0,90,90,81,,,,,,,,,,,,,,,,,,,,,moral_self_bias,23,19,59.9980831759,f,001,2018_Apr_02_1802,
,,,,,,,,,,,,,,,,,,,,,10-5=？,,,,,,,,,,,,,,,,,,,,0,91,91,67,,,,,,,,,,,,,,,,,,,,,moral_self_bias,23,19,59.9980831759,f,001,2018_Apr_02_1802,
,,,,,,,,,,,,,,,,,,,,,9+0= ?,,,,,,,,,,,,,,,,,,,,0,92,92,118,,,,,,,,,,,,,,,,,,,,,moral_self_bias,23,19,59.9980831759,f,001,2018_Apr_02_1802,
,,,,,,,,,,,,,,,,,,,,,9-9= ?,,,,,,,,,,,,,,,,,,,,0,93,93,32,,,,,,,,,,,,,,,,,,,,,moral_self_bias,23,19,59.9980831759,f,001,2018_Apr_02_1802,
,,,,,,,,,,,,,,,,,,,,,4^1= ?,,,,,,,,,,,,,,,,,,,,0,94,94,102,,,,,,,,,,,,,,,,,,,,,moral_self_bias,23,19,59.9980831759,f,001,2018_Apr_02_1802,
,,,,,,,,,,,,,,,,,,,,,8+1= ?,,,,,,,,,,,,,,,,,,,,0,95,95,48,,,,,,,,,,,,,,,,,,,,,moral_self_bias,23,19,59.9980831759,f,001,2018_Apr_02_1802,
,,,,,,,,,,,,,,,,,,,,,1+9= ?,,,,,,,,,,,,,,,,,,,,0,96,96,3,,,,,,,,,,,,,,,,,,,,,moral_self_bias,23,19,59.9980831759,f,001,2018_Apr_02_1802,
,,,,,,,,,,,,,,,,,,,,,2+7= ?,,,,,,,,,,,,,,,,,,,,0,97,97,13,,,,,,,,,,,,,,,,,,,,,moral_self_bias,23,19,59.9980831759,f,001,2018_Apr_02_1802,
,,,,,,,,,,,,,,,,,,,,,19-17= ?,,,,,,,,,,,,,,,,,,,,0,98,98,100,,,,,,,,,,,,,,,,,,,,,moral_self_bias,23,19,59.9980831759,f,001,2018_Apr_02_1802,
,,,,,,,,,,,,,,,,,,,,,6/2= ?,,,,,,,,,,,,,,,,,,,,0,99,99,58,,,,,,,,,,,,,,,,,,,,,moral_self_bias,23,19,59.9980831759,f,001,2018_Apr_02_1802,
,,,,,,,,,,,,,,,,,,,,,11-5= ?,,,,,,,,,,,,,,,,,,,,0,100,100,107,,,,,,,,,,,,,,,,,,,,,moral_self_bias,23,19,59.9980831759,f,001,2018_Apr_02_1802,
,,,,,,,,,,,,,,,,,,,,,10-9= ?,,,,,,,,,,,,,,,,,,,,0,101,101,112,,,,,,,,,,,,,,,,,,,,,moral_self_bias,23,19,59.9980831759,f,001,2018_Apr_02_1802,
,,,,,,,,,,,,,,,,,,,,,3+3= ?,,,,,,,,,,,,,,,,,,,,0,102,102,18,,,,,,,,,,,,,,,,,,,,,moral_self_bias,23,19,59.9980831759,f,001,2018_Apr_02_1802,
,,,,,,,,,,,,,,,,,,,,,4+2= ?,,,,,,,,,,,,,,,,,,,,0,103,103,26,,,,,,,,,,,,,,,,,,,,,moral_self_bias,23,19,59.9980831759,f,001,2018_Apr_02_1802,
,,,,,,,,,,,,,,,,,,,,,9-7= ?,,,,,,,,,,,,,,,,,,,,0,104,104,30,,,,,,,,,,,,,,,,,,,,,moral_self_bias,23,19,59.9980831759,f,001,2018_Apr_02_1802,
,,,,,,,,,,,,,,,,,,,,,3^2= ?,,,,,,,,,,,,,,,,,,,,0,105,105,50,,,,,,,,,,,,,,,,,,,,,moral_self_bias,23,19,59.9980831759,f,001,2018_Apr_02_1802,
,,,,,,,,,,,,,,,,,,,,,12/6= ?,,,,,,,,,,,,,,,,,,,,0,106,106,90,,,,,,,,,,,,,,,,,,,,,moral_self_bias,23,19,59.9980831759,f,001,2018_Apr_02_1802,
,,,,,,,,,,,,,,,,,,,,,4*2= ?,,,,,,,,,,,,,,,,,,,,0,107,107,82,,,,,,,,,,,,,,,,,,,,,moral_self_bias,23,19,59.9980831759,f,001,2018_Apr_02_1802,
,,,,,,,,,,,,,,,,,,,,,14-9=？,,,,,,,,,,,,,,,,,,,,0,108,108,63,,,,,,,,,,,,,,,,,,,,,moral_self_bias,23,19,59.9980831759,f,001,2018_Apr_02_1802,
,,,,,,,,,,,,,,,,,,,,,5/1= ?,,,,,,,,,,,,,,,,,,,,0,109,109,59,,,,,,,,,,,,,,,,,,,,,moral_self_bias,23,19,59.9980831759,f,001,2018_Apr_02_1802,
,,,,,,,,,,,,,,,,,,,,,9-4= ?,,,,,,,,,,,,,,,,,,,,0,110,110,22,,,,,,,,,,,,,,,,,,,,,moral_self_bias,23,19,59.9980831759,f,001,2018_Apr_02_1802,
,,,,,,,,,,,,,,,,,,,,,7+1= ?,,,,,,,,,,,,,,,,,,,,0,111,111,46,,,,,,,,,,,,,,,,,,,,,moral_self_bias,23,19,59.9980831759,f,001,2018_Apr_02_1802,
,,,,,,,,,,,,,,,,,,,,,3+1= ?,,,,,,,,,,,,,,,,,,,,0,112,112,16,,,,,,,,,,,,,,,,,,,,,moral_self_bias,23,19,59.9980831759,f,001,2018_Apr_02_1802,
,,,,,,,,,,,,,,,,,,,,,2+2= ?,,,,,,,,,,,,,,,,,,,,0,113,113,8,,,,,,,,,,,,,,,,,,,,,moral_self_bias,23,19,59.9980831759,f,001,2018_Apr_02_1802,
,,,,,,,,,,,,,,,,,,,,,22-22= ?,,,,,,,,,,,,,,,,,,,,0,114,114,93,,,,,,,,,,,,,,,,,,,,,moral_self_bias,23,19,59.9980831759,f,001,2018_Apr_02_1802,
,,,,,,,,,,,,,,,,,,,,,3^1= ?,,,,,,,,,,,,,,,,,,,,0,115,115,101,,,,,,,,,,,,,,,,,,,,,moral_self_bias,23,19,59.9980831759,f,001,2018_Apr_02_1802,
,,,,,,,,,,,,,,,,,,,,,8*1= ?,,,,,,,,,,,,,,,,,,,,0,116,116,111,,,,,,,,,,,,,,,,,,,,,moral_self_bias,23,19,59.9980831759,f,001,2018_Apr_02_1802,
,,,,,,,,,,,,,,,,,,,,,18/9= ?,,,,,,,,,,,,,,,,,,,,0,117,117,96,,,,,,,,,,,,,,,,,,,,,moral_self_bias,23,19,59.9980831759,f,001,2018_Apr_02_1802,
,,,,,,,,,,,,,,,,,,,,,6^0= ?,,,,,,,,,,,,,,,,,,,,0,118,118,114,,,,,,,,,,,,,,,,,,,,,moral_self_bias,23,19,59.9980831759,f,001,2018_Apr_02_1802,
,,,,,,,,,,,,,,,,,,,,,8-1= ?,,,,,,,,,,,,,,,,,,,,0,119,119,33,,,,,,,,,,,,,,,,,,,,,moral_self_bias,23,19,59.9980831759,f,001,2018_Apr_02_1802,
,,,,,,,,,,,,,,,,,,,,,,,,,,,,,,,,,,,,,,,,,,,,,,,,,,,,,,,,,2,6.91009306908,,,,,,,moral_self_bias,23,19,59.9980831759,f,001,2018_Apr_02_1802,
,,,,,,,,,,,,,,,,,,,,,,material/159.png,2,弱智,material/59.png,2,material/159.png,智障,2,j,j,j,2,2,2,弱智,,,,,,,,,0,0,0,58,0,0,0,0,,,,,,,f,0,4.60623288155,f,0,3.29124307632,moral_self_bias,23,19,59.9980831759,f,001,2018_Apr_02_1802,
,,,,,,,,,,,,,,,,,,,,,,material/159.png,2,弱智,material/59.png,2,material/159.png,智障,2,j,j,j,2,2,2,弱智,,,,,,,,,0,0,0,58,,,,,,,,,,,,,,,,,moral_self_bias,23,19,59.9980831759,f,001,2018_Apr_02_1802,
,,,,,,,,,,,,,,,,,,,,,,material/119.png,1,机灵,material/19.png,1,material/119.png,灵活,1,j,j,j,2,2,2,机灵,,,,,,,,,0,1,1,18,0,0,0,0,,,,,,,f,0,3.67444491386,j,1,5.37388586998,moral_self_bias,23,19,59.9980831759,f,001,2018_Apr_02_1802,
,,,,,,,,,,,,,,,,,,,,,,material/119.png,1,机灵,material/19.png,1,material/119.png,灵活,1,j,j,j,2,2,2,机灵,,,,,,,,,0,1,1,18,,,,,,,,,,,,,,,,,moral_self_bias,23,19,59.9980831759,f,001,2018_Apr_02_1802,
,,,,,,,,,,,,,,,,,,,,,,material/37.png,2,卑鄙,material/137.png,2,material/137.png,卑鄙,2,f,f,f,1,1,1,无耻,,,,,,,,,0,2,2,116,0,0,0,0,,,,,,,f,1,2.89077496529,j,1,1.57483816147,moral_self_bias,23,19,59.9980831759,f,001,2018_Apr_02_1802,
,,,,,,,,,,,,,,,,,,,,,,material/37.png,2,卑鄙,material/137.png,2,material/137.png,卑鄙,2,f,f,f,1,1,1,无耻,,,,,,,,,0,2,2,116,,,,,,,,,,,,,,,,,moral_self_bias,23,19,59.9980831759,f,001,2018_Apr_02_1802,
,,,,,,,,,,,,,,,,,,,,,,material/47.png,2,死板,material/147.png,2,material/47.png,刻板,2,f,f,f,2,2,2,死板,,,,,,,,,0,3,3,126,0,0,0,0,,,,,,,f,1,3.1339969635,j,1,1.85747003555,moral_self_bias,23,19,59.9980831759,f,001,2018_Apr_02_1802,
,,,,,,,,,,,,,,,,,,,,,,material/47.png,2,死板,material/147.png,2,material/47.png,刻板,2,f,f,f,2,2,2,死板,,,,,,,,,0,3,3,126,,,,,,,,,,,,,,,,,moral_self_bias,23,19,59.9980831759,f,001,2018_Apr_02_1802,
,,,,,,,,,,,,,,,,,,,,,,material/149.png,2,白痴,material/49.png,2,material/149.png,痴呆,2,j,j,j,2,2,2,白痴,,,,,,,,,0,4,4,48,0,0,0,0,,,,,,,f,0,3.00773191452,j,1,1.3582470417,moral_self_bias,23,19,59.9980831759,f,001,2018_Apr_02_1802,
,,,,,,,,,,,,,,,,,,,,,,material/149.png,2,白痴,material/49.png,2,material/149.png,痴呆,2,j,j,j,2,2,2,白痴,,,,,,,,,0,4,4,48,,,,,,,,,,,,,,,,,moral_self_bias,23,19,59.9980831759,f,001,2018_Apr_02_1802,
,,,,,,,,,,,,,,,,,,,,,,material/81.png,2,呆笨,material/179.png,2,material/83.png,差生,2,f,f,f,2,2,2,无助,,,,,,,,,0,5,5,158,0,0,0,0,,,,,,,f,1,1.67506814003,j,1,1.35761499405,moral_self_bias,23,19,59.9980831759,f,001,2018_Apr_02_1802,
,,,,,,,,,,,,,,,,,,,,,,material/81.png,2,呆笨,material/179.png,2,material/83.png,差生,2,f,f,f,2,2,2,无助,,,,,,,,,0,5,5,158,,,,,,,,,,,,,,,,,moral_self_bias,23,19,59.9980831759,f,001,2018_Apr_02_1802,
,,,,,,,,,,,,,,,,,,,,,,material/73.png,2,恶心,material/177.png,2,material/177.png,恶心,2,f,f,f,1,1,1,残虐,,,,,,,,,0,6,6,156,0,0,0,0,,,,,,,f,1,2.57434797287,f,0,1.14243888855,moral_self_bias,23,19,59.9980831759,f,001,2018_Apr_02_1802,
,,,,,,,,,,,,,,,,,,,,,,material/73.png,2,恶心,material/177.png,2,material/177.png,恶心,2,f,f,f,1,1,1,残虐,,,,,,,,,0,6,6,156,,,,,,,,,,,,,,,,,moral_self_bias,23,19,59.9980831759,f,001,2018_Apr_02_1802,
,,,,,,,,,,,,,,,,,,,,,,material/112.png,1,忠诚,material/12.png,1,material/12.png,忠诚,1,j,j,j,1,1,1,忠心,,,,,,,,,0,7,7,11,0,0,0,0,,,,,,,f,0,3.05832195282,f,0,0.758702039719,moral_self_bias,23,19,59.9980831759,f,001,2018_Apr_02_1802,
,,,,,,,,,,,,,,,,,,,,,,material/112.png,1,忠诚,material/12.png,1,material/12.png,忠诚,1,j,j,j,1,1,1,忠心,,,,,,,,,0,7,7,11,,,,,,,,,,,,,,,,,moral_self_bias,23,19,59.9980831759,f,001,2018_Apr_02_1802,
,,,,,,,,,,,,,,,,,,,,,,material/130.png,1,进取,material/30.png,1,material/130.png,上进,1,j,j,j,2,2,2,进取,,,,,,,,,0,8,8,29,0,0,0,0,,,,,,,f,0,5.49143600464,f,0,3.02478384972,moral_self_bias,23,19,59.9980831759,f,001,2018_Apr_02_1802,
,,,,,,,,,,,,,,,,,,,,,,material/130.png,1,进取,material/30.png,1,material/130.png,上进,1,j,j,j,2,2,2,进取,,,,,,,,,0,8,8,29,,,,,,,,,,,,,,,,,moral_self_bias,23,19,59.9980831759,f,001,2018_Apr_02_1802,
,,,,,,,,,,,,,,,,,,,,,,material/43.png,2,虚荣,material/143.png,2,material/143.png,虚荣,2,f,f,f,1,1,1,拜金,,,,,,,,,0,9,9,122,,,,,,,,,,,j,0,3.6239361763,,,,moral_self_bias,23,19,59.9980831759,f,001,2018_Apr_02_1802,
,,,,,,,,,,,,,,,,,,,,,,material/14.png,1,忠贞,material/114.png,1,material/114.png,忠贞,1,f,f,f,1,1,1,爱国,,,,,,,,,0,10,10,93,0,0,0,0,,,,,,,f,1,1.50798106194,f,0,0.475750207901,moral_self_bias,23,19,59.9980831759,f,001,2018_Apr_02_1802,
,,,,,,,,,,,,,,,,,,,,,,material/14.png,1,忠贞,material/114.png,1,material/114.png,忠贞,1,f,f,f,1,1,1,爱国,,,,,,,,,0,10,10,93,,,,,,,,,,,,,,,,,moral_self_bias,23,19,59.9980831759,f,001,2018_Apr_02_1802,
,,,,,,,,,,,,,,,,,,,,,,material/120.png,1,能干,material/20.png,1,material/120.png,厉害,1,j,j,j,2,2,2,能干,,,,,,,,,0,11,11,19,0,0,0,0,,,,,,,f,0,1.82496786118,j,1,0.541372060776,moral_self_bias,23,19,59.9980831759,f,001,2018_Apr_02_1802,
,,,,,,,,,,,,,,,,,,,,,,material/120.png,1,能干,material/20.png,1,material/120.png,厉害,1,j,j,j,2,2,2,能干,,,,,,,,,0,11,11,19,,,,,,,,,,,,,,,,,moral_self_bias,23,19,59.9980831759,f,001,2018_Apr_02_1802,
,,,,,,,,,,,,,,,,,,,,,,material/71.png,1,严谨,material/68.png,1,material/71.png,广博,1,j,j,j,2,2,2,严谨,,,,,,,,,0,12,12,66,0,0,0,0,,,,,,,f,0,1.766933918,j,1,0.440973997116,moral_self_bias,23,19,59.9980831759,f,001,2018_Apr_02_1802,
,,,,,,,,,,,,,,,,,,,,,,material/71.png,1,严谨,material/68.png,1,material/71.png,广博,1,j,j,j,2,2,2,严谨,,,,,,,,,0,12,12,66,,,,,,,,,,,,,,,,,moral_self_bias,23,19,59.9980831759,f,001,2018_Apr_02_1802,
,,,,,,,,,,,,,,,,,,,,,,material/173.png,2,不义,material/174.png,2,material/174.png,不义,2,f,f,f,1,1,1,黑心,,,,,,,,,0,13,13,153,0,0,0,0,,,,,,,f,1,1.85765790939,j,1,0.524753093719,moral_self_bias,23,19,59.9980831759,f,001,2018_Apr_02_1802,
,,,,,,,,,,,,,,,,,,,,,,material/173.png,2,不义,material/174.png,2,material/174.png,不义,2,f,f,f,1,1,1,黑心,,,,,,,,,0,13,13,153,,,,,,,,,,,,,,,,,moral_self_bias,23,19,59.9980831759,f,001,2018_Apr_02_1802,
,,,,,,,,,,,,,,,,,,,,,,material/29.png,1,好学,material/129.png,1,material/29.png,好问,1,f,f,f,2,2,2,好学,,,,,,,,,0,14,14,108,,,,,,,,,,,j,0,1.60783696175,,,,moral_self_bias,23,19,59.9980831759,f,001,2018_Apr_02_1802,
,,,,,,,,,,,,,,,,,,,,,,material/69.png,1,高明,material/69.png,1,material/69.png,高明,1,f,f,f,2,2,2,高明,,,,,,,,,0,15,15,166,0,0,0,0,,,,,,,f,1,1.84116387367,f,0,0.341774940491,moral_self_bias,23,19,59.9980831759,f,001,2018_Apr_02_1802,
,,,,,,,,,,,,,,,,,,,,,,material/69.png,1,高明,material/69.png,1,material/69.png,高明,1,f,f,f,2,2,2,高明,,,,,,,,,0,15,15,166,,,,,,,,,,,,,,,,,moral_self_bias,23,19,59.9980831759,f,001,2018_Apr_02_1802,
,,,,,,,,,,,,,,,,,,,,,,material/163.png,1,文明,material/163.png,1,material/63.png,宽容,1,f,f,f,1,1,1,宽容,,,,,,,,,0,16,16,142,0,0,0,0,,,,,,,f,1,1.60892891884,f,0,0.407904148102,moral_self_bias,23,19,59.9980831759,f,001,2018_Apr_02_1802,
,,,,,,,,,,,,,,,,,,,,,,material/163.png,1,文明,material/163.png,1,material/63.png,宽容,1,f,f,f,1,1,1,宽容,,,,,,,,,0,16,16,142,,,,,,,,,,,,,,,,,moral_self_bias,23,19,59.9980831759,f,001,2018_Apr_02_1802,
,,,,,,,,,,,,,,,,,,,,,,material/2.png,1,爱心,material/102.png,1,material/102.png,爱心,1,f,f,f,1,1,1,善心,,,,,,,,,0,17,17,81,,,,,,,,,,,j,0,1.67485690117,,,,moral_self_bias,23,19,59.9980831759,f,001,2018_Apr_02_1802,
,,,,,,,,,,,,,,,,,,,,,,material/48.png,2,愚蠢,material/148.png,2,material/48.png,笨蛋,2,f,f,f,2,2,2,愚蠢,,,,,,,,,0,18,18,127,,,,,,,,,,,j,0,1.10773015022,,,,moral_self_bias,23,19,59.9980831759,f,001,2018_Apr_02_1802,
,,,,,,,,,,,,,,,,,,,,,,material/155.png,2,盲目,material/55.png,2,material/155.png,盲从,2,j,j,j,2,2,2,盲目,,,,,,,,,0,19,19,54,0,0,0,0,,,,,,,f,0,0.99139380455,f,0,0.375581026077,moral_self_bias,23,19,59.9980831759,f,001,2018_Apr_02_1802,
,,,,,,,,,,,,,,,,,,,,,,material/155.png,2,盲目,material/55.png,2,material/155.png,盲从,2,j,j,j,2,2,2,盲目,,,,,,,,,0,19,19,54,,,,,,,,,,,,,,,,,moral_self_bias,23,19,59.9980831759,f,001,2018_Apr_02_1802,
,,,,,,,,,,,,,,,,,,,,,,material/174.png,2,虚伪,material/76.png,2,material/76.png,虚伪,2,j,j,j,1,1,1,不义,,,,,,,,,0,20,20,72,0,0,0,0,,,,,,,f,0,1.44203805923,j,1,0.757740020752,moral_self_bias,23,19,59.9980831759,f,001,2018_Apr_02_1802,
,,,,,,,,,,,,,,,,,,,,,,material/174.png,2,虚伪,material/76.png,2,material/76.png,虚伪,2,j,j,j,1,1,1,不义,,,,,,,,,0,20,20,72,,,,,,,,,,,,,,,,,moral_self_bias,23,19,59.9980831759,f,001,2018_Apr_02_1802,
,,,,,,,,,,,,,,,,,,,,,,material/103.png,1,仁慈,material/3.png,1,material/3.png,仁慈,1,j,j,j,1,1,1,仁厚,,,,,,,,,0,21,21,2,0,0,0,0,,,,,,,f,0,0.925388813019,f,0,0.342130899429,moral_self_bias,23,19,59.9980831759,f,001,2018_Apr_02_1802,
,,,,,,,,,,,,,,,,,,,,,,material/103.png,1,仁慈,material/3.png,1,material/3.png,仁慈,1,j,j,j,1,1,1,仁厚,,,,,,,,,0,21,21,2,,,,,,,,,,,,,,,,,moral_self_bias,23,19,59.9980831759,f,001,2018_Apr_02_1802,
,,,,,,,,,,,,,,,,,,,,,,material/143.png,2,拜金,material/43.png,2,material/43.png,拜金,2,j,j,j,1,1,1,虚荣,,,,,,,,,0,22,22,42,0,0,0,0,,,,,,,f,0,0.900367021561,f,0,0.274703979492,moral_self_bias,23,19,59.9980831759,f,001,2018_Apr_02_1802,
,,,,,,,,,,,,,,,,,,,,,,material/143.png,2,拜金,material/43.png,2,material/43.png,拜金,2,j,j,j,1,1,1,虚荣,,,,,,,,,0,22,22,42,,,,,,,,,,,,,,,,,moral_self_bias,23,19,59.9980831759,f,001,2018_Apr_02_1802,
,,,,,,,,,,,,,,,,,,,,,,material/23.png,1,有才,material/123.png,1,material/23.png,多才,1,f,f,f,2,2,2,有才,,,,,,,,,0,23,23,102,0,0,0,0,,,,,,,f,1,1.3840470314,j,1,0.340312004089,moral_self_bias,23,19,59.9980831759,f,001,2018_Apr_02_1802,
,,,,,,,,,,,,,,,,,,,,,,material/23.png,1,有才,material/123.png,1,material/23.png,多才,1,f,f,f,2,2,2,有才,,,,,,,,,0,23,23,102,,,,,,,,,,,,,,,,,moral_self_bias,23,19,59.9980831759,f,001,2018_Apr_02_1802,
,,,,,,,,,,,,,,,,,,,,,,material/53.png,2,迟缓,material/153.png,2,material/53.png,迟钝,2,f,f,f,2,2,2,迟缓,,,,,,,,,0,24,24,132,0,0,0,0,,,,,,,f,1,1.54026889801,f,0,0.257461071014,moral_self_bias,23,19,59.9980831759,f,001,2018_Apr_02_1802,
,,,,,,,,,,,,,,,,,,,,,,material/53.png,2,迟缓,material/153.png,2,material/53.png,迟钝,2,f,f,f,2,2,2,迟缓,,,,,,,,,0,24,24,132,,,,,,,,,,,,,,,,,moral_self_bias,23,19,59.9980831759,f,001,2018_Apr_02_1802,
,,,,,,,,,,,,,,,,,,,,,,material/178.png,2,窝囊,material/82.png,2,material/82.png,窝囊,2,j,j,j,2,2,2,毛糙,,,,,,,,,0,25,25,78,0,0,0,0,,,,,,,f,0,0.916399002075,f,0,0.274054050446,moral_self_bias,23,19,59.9980831759,f,001,2018_Apr_02_1802,
,,,,,,,,,,,,,,,,,,,,,,material/178.png,2,窝囊,material/82.png,2,material/82.png,窝囊,2,j,j,j,2,2,2,毛糙,,,,,,,,,0,25,25,78,,,,,,,,,,,,,,,,,moral_self_bias,23,19,59.9980831759,f,001,2018_Apr_02_1802,
,,,,,,,,,,,,,,,,,,,,,,material/168.png,1,机变,material/170.png,1,material/168.png,坚忍,1,f,f,f,2,2,2,机变,,,,,,,,,0,26,26,149,0,0,0,0,,,,,,,f,1,0.825187206268,f,0,0.341011047363,moral_self_bias,23,19,59.9980831759,f,001,2018_Apr_02_1802,
,,,,,,,,,,,,,,,,,,,,,,material/168.png,1,机变,material/170.png,1,material/168.png,坚忍,1,f,f,f,2,2,2,机变,,,,,,,,,0,26,26,149,,,,,,,,,,,,,,,,,moral_self_bias,23,19,59.9980831759,f,001,2018_Apr_02_1802,
,,,,,,,,,,,,,,,,,,,,,,material/133.png,2,腐败,material/33.png,2,material/33.png,腐败,2,j,j,j,1,1,1,贪污,,,,,,,,,0,27,27,32,0,0,0,0,,,,,,,f,0,1.19126605988,f,0,0.207867145538,moral_self_bias,23,19,59.9980831759,f,001,2018_Apr_02_1802,
,,,,,,,,,,,,,,,,,,,,,,material/133.png,2,腐败,material/33.png,2,material/33.png,腐败,2,j,j,j,1,1,1,贪污,,,,,,,,,0,27,27,32,,,,,,,,,,,,,,,,,moral_self_bias,23,19,59.9980831759,f,001,2018_Apr_02_1802,
,,,,,,,,,,,,,,,,,,,,,,material/157.png,2,无能,material/57.png,2,material/157.png,无知,2,j,j,j,2,2,2,无能,,,,,,,,,0,28,28,56,0,0,0,0,,,,,,,f,0,2.82434606552,j,1,0.250467061996,moral_self_bias,23,19,59.9980831759,f,001,2018_Apr_02_1802,
,,,,,,,,,,,,,,,,,,,,,,material/157.png,2,无能,material/57.png,2,material/157.png,无知,2,j,j,j,2,2,2,无能,,,,,,,,,0,28,28,56,,,,,,,,,,,,,,,,,moral_self_bias,23,19,59.9980831759,f,001,2018_Apr_02_1802,
,,,,,,,,,,,,,,,,,,,,,,material/10.png,1,坚毅,material/110.png,1,material/110.png,坚毅,1,f,f,f,1,1,1,顽强,,,,,,,,,0,29,29,89,0,0,0,0,,,,,,,f,1,1.55904102325,j,1,0.257371902466,moral_self_bias,23,19,59.9980831759,f,001,2018_Apr_02_1802,
,,,,,,,,,,,,,,,,,,,,,,material/10.png,1,坚毅,material/110.png,1,material/110.png,坚毅,1,f,f,f,1,1,1,顽强,,,,,,,,,0,29,29,89,,,,,,,,,,,,,,,,,moral_self_bias,23,19,59.9980831759,f,001,2018_Apr_02_1802,
,,,,,,,,,,,,,,,,,,,,,,material/52.png,2,拖延,material/152.png,2,material/52.png,缓慢,2,f,f,f,2,2,2,拖延,,,,,,,,,0,30,30,131,,,,,,,,,,,j,0,4.37466716766,,,,moral_self_bias,23,19,59.9980831759,f,001,2018_Apr_02_1802,
,,,,,,,,,,,,,,,,,,,,,,material/121.png,1,精干,material/21.png,1,material/121.png,干练,1,j,j,j,2,2,2,精干,,,,,,,,,0,31,31,20,,,,,,,,,,,j,1,1.1585419178,,,,moral_self_bias,23,19,59.9980831759,f,001,2018_Apr_02_1802,
,,,,,,,,,,,,,,,,,,,,,,material/82.png,2,毛糙,material/183.png,2,material/178.png,薄弱,2,f,f,f,2,2,2,窝囊,,,,,,,,,0,32,32,162,,,,,,,,,,,j,0,0.708765029907,,,,moral_self_bias,23,19,59.9980831759,f,001,2018_Apr_02_1802,
,,,,,,,,,,,,,,,,,,,,,,material/135.png,2,冷漠,material/35.png,2,material/35.png,冷漠,2,j,j,j,1,1,1,冷血,,,,,,,,,0,33,33,34,0,0,0,0,,,,,,,f,0,1.39206004143,f,0,0.290222167969,moral_self_bias,23,19,59.9980831759,f,001,2018_Apr_02_1802,
,,,,,,,,,,,,,,,,,,,,,,material/135.png,2,冷漠,material/35.png,2,material/35.png,冷漠,2,j,j,j,1,1,1,冷血,,,,,,,,,0,33,33,34,,,,,,,,,,,,,,,,,moral_self_bias,23,19,59.9980831759,f,001,2018_Apr_02_1802,
,,,,,,,,,,,,,,,,,,,,,,material/60.png,2,粗拙,material/160.png,2,material/60.png,笨拙,2,f,f,f,2,2,2,粗拙,,,,,,,,,0,34,34,139,0,0,0,0,,,,,,,f,1,1.12446117401,f,0,0.224595069885,moral_self_bias,23,19,59.9980831759,f,001,2018_Apr_02_1802,
,,,,,,,,,,,,,,,,,,,,,,material/60.png,2,粗拙,material/160.png,2,material/60.png,笨拙,2,f,f,f,2,2,2,粗拙,,,,,,,,,0,34,34,139,,,,,,,,,,,,,,,,,moral_self_bias,23,19,59.9980831759,f,001,2018_Apr_02_1802,
,,,,,,,,,,,,,,,,,,,,,,material/21.png,1,干练,material/121.png,1,material/21.png,精干,1,f,f,f,2,2,2,干练,,,,,,,,,0,35,35,100,,,,,,,,,,,j,0,6.15764689445,,,,moral_self_bias,23,19,59.9980831759,f,001,2018_Apr_02_1802,
,,,,,,,,,,,,,,,,,,,,,,material/177.png,2,谄媚,material/72.png,2,material/72.png,谄媚,2,j,j,j,1,1,1,恶心,,,,,,,,,0,36,36,69,,,,,,,,,,,j,1,1.05895495415,,,,moral_self_bias,23,19,59.9980831759,f,001,2018_Apr_02_1802,
,,,,,,,,,,,,,,,,,,,,,,material/144.png,2,失信,material/44.png,2,material/44.png,失信,2,j,j,j,1,1,1,爽约,,,,,,,,,0,37,37,43,0,0,0,0,,,,,,,f,0,1.17517709732,j,1,0.274626016617,moral_self_bias,23,19,59.9980831759,f,001,2018_Apr_02_1802,
,,,,,,,,,,,,,,,,,,,,,,material/144.png,2,失信,material/44.png,2,material/44.png,失信,2,j,j,j,1,1,1,爽约,,,,,,,,,0,37,37,43,,,,,,,,,,,,,,,,,moral_self_bias,23,19,59.9980831759,f,001,2018_Apr_02_1802,
,,,,,,,,,,,,,,,,,,,,,,material/140.png,2,邪恶,material/40.png,2,material/40.png,邪恶,2,j,j,j,1,1,1,狠毒,,,,,,,,,0,38,38,39,0,0,0,0,,,,,,,f,0,0.841663122177,j,1,0.275205135345,moral_self_bias,23,19,59.9980831759,f,001,2018_Apr_02_1802,
,,,,,,,,,,,,,,,,,,,,,,material/140.png,2,邪恶,material/40.png,2,material/40.png,邪恶,2,j,j,j,1,1,1,狠毒,,,,,,,,,0,38,38,39,,,,,,,,,,,,,,,,,moral_self_bias,23,19,59.9980831759,f,001,2018_Apr_02_1802,
,,,,,,,,,,,,,,,,,,,,,,material/77.png,2,浮夸,material/172.png,2,material/172.png,浮夸,2,f,f,f,1,1,1,软弱,,,,,,,,,0,39,39,151,0,0,0,0,,,,,,,f,1,1.05782008171,f,0,0.274492025375,moral_self_bias,23,19,59.9980831759,f,001,2018_Apr_02_1802,
,,,,,,,,,,,,,,,,,,,,,,material/77.png,2,浮夸,material/172.png,2,material/172.png,浮夸,2,f,f,f,1,1,1,软弱,,,,,,,,,0,39,39,151,,,,,,,,,,,,,,,,,moral_self_bias,23,19,59.9980831759,f,001,2018_Apr_02_1802,
,,,,,,,,,,,,,,,,,,,,,,material/147.png,2,刻板,material/47.png,2,material/147.png,死板,2,j,j,j,2,2,2,刻板,,,,,,,,,0,40,40,46,0,0,0,0,,,,,,,f,0,1.22463107109,j,1,0.224982976913,moral_self_bias,23,19,59.9980831759,f,001,2018_Apr_02_1802,
,,,,,,,,,,,,,,,,,,,,,,material/147.png,2,刻板,material/47.png,2,material/147.png,死板,2,j,j,j,2,2,2,刻板,,,,,,,,,0,40,40,46,,,,,,,,,,,,,,,,,moral_self_bias,23,19,59.9980831759,f,001,2018_Apr_02_1802,
,,,,,,,,,,,,,,,,,,,,,,material/18.png,1,敏锐,material/118.png,1,material/18.png,机敏,1,f,f,f,2,2,2,敏锐,,,,,,,,,0,41,41,97,0,0,0,0,,,,,,,f,1,1.24198698997,f,0,0.257683038712,moral_self_bias,23,19,59.9980831759,f,001,2018_Apr_02_1802,
,,,,,,,,,,,,,,,,,,,,,,material/18.png,1,敏锐,material/118.png,1,material/18.png,机敏,1,f,f,f,2,2,2,敏锐,,,,,,,,,0,41,41,97,,,,,,,,,,,,,,,,,moral_self_bias,23,19,59.9980831759,f,001,2018_Apr_02_1802,
,,,,,,,,,,,,,,,,,,,,,,material/24.png,1,理智,material/124.png,1,material/24.png,冷静,1,f,f,f,2,2,2,理智,,,,,,,,,0,42,42,103,,,,,,,,,,,j,0,1.62470984459,,,,moral_self_bias,23,19,59.9980831759,f,001,2018_Apr_02_1802,
,,,,,,,,,,,,,,,,,,,,,,material/181.png,2,怠惰,material/180.png,2,material/180.png,怠惰,2,f,f,f,2,2,2,犹豫,,,,,,,,,0,43,43,159,,,,,,,,,,,j,0,0.958657026291,,,,moral_self_bias,23,19,59.9980831759,f,001,2018_Apr_02_1802,
,,,,,,,,,,,,,,,,,,,,,,material/72.png,2,软弱,material/77.png,2,material/77.png,软弱,2,j,j,j,1,1,1,谄媚,,,,,,,,,0,44,44,73,0,0,0,0,,,,,,,f,0,1.05790090561,f,0,0.25816988945,moral_self_bias,23,19,59.9980831759,f,001,2018_Apr_02_1802,
,,,,,,,,,,,,,,,,,,,,,,material/72.png,2,软弱,material/77.png,2,material/77.png,软弱,2,j,j,j,1,1,1,谄媚,,,,,,,,,0,44,44,73,,,,,,,,,,,,,,,,,moral_self_bias,23,19,59.9980831759,f,001,2018_Apr_02_1802,
,,,,,,,,,,,,,,,,,,,,,,material/156.png,2,愚钝,material/56.png,2,material/156.png,愚昧,2,j,j,j,2,2,2,愚钝,,,,,,,,,0,45,45,55,0,0,0,0,,,,,,,f,0,2.49078989029,j,1,1.44123411179,moral_self_bias,23,19,59.9980831759,f,001,2018_Apr_02_1802,
,,,,,,,,,,,,,,,,,,,,,,material/156.png,2,愚钝,material/56.png,2,material/156.png,愚昧,2,j,j,j,2,2,2,愚钝,,,,,,,,,0,45,45,55,,,,,,,,,,,,,,,,,moral_self_bias,23,19,59.9980831759,f,001,2018_Apr_02_1802,
,,,,,,,,,,,,,,,,,,,,,,material/20.png,1,厉害,material/120.png,1,material/20.png,能干,1,f,f,f,2,2,2,厉害,,,,,,,,,0,46,46,99,,,,,,,,,,,j,0,2.20819711685,,,,moral_self_bias,23,19,59.9980831759,f,001,2018_Apr_02_1802,
,,,,,,,,,,,,,,,,,,,,,,material/74.png,2,黑心,material/173.png,2,material/173.png,黑心,2,f,f,f,1,1,1,卑劣,,,,,,,,,0,47,47,152,0,0,0,0,,,,,,,f,1,1.08917403221,f,0,0.300348997116,moral_self_bias,23,19,59.9980831759,f,001,2018_Apr_02_1802,
,,,,,,,,,,,,,,,,,,,,,,material/74.png,2,黑心,material/173.png,2,material/173.png,黑心,2,f,f,f,1,1,1,卑劣,,,,,,,,,0,47,47,152,,,,,,,,,,,,,,,,,moral_self_bias,23,19,59.9980831759,f,001,2018_Apr_02_1802,
,,,,,,,,,,,,,,,,,,,,,,material/32.png,2,背叛,material/132.png,2,material/132.png,背叛,2,f,f,f,1,1,1,不忠,,,,,,,,,0,48,48,111,0,0,0,0,,,,,,,f,1,4.20799517632,f,0,0.691164016724,moral_self_bias,23,19,59.9980831759,f,001,2018_Apr_02_1802,
,,,,,,,,,,,,,,,,,,,,,,material/32.png,2,背叛,material/132.png,2,material/132.png,背叛,2,f,f,f,1,1,1,不忠,,,,,,,,,0,48,48,111,,,,,,,,,,,,,,,,,moral_self_bias,23,19,59.9980831759,f,001,2018_Apr_02_1802,
,,,,,,,,,,,,,,,,,,,,,,material/171.png,1,高效,material/67.png,1,material/171.png,骁勇,1,j,j,j,2,2,2,高效,,,,,,,,,0,49,49,65,,,,,,,,,,,j,1,1.00749611855,,,,moral_self_bias,23,19,59.9980831759,f,001,2018_Apr_02_1802,
,,,,,,,,,,,,,,,,,,,,,,material/57.png,2,无知,material/157.png,2,material/57.png,无能,2,f,f,f,2,2,2,无知,,,,,,,,,0,50,50,136,0,0,0,0,,,,,,,f,1,2.07457900047,j,1,0.324807167053,moral_self_bias,23,19,59.9980831759,f,001,2018_Apr_02_1802,
,,,,,,,,,,,,,,,,,,,,,,material/57.png,2,无知,material/157.png,2,material/57.png,无能,2,f,f,f,2,2,2,无知,,,,,,,,,0,50,50,136,,,,,,,,,,,,,,,,,moral_self_bias,23,19,59.9980831759,f,001,2018_Apr_02_1802,
,,,,,,,,,,,,,,,,,,,,,,material/17.png,1,聪明,material/117.png,1,material/17.png,聪颖,1,f,f,f,2,2,2,聪明,,,,,,,,,0,51,51,96,0,0,0,0,,,,,,,f,1,1.05786299706,j,1,0.523836135864,moral_self_bias,23,19,59.9980831759,f,001,2018_Apr_02_1802,
,,,,,,,,,,,,,,,,,,,,,,material/17.png,1,聪明,material/117.png,1,material/17.png,聪颖,1,f,f,f,2,2,2,聪明,,,,,,,,,0,51,51,96,,,,,,,,,,,,,,,,,moral_self_bias,23,19,59.9980831759,f,001,2018_Apr_02_1802,
,,,,,,,,,,,,,,,,,,,,,,material/118.png,1,机敏,material/18.png,1,material/118.png,敏锐,1,j,j,j,2,2,2,机敏,,,,,,,,,0,52,52,17,0,0,0,0,,,,,,,f,0,2.02401995659,j,1,0.20779299736,moral_self_bias,23,19,59.9980831759,f,001,2018_Apr_02_1802,
,,,,,,,,,,,,,,,,,,,,,,material/118.png,1,机敏,material/18.png,1,material/118.png,敏锐,1,j,j,j,2,2,2,机敏,,,,,,,,,0,52,52,17,,,,,,,,,,,,,,,,,moral_self_bias,23,19,59.9980831759,f,001,2018_Apr_02_1802,
,,,,,,,,,,,,,,,,,,,,,,material/28.png,1,克己,material/128.png,1,material/28.png,自律,1,f,f,f,2,2,2,克己,,,,,,,,,0,53,53,107,,,,,,,,,,,j,0,0.933721065521,,,,moral_self_bias,23,19,59.9980831759,f,001,2018_Apr_02_1802,
,,,,,,,,,,,,,,,,,,,,,,material/7.png,1,公平,material/107.png,1,material/107.png,公平,1,f,f,f,1,1,1,公正,,,,,,,,,0,54,54,86,,,,,,,,,,,j,0,1.2081861496,,,,moral_self_bias,23,19,59.9980831759,f,001,2018_Apr_02_1802,
,,,,,,,,,,,,,,,,,,,,,,material/160.png,2,笨拙,material/60.png,2,material/160.png,粗拙,2,j,j,j,2,2,2,笨拙,,,,,,,,,0,55,55,59,0,0,0,0,,,,,,,f,0,1.60521507263,j,1,0.274250984192,moral_self_bias,23,19,59.9980831759,f,001,2018_Apr_02_1802,
,,,,,,,,,,,,,,,,,,,,,,material/160.png,2,笨拙,material/60.png,2,material/160.png,粗拙,2,j,j,j,2,2,2,笨拙,,,,,,,,,0,55,55,59,,,,,,,,,,,,,,,,,moral_self_bias,23,19,59.9980831759,f,001,2018_Apr_02_1802,
,,,,,,,,,,,,,,,,,,,,,,material/15.png,1,纯洁,material/115.png,1,material/115.png,纯洁,1,f,f,f,1,1,1,清白,,,,,,,,,0,56,56,94,,,,,,,,,,,j,0,1.82490086555,,,,moral_self_bias,23,19,59.9980831759,f,001,2018_Apr_02_1802,
,,,,,,,,,,,,,,,,,,,,,,material/142.png,2,阴险,material/42.png,2,material/42.png,阴险,2,j,j,j,1,1,1,奸诈,,,,,,,,,0,57,57,41,0,0,0,0,,,,,,,f,0,1.09120416641,j,1,0.451287984848,moral_self_bias,23,19,59.9980831759,f,001,2018_Apr_02_1802,
,,,,,,,,,,,,,,,,,,,,,,material/142.png,2,阴险,material/42.png,2,material/42.png,阴险,2,j,j,j,1,1,1,奸诈,,,,,,,,,0,57,57,41,,,,,,,,,,,,,,,,,moral_self_bias,23,19,59.9980831759,f,001,2018_Apr_02_1802,
,,,,,,,,,,,,,,,,,,,,,,material/151.png,2,迷糊,material/51.png,2,material/151.png,糊涂,2,j,j,j,2,2,2,迷糊,,,,,,,,,0,58,58,50,0,0,0,0,,,,,,,f,0,1.3916451931,f,0,0.323743104935,moral_self_bias,23,19,59.9980831759,f,001,2018_Apr_02_1802,
,,,,,,,,,,,,,,,,,,,,,,material/151.png,2,迷糊,material/51.png,2,material/151.png,糊涂,2,j,j,j,2,2,2,迷糊,,,,,,,,,0,58,58,50,,,,,,,,,,,,,,,,,moral_self_bias,23,19,59.9980831759,f,001,2018_Apr_02_1802,
,,,,,,,,,,,,,,,,,,,,,,material/35.png,2,冷血,material/135.png,2,material/135.png,冷血,2,f,f,f,1,1,1,冷漠,,,,,,,,,0,59,59,114,,,,,,,,,,,j,0,3.78310799599,,,,moral_self_bias,23,19,59.9980831759,f,001,2018_Apr_02_1802,
,,,,,,,,,,,,,,,,,,,,,,material/129.png,1,好问,material/29.png,1,material/129.png,好学,1,j,j,j,2,2,2,好问,,,,,,,,,0,60,60,28,,,,,,,,,,,j,1,1.17440605164,,,,moral_self_bias,23,19,59.9980831759,f,001,2018_Apr_02_1802,
,,,,,,,,,,,,,,,,,,,,,,material/79.png,2,薄弱,material/81.png,2,material/183.png,无助,2,j,j,j,2,2,2,颓废,,,,,,,,,0,61,61,77,,,,,,,,,,,j,1,2.23354291916,,,,moral_self_bias,23,19,59.9980831759,f,001,2018_Apr_02_1802,
,,,,,,,,,,,,,,,,,,,,,,material/66.png,1,独立,material/66.png,1,material/165.png,正义,1,f,f,f,1,1,1,正义,,,,,,,,,0,62,62,164,0,0,0,0,,,,,,,f,1,2.25734019279,f,0,0.291425943375,moral_self_bias,23,19,59.9980831759,f,001,2018_Apr_02_1802,
,,,,,,,,,,,,,,,,,,,,,,material/66.png,1,独立,material/66.png,1,material/165.png,正义,1,f,f,f,1,1,1,正义,,,,,,,,,0,62,62,164,,,,,,,,,,,,,,,,,moral_self_bias,23,19,59.9980831759,f,001,2018_Apr_02_1802,
,,,,,,,,,,,,,,,,,,,,,,material/67.png,1,骁勇,material/70.png,1,material/67.png,全面,1,j,j,j,2,2,2,骁勇,,,,,,,,,0,63,63,67,0,0,0,0,,,,,,,f,0,2.84228396416,j,1,0.291286945343,moral_self_bias,23,19,59.9980831759,f,001,2018_Apr_02_1802,
,,,,,,,,,,,,,,,,,,,,,,material/67.png,1,骁勇,material/70.png,1,material/67.png,全面,1,j,j,j,2,2,2,骁勇,,,,,,,,,0,63,63,67,,,,,,,,,,,,,,,,,moral_self_bias,23,19,59.9980831759,f,001,2018_Apr_02_1802,
,,,,,,,,,,,,,,,,,,,,,,material/36.png,2,撒谎,material/136.png,2,material/136.png,撒谎,2,f,f,f,1,1,1,说谎,,,,,,,,,0,64,64,115,0,0,0,0,,,,,,,f,1,1.35798287392,f,0,0.258983135223,moral_self_bias,23,19,59.9980831759,f,001,2018_Apr_02_1802,
,,,,,,,,,,,,,,,,,,,,,,material/36.png,2,撒谎,material/136.png,2,material/136.png,撒谎,2,f,f,f,1,1,1,说谎,,,,,,,,,0,64,64,115,,,,,,,,,,,,,,,,,moral_self_bias,23,19,59.9980831759,f,001,2018_Apr_02_1802,
,,,,,,,,,,,,,,,,,,,,,,material/58.png,2,肤浅,material/158.png,2,material/58.png,浅薄,2,f,f,f,2,2,2,肤浅,,,,,,,,,0,65,65,137,0,0,0,0,,,,,,,f,1,1.75764203072,j,1,0.324804067612,moral_self_bias,23,19,59.9980831759,f,001,2018_Apr_02_1802,
,,,,,,,,,,,,,,,,,,,,,,material/58.png,2,肤浅,material/158.png,2,material/58.png,浅薄,2,f,f,f,2,2,2,肤浅,,,,,,,,,0,65,65,137,,,,,,,,,,,,,,,,,moral_self_bias,23,19,59.9980831759,f,001,2018_Apr_02_1802,
,,,,,,,,,,,,,,,,,,,,,,material/123.png,1,多才,material/23.png,1,material/123.png,有才,1,j,j,j,2,2,2,多才,,,,,,,,,0,66,66,22,0,0,0,0,,,,,,,f,0,1.20824599266,f,0,0.574738025665,moral_self_bias,23,19,59.9980831759,f,001,2018_Apr_02_1802,
,,,,,,,,,,,,,,,,,,,,,,material/123.png,1,多才,material/23.png,1,material/123.png,有才,1,j,j,j,2,2,2,多才,,,,,,,,,0,66,66,22,,,,,,,,,,,,,,,,,moral_self_bias,23,19,59.9980831759,f,001,2018_Apr_02_1802,
,,,,,,,,,,,,,,,,,,,,,,material/114.png,1,爱国,material/14.png,1,material/14.png,爱国,1,j,j,j,1,1,1,忠贞,,,,,,,,,0,67,67,13,0,0,0,0,,,,,,,f,0,0.883373022079,j,1,0.29069685936,moral_self_bias,23,19,59.9980831759,f,001,2018_Apr_02_1802,
,,,,,,,,,,,,,,,,,,,,,,material/114.png,1,爱国,material/14.png,1,material/14.png,爱国,1,j,j,j,1,1,1,忠贞,,,,,,,,,0,67,67,13,,,,,,,,,,,,,,,,,moral_self_bias,23,19,59.9980831759,f,001,2018_Apr_02_1802,
,,,,,,,,,,,,,,,,,,,,,,material/27.png,1,卓越,material/127.png,1,material/27.png,超群,1,f,f,f,2,2,2,卓越,,,,,,,,,0,68,68,106,,,,,,,,,,,j,0,0.90812420845,,,,moral_self_bias,23,19,59.9980831759,f,001,2018_Apr_02_1802,
,,,,,,,,,,,,,,,,,,,,,,material/167.png,1,高手,material/169.png,1,material/167.png,颖悟,1,f,f,f,2,2,2,高手,,,,,,,,,0,69,69,148,0,0,0,0,,,,,,,f,1,0.975234031677,f,0,0.241682052612,moral_self_bias,23,19,59.9980831759,f,001,2018_Apr_02_1802,
,,,,,,,,,,,,,,,,,,,,,,material/167.png,1,高手,material/169.png,1,material/167.png,颖悟,1,f,f,f,2,2,2,高手,,,,,,,,,0,69,69,148,,,,,,,,,,,,,,,,,moral_self_bias,23,19,59.9980831759,f,001,2018_Apr_02_1802,
,,,,,,,,,,,,,,,,,,,,,,material/109.png,1,秉直,material/9.png,1,material/9.png,秉直,1,j,j,j,1,1,1,正直,,,,,,,,,0,70,70,8,0,0,0,0,,,,,,,f,0,2.37506103516,j,1,0.241400003433,moral_self_bias,23,19,59.9980831759,f,001,2018_Apr_02_1802,
,,,,,,,,,,,,,,,,,,,,,,material/109.png,1,秉直,material/9.png,1,material/9.png,秉直,1,j,j,j,1,1,1,正直,,,,,,,,,0,70,70,8,,,,,,,,,,,,,,,,,moral_self_bias,23,19,59.9980831759,f,001,2018_Apr_02_1802,
,,,,,,,,,,,,,,,,,,,,,,material/148.png,2,笨蛋,material/48.png,2,material/148.png,愚蠢,2,j,j,j,2,2,2,笨蛋,,,,,,,,,0,71,71,47,0,0,0,0,,,,,,,f,0,1.74222207069,j,1,0.44145488739,moral_self_bias,23,19,59.9980831759,f,001,2018_Apr_02_1802,
,,,,,,,,,,,,,,,,,,,,,,material/148.png,2,笨蛋,material/48.png,2,material/148.png,愚蠢,2,j,j,j,2,2,2,笨蛋,,,,,,,,,0,71,71,47,,,,,,,,,,,,,,,,,moral_self_bias,23,19,59.9980831759,f,001,2018_Apr_02_1802,
,,,,,,,,,,,,,,,,,,,,,,material/150.png,2,鲁钝,material/50.png,2,material/150.png,愚笨,2,j,j,j,2,2,2,鲁钝,,,,,,,,,0,72,72,49,0,0,0,0,,,,,,,f,0,0.991306066513,f,0,0.257458209991,moral_self_bias,23,19,59.9980831759,f,001,2018_Apr_02_1802,
,,,,,,,,,,,,,,,,,,,,,,material/150.png,2,鲁钝,material/50.png,2,material/150.png,愚笨,2,j,j,j,2,2,2,鲁钝,,,,,,,,,0,72,72,49,,,,,,,,,,,,,,,,,moral_self_bias,23,19,59.9980831759,f,001,2018_Apr_02_1802,
,,,,,,,,,,,,,,,,,,,,,,material/34.png,2,可恶,material/134.png,2,material/134.png,可恶,2,f,f,f,1,1,1,可恨,,,,,,,,,0,73,73,113,0,0,0,0,,,,,,,f,1,1.79105997086,j,1,0.225825071335,moral_self_bias,23,19,59.9980831759,f,001,2018_Apr_02_1802,
,,,,,,,,,,,,,,,,,,,,,,material/34.png,2,可恶,material/134.png,2,material/134.png,可恶,2,f,f,f,1,1,1,可恨,,,,,,,,,0,73,73,113,,,,,,,,,,,,,,,,,moral_self_bias,23,19,59.9980831759,f,001,2018_Apr_02_1802,
,,,,,,,,,,,,,,,,,,,,,,material/101.png,1,善良,material/1.png,1,material/1.png,善良,1,j,j,j,1,1,1,博爱,,,,,,,,,0,74,74,0,0,0,0,0,,,,,,,f,0,1.88867402077,f,0,0.42399597168,moral_self_bias,23,19,59.9980831759,f,001,2018_Apr_02_1802,
,,,,,,,,,,,,,,,,,,,,,,material/101.png,1,善良,material/1.png,1,material/1.png,善良,1,j,j,j,1,1,1,博爱,,,,,,,,,0,74,74,0,,,,,,,,,,,,,,,,,moral_self_bias,23,19,59.9980831759,f,001,2018_Apr_02_1802,
,,,,,,,,,,,,,,,,,,,,,,material/6.png,1,厚道,material/106.png,1,material/106.png,厚道,1,f,f,f,1,1,1,诚实,,,,,,,,,0,75,75,85,,,,,,,,,,,j,0,1.76619100571,,,,moral_self_bias,23,19,59.9980831759,f,001,2018_Apr_02_1802,
,,,,,,,,,,,,,,,,,,,,,,material/110.png,1,顽强,material/10.png,1,material/10.png,顽强,1,j,j,j,1,1,1,坚毅,,,,,,,,,0,76,76,9,,,,,,,,,,,j,1,1.04211688042,,,,moral_self_bias,23,19,59.9980831759,f,001,2018_Apr_02_1802,
,,,,,,,,,,,,,,,,,,,,,,material/8.png,1,无私,material/108.png,1,material/108.png,无私,1,f,f,f,1,1,1,公道,,,,,,,,,0,77,77,87,,,,,,,,,,,j,0,2.99190807343,,,,moral_self_bias,23,19,59.9980831759,f,001,2018_Apr_02_1802,
,,,,,,,,,,,,,,,,,,,,,,material/164.png,1,宽容,material/63.png,1,material/163.png,文明,1,j,j,j,1,1,1,孝顺,,,,,,,,,0,78,78,62,0,0,0,0,,,,,,,f,0,0.883387804031,f,0,0.241573810577,moral_self_bias,23,19,59.9980831759,f,001,2018_Apr_02_1802,
,,,,,,,,,,,,,,,,,,,,,,material/164.png,1,宽容,material/63.png,1,material/163.png,文明,1,j,j,j,1,1,1,孝顺,,,,,,,,,0,78,78,62,,,,,,,,,,,,,,,,,moral_self_bias,23,19,59.9980831759,f,001,2018_Apr_02_1802,
,,,,,,,,,,,,,,,,,,,,,,material/169.png,1,颖悟,material/171.png,1,material/169.png,高效,1,f,f,f,2,2,2,颖悟,,,,,,,,,0,79,79,150,,,,,,,,,,,j,0,1.05739092827,,,,moral_self_bias,23,19,59.9980831759,f,001,2018_Apr_02_1802,
,,,,,,,,,,,,,,,,,,,,,,material/16.png,1,睿智,material/116.png,1,material/16.png,机智,1,f,f,f,2,2,2,睿智,,,,,,,,,0,80,80,95,0,0,0,0,,,,,,,f,1,0.92472410202,f,0,0.341887950897,moral_self_bias,23,19,59.9980831759,f,001,2018_Apr_02_1802,
,,,,,,,,,,,,,,,,,,,,,,material/16.png,1,睿智,material/116.png,1,material/16.png,机智,1,f,f,f,2,2,2,睿智,,,,,,,,,0,80,80,95,,,,,,,,,,,,,,,,,moral_self_bias,23,19,59.9980831759,f,001,2018_Apr_02_1802,
,,,,,,,,,,,,,,,,,,,,,,material/132.png,2,不忠,material/32.png,2,material/32.png,不忠,2,j,j,j,1,1,1,背叛,,,,,,,,,0,81,81,31,0,0,0,0,,,,,,,f,0,1.27567315102,f,0,0.258009910583,moral_self_bias,23,19,59.9980831759,f,001,2018_Apr_02_1802,
,,,,,,,,,,,,,,,,,,,,,,material/132.png,2,不忠,material/32.png,2,material/32.png,不忠,2,j,j,j,1,1,1,背叛,,,,,,,,,0,81,81,31,,,,,,,,,,,,,,,,,moral_self_bias,23,19,59.9980831759,f,001,2018_Apr_02_1802,
,,,,,,,,,,,,,,,,,,,,,,material/136.png,2,说谎,material/36.png,2,material/36.png,说谎,2,j,j,j,1,1,1,撒谎,,,,,,,,,0,82,82,35,0,0,0,0,,,,,,,f,0,1.50567102432,j,1,0.217442989349,moral_self_bias,23,19,59.9980831759,f,001,2018_Apr_02_1802,
,,,,,,,,,,,,,,,,,,,,,,material/136.png,2,说谎,material/36.png,2,material/36.png,说谎,2,j,j,j,1,1,1,撒谎,,,,,,,,,0,82,82,35,,,,,,,,,,,,,,,,,moral_self_bias,23,19,59.9980831759,f,001,2018_Apr_02_1802,
,,,,,,,,,,,,,,,,,,,,,,material/106.png,1,诚实,material/6.png,1,material/6.png,诚实,1,j,j,j,1,1,1,厚道,,,,,,,,,0,83,83,5,,,,,,,,,,,j,1,1.22482299805,,,,moral_self_bias,23,19,59.9980831759,f,001,2018_Apr_02_1802,
,,,,,,,,,,,,,,,,,,,,,,material/4.png,1,友善,material/104.png,1,material/104.png,友善,1,f,f,f,1,1,1,友爱,,,,,,,,,0,84,84,83,0,0,0,0,,,,,,,f,1,4.02490901947,f,0,0.241768836975,moral_self_bias,23,19,59.9980831759,f,001,2018_Apr_02_1802,
,,,,,,,,,,,,,,,,,,,,,,material/4.png,1,友善,material/104.png,1,material/104.png,友善,1,f,f,f,1,1,1,友爱,,,,,,,,,0,84,84,83,,,,,,,,,,,,,,,,,moral_self_bias,23,19,59.9980831759,f,001,2018_Apr_02_1802,
,,,,,,,,,,,,,,,,,,,,,,material/184.png,2,草率,material/80.png,2,material/78.png,健忘,2,j,j,j,2,2,2,厌学,,,,,,,,,0,85,85,76,,,,,,,,,,,j,1,1.75898504257,,,,moral_self_bias,23,19,59.9980831759,f,001,2018_Apr_02_1802,
,,,,,,,,,,,,,,,,,,,,,,material/38.png,2,缺德,material/138.png,2,material/138.png,缺德,2,f,f,f,1,1,1,无德,,,,,,,,,0,86,86,117,0,0,0,0,,,,,,,f,1,1.17520999908,j,1,0.292079925537,moral_self_bias,23,19,59.9980831759,f,001,2018_Apr_02_1802,
,,,,,,,,,,,,,,,,,,,,,,material/38.png,2,缺德,material/138.png,2,material/138.png,缺德,2,f,f,f,1,1,1,无德,,,,,,,,,0,86,86,117,,,,,,,,,,,,,,,,,moral_self_bias,23,19,59.9980831759,f,001,2018_Apr_02_1802,
,,,,,,,,,,,,,,,,,,,,,,material/183.png,2,颓废,material/182.png,2,material/79.png,才尽,2,f,f,f,2,2,2,薄弱,,,,,,,,,0,87,87,161,0,0,0,0,,,,,,,f,1,1.97473406792,j,1,0.241443872452,moral_self_bias,23,19,59.9980831759,f,001,2018_Apr_02_1802,
,,,,,,,,,,,,,,,,,,,,,,material/183.png,2,颓废,material/182.png,2,material/79.png,才尽,2,f,f,f,2,2,2,薄弱,,,,,,,,,0,87,87,161,,,,,,,,,,,,,,,,,moral_self_bias,23,19,59.9980831759,f,001,2018_Apr_02_1802,
,,,,,,,,,,,,,,,,,,,,,,material/161.png,1,奉献,material/164.png,1,material/64.png,孝顺,1,f,f,f,1,1,1,勇敢,,,,,,,,,0,88,88,143,,,,,,,,,,,j,0,0.92009305954,,,,moral_self_bias,23,19,59.9980831759,f,001,2018_Apr_02_1802,
,,,,,,,,,,,,,,,,,,,,,,material/61.png,1,仗义,material/65.png,1,material/166.png,谦虚,1,j,j,j,1,1,1,平等,,,,,,,,,0,89,89,64,0,0,0,0,,,,,,,f,0,3.10747098923,f,0,0.225869894028,moral_self_bias,23,19,59.9980831759,f,001,2018_Apr_02_1802,
,,,,,,,,,,,,,,,,,,,,,,material/61.png,1,仗义,material/65.png,1,material/166.png,谦虚,1,j,j,j,1,1,1,平等,,,,,,,,,0,89,89,64,,,,,,,,,,,,,,,,,moral_self_bias,23,19,59.9980831759,f,001,2018_Apr_02_1802,
,,,,,,,,,,,,,,,,,,,,,,material/104.png,1,友爱,material/4.png,1,material/4.png,友爱,1,j,j,j,1,1,1,友善,,,,,,,,,0,90,90,3,0,0,0,0,,,,,,,f,0,1.52459621429,f,0,0.375203847885,moral_self_bias,23,19,59.9980831759,f,001,2018_Apr_02_1802,
,,,,,,,,,,,,,,,,,,,,,,material/104.png,1,友爱,material/4.png,1,material/4.png,友爱,1,j,j,j,1,1,1,友善,,,,,,,,,0,90,90,3,,,,,,,,,,,,,,,,,moral_self_bias,23,19,59.9980831759,f,001,2018_Apr_02_1802,
,,,,,,,,,,,,,,,,,,,,,,material/145.png,2,下流,material/45.png,2,material/45.png,下流,2,j,j,j,1,1,1,小人,,,,,,,,,0,91,91,44,0,0,0,0,,,,,,,f,0,1.00031495094,j,1,0.292361021042,moral_self_bias,23,19,59.9980831759,f,001,2018_Apr_02_1802,
,,,,,,,,,,,,,,,,,,,,,,material/145.png,2,下流,material/45.png,2,material/45.png,下流,2,j,j,j,1,1,1,小人,,,,,,,,,0,91,91,44,,,,,,,,,,,,,,,,,moral_self_bias,23,19,59.9980831759,f,001,2018_Apr_02_1802,
,,,,,,,,,,,,,,,,,,,,,,material/33.png,2,贪污,material/133.png,2,material/133.png,贪污,2,f,f,f,1,1,1,腐败,,,,,,,,,0,92,92,112,0,0,0,0,,,,,,,f,1,0.957381010056,f,0,0.291934013367,moral_self_bias,23,19,59.9980831759,f,001,2018_Apr_02_1802,
,,,,,,,,,,,,,,,,,,,,,,material/33.png,2,贪污,material/133.png,2,material/133.png,贪污,2,f,f,f,1,1,1,腐败,,,,,,,,,0,92,92,112,,,,,,,,,,,,,,,,,moral_self_bias,23,19,59.9980831759,f,001,2018_Apr_02_1802,
,,,,,,,,,,,,,,,,,,,,,,material/165.png,1,平等,material/161.png,1,material/61.png,勇敢,1,f,f,f,1,1,1,独立,,,,,,,,,0,93,93,140,0,0,0,0,,,,,,,f,1,1.3744571209,f,0,0.356615066528,moral_self_bias,23,19,59.9980831759,f,001,2018_Apr_02_1802,
,,,,,,,,,,,,,,,,,,,,,,material/165.png,1,平等,material/161.png,1,material/61.png,勇敢,1,f,f,f,1,1,1,独立,,,,,,,,,0,93,93,140,,,,,,,,,,,,,,,,,moral_self_bias,23,19,59.9980831759,f,001,2018_Apr_02_1802,
,,,,,,,,,,,,,,,,,,,,,,material/63.png,1,正义,material/166.png,1,material/66.png,仗义,1,f,f,f,1,1,1,文明,,,,,,,,,0,94,94,145,,,,,,,,,,,j,0,0.90766787529,,,,moral_self_bias,23,19,59.9980831759,f,001,2018_Apr_02_1802,
,,,,,,,,,,,,,,,,,,,,,,material/41.png,2,残忍,material/141.png,2,material/141.png,残忍,2,f,f,f,1,1,1,歹毒,,,,,,,,,0,95,95,120,0,0,0,0,,,,,,,f,1,1.75755691528,j,1,0.241037130356,moral_self_bias,23,19,59.9980831759,f,001,2018_Apr_02_1802,
,,,,,,,,,,,,,,,,,,,,,,material/41.png,2,残忍,material/141.png,2,material/141.png,残忍,2,f,f,f,1,1,1,歹毒,,,,,,,,,0,95,95,120,,,,,,,,,,,,,,,,,moral_self_bias,23,19,59.9980831759,f,001,2018_Apr_02_1802,
,,,,,,,,,,,,,,,,,,,,,,material/138.png,2,无德,material/38.png,2,material/38.png,无德,2,j,j,j,1,1,1,缺德,,,,,,,,,0,96,96,37,0,0,0,0,,,,,,,f,0,1.16636300087,j,1,0.241504907608,moral_self_bias,23,19,59.9980831759,f,001,2018_Apr_02_1802,
,,,,,,,,,,,,,,,,,,,,,,material/138.png,2,无德,material/38.png,2,material/38.png,无德,2,j,j,j,1,1,1,缺德,,,,,,,,,0,96,96,37,,,,,,,,,,,,,,,,,moral_self_bias,23,19,59.9980831759,f,001,2018_Apr_02_1802,
,,,,,,,,,,,,,,,,,,,,,,material/22.png,1,才学,material/122.png,1,material/22.png,博学,1,f,f,f,2,2,2,才学,,,,,,,,,0,97,97,101,0,0,0,0,,,,,,,f,1,1.14168405533,j,1,0.258913040161,moral_self_bias,23,19,59.9980831759,f,001,2018_Apr_02_1802,
,,,,,,,,,,,,,,,,,,,,,,material/22.png,1,才学,material/122.png,1,material/22.png,博学,1,f,f,f,2,2,2,才学,,,,,,,,,0,97,97,101,,,,,,,,,,,,,,,,,moral_self_bias,23,19,59.9980831759,f,001,2018_Apr_02_1802,
,,,,,,,,,,,,,,,,,,,,,,material/182.png,2,健忘,material/184.png,2,material/80.png,厌学,2,f,f,f,2,2,2,才尽,,,,,,,,,0,98,98,163,,,,,,,,,,,j,0,0.840908050537,,,,moral_self_bias,23,19,59.9980831759,f,001,2018_Apr_02_1802,
,,,,,,,,,,,,,,,,,,,,,,material/107.png,1,公正,material/7.png,1,material/7.png,公正,1,j,j,j,1,1,1,公平,,,,,,,,,0,99,99,6,,,,,,,,,,,j,1,2.00920701027,,,,moral_self_bias,23,19,59.9980831759,f,001,2018_Apr_02_1802,
,,,,,,,,,,,,,,,,,,,,,,material/80.png,2,才尽,material/83.png,2,material/182.png,呆笨,2,j,j,j,2,2,2,健忘,,,,,,,,,0,100,100,79,0,0,0,0,,,,,,,f,0,1.30768895149,j,1,0.256989002228,moral_self_bias,23,19,59.9980831759,f,001,2018_Apr_02_1802,
,,,,,,,,,,,,,,,,,,,,,,material/80.png,2,才尽,material/83.png,2,material/182.png,呆笨,2,j,j,j,2,2,2,健忘,,,,,,,,,0,100,100,79,,,,,,,,,,,,,,,,,moral_self_bias,23,19,59.9980831759,f,001,2018_Apr_02_1802,
,,,,,,,,,,,,,,,,,,,,,,material/13.png,1,廉明,material/113.png,1,material/113.png,廉明,1,f,f,f,1,1,1,廉洁,,,,,,,,,0,101,101,92,,,,,,,,,,,j,0,0.823918104172,,,,moral_self_bias,23,19,59.9980831759,f,001,2018_Apr_02_1802,
,,,,,,,,,,,,,,,,,,,,,,material/30.png,1,上进,material/130.png,1,material/30.png,进取,1,f,f,f,2,2,2,上进,,,,,,,,,0,102,102,109,,,,,,,,,,,j,0,1.02471089363,,,,moral_self_bias,23,19,59.9980831759,f,001,2018_Apr_02_1802,
,,,,,,,,,,,,,,,,,,,,,,material/153.png,2,迟钝,material/53.png,2,material/153.png,迟缓,2,j,j,j,2,2,2,迟钝,,,,,,,,,0,103,103,52,0,0,0,0,,,,,,,f,0,0.941802978516,f,0,0.291048049927,moral_self_bias,23,19,59.9980831759,f,001,2018_Apr_02_1802,
,,,,,,,,,,,,,,,,,,,,,,material/153.png,2,迟钝,material/53.png,2,material/153.png,迟缓,2,j,j,j,2,2,2,迟钝,,,,,,,,,0,103,103,52,,,,,,,,,,,,,,,,,moral_self_bias,23,19,59.9980831759,f,001,2018_Apr_02_1802,
,,,,,,,,,,,,,,,,,,,,,,material/113.png,1,廉洁,material/13.png,1,material/13.png,廉洁,1,j,j,j,1,1,1,廉明,,,,,,,,,0,104,104,12,0,0,0,0,,,,,,,f,0,1.07501387596,f,0,0.275424003601,moral_self_bias,23,19,59.9980831759,f,001,2018_Apr_02_1802,
,,,,,,,,,,,,,,,,,,,,,,material/113.png,1,廉洁,material/13.png,1,material/13.png,廉洁,1,j,j,j,1,1,1,廉明,,,,,,,,,0,104,104,12,,,,,,,,,,,,,,,,,moral_self_bias,23,19,59.9980831759,f,001,2018_Apr_02_1802,
,,,,,,,,,,,,,,,,,,,,,,material/158.png,2,浅薄,material/58.png,2,material/158.png,肤浅,2,j,j,j,2,2,2,浅薄,,,,,,,,,0,105,105,57,0,0,0,0,,,,,,,f,0,3.71722197533,j,1,0.191293954849,moral_self_bias,23,19,59.9980831759,f,001,2018_Apr_02_1802,
,,,,,,,,,,,,,,,,,,,,,,material/158.png,2,浅薄,material/58.png,2,material/158.png,肤浅,2,j,j,j,2,2,2,浅薄,,,,,,,,,0,105,105,57,,,,,,,,,,,,,,,,,moral_self_bias,23,19,59.9980831759,f,001,2018_Apr_02_1802,
,,,,,,,,,,,,,,,,,,,,,,material/170.png,1,坚忍,material/71.png,1,material/170.png,严谨,1,j,j,j,2,2,2,坚忍,,,,,,,,,0,106,106,68,,,,,,,,,,,j,1,3.64221811295,,,,moral_self_bias,23,19,59.9980831759,f,001,2018_Apr_02_1802,
,,,,,,,,,,,,,,,,,,,,,,material/42.png,2,奸诈,material/142.png,2,material/142.png,奸诈,2,f,f,f,1,1,1,阴险,,,,,,,,,0,107,107,121,0,0,0,0,,,,,,,f,1,1.4577190876,f,0,0.408881902695,moral_self_bias,23,19,59.9980831759,f,001,2018_Apr_02_1802,
,,,,,,,,,,,,,,,,,,,,,,material/42.png,2,奸诈,material/142.png,2,material/142.png,奸诈,2,f,f,f,1,1,1,阴险,,,,,,,,,0,107,107,121,,,,,,,,,,,,,,,,,moral_self_bias,23,19,59.9980831759,f,001,2018_Apr_02_1802,
,,,,,,,,,,,,,,,,,,,,,,material/44.png,2,爽约,material/144.png,2,material/144.png,爽约,2,f,f,f,1,1,1,失信,,,,,,,,,0,108,108,123,,,,,,,,,,,j,0,1.8084230423,,,,moral_self_bias,23,19,59.9980831759,f,001,2018_Apr_02_1802,
,,,,,,,,,,,,,,,,,,,,,,material/180.png,2,无助,material/79.png,2,material/81.png,颓废,2,j,j,j,2,2,2,怠惰,,,,,,,,,0,109,109,75,,,,,,,,,,,j,1,0.892482995987,,,,moral_self_bias,23,19,59.9980831759,f,001,2018_Apr_02_1802,
,,,,,,,,,,,,,,,,,,,,,,material/146.png,2,小气,material/46.png,2,material/46.png,小气,2,j,j,j,1,1,1,自私,,,,,,,,,0,110,110,45,0,0,0,0,,,,,,,f,0,1.40846586227,j,1,0.190293073654,moral_self_bias,23,19,59.9980831759,f,001,2018_Apr_02_1802,
,,,,,,,,,,,,,,,,,,,,,,material/146.png,2,小气,material/46.png,2,material/46.png,小气,2,j,j,j,1,1,1,自私,,,,,,,,,0,110,110,45,,,,,,,,,,,,,,,,,moral_self_bias,23,19,59.9980831759,f,001,2018_Apr_02_1802,
,,,,,,,,,,,,,,,,,,,,,,material/11.png,1,高尚,material/111.png,1,material/111.png,高尚,1,f,f,f,1,1,1,高雅,,,,,,,,,0,111,111,90,0,0,0,0,,,,,,,f,1,1.25822019577,f,0,0.292186021805,moral_self_bias,23,19,59.9980831759,f,001,2018_Apr_02_1802,
,,,,,,,,,,,,,,,,,,,,,,material/11.png,1,高尚,material/111.png,1,material/111.png,高尚,1,f,f,f,1,1,1,高雅,,,,,,,,,0,111,111,90,,,,,,,,,,,,,,,,,moral_self_bias,23,19,59.9980831759,f,001,2018_Apr_02_1802,
,,,,,,,,,,,,,,,,,,,,,,material/176.png,2,害人,material/75.png,2,material/75.png,害人,2,j,j,j,1,1,1,放纵,,,,,,,,,0,112,112,71,,,,,,,,,,,j,1,1.25579190254,,,,moral_self_bias,23,19,59.9980831759,f,001,2018_Apr_02_1802,
,,,,,,,,,,,,,,,,,,,,,,material/166.png,1,孝顺,material/64.png,1,material/164.png,奉献,1,j,j,j,1,1,1,仗义,,,,,,,,,0,113,113,63,,,,,,,,,,,j,1,1.12562394142,,,,moral_self_bias,23,19,59.9980831759,f,001,2018_Apr_02_1802,
,,,,,,,,,,,,,,,,,,,,,,material/56.png,2,愚昧,material/156.png,2,material/56.png,愚钝,2,f,f,f,2,2,2,愚昧,,,,,,,,,0,114,114,135,0,0,0,0,,,,,,,f,1,1.35789108276,j,1,0.207307815552,moral_self_bias,23,19,59.9980831759,f,001,2018_Apr_02_1802,
,,,,,,,,,,,,,,,,,,,,,,material/56.png,2,愚昧,material/156.png,2,material/56.png,愚钝,2,f,f,f,2,2,2,愚昧,,,,,,,,,0,114,114,135,,,,,,,,,,,,,,,,,moral_self_bias,23,19,59.9980831759,f,001,2018_Apr_02_1802,
,,,,,,,,,,,,,,,,,,,,,,material/26.png,1,刻苦,material/126.png,1,material/26.png,勤快,1,f,f,f,2,2,2,刻苦,,,,,,,,,0,115,115,105,,,,,,,,,,,j,0,1.59143686295,,,,moral_self_bias,23,19,59.9980831759,f,001,2018_Apr_02_1802,
,,,,,,,,,,,,,,,,,,,,,,material/175.png,2,残虐,material/73.png,2,material/73.png,残虐,2,f,f,f,1,1,1,无情,,,,,,,,,0,116,116,165,0,0,0,0,,,,,,,f,1,1.29202103615,f,0,0.241720914841,moral_self_bias,23,19,59.9980831759,f,001,2018_Apr_02_1802,
,,,,,,,,,,,,,,,,,,,,,,material/175.png,2,残虐,material/73.png,2,material/73.png,残虐,2,f,f,f,1,1,1,无情,,,,,,,,,0,116,116,165,,,,,,,,,,,,,,,,,moral_self_bias,23,19,59.9980831759,f,001,2018_Apr_02_1802,
,,,,,,,,,,,,,,,,,,,,,,material/40.png,2,狠毒,material/140.png,2,material/140.png,狠毒,2,f,f,f,1,1,1,邪恶,,,,,,,,,0,117,117,119,,,,,,,,,,,j,0,2.69116091728,,,,moral_self_bias,23,19,59.9980831759,f,001,2018_Apr_02_1802,
,,,,,,,,,,,,,,,,,,,,,,material/1.png,1,博爱,material/101.png,1,material/101.png,博爱,1,f,f,f,1,1,1,善良,,,,,,,,,0,118,118,80,,,,,,,,,,,j,0,1.03871917725,,,,moral_self_bias,23,19,59.9980831759,f,001,2018_Apr_02_1802,
,,,,,,,,,,,,,,,,,,,,,,material/70.png,1,全面,material/168.png,1,material/70.png,机变,1,f,f,f,2,2,2,全面,,,,,,,,,0,119,119,147,0,0,0,0,,,,,,,f,1,1.84061908722,j,1,0.258605957031,moral_self_bias,23,19,59.9980831759,f,001,2018_Apr_02_1802,
,,,,,,,,,,,,,,,,,,,,,,material/70.png,1,全面,material/168.png,1,material/70.png,机变,1,f,f,f,2,2,2,全面,,,,,,,,,0,119,119,147,,,,,,,,,,,,,,,,,moral_self_bias,23,19,59.9980831759,f,001,2018_Apr_02_1802,
,,,,,,,,,,,,,,,,,,,,,,material/122.png,1,博学,material/22.png,1,material/122.png,才学,1,j,j,j,2,2,2,博学,,,,,,,,,0,120,120,21,0,0,0,0,,,,,,,f,0,1.12544894218,j,1,0.30849981308,moral_self_bias,23,19,59.9980831759,f,001,2018_Apr_02_1802,
,,,,,,,,,,,,,,,,,,,,,,material/122.png,1,博学,material/22.png,1,material/122.png,才学,1,j,j,j,2,2,2,博学,,,,,,,,,0,120,120,21,,,,,,,,,,,,,,,,,moral_self_bias,23,19,59.9980831759,f,001,2018_Apr_02_1802,
,,,,,,,,,,,,,,,,,,,,,,material/3.png,1,仁厚,material/103.png,1,material/103.png,仁厚,1,f,f,f,1,1,1,仁慈,,,,,,,,,0,121,121,82,,,,,,,,,,,j,0,4.15913081169,,,,moral_self_bias,23,19,59.9980831759,f,001,2018_Apr_02_1802,
,,,,,,,,,,,,,,,,,,,,,,material/75.png,2,卑劣,material/74.png,2,material/74.png,卑劣,2,j,j,j,1,1,1,害人,,,,,,,,,0,122,122,70,0,0,0,0,,,,,,,f,0,1.22463202477,j,1,0.29168510437,moral_self_bias,23,19,59.9980831759,f,001,2018_Apr_02_1802,
,,,,,,,,,,,,,,,,,,,,,,material/75.png,2,卑劣,material/74.png,2,material/74.png,卑劣,2,j,j,j,1,1,1,害人,,,,,,,,,0,122,122,70,,,,,,,,,,,,,,,,,moral_self_bias,23,19,59.9980831759,f,001,2018_Apr_02_1802,
,,,,,,,,,,,,,,,,,,,,,,material/25.png,1,果断,material/125.png,1,material/25.png,果敢,1,f,f,f,2,2,2,果断,,,,,,,,,0,123,123,104,0,0,0,0,,,,,,,f,1,1.29138684273,j,1,0.174797058105,moral_self_bias,23,19,59.9980831759,f,001,2018_Apr_02_1802,
,,,,,,,,,,,,,,,,,,,,,,material/25.png,1,果断,material/125.png,1,material/25.png,果敢,1,f,f,f,2,2,2,果断,,,,,,,,,0,123,123,104,,,,,,,,,,,,,,,,,moral_self_bias,23,19,59.9980831759,f,001,2018_Apr_02_1802,
,,,,,,,,,,,,,,,,,,,,,,material/39.png,2,恶毒,material/139.png,2,material/139.png,恶毒,2,f,f,f,1,1,1,凶残,,,,,,,,,0,124,124,118,0,0,0,0,,,,,,,f,1,0.992408037186,j,1,0.155766963959,moral_self_bias,23,19,59.9980831759,f,001,2018_Apr_02_1802,
,,,,,,,,,,,,,,,,,,,,,,material/39.png,2,恶毒,material/139.png,2,material/139.png,恶毒,2,f,f,f,1,1,1,凶残,,,,,,,,,0,124,124,118,,,,,,,,,,,,,,,,,moral_self_bias,23,19,59.9980831759,f,001,2018_Apr_02_1802,
,,,,,,,,,,,,,,,,,,,,,,material/19.png,1,灵活,material/119.png,1,material/19.png,机灵,1,f,f,f,2,2,2,灵活,,,,,,,,,0,125,125,98,0,0,0,0,,,,,,,f,1,1.39204287529,j,1,0.208756923676,moral_self_bias,23,19,59.9980831759,f,001,2018_Apr_02_1802,
,,,,,,,,,,,,,,,,,,,,,,material/19.png,1,灵活,material/119.png,1,material/19.png,机灵,1,f,f,f,2,2,2,灵活,,,,,,,,,0,125,125,98,,,,,,,,,,,,,,,,,moral_self_bias,23,19,59.9980831759,f,001,2018_Apr_02_1802,
,,,,,,,,,,,,,,,,,,,,,,material/64.png,1,谦虚,material/165.png,1,material/65.png,独立,1,f,f,f,1,1,1,奉献,,,,,,,,,0,126,126,144,0,0,0,0,,,,,,,f,1,0.725406885147,j,1,0.22548699379,moral_self_bias,23,19,59.9980831759,f,001,2018_Apr_02_1802,
,,,,,,,,,,,,,,,,,,,,,,material/64.png,1,谦虚,material/165.png,1,material/65.png,独立,1,f,f,f,1,1,1,奉献,,,,,,,,,0,126,126,144,,,,,,,,,,,,,,,,,moral_self_bias,23,19,59.9980831759,f,001,2018_Apr_02_1802,
,,,,,,,,,,,,,,,,,,,,,,material/59.png,2,智障,material/159.png,2,material/59.png,弱智,2,f,f,f,2,2,2,智障,,,,,,,,,0,127,127,138,0,0,0,0,,,,,,,f,1,1.63293981552,f,0,0.241421937943,moral_self_bias,23,19,59.9980831759,f,001,2018_Apr_02_1802,
,,,,,,,,,,,,,,,,,,,,,,material/59.png,2,智障,material/159.png,2,material/59.png,弱智,2,f,f,f,2,2,2,智障,,,,,,,,,0,127,127,138,,,,,,,,,,,,,,,,,moral_self_bias,23,19,59.9980831759,f,001,2018_Apr_02_1802,
,,,,,,,,,,,,,,,,,,,,,,material/12.png,1,忠心,material/112.png,1,material/112.png,忠心,1,f,f,f,1,1,1,忠诚,,,,,,,,,0,128,128,91,0,0,0,0,,,,,,,f,1,1.08342409134,f,0,0.274626970291,moral_self_bias,23,19,59.9980831759,f,001,2018_Apr_02_1802,
,,,,,,,,,,,,,,,,,,,,,,material/12.png,1,忠心,material/112.png,1,material/112.png,忠心,1,f,f,f,1,1,1,忠诚,,,,,,,,,0,128,128,91,,,,,,,,,,,,,,,,,moral_self_bias,23,19,59.9980831759,f,001,2018_Apr_02_1802,
,,,,,,,,,,,,,,,,,,,,,,material/51.png,2,糊涂,material/151.png,2,material/51.png,迷糊,2,f,f,f,2,2,2,糊涂,,,,,,,,,0,129,129,130,0,0,0,0,,,,,,,f,1,1.53332018852,f,0,0.208494901657,moral_self_bias,23,19,59.9980831759,f,001,2018_Apr_02_1802,
,,,,,,,,,,,,,,,,,,,,,,material/51.png,2,糊涂,material/151.png,2,material/51.png,迷糊,2,f,f,f,2,2,2,糊涂,,,,,,,,,0,129,129,130,,,,,,,,,,,,,,,,,moral_self_bias,23,19,59.9980831759,f,001,2018_Apr_02_1802,
,,,,,,,,,,,,,,,,,,,,,,material/117.png,1,聪颖,material/17.png,1,material/117.png,聪明,1,j,j,j,2,2,2,聪颖,,,,,,,,,0,130,130,16,0,0,0,0,,,,,,,f,0,1.17443990707,f,0,0.275892972946,moral_self_bias,23,19,59.9980831759,f,001,2018_Apr_02_1802,
,,,,,,,,,,,,,,,,,,,,,,material/117.png,1,聪颖,material/17.png,1,material/117.png,聪明,1,j,j,j,2,2,2,聪颖,,,,,,,,,0,130,130,16,,,,,,,,,,,,,,,,,moral_self_bias,23,19,59.9980831759,f,001,2018_Apr_02_1802,
,,,,,,,,,,,,,,,,,,,,,,material/9.png,1,正直,material/109.png,1,material/109.png,正直,1,f,f,f,1,1,1,秉直,,,,,,,,,0,131,131,88,,,,,,,,,,,j,0,3.34233593941,,,,moral_self_bias,23,19,59.9980831759,f,001,2018_Apr_02_1802,
,,,,,,,,,,,,,,,,,,,,,,material/179.png,2,顽愚,material/178.png,2,material/84.png,毛糙,2,f,f,f,2,2,2,差生,,,,,,,,,0,132,132,157,,,,,,,,,,,j,0,0.672976970673,,,,moral_self_bias,23,19,59.9980831759,f,001,2018_Apr_02_1802,
,,,,,,,,,,,,,,,,,,,,,,material/128.png,1,自律,material/28.png,1,material/128.png,克己,1,j,j,j,2,2,2,自律,,,,,,,,,0,133,133,27,,,,,,,,,,,j,1,1.45855021477,,,,moral_self_bias,23,19,59.9980831759,f,001,2018_Apr_02_1802,
,,,,,,,,,,,,,,,,,,,,,,material/116.png,1,机智,material/16.png,1,material/116.png,睿智,1,j,j,j,2,2,2,机智,,,,,,,,,0,134,134,15,,,,,,,,,,,j,1,1.44265699387,,,,moral_self_bias,23,19,59.9980831759,f,001,2018_Apr_02_1802,
,,,,,,,,,,,,,,,,,,,,,,material/124.png,1,冷静,material/24.png,1,material/124.png,理智,1,j,j,j,2,2,2,冷静,,,,,,,,,0,135,135,23,0,0,0,0,,,,,,,f,0,1.35899090767,f,0,0.224220991135,moral_self_bias,23,19,59.9980831759,f,001,2018_Apr_02_1802,
,,,,,,,,,,,,,,,,,,,,,,material/124.png,1,冷静,material/24.png,1,material/124.png,理智,1,j,j,j,2,2,2,冷静,,,,,,,,,0,135,135,23,,,,,,,,,,,,,,,,,moral_self_bias,23,19,59.9980831759,f,001,2018_Apr_02_1802,
,,,,,,,,,,,,,,,,,,,,,,material/152.png,2,缓慢,material/52.png,2,material/152.png,拖延,2,j,j,j,2,2,2,缓慢,,,,,,,,,0,136,136,51,0,0,0,0,,,,,,,f,0,1.35728096962,j,1,0.29212808609,moral_self_bias,23,19,59.9980831759,f,001,2018_Apr_02_1802,
,,,,,,,,,,,,,,,,,,,,,,material/152.png,2,缓慢,material/52.png,2,material/152.png,拖延,2,j,j,j,2,2,2,缓慢,,,,,,,,,0,136,136,51,,,,,,,,,,,,,,,,,moral_self_bias,23,19,59.9980831759,f,001,2018_Apr_02_1802,
,,,,,,,,,,,,,,,,,,,,,,material/131.png,1,笃行,material/31.png,1,material/131.png,笃学,1,j,j,j,2,2,2,笃行,,,,,,,,,0,137,137,30,,,,,,,,,,,j,1,1.72448205948,,,,moral_self_bias,23,19,59.9980831759,f,001,2018_Apr_02_1802,
,,,,,,,,,,,,,,,,,,,,,,material/108.png,1,公道,material/8.png,1,material/8.png,公道,1,j,j,j,1,1,1,无私,,,,,,,,,0,138,138,7,,,,,,,,,,,j,1,1.7417781353,,,,moral_self_bias,23,19,59.9980831759,f,001,2018_Apr_02_1802,
,,,,,,,,,,,,,,,,,,,,,,material/65.png,1,勇敢,material/61.png,1,material/161.png,平等,1,j,j,j,1,1,1,谦虚,,,,,,,,,0,139,139,60,,,,,,,,,,,j,1,0.851270914078,,,,moral_self_bias,23,19,59.9980831759,f,001,2018_Apr_02_1802,
,,,,,,,,,,,,,,,,,,,,,,material/46.png,2,自私,material/146.png,2,material/146.png,自私,2,f,f,f,1,1,1,小气,,,,,,,,,0,140,140,125,,,,,,,,,,,j,0,2.70794892311,,,,moral_self_bias,23,19,59.9980831759,f,001,2018_Apr_02_1802,
,,,,,,,,,,,,,,,,,,,,,,material/111.png,1,高雅,material/11.png,1,material/11.png,高雅,1,j,j,j,1,1,1,高尚,,,,,,,,,0,141,141,10,,,,,,,,,,,j,1,0.891116857529,,,,moral_self_bias,23,19,59.9980831759,f,001,2018_Apr_02_1802,
,,,,,,,,,,,,,,,,,,,,,,material/105.png,1,守信,material/5.png,1,material/5.png,守信,1,j,j,j,1,1,1,诚信,,,,,,,,,0,142,142,4,0,0,0,0,,,,,,,f,0,2.24210381508,f,0,0.234315156937,moral_self_bias,23,19,59.9980831759,f,001,2018_Apr_02_1802,
,,,,,,,,,,,,,,,,,,,,,,material/105.png,1,守信,material/5.png,1,material/5.png,守信,1,j,j,j,1,1,1,诚信,,,,,,,,,0,142,142,4,,,,,,,,,,,,,,,,,moral_self_bias,23,19,59.9980831759,f,001,2018_Apr_02_1802,
,,,,,,,,,,,,,,,,,,,,,,material/141.png,2,歹毒,material/41.png,2,material/41.png,歹毒,2,j,j,j,1,1,1,残忍,,,,,,,,,0,143,143,40,0,0,0,0,,,,,,,f,0,2.49127388,j,1,0.258797883987,moral_self_bias,23,19,59.9980831759,f,001,2018_Apr_02_1802,
,,,,,,,,,,,,,,,,,,,,,,material/141.png,2,歹毒,material/41.png,2,material/41.png,歹毒,2,j,j,j,1,1,1,残忍,,,,,,,,,0,143,143,40,,,,,,,,,,,,,,,,,moral_self_bias,23,19,59.9980831759,f,001,2018_Apr_02_1802,
,,,,,,,,,,,,,,,,,,,,,,material/78.png,2,厌学,material/181.png,2,material/184.png,犹豫,2,f,f,f,2,2,2,草率,,,,,,,,,0,144,144,160,,,,,,,,,,,j,0,3.45905995369,,,,moral_self_bias,23,19,59.9980831759,f,001,2018_Apr_02_1802,
,,,,,,,,,,,,,,,,,,,,,,material/83.png,2,差生,material/78.png,2,material/179.png,草率,2,j,j,j,2,2,2,呆笨,,,,,,,,,0,145,145,74,0,0,0,0,,,,,,,f,0,1.09042811394,f,0,0.274459123611,moral_self_bias,23,19,59.9980831759,f,001,2018_Apr_02_1802,
,,,,,,,,,,,,,,,,,,,,,,material/83.png,2,差生,material/78.png,2,material/179.png,草率,2,j,j,j,2,2,2,呆笨,,,,,,,,,0,145,145,74,,,,,,,,,,,,,,,,,moral_self_bias,23,19,59.9980831759,f,001,2018_Apr_02_1802,
,,,,,,,,,,,,,,,,,,,,,,material/50.png,2,愚笨,material/150.png,2,material/50.png,鲁钝,2,f,f,f,2,2,2,愚笨,,,,,,,,,0,146,146,129,,,,,,,,,,,j,0,2.65698194504,,,,moral_self_bias,23,19,59.9980831759,f,001,2018_Apr_02_1802,
,,,,,,,,,,,,,,,,,,,,,,material/172.png,2,无情,material/175.png,2,material/175.png,无情,2,f,f,f,1,1,1,浮夸,,,,,,,,,0,147,147,154,,,,,,,,,,,j,0,1.32423186302,,,,moral_self_bias,23,19,59.9980831759,f,001,2018_Apr_02_1802,
,,,,,,,,,,,,,,,,,,,,,,material/62.png,1,坚韧,material/162.png,1,material/62.png,敬业,1,f,f,f,1,1,1,坚韧,,,,,,,,,0,148,148,141,,,,,,,,,,,j,0,0.800974845886,,,,moral_self_bias,23,19,59.9980831759,f,001,2018_Apr_02_1802,
,,,,,,,,,,,,,,,,,,,,,,material/5.png,1,诚信,material/105.png,1,material/105.png,诚信,1,f,f,f,1,1,1,守信,,,,,,,,,0,149,149,84,,,,,,,,,,,j,0,0.608138084412,,,,moral_self_bias,23,19,59.9980831759,f,001,2018_Apr_02_1802,
,,,,,,,,,,,,,,,,,,,,,,material/126.png,1,勤快,material/26.png,1,material/126.png,刻苦,1,j,j,j,2,2,2,勤快,,,,,,,,,0,150,150,25,0,0,0,0,,,,,,,f,0,2.49096393585,j,1,0.524432897568,moral_self_bias,23,19,59.9980831759,f,001,2018_Apr_02_1802,
,,,,,,,,,,,,,,,,,,,,,,material/126.png,1,勤快,material/26.png,1,material/126.png,刻苦,1,j,j,j,2,2,2,勤快,,,,,,,,,0,150,150,25,,,,,,,,,,,,,,,,,moral_self_bias,23,19,59.9980831759,f,001,2018_Apr_02_1802,
,,,,,,,,,,,,,,,,,,,,,,material/76.png,2,放纵,material/176.png,2,material/176.png,放纵,2,f,f,f,1,1,1,虚伪,,,,,,,,,0,151,151,155,,,,,,,,,,,j,0,0.951422929764,,,,moral_self_bias,23,19,59.9980831759,f,001,2018_Apr_02_1802,
,,,,,,,,,,,,,,,,,,,,,,material/127.png,1,超群,material/27.png,1,material/127.png,卓越,1,j,j,j,2,2,2,超群,,,,,,,,,0,152,152,26,,,,,,,,,,,j,1,0.824846982956,,,,moral_self_bias,23,19,59.9980831759,f,001,2018_Apr_02_1802,
,,,,,,,,,,,,,,,,,,,,,,material/137.png,2,无耻,material/37.png,2,material/37.png,无耻,2,j,j,j,1,1,1,卑鄙,,,,,,,,,0,153,153,36,,,,,,,,,,,j,1,1.35864496231,,,,moral_self_bias,23,19,59.9980831759,f,001,2018_Apr_02_1802,
,,,,,,,,,,,,,,,,,,,,,,material/102.png,1,善心,material/2.png,1,material/2.png,善心,1,j,j,j,1,1,1,爱心,,,,,,,,,0,154,154,1,0,0,0,0,,,,,,,f,0,2.02560591698,f,0,0.342305183411,moral_self_bias,23,19,59.9980831759,f,001,2018_Apr_02_1802,
,,,,,,,,,,,,,,,,,,,,,,material/102.png,1,善心,material/2.png,1,material/2.png,善心,1,j,j,j,1,1,1,爱心,,,,,,,,,0,154,154,1,,,,,,,,,,,,,,,,,moral_self_bias,23,19,59.9980831759,f,001,2018_Apr_02_1802,
,,,,,,,,,,,,,,,,,,,,,,material/162.png,1,敬业,material/62.png,1,material/162.png,坚韧,1,j,j,j,1,1,1,敬业,,,,,,,,,0,155,155,61,0,0,0,0,,,,,,,f,0,3.37370204926,j,1,0.308698892593,moral_self_bias,23,19,59.9980831759,f,001,2018_Apr_02_1802,
,,,,,,,,,,,,,,,,,,,,,,material/162.png,1,敬业,material/62.png,1,material/162.png,坚韧,1,j,j,j,1,1,1,敬业,,,,,,,,,0,155,155,61,,,,,,,,,,,,,,,,,moral_self_bias,23,19,59.9980831759,f,001,2018_Apr_02_1802,
,,,,,,,,,,,,,,,,,,,,,,material/68.png,1,广博,material/167.png,1,material/68.png,高手,1,f,f,f,2,2,2,广博,,,,,,,,,0,156,156,146,0,0,0,0,,,,,,,f,1,1.2571721077,j,1,0.325384140015,moral_self_bias,23,19,59.9980831759,f,001,2018_Apr_02_1802,
,,,,,,,,,,,,,,,,,,,,,,material/68.png,1,广博,material/167.png,1,material/68.png,高手,1,f,f,f,2,2,2,广博,,,,,,,,,0,156,156,146,,,,,,,,,,,,,,,,,moral_self_bias,23,19,59.9980831759,f,001,2018_Apr_02_1802,
,,,,,,,,,,,,,,,,,,,,,,material/49.png,2,痴呆,material/149.png,2,material/49.png,白痴,2,f,f,f,2,2,2,痴呆,,,,,,,,,0,157,157,128,,,,,,,,,,,j,0,0.958424806595,,,,moral_self_bias,23,19,59.9980831759,f,001,2018_Apr_02_1802,
,,,,,,,,,,,,,,,,,,,,,,material/45.png,2,小人,material/145.png,2,material/145.png,小人,2,f,f,f,1,1,1,下流,,,,,,,,,0,158,158,124,,,,,,,,,,,j,0,0.725279092789,,,,moral_self_bias,23,19,59.9980831759,f,001,2018_Apr_02_1802,
,,,,,,,,,,,,,,,,,,,,,,material/154.png,2,依靠,material/54.png,2,material/154.png,依赖,2,j,j,j,2,2,2,依靠,,,,,,,,,0,159,159,53,0,0,0,0,,,,,,,f,0,1.00850081444,f,0,0.358451843262,moral_self_bias,23,19,59.9980831759,f,001,2018_Apr_02_1802,
,,,,,,,,,,,,,,,,,,,,,,material/154.png,2,依靠,material/54.png,2,material/154.png,依赖,2,j,j,j,2,2,2,依靠,,,,,,,,,0,159,159,53,,,,,,,,,,,,,,,,,moral_self_bias,23,19,59.9980831759,f,001,2018_Apr_02_1802,
,,,,,,,,,,,,,,,,,,,,,,material/55.png,2,盲从,material/155.png,2,material/55.png,盲目,2,f,f,f,2,2,2,盲从,,,,,,,,,0,160,160,134,0,0,0,0,,,,,,,f,1,1.34155106544,f,0,0.641499996185,moral_self_bias,23,19,59.9980831759,f,001,2018_Apr_02_1802,
,,,,,,,,,,,,,,,,,,,,,,material/55.png,2,盲从,material/155.png,2,material/55.png,盲目,2,f,f,f,2,2,2,盲从,,,,,,,,,0,160,160,134,,,,,,,,,,,,,,,,,moral_self_bias,23,19,59.9980831759,f,001,2018_Apr_02_1802,
,,,,,,,,,,,,,,,,,,,,,,material/115.png,1,清白,material/15.png,1,material/15.png,清白,1,j,j,j,1,1,1,纯洁,,,,,,,,,0,161,161,14,0,0,0,0,,,,,,,f,0,0.991272926331,j,1,0.442551851273,moral_self_bias,23,19,59.9980831759,f,001,2018_Apr_02_1802,
,,,,,,,,,,,,,,,,,,,,,,material/115.png,1,清白,material/15.png,1,material/15.png,清白,1,j,j,j,1,1,1,纯洁,,,,,,,,,0,161,161,14,,,,,,,,,,,,,,,,,moral_self_bias,23,19,59.9980831759,f,001,2018_Apr_02_1802,
,,,,,,,,,,,,,,,,,,,,,,material/139.png,2,凶残,material/39.png,2,material/39.png,凶残,2,j,j,j,1,1,1,恶毒,,,,,,,,,0,162,162,38,0,0,0,0,,,,,,,f,0,3.90019083023,j,1,0.757660150528,moral_self_bias,23,19,59.9980831759,f,001,2018_Apr_02_1802,
,,,,,,,,,,,,,,,,,,,,,,material/139.png,2,凶残,material/39.png,2,material/39.png,凶残,2,j,j,j,1,1,1,恶毒,,,,,,,,,0,162,162,38,,,,,,,,,,,,,,,,,moral_self_bias,23,19,59.9980831759,f,001,2018_Apr_02_1802,
,,,,,,,,,,,,,,,,,,,,,,material/54.png,2,依赖,material/154.png,2,material/54.png,依靠,2,f,f,f,2,2,2,依赖,,,,,,,,,0,163,163,133,0,0,0,0,,,,,,,f,1,3.04170894623,f,0,0.37456703186,moral_self_bias,23,19,59.9980831759,f,001,2018_Apr_02_1802,
,,,,,,,,,,,,,,,,,,,,,,material/54.png,2,依赖,material/154.png,2,material/54.png,依靠,2,f,f,f,2,2,2,依赖,,,,,,,,,0,163,163,133,,,,,,,,,,,,,,,,,moral_self_bias,23,19,59.9980831759,f,001,2018_Apr_02_1802,
,,,,,,,,,,,,,,,,,,,,,,material/134.png,2,可恨,material/34.png,2,material/34.png,可恨,2,j,j,j,1,1,1,可恶,,,,,,,,,0,164,164,33,,,,,,,,,,,j,1,1.00845909119,,,,moral_self_bias,23,19,59.9980831759,f,001,2018_Apr_02_1802,
,,,,,,,,,,,,,,,,,,,,,,material/125.png,1,果敢,material/25.png,1,material/125.png,果断,1,j,j,j,2,2,2,果敢,,,,,,,,,0,165,165,24,0,0,0,0,,,,,,,f,0,1.40810799599,f,0,0.658143997192,moral_self_bias,23,19,59.9980831759,f,001,2018_Apr_02_1802,
