Block1_Old,Num_Source3,Num_Source2,Num_Source1,valence1,valence2,valence3,Num_Old2,Corr_S1,Num_Old1,Corr_S3,Corr_S2,Block3_Old,Block2_Old,Source_2,Source_3,Source_1,domain3,domain2,domain1,Num_Old3,math,Num_All2,valence_all1,All_Words3,Num_All1,valence_all2,Num_All3,All_Words1,valence_all3,Corr_Rec2,Corr_Rec3,Corr_Rec1,domian_all3,domian_all2,domian_all1,All_Words2,trials.thisRepN,trials.thisTrialN,trials.thisN,trials.thisIndex,trials_2.thisRepN,trials_2.thisTrialN,trials_2.thisN,trials_2.thisIndex,trials_4.thisRepN,trials_4.thisTrialN,trials_4.thisN,trials_4.thisIndex,trials_3.thisRepN,trials_3.thisTrialN,trials_3.thisN,trials_3.thisIndex,block_resp_1.keys,block_resp_1.rt,words_rating.keys,words_rating.rt,block_resp_2.keys,block_resp_2.rt,Rec_resp.keys,Rec_resp.corr,Rec_resp.rt,Source_resp.keys,Source_resp.corr,Source_resp.rt,expName,participant,Age,frameRate,Sex,session,date,
,,,,,,,,,,,,,,,,,,,,,,,,,,,,,,,,,,,,,,,,,,,,,,,,,,,,,3,21.9767699242,,,,,,,,,,,moral_self_bias,24,20,60.044206741,f,001,2018_Apr_02_1822,
公平,material/instr2_2.png,material/instr2_2.png,material/instr2_2.png,1,1,1,material/7.png,j,material/107.png,j,j,公平,公正,friend,friend,friend,1,1,1,material/107.png,,,,,,,,,,,,,,,,,0,0,0,6,,,,,,,,,,,,,,,2,2.62513995171,,,,,,,,,moral_self_bias,24,20,60.044206741,f,001,2018_Apr_02_1822,
孝顺,material/instr2_1.png,material/instr2_1.png,material/instr2_1.png,1,1,1,material/161.png,f,material/164.png,f,f,奉献,勇敢,self,self,self,1,1,1,material/64.png,,,,,,,,,,,,,,,,,0,1,1,63,,,,,,,,,,,,,,,4,1.29183697701,,,,,,,,,moral_self_bias,24,20,60.044206741,f,001,2018_Apr_02_1822,
冷静,material/instr2_1.png,material/instr2_1.png,material/instr2_1.png,1,1,1,material/24.png,f,material/124.png,f,f,理智,理智,self,self,self,2,2,2,material/24.png,,,,,,,,,,,,,,,,,0,2,2,23,,,,,,,,,,,,,,,5,1.52539896965,,,,,,,,,moral_self_bias,24,20,60.044206741,f,001,2018_Apr_02_1822,
坚毅,material/instr2_2.png,material/instr2_2.png,material/instr2_2.png,1,1,1,material/10.png,j,material/110.png,j,j,坚毅,顽强,friend,friend,friend,1,1,1,material/110.png,,,,,,,,,,,,,,,,,0,3,3,9,,,,,,,,,,,,,,,4,1.25913906097,,,,,,,,,moral_self_bias,24,20,60.044206741,f,001,2018_Apr_02_1822,
狠毒,material/instr2_2.png,material/instr2_2.png,material/instr2_2.png,2,2,2,material/40.png,j,material/140.png,j,j,狠毒,邪恶,friend,friend,friend,1,1,1,material/140.png,,,,,,,,,,,,,,,,,0,4,4,39,,,,,,,,,,,,,,,2,1.55900120735,,,,,,,,,moral_self_bias,24,20,60.044206741,f,001,2018_Apr_02_1822,
顽愚,material/instr2_1.png,material/instr2_1.png,material/instr2_1.png,2,2,2,material/84.png,f,material/84.png,f,f,犹豫,顽愚,self,self,self,2,2,2,material/181.png,,,,,,,,,,,,,,,,,0,5,5,87,,,,,,,,,,,,,,,5,1.35978007317,,,,,,,,,moral_self_bias,24,20,60.044206741,f,001,2018_Apr_02_1822,
弱智,material/instr2_1.png,material/instr2_1.png,material/instr2_1.png,2,2,2,material/59.png,f,material/159.png,f,f,智障,智障,self,self,self,2,2,2,material/59.png,,,,,,,,,,,,,,,,,0,6,6,58,,,,,,,,,,,,,,,2,2.25911688805,,,,,,,,,moral_self_bias,24,20,60.044206741,f,001,2018_Apr_02_1822,
多才,material/instr2_1.png,material/instr2_1.png,material/instr2_1.png,1,1,1,material/23.png,f,material/123.png,f,f,有才,有才,self,self,self,2,2,2,material/23.png,,,,,,,,,,,,,,,,,0,7,7,22,,,,,,,,,,,,,,,2,1.57297921181,,,,,,,,,moral_self_bias,24,20,60.044206741,f,001,2018_Apr_02_1822,
诚信,material/instr2_1.png,material/instr2_1.png,material/instr2_1.png,1,1,1,material/5.png,f,material/105.png,f,f,诚信,守信,self,self,self,1,1,1,material/105.png,,,,,,,,,,,,,,,,,0,8,8,4,,,,,,,,,,,,,,,5,1.45284414291,,,,,,,,,moral_self_bias,24,20,60.044206741,f,001,2018_Apr_02_1822,
忠心,material/instr2_1.png,material/instr2_1.png,material/instr2_1.png,1,1,1,material/12.png,f,material/112.png,f,f,忠心,忠诚,self,self,self,1,1,1,material/112.png,,,,,,,,,,,,,,,,,0,9,9,11,,,,,,,,,,,,,,,4,1.14224600792,,,,,,,,,moral_self_bias,24,20,60.044206741,f,001,2018_Apr_02_1822,
虚荣,material/instr2_1.png,material/instr2_1.png,material/instr2_1.png,2,2,2,material/43.png,f,material/143.png,f,f,虚荣,拜金,self,self,self,1,1,1,material/143.png,,,,,,,,,,,,,,,,,0,10,10,42,,,,,,,,,,,,,,,3,1.6262319088,,,,,,,,,moral_self_bias,24,20,60.044206741,f,001,2018_Apr_02_1822,
勤快,material/instr2_2.png,material/instr2_2.png,material/instr2_2.png,1,1,1,material/26.png,j,material/126.png,j,j,刻苦,刻苦,friend,friend,friend,2,2,2,material/26.png,,,,,,,,,,,,,,,,,0,11,11,25,,,,,,,,,,,,,,,3,1.47587513924,,,,,,,,,moral_self_bias,24,20,60.044206741,f,001,2018_Apr_02_1822,
刻板,material/instr2_2.png,material/instr2_2.png,material/instr2_2.png,2,2,2,material/47.png,j,material/147.png,j,j,死板,死板,friend,friend,friend,2,2,2,material/47.png,,,,,,,,,,,,,,,,,0,12,12,46,,,,,,,,,,,,,,,2,1.86631298065,,,,,,,,,moral_self_bias,24,20,60.044206741,f,001,2018_Apr_02_1822,
高手,material/instr2_2.png,material/instr2_2.png,material/instr2_2.png,1,1,1,material/68.png,j,material/167.png,j,j,广博,广博,friend,friend,friend,2,2,2,material/68.png,,,,,,,,,,,,,,,,,0,13,13,66,,,,,,,,,,,,,,,4,1.54199004173,,,,,,,,,moral_self_bias,24,20,60.044206741,f,001,2018_Apr_02_1822,
机变,material/instr2_2.png,material/instr2_2.png,material/instr2_2.png,1,1,1,material/70.png,j,material/168.png,j,j,全面,全面,friend,friend,friend,2,2,2,material/70.png,,,,,,,,,,,,,,,,,0,14,14,67,,,,,,,,,,,,,,,3,2.90880513191,,,,,,,,,moral_self_bias,24,20,60.044206741,f,001,2018_Apr_02_1822,
仁厚,material/instr2_1.png,material/instr2_1.png,material/instr2_1.png,1,1,1,material/3.png,f,material/103.png,f,f,仁厚,仁慈,self,self,self,1,1,1,material/103.png,,,,,,,,,,,,,,,,,0,15,15,2,,,,,,,,,,,,,,,4,1.83322095871,,,,,,,,,moral_self_bias,24,20,60.044206741,f,001,2018_Apr_02_1822,
无情,material/instr2_1.png,material/instr2_1.png,material/instr2_1.png,2,2,2,material/172.png,f,material/175.png,f,f,无情,浮夸,self,self,self,1,1,1,material/175.png,,,,,,,,,,,,,,,,,0,16,16,74,,,,,,,,,,,,,,,1,1.95832300186,,,,,,,,,moral_self_bias,24,20,60.044206741,f,001,2018_Apr_02_1822,
仗义,material/instr2_1.png,material/instr2_1.png,material/instr2_1.png,1,1,1,material/63.png,f,material/166.png,f,f,正义,文明,self,self,self,1,1,1,material/66.png,,,,,,,,,,,,,,,,,0,17,17,65,,,,,,,,,,,,,,,4,1.09219694138,,,,,,,,,moral_self_bias,24,20,60.044206741,f,001,2018_Apr_02_1822,
黑心,material/instr2_2.png,material/instr2_2.png,material/instr2_2.png,2,2,2,material/74.png,j,material/173.png,j,j,黑心,卑劣,friend,friend,friend,1,1,1,material/173.png,,,,,,,,,,,,,,,,,0,18,18,72,,,,,,,,,,,,,,,3,1.75887513161,,,,,,,,,moral_self_bias,24,20,60.044206741,f,001,2018_Apr_02_1822,
高尚,material/instr2_1.png,material/instr2_1.png,material/instr2_1.png,1,1,1,material/11.png,f,material/111.png,f,f,高尚,高雅,self,self,self,1,1,1,material/111.png,,,,,,,,,,,,,,,,,0,19,19,10,,,,,,,,,,,,,,,4,1.87521195412,,,,,,,,,moral_self_bias,24,20,60.044206741,f,001,2018_Apr_02_1822,
毛糙,material/instr2_2.png,material/instr2_2.png,material/instr2_2.png,2,2,2,material/179.png,j,material/178.png,j,j,顽愚,差生,friend,friend,friend,2,2,2,material/84.png,,,,,,,,,,,,,,,,,0,20,20,77,,,,,,,,,,,,,,,1,1.64190196991,,,,,,,,,moral_self_bias,24,20,60.044206741,f,001,2018_Apr_02_1822,
颖悟,material/instr2_2.png,material/instr2_2.png,material/instr2_2.png,1,1,1,material/167.png,j,material/169.png,j,j,高手,高手,friend,friend,friend,2,2,2,material/167.png,,,,,,,,,,,,,,,,,0,21,21,68,,,,,,,,,,,,,,,3,1.1757838726,,,,,,,,,moral_self_bias,24,20,60.044206741,f,001,2018_Apr_02_1822,
博爱,material/instr2_1.png,material/instr2_1.png,material/instr2_1.png,1,1,1,material/1.png,f,material/101.png,f,f,博爱,善良,self,self,self,1,1,1,material/101.png,,,,,,,,,,,,,,,,,0,22,22,0,,,,,,,,,,,,,,,4,1.90895795822,,,,,,,,,moral_self_bias,24,20,60.044206741,f,001,2018_Apr_02_1822,
鲁钝,material/instr2_2.png,material/instr2_2.png,material/instr2_2.png,2,2,2,material/50.png,j,material/150.png,j,j,愚笨,愚笨,friend,friend,friend,2,2,2,material/50.png,,,,,,,,,,,,,,,,,0,23,23,49,,,,,,,,,,,,,,,3,1.74251699448,,,,,,,,,moral_self_bias,24,20,60.044206741,f,001,2018_Apr_02_1822,
博学,material/instr2_1.png,material/instr2_1.png,material/instr2_1.png,1,1,1,material/22.png,f,material/122.png,f,f,才学,才学,self,self,self,2,2,2,material/22.png,,,,,,,,,,,,,,,,,0,24,24,21,,,,,,,,,,,,,,,None,,,,,,,,,,moral_self_bias,24,20,60.044206741,f,001,2018_Apr_02_1822,
笨蛋,material/instr2_2.png,material/instr2_2.png,material/instr2_2.png,2,2,2,material/48.png,j,material/148.png,j,j,愚蠢,愚蠢,friend,friend,friend,2,2,2,material/48.png,,,,,,,,,,,,,,,,,0,25,25,47,,,,,,,,,,,,,,,3,1.3086168766,,,,,,,,,moral_self_bias,24,20,60.044206741,f,001,2018_Apr_02_1822,
厚道,material/instr2_2.png,material/instr2_2.png,material/instr2_2.png,1,1,1,material/6.png,j,material/106.png,j,j,厚道,诚实,friend,friend,friend,1,1,1,material/106.png,,,,,,,,,,,,,,,,,0,26,26,5,,,,,,,,,,,,,,,3,0.341994047165,,,,,,,,,moral_self_bias,24,20,60.044206741,f,001,2018_Apr_02_1822,
依靠,material/instr2_1.png,material/instr2_1.png,material/instr2_1.png,2,2,2,material/54.png,f,material/154.png,f,f,依赖,依赖,self,self,self,2,2,2,material/54.png,,,,,,,,,,,,,,,,,0,27,27,53,,,,,,,,,,,,,,,4,1.85565710068,,,,,,,,,moral_self_bias,24,20,60.044206741,f,001,2018_Apr_02_1822,
好问,material/instr2_1.png,material/instr2_1.png,material/instr2_1.png,1,1,1,material/29.png,f,material/129.png,f,f,好学,好学,self,self,self,2,2,2,material/29.png,,,,,,,,,,,,,,,,,0,28,28,28,,,,,,,,,,,,,,,3,1.20863509178,,,,,,,,,moral_self_bias,24,20,60.044206741,f,001,2018_Apr_02_1822,
贪污,material/instr2_1.png,material/instr2_1.png,material/instr2_1.png,2,2,2,material/33.png,f,material/133.png,f,f,贪污,腐败,self,self,self,1,1,1,material/133.png,,,,,,,,,,,,,,,,,0,29,29,32,,,,,,,,,,,,,,,3,0.808830976486,,,,,,,,,moral_self_bias,24,20,60.044206741,f,001,2018_Apr_02_1822,
无私,material/instr2_2.png,material/instr2_2.png,material/instr2_2.png,1,1,1,material/8.png,j,material/108.png,j,j,无私,公道,friend,friend,friend,1,1,1,material/108.png,,,,,,,,,,,,,,,,,0,30,30,7,,,,,,,,,,,,,,,3,0.858784914017,,,,,,,,,moral_self_bias,24,20,60.044206741,f,001,2018_Apr_02_1822,
廉明,material/instr2_2.png,material/instr2_2.png,material/instr2_2.png,1,1,1,material/13.png,j,material/113.png,j,j,廉明,廉洁,friend,friend,friend,1,1,1,material/113.png,,,,,,,,,,,,,,,,,0,31,31,12,,,,,,,,,,,,,,,3,0.341889858246,,,,,,,,,moral_self_bias,24,20,60.044206741,f,001,2018_Apr_02_1822,
恶心,material/instr2_1.png,material/instr2_1.png,material/instr2_1.png,2,2,2,material/73.png,f,material/177.png,f,f,恶心,残虐,self,self,self,1,1,1,material/177.png,,,,,,,,,,,,,,,,,0,32,32,76,,,,,,,,,,,,,,,1,0.508783102036,,,,,,,,,moral_self_bias,24,20,60.044206741,f,001,2018_Apr_02_1822,
忠贞,material/instr2_2.png,material/instr2_2.png,material/instr2_2.png,1,1,1,material/14.png,j,material/114.png,j,j,忠贞,爱国,friend,friend,friend,1,1,1,material/114.png,,,,,,,,,,,,,,,,,0,33,33,13,,,,,,,,,,,,,,,1,0.542320013046,,,,,,,,,moral_self_bias,24,20,60.044206741,f,001,2018_Apr_02_1822,
缓慢,material/instr2_1.png,material/instr2_1.png,material/instr2_1.png,2,2,2,material/52.png,f,material/152.png,f,f,拖延,拖延,self,self,self,2,2,2,material/52.png,,,,,,,,,,,,,,,,,0,34,34,51,,,,,,,,,,,,,,,3,1.14181613922,,,,,,,,,moral_self_bias,24,20,60.044206741,f,001,2018_Apr_02_1822,
机敏,material/instr2_2.png,material/instr2_2.png,material/instr2_2.png,1,1,1,material/18.png,j,material/118.png,j,j,敏锐,敏锐,friend,friend,friend,2,2,2,material/18.png,,,,,,,,,,,,,,,,,0,35,35,17,,,,,,,,,,,,,,,4,0.992807149887,,,,,,,,,moral_self_bias,24,20,60.044206741,f,001,2018_Apr_02_1822,
正义,material/instr2_1.png,material/instr2_1.png,material/instr2_1.png,1,1,1,material/66.png,f,material/66.png,f,f,独立,正义,self,self,self,1,1,1,material/165.png,,,,,,,,,,,,,,,,,0,36,36,84,,,,,,,,,,,,,,,4,1.42574882507,,,,,,,,,moral_self_bias,24,20,60.044206741,f,001,2018_Apr_02_1822,
友善,material/instr2_1.png,material/instr2_1.png,material/instr2_1.png,1,1,1,material/4.png,f,material/104.png,f,f,友善,友爱,self,self,self,1,1,1,material/104.png,,,,,,,,,,,,,,,,,0,37,37,3,,,,,,,,,,,,,,,4,0.625632047653,,,,,,,,,moral_self_bias,24,20,60.044206741,f,001,2018_Apr_02_1822,
迟钝,material/instr2_1.png,material/instr2_1.png,material/instr2_1.png,2,2,2,material/53.png,f,material/153.png,f,f,迟缓,迟缓,self,self,self,2,2,2,material/53.png,,,,,,,,,,,,,,,,,0,38,38,52,,,,,,,,,,,,,,,3,1.20819497108,,,,,,,,,moral_self_bias,24,20,60.044206741,f,001,2018_Apr_02_1822,
正直,material/instr2_2.png,material/instr2_2.png,material/instr2_2.png,1,1,1,material/9.png,j,material/109.png,j,j,正直,秉直,friend,friend,friend,1,1,1,material/109.png,,,,,,,,,,,,,,,,,0,39,39,8,,,,,,,,,,,,,,,3,1.32558012009,,,,,,,,,moral_self_bias,24,20,60.044206741,f,001,2018_Apr_02_1822,
爽约,material/instr2_2.png,material/instr2_2.png,material/instr2_2.png,2,2,2,material/44.png,j,material/144.png,j,j,爽约,失信,friend,friend,friend,1,1,1,material/144.png,,,,,,,,,,,,,,,,,0,40,40,43,,,,,,,,,,,,,,,3,1.27545499802,,,,,,,,,moral_self_bias,24,20,60.044206741,f,001,2018_Apr_02_1822,
进取,material/instr2_1.png,material/instr2_1.png,material/instr2_1.png,1,1,1,material/30.png,f,material/130.png,f,f,上进,上进,self,self,self,2,2,2,material/30.png,,,,,,,,,,,,,,,,,0,41,41,29,,,,,,,,,,,,,,,3,0.675988912582,,,,,,,,,moral_self_bias,24,20,60.044206741,f,001,2018_Apr_02_1822,
迷糊,material/instr2_2.png,material/instr2_2.png,material/instr2_2.png,2,2,2,material/51.png,j,material/151.png,j,j,糊涂,糊涂,friend,friend,friend,2,2,2,material/51.png,,,,,,,,,,,,,,,,,0,42,42,50,,,,,,,,,,,,,,,3,0.792356967926,,,,,,,,,moral_self_bias,24,20,60.044206741,f,001,2018_Apr_02_1822,
独立,material/instr2_1.png,material/instr2_1.png,material/instr2_1.png,1,1,1,material/64.png,f,material/165.png,f,f,谦虚,奉献,self,self,self,1,1,1,material/65.png,,,,,,,,,,,,,,,,,0,43,43,64,,,,,,,,,,,,,,,4,0.892120838165,,,,,,,,,moral_self_bias,24,20,60.044206741,f,001,2018_Apr_02_1822,
坚忍,material/instr2_1.png,material/instr2_1.png,material/instr2_1.png,1,1,1,material/168.png,f,material/170.png,f,f,机变,机变,self,self,self,2,2,2,material/168.png,,,,,,,,,,,,,,,,,0,44,44,69,,,,,,,,,,,,,,,3,0.755875110626,,,,,,,,,moral_self_bias,24,20,60.044206741,f,001,2018_Apr_02_1822,
残忍,material/instr2_2.png,material/instr2_2.png,material/instr2_2.png,2,2,2,material/41.png,j,material/141.png,j,j,残忍,歹毒,friend,friend,friend,1,1,1,material/141.png,,,,,,,,,,,,,,,,,0,45,45,40,,,,,,,,,,,,,,,3,0.69216799736,,,,,,,,,moral_self_bias,24,20,60.044206741,f,001,2018_Apr_02_1822,
奸诈,material/instr2_1.png,material/instr2_1.png,material/instr2_1.png,2,2,2,material/42.png,f,material/142.png,f,f,奸诈,阴险,self,self,self,1,1,1,material/142.png,,,,,,,,,,,,,,,,,0,46,46,41,,,,,,,,,,,,,,,3,0.649764060974,,,,,,,,,moral_self_bias,24,20,60.044206741,f,001,2018_Apr_02_1822,
宽容,material/instr2_2.png,material/instr2_2.png,material/instr2_2.png,1,1,1,material/163.png,j,material/163.png,j,j,文明,宽容,friend,friend,friend,1,1,1,material/63.png,,,,,,,,,,,,,,,,,0,47,47,62,,,,,,,,,,,,,,,4,1.47515106201,,,,,,,,,moral_self_bias,24,20,60.044206741,f,001,2018_Apr_02_1822,
不义,material/instr2_2.png,material/instr2_2.png,material/instr2_2.png,2,2,2,material/173.png,j,material/174.png,j,j,不义,黑心,friend,friend,friend,1,1,1,material/174.png,,,,,,,,,,,,,,,,,0,48,48,73,,,,,,,,,,,,,,,3,1.04222106934,,,,,,,,,moral_self_bias,24,20,60.044206741,f,001,2018_Apr_02_1822,
可恶,material/instr2_1.png,material/instr2_1.png,material/instr2_1.png,2,2,2,material/34.png,f,material/134.png,f,f,可恶,可恨,self,self,self,1,1,1,material/134.png,,,,,,,,,,,,,,,,,0,49,49,33,,,,,,,,,,,,,,,3,1.60918283463,,,,,,,,,moral_self_bias,24,20,60.044206741,f,001,2018_Apr_02_1822,
勇敢,material/instr2_2.png,material/instr2_2.png,material/instr2_2.png,1,1,1,material/165.png,j,material/161.png,j,j,平等,独立,friend,friend,friend,1,1,1,material/61.png,,,,,,,,,,,,,,,,,0,50,50,60,,,,,,,,,,,,,,,3,0.624644994736,,,,,,,,,moral_self_bias,24,20,60.044206741,f,001,2018_Apr_02_1822,
愚钝,material/instr2_1.png,material/instr2_1.png,material/instr2_1.png,2,2,2,material/56.png,f,material/156.png,f,f,愚昧,愚昧,self,self,self,2,2,2,material/56.png,,,,,,,,,,,,,,,,,0,51,51,55,,,,,,,,,,,,,,,4,0.923783063889,,,,,,,,,moral_self_bias,24,20,60.044206741,f,001,2018_Apr_02_1822,
厌学,material/instr2_2.png,material/instr2_2.png,material/instr2_2.png,2,2,2,material/182.png,j,material/184.png,j,j,健忘,才尽,friend,friend,friend,2,2,2,material/80.png,,,,,,,,,,,,,,,,,0,52,52,83,,,,,,,,,,,,,,,3,0.942085027695,,,,,,,,,moral_self_bias,24,20,60.044206741,f,001,2018_Apr_02_1822,
敬业,material/instr2_2.png,material/instr2_2.png,material/instr2_2.png,1,1,1,material/62.png,j,material/162.png,j,j,坚韧,坚韧,friend,friend,friend,1,1,1,material/62.png,,,,,,,,,,,,,,,,,0,53,53,61,,,,,,,,,,,,,,,4,1.0914349556,,,,,,,,,moral_self_bias,24,20,60.044206741,f,001,2018_Apr_02_1822,
背叛,material/instr2_1.png,material/instr2_1.png,material/instr2_1.png,2,2,2,material/32.png,f,material/132.png,f,f,背叛,不忠,self,self,self,1,1,1,material/132.png,,,,,,,,,,,,,,,,,0,54,54,31,,,,,,,,,,,,,,,3,0.983222961426,,,,,,,,,moral_self_bias,24,20,60.044206741,f,001,2018_Apr_02_1822,
浅薄,material/instr2_2.png,material/instr2_2.png,material/instr2_2.png,2,2,2,material/58.png,j,material/158.png,j,j,肤浅,肤浅,friend,friend,friend,2,2,2,material/58.png,,,,,,,,,,,,,,,,,0,55,55,57,,,,,,,,,,,,,,,4,0.90943312645,,,,,,,,,moral_self_bias,24,20,60.044206741,f,001,2018_Apr_02_1822,
高效,material/instr2_1.png,material/instr2_1.png,material/instr2_1.png,1,1,1,material/169.png,f,material/171.png,f,f,颖悟,颖悟,self,self,self,2,2,2,material/169.png,,,,,,,,,,,,,,,,,0,56,56,70,,,,,,,,,,,,,,,4,1.19253492355,,,,,,,,,moral_self_bias,24,20,60.044206741,f,001,2018_Apr_02_1822,
缺德,material/instr2_2.png,material/instr2_2.png,material/instr2_2.png,2,2,2,material/38.png,j,material/138.png,j,j,缺德,无德,friend,friend,friend,1,1,1,material/138.png,,,,,,,,,,,,,,,,,0,57,57,37,,,,,,,,,,,,,,,3,1.60031604767,,,,,,,,,moral_self_bias,24,20,60.044206741,f,001,2018_Apr_02_1822,
机智,material/instr2_2.png,material/instr2_2.png,material/instr2_2.png,1,1,1,material/16.png,j,material/116.png,j,j,睿智,睿智,friend,friend,friend,2,2,2,material/16.png,,,,,,,,,,,,,,,,,0,58,58,15,,,,,,,,,,,,,,,4,1.39232301712,,,,,,,,,moral_self_bias,24,20,60.044206741,f,001,2018_Apr_02_1822,
犹豫,material/instr2_1.png,material/instr2_1.png,material/instr2_1.png,2,2,2,material/78.png,f,material/181.png,f,f,厌学,草率,self,self,self,2,2,2,material/184.png,,,,,,,,,,,,,,,,,0,59,59,80,,,,,,,,,,,,,,,3,0.925508022308,,,,,,,,,moral_self_bias,24,20,60.044206741,f,001,2018_Apr_02_1822,
超群,material/instr2_2.png,material/instr2_2.png,material/instr2_2.png,1,1,1,material/27.png,j,material/127.png,j,j,卓越,卓越,friend,friend,friend,2,2,2,material/27.png,,,,,,,,,,,,,,,,,0,60,60,26,,,,,,,,,,,,,,,4,1.02551603317,,,,,,,,,moral_self_bias,24,20,60.044206741,f,001,2018_Apr_02_1822,
恶毒,material/instr2_2.png,material/instr2_2.png,material/instr2_2.png,2,2,2,material/39.png,j,material/139.png,j,j,恶毒,凶残,friend,friend,friend,1,1,1,material/139.png,,,,,,,,,,,,,,,,,0,61,61,38,,,,,,,,,,,,,,,3,0.875296115875,,,,,,,,,moral_self_bias,24,20,60.044206741,f,001,2018_Apr_02_1822,
撒谎,material/instr2_1.png,material/instr2_1.png,material/instr2_1.png,2,2,2,material/36.png,f,material/136.png,f,f,撒谎,说谎,self,self,self,1,1,1,material/136.png,,,,,,,,,,,,,,,,,0,62,62,35,,,,,,,,,,,,,,,4,1.19216012955,,,,,,,,,moral_self_bias,24,20,60.044206741,f,001,2018_Apr_02_1822,
纯洁,material/instr2_2.png,material/instr2_2.png,material/instr2_2.png,1,1,1,material/15.png,j,material/115.png,j,j,纯洁,清白,friend,friend,friend,1,1,1,material/115.png,,,,,,,,,,,,,,,,,0,63,63,14,,,,,,,,,,,,,,,4,1.59217905998,,,,,,,,,moral_self_bias,24,20,60.044206741,f,001,2018_Apr_02_1822,
爱心,material/instr2_1.png,material/instr2_1.png,material/instr2_1.png,1,1,1,material/2.png,f,material/102.png,f,f,爱心,善心,self,self,self,1,1,1,material/102.png,,,,,,,,,,,,,,,,,0,64,64,1,,,,,,,,,,,,,,,3,1.19228386879,,,,,,,,,moral_self_bias,24,20,60.044206741,f,001,2018_Apr_02_1822,
薄弱,material/instr2_1.png,material/instr2_1.png,material/instr2_1.png,2,2,2,material/82.png,f,material/183.png,f,f,毛糙,窝囊,self,self,self,2,2,2,material/178.png,,,,,,,,,,,,,,,,,0,65,65,82,,,,,,,,,,,,,,,3,1.02533888817,,,,,,,,,moral_self_bias,24,20,60.044206741,f,001,2018_Apr_02_1822,
才尽,material/instr2_1.png,material/instr2_1.png,material/instr2_1.png,2,2,2,material/183.png,f,material/182.png,f,f,颓废,薄弱,self,self,self,2,2,2,material/79.png,,,,,,,,,,,,,,,,,0,66,66,81,,,,,,,,,,,,,,,3,0.808948993683,,,,,,,,,moral_self_bias,24,20,60.044206741,f,001,2018_Apr_02_1822,
卑鄙,material/instr2_2.png,material/instr2_2.png,material/instr2_2.png,2,2,2,material/37.png,j,material/137.png,j,j,卑鄙,无耻,friend,friend,friend,1,1,1,material/137.png,,,,,,,,,,,,,,,,,0,67,67,36,,,,,,,,,,,,,,,3,1.9082839489,,,,,,,,,moral_self_bias,24,20,60.044206741,f,001,2018_Apr_02_1822,
怠惰,material/instr2_2.png,material/instr2_2.png,material/instr2_2.png,2,2,2,material/181.png,j,material/180.png,j,j,怠惰,犹豫,friend,friend,friend,2,2,2,material/180.png,,,,,,,,,,,,,,,,,0,68,68,79,,,,,,,,,,,,,,,2,1.32578110695,,,,,,,,,moral_self_bias,24,20,60.044206741,f,001,2018_Apr_02_1822,
高明,material/instr2_1.png,material/instr2_1.png,material/instr2_1.png,1,1,1,material/69.png,f,material/69.png,f,f,高明,高明,self,self,self,2,2,2,material/69.png,,,,,,,,,,,,,,,,,0,69,69,86,,,,,,,,,,,,,,,4,1.22489500046,,,,,,,,,moral_self_bias,24,20,60.044206741,f,001,2018_Apr_02_1822,
笃行,material/instr2_1.png,material/instr2_1.png,material/instr2_1.png,1,1,1,material/31.png,f,material/131.png,f,f,笃学,笃学,self,self,self,2,2,2,material/31.png,,,,,,,,,,,,,,,,,0,70,70,30,,,,,,,,,,,,,,,3,0.805969953537,,,,,,,,,moral_self_bias,24,20,60.044206741,f,001,2018_Apr_02_1822,
无能,material/instr2_2.png,material/instr2_2.png,material/instr2_2.png,2,2,2,material/57.png,j,material/157.png,j,j,无知,无知,friend,friend,friend,2,2,2,material/57.png,,,,,,,,,,,,,,,,,0,71,71,56,,,,,,,,,,,,,,,3,1.27537918091,,,,,,,,,moral_self_bias,24,20,60.044206741,f,001,2018_Apr_02_1822,
放纵,material/instr2_1.png,material/instr2_1.png,material/instr2_1.png,2,2,2,material/76.png,f,material/176.png,f,f,放纵,虚伪,self,self,self,1,1,1,material/176.png,,,,,,,,,,,,,,,,,0,72,72,75,,,,,,,,,,,,,,,3,0.792664051056,,,,,,,,,moral_self_bias,24,20,60.044206741,f,001,2018_Apr_02_1822,
残虐,material/instr2_1.png,material/instr2_1.png,material/instr2_1.png,2,2,2,material/175.png,f,material/73.png,f,f,残虐,无情,self,self,self,1,1,1,material/73.png,,,,,,,,,,,,,,,,,0,73,73,85,,,,,,,,,,,,,,,3,0.558386087418,,,,,,,,,moral_self_bias,24,20,60.044206741,f,001,2018_Apr_02_1822,
能干,material/instr2_2.png,material/instr2_2.png,material/instr2_2.png,1,1,1,material/20.png,j,material/120.png,j,j,厉害,厉害,friend,friend,friend,2,2,2,material/20.png,,,,,,,,,,,,,,,,,0,74,74,19,,,,,,,,,,,,,,,3,0.441547870636,,,,,,,,,moral_self_bias,24,20,60.044206741,f,001,2018_Apr_02_1822,
自律,material/instr2_2.png,material/instr2_2.png,material/instr2_2.png,1,1,1,material/28.png,j,material/128.png,j,j,克己,克己,friend,friend,friend,2,2,2,material/28.png,,,,,,,,,,,,,,,,,0,75,75,27,,,,,,,,,,,,,,,4,0.791135072708,,,,,,,,,moral_self_bias,24,20,60.044206741,f,001,2018_Apr_02_1822,
冷血,material/instr2_1.png,material/instr2_1.png,material/instr2_1.png,2,2,2,material/35.png,f,material/135.png,f,f,冷血,冷漠,self,self,self,1,1,1,material/135.png,,,,,,,,,,,,,,,,,0,76,76,34,,,,,,,,,,,,,,,3,1.52567100525,,,,,,,,,moral_self_bias,24,20,60.044206741,f,001,2018_Apr_02_1822,
聪颖,material/instr2_2.png,material/instr2_2.png,material/instr2_2.png,1,1,1,material/17.png,j,material/117.png,j,j,聪明,聪明,friend,friend,friend,2,2,2,material/17.png,,,,,,,,,,,,,,,,,0,77,77,16,,,,,,,,,,,,,,,5,1.2756421566,,,,,,,,,moral_self_bias,24,20,60.044206741,f,001,2018_Apr_02_1822,
白痴,material/instr2_2.png,material/instr2_2.png,material/instr2_2.png,2,2,2,material/49.png,j,material/149.png,j,j,痴呆,痴呆,friend,friend,friend,2,2,2,material/49.png,,,,,,,,,,,,,,,,,0,78,78,48,,,,,,,,,,,,,,,3,0.891656160355,,,,,,,,,moral_self_bias,24,20,60.044206741,f,001,2018_Apr_02_1822,
精干,material/instr2_1.png,material/instr2_1.png,material/instr2_1.png,1,1,1,material/21.png,f,material/121.png,f,f,干练,干练,self,self,self,2,2,2,material/21.png,,,,,,,,,,,,,,,,,0,79,79,20,,,,,,,,,,,,,,,3,1.52466583252,,,,,,,,,moral_self_bias,24,20,60.044206741,f,001,2018_Apr_02_1822,
盲目,material/instr2_1.png,material/instr2_1.png,material/instr2_1.png,2,2,2,material/55.png,f,material/155.png,f,f,盲从,盲从,self,self,self,2,2,2,material/55.png,,,,,,,,,,,,,,,,,0,80,80,54,,,,,,,,,,,,,,,3,1.30834817886,,,,,,,,,moral_self_bias,24,20,60.044206741,f,001,2018_Apr_02_1822,
果敢,material/instr2_1.png,material/instr2_1.png,material/instr2_1.png,1,1,1,material/25.png,f,material/125.png,f,f,果断,果断,self,self,self,2,2,2,material/25.png,,,,,,,,,,,,,,,,,0,81,81,24,,,,,,,,,,,,,,,3,0.791919946671,,,,,,,,,moral_self_bias,24,20,60.044206741,f,001,2018_Apr_02_1822,
差生,material/instr2_2.png,material/instr2_2.png,material/instr2_2.png,2,2,2,material/81.png,j,material/179.png,j,j,呆笨,无助,friend,friend,friend,2,2,2,material/83.png,,,,,,,,,,,,,,,,,0,82,82,78,,,,,,,,,,,,,,,1,1.72635006905,,,,,,,,,moral_self_bias,24,20,60.044206741,f,001,2018_Apr_02_1822,
浮夸,material/instr2_2.png,material/instr2_2.png,material/instr2_2.png,2,2,2,material/77.png,j,material/172.png,j,j,浮夸,软弱,friend,friend,friend,1,1,1,material/172.png,,,,,,,,,,,,,,,,,0,83,83,71,,,,,,,,,,,,,,,3,1.37556910515,,,,,,,,,moral_self_bias,24,20,60.044206741,f,001,2018_Apr_02_1822,
机灵,material/instr2_2.png,material/instr2_2.png,material/instr2_2.png,1,1,1,material/19.png,j,material/119.png,j,j,灵活,灵活,friend,friend,friend,2,2,2,material/19.png,,,,,,,,,,,,,,,,,0,84,84,18,,,,,,,,,,,,,,,3,0.725549936295,,,,,,,,,moral_self_bias,24,20,60.044206741,f,001,2018_Apr_02_1822,
小人,material/instr2_2.png,material/instr2_2.png,material/instr2_2.png,2,2,2,material/45.png,j,material/145.png,j,j,小人,下流,friend,friend,friend,1,1,1,material/145.png,,,,,,,,,,,,,,,,,0,85,85,44,,,,,,,,,,,,,,,3,0.809319019318,,,,,,,,,moral_self_bias,24,20,60.044206741,f,001,2018_Apr_02_1822,
笨拙,material/instr2_1.png,material/instr2_1.png,material/instr2_1.png,2,2,2,material/60.png,f,material/160.png,f,f,粗拙,粗拙,self,self,self,2,2,2,material/60.png,,,,,,,,,,,,,,,,,0,86,86,59,,,,,,,,,,,,,,,4,1.69192314148,,,,,,,,,moral_self_bias,24,20,60.044206741,f,001,2018_Apr_02_1822,
自私,material/instr2_2.png,material/instr2_2.png,material/instr2_2.png,2,2,2,material/46.png,j,material/146.png,j,j,自私,小气,friend,friend,friend,1,1,1,material/146.png,,,,,,,,,,,,,,,,,0,87,87,45,,,,,,,,,,,,,,,3,1.2089779377,,,,,,,,,moral_self_bias,24,20,60.044206741,f,001,2018_Apr_02_1822,
,,,,,,,,,,,,,,,,,,,,,8-4= ?,,,,,,,,,,,,,,,,,,,,0,0,0,40,,,,,,,,,,,,,,,,,,,,,moral_self_bias,24,20,60.044206741,f,001,2018_Apr_02_1822,
,,,,,,,,,,,,,,,,,,,,,1+7= ?,,,,,,,,,,,,,,,,,,,,0,1,1,4,,,,,,,,,,,,,,,,,,,,,moral_self_bias,24,20,60.044206741,f,001,2018_Apr_02_1822,
,,,,,,,,,,,,,,,,,,,,,2+1= ?,,,,,,,,,,,,,,,,,,,,0,2,2,7,,,,,,,,,,,,,,,,,,,,,moral_self_bias,24,20,60.044206741,f,001,2018_Apr_02_1822,
,,,,,,,,,,,,,,,,,,,,,3+5= ?,,,,,,,,,,,,,,,,,,,,0,3,3,20,,,,,,,,,,,,,,,,,,,,,moral_self_bias,24,20,60.044206741,f,001,2018_Apr_02_1822,
,,,,,,,,,,,,,,,,,,,,,32-23=？,,,,,,,,,,,,,,,,,,,,0,4,4,60,,,,,,,,,,,,,,,,,,,,,moral_self_bias,24,20,60.044206741,f,001,2018_Apr_02_1822,
,,,,,,,,,,,,,,,,,,,,,4^1= ?,,,,,,,,,,,,,,,,,,,,0,5,5,102,,,,,,,,,,,,,,,,,,,,,moral_self_bias,24,20,60.044206741,f,001,2018_Apr_02_1822,
,,,,,,,,,,,,,,,,,,,,,4+2= ?,,,,,,,,,,,,,,,,,,,,0,6,6,26,,,,,,,,,,,,,,,,,,,,,moral_self_bias,24,20,60.044206741,f,001,2018_Apr_02_1822,
,,,,,,,,,,,,,,,,,,,,,1+2= ?,,,,,,,,,,,,,,,,,,,,0,7,7,1,,,,,,,,,,,,,,,,,,,,,moral_self_bias,24,20,60.044206741,f,001,2018_Apr_02_1822,
,,,,,,,,,,,,,,,,,,,,,9-3= ?,,,,,,,,,,,,,,,,,,,,0,8,8,15,,,,,,,,,,,,,,,,,,,,,moral_self_bias,24,20,60.044206741,f,001,2018_Apr_02_1822,
,,,,,,,,,,,,,,,,,,,,,7*1= ?,,,,,,,,,,,,,,,,,,,,0,9,9,113,,,,,,,,,,,,,,,,,,,,,moral_self_bias,24,20,60.044206741,f,001,2018_Apr_02_1822,
,,,,,,,,,,,,,,,,,,,,,1+8= ?,,,,,,,,,,,,,,,,,,,,0,10,10,6,,,,,,,,,,,,,,,,,,,,,moral_self_bias,24,20,60.044206741,f,001,2018_Apr_02_1822,
,,,,,,,,,,,,,,,,,,,,,2+2= ?,,,,,,,,,,,,,,,,,,,,0,11,11,8,,,,,,,,,,,,,,,,,,,,,moral_self_bias,24,20,60.044206741,f,001,2018_Apr_02_1822,
,,,,,,,,,,,,,,,,,,,,,3+3= ?,,,,,,,,,,,,,,,,,,,,0,12,12,18,,,,,,,,,,,,,,,,,,,,,moral_self_bias,24,20,60.044206741,f,001,2018_Apr_02_1822,
,,,,,,,,,,,,,,,,,,,,,19-17= ?,,,,,,,,,,,,,,,,,,,,0,13,13,100,,,,,,,,,,,,,,,,,,,,,moral_self_bias,24,20,60.044206741,f,001,2018_Apr_02_1822,
,,,,,,,,,,,,,,,,,,,,,90/45= ?,,,,,,,,,,,,,,,,,,,,0,14,14,74,,,,,,,,,,,,,,,,,,,,,moral_self_bias,24,20,60.044206741,f,001,2018_Apr_02_1822,
,,,,,,,,,,,,,,,,,,,,,4+5= ?,,,,,,,,,,,,,,,,,,,,0,15,15,29,,,,,,,,,,,,,,,,,,,,,moral_self_bias,24,20,60.044206741,f,001,2018_Apr_02_1822,
,,,,,,,,,,,,,,,,,,,,,8-2= ?,,,,,,,,,,,,,,,,,,,,0,16,16,38,,,,,,,,,,,,,,,,,,,,,moral_self_bias,24,20,60.044206741,f,001,2018_Apr_02_1822,
,,,,,,,,,,,,,,,,,,,,,9-4= ?,,,,,,,,,,,,,,,,,,,,0,17,17,22,,,,,,,,,,,,,,,,,,,,,moral_self_bias,24,20,60.044206741,f,001,2018_Apr_02_1822,
,,,,,,,,,,,,,,,,,,,,,43-34= ?,,,,,,,,,,,,,,,,,,,,0,18,18,79,,,,,,,,,,,,,,,,,,,,,moral_self_bias,24,20,60.044206741,f,001,2018_Apr_02_1822,
,,,,,,,,,,,,,,,,,,,,,8-3= ?,,,,,,,,,,,,,,,,,,,,0,19,19,39,,,,,,,,,,,,,,,,,,,,,moral_self_bias,24,20,60.044206741,f,001,2018_Apr_02_1822,
,,,,,,,,,,,,,,,,,,,,,9+0= ?,,,,,,,,,,,,,,,,,,,,0,20,20,118,,,,,,,,,,,,,,,,,,,,,moral_self_bias,24,20,60.044206741,f,001,2018_Apr_02_1822,
,,,,,,,,,,,,,,,,,,,,,6+1= ?,,,,,,,,,,,,,,,,,,,,0,21,21,43,,,,,,,,,,,,,,,,,,,,,moral_self_bias,24,20,60.044206741,f,001,2018_Apr_02_1822,
,,,,,,,,,,,,,,,,,,,,,5+1= ?,,,,,,,,,,,,,,,,,,,,0,22,22,34,,,,,,,,,,,,,,,,,,,,,moral_self_bias,24,20,60.044206741,f,001,2018_Apr_02_1822,
,,,,,,,,,,,,,,,,,,,,,5+4= ?,,,,,,,,,,,,,,,,,,,,0,23,23,37,,,,,,,,,,,,,,,,,,,,,moral_self_bias,24,20,60.044206741,f,001,2018_Apr_02_1822,
,,,,,,,,,,,,,,,,,,,,,8-1= ?,,,,,,,,,,,,,,,,,,,,0,24,24,33,,,,,,,,,,,,,,,,,,,,,moral_self_bias,24,20,60.044206741,f,001,2018_Apr_02_1822,
,,,,,,,,,,,,,,,,,,,,,4*2= ?,,,,,,,,,,,,,,,,,,,,0,25,25,82,,,,,,,,,,,,,,,,,,,,,moral_self_bias,24,20,60.044206741,f,001,2018_Apr_02_1822,
,,,,,,,,,,,,,,,,,,,,,7+1= ?,,,,,,,,,,,,,,,,,,,,0,26,26,46,,,,,,,,,,,,,,,,,,,,,moral_self_bias,24,20,60.044206741,f,001,2018_Apr_02_1822,
,,,,,,,,,,,,,,,,,,,,,9-5= ?,,,,,,,,,,,,,,,,,,,,0,27,27,23,,,,,,,,,,,,,,,,,,,,,moral_self_bias,24,20,60.044206741,f,001,2018_Apr_02_1822,
,,,,,,,,,,,,,,,,,,,,,56/7= ?,,,,,,,,,,,,,,,,,,,,0,28,28,77,,,,,,,,,,,,,,,,,,,,,moral_self_bias,24,20,60.044206741,f,001,2018_Apr_02_1822,
,,,,,,,,,,,,,,,,,,,,,15-10=？,,,,,,,,,,,,,,,,,,,,0,29,29,61,,,,,,,,,,,,,,,,,,,,,moral_self_bias,24,20,60.044206741,f,001,2018_Apr_02_1822,
,,,,,,,,,,,,,,,,,,,,,13-9= ?,,,,,,,,,,,,,,,,,,,,0,30,30,92,,,,,,,,,,,,,,,,,,,,,moral_self_bias,24,20,60.044206741,f,001,2018_Apr_02_1822,
,,,,,,,,,,,,,,,,,,,,,18/2= ?,,,,,,,,,,,,,,,,,,,,0,31,31,97,,,,,,,,,,,,,,,,,,,,,moral_self_bias,24,20,60.044206741,f,001,2018_Apr_02_1822,
,,,,,,,,,,,,,,,,,,,,,2+7= ?,,,,,,,,,,,,,,,,,,,,0,32,32,13,,,,,,,,,,,,,,,,,,,,,moral_self_bias,24,20,60.044206741,f,001,2018_Apr_02_1822,
,,,,,,,,,,,,,,,,,,,,,18/9= ?,,,,,,,,,,,,,,,,,,,,0,33,33,96,,,,,,,,,,,,,,,,,,,,,moral_self_bias,24,20,60.044206741,f,001,2018_Apr_02_1822,
,,,,,,,,,,,,,,,,,,,,,8*1= ?,,,,,,,,,,,,,,,,,,,,0,34,34,111,,,,,,,,,,,,,,,,,,,,,moral_self_bias,24,20,60.044206741,f,001,2018_Apr_02_1822,
,,,,,,,,,,,,,,,,,,,,,2*4= ?,,,,,,,,,,,,,,,,,,,,0,35,35,84,,,,,,,,,,,,,,,,,,,,,moral_self_bias,24,20,60.044206741,f,001,2018_Apr_02_1822,
,,,,,,,,,,,,,,,,,,,,,1*9= ?,,,,,,,,,,,,,,,,,,,,0,36,36,109,,,,,,,,,,,,,,,,,,,,,moral_self_bias,24,20,60.044206741,f,001,2018_Apr_02_1822,
,,,,,,,,,,,,,,,,,,,,,9-7= ?,,,,,,,,,,,,,,,,,,,,0,37,37,30,,,,,,,,,,,,,,,,,,,,,moral_self_bias,24,20,60.044206741,f,001,2018_Apr_02_1822,
,,,,,,,,,,,,,,,,,,,,,2*3= ?,,,,,,,,,,,,,,,,,,,,0,38,38,108,,,,,,,,,,,,,,,,,,,,,moral_self_bias,24,20,60.044206741,f,001,2018_Apr_02_1822,
,,,,,,,,,,,,,,,,,,,,,81/9= ?,,,,,,,,,,,,,,,,,,,,0,39,39,75,,,,,,,,,,,,,,,,,,,,,moral_self_bias,24,20,60.044206741,f,001,2018_Apr_02_1822,
,,,,,,,,,,,,,,,,,,,,,16-11=？,,,,,,,,,,,,,,,,,,,,0,40,40,62,,,,,,,,,,,,,,,,,,,,,moral_self_bias,24,20,60.044206741,f,001,2018_Apr_02_1822,
,,,,,,,,,,,,,,,,,,,,,6+2= ?,,,,,,,,,,,,,,,,,,,,0,41,41,44,,,,,,,,,,,,,,,,,,,,,moral_self_bias,24,20,60.044206741,f,001,2018_Apr_02_1822,
,,,,,,,,,,,,,,,,,,,,,11-8= ?,,,,,,,,,,,,,,,,,,,,0,42,42,106,,,,,,,,,,,,,,,,,,,,,moral_self_bias,24,20,60.044206741,f,001,2018_Apr_02_1822,
,,,,,,,,,,,,,,,,,,,,,3*2= ?,,,,,,,,,,,,,,,,,,,,0,43,43,53,,,,,,,,,,,,,,,,,,,,,moral_self_bias,24,20,60.044206741,f,001,2018_Apr_02_1822,
,,,,,,,,,,,,,,,,,,,,,11-4=？,,,,,,,,,,,,,,,,,,,,0,44,44,66,,,,,,,,,,,,,,,,,,,,,moral_self_bias,24,20,60.044206741,f,001,2018_Apr_02_1822,
,,,,,,,,,,,,,,,,,,,,,30-29= ?,,,,,,,,,,,,,,,,,,,,0,45,45,73,,,,,,,,,,,,,,,,,,,,,moral_self_bias,24,20,60.044206741,f,001,2018_Apr_02_1822,
,,,,,,,,,,,,,,,,,,,,,22/11= ?,,,,,,,,,,,,,,,,,,,,0,46,46,71,,,,,,,,,,,,,,,,,,,,,moral_self_bias,24,20,60.044206741,f,001,2018_Apr_02_1822,
,,,,,,,,,,,,,,,,,,,,,4+4= ?,,,,,,,,,,,,,,,,,,,,0,47,47,28,,,,,,,,,,,,,,,,,,,,,moral_self_bias,24,20,60.044206741,f,001,2018_Apr_02_1822,
,,,,,,,,,,,,,,,,,,,,,72/9= ?,,,,,,,,,,,,,,,,,,,,0,48,48,76,,,,,,,,,,,,,,,,,,,,,moral_self_bias,24,20,60.044206741,f,001,2018_Apr_02_1822,
,,,,,,,,,,,,,,,,,,,,,3^2= ?,,,,,,,,,,,,,,,,,,,,0,49,49,50,,,,,,,,,,,,,,,,,,,,,moral_self_bias,24,20,60.044206741,f,001,2018_Apr_02_1822,
,,,,,,,,,,,,,,,,,,,,,6^0= ?,,,,,,,,,,,,,,,,,,,,0,50,50,103,,,,,,,,,,,,,,,,,,,,,moral_self_bias,24,20,60.044206741,f,001,2018_Apr_02_1822,
,,,,,,,,,,,,,,,,,,,,,4*1= ?,,,,,,,,,,,,,,,,,,,,0,51,51,85,,,,,,,,,,,,,,,,,,,,,moral_self_bias,24,20,60.044206741,f,001,2018_Apr_02_1822,
,,,,,,,,,,,,,,,,,,,,,2+5= ?,,,,,,,,,,,,,,,,,,,,0,52,52,11,,,,,,,,,,,,,,,,,,,,,moral_self_bias,24,20,60.044206741,f,001,2018_Apr_02_1822,
,,,,,,,,,,,,,,,,,,,,,1+1= ?,,,,,,,,,,,,,,,,,,,,0,53,53,0,,,,,,,,,,,,,,,,,,,,,moral_self_bias,24,20,60.044206741,f,001,2018_Apr_02_1822,
,,,,,,,,,,,,,,,,,,,,,17-12= ? ,,,,,,,,,,,,,,,,,,,,0,54,54,104,,,,,,,,,,,,,,,,,,,,,moral_self_bias,24,20,60.044206741,f,001,2018_Apr_02_1822,
,,,,,,,,,,,,,,,,,,,,,3+0= ?,,,,,,,,,,,,,,,,,,,,0,55,55,105,,,,,,,,,,,,,,,,,,,,,moral_self_bias,24,20,60.044206741,f,001,2018_Apr_02_1822,
,,,,,,,,,,,,,,,,,,,,,1+6= ?,,,,,,,,,,,,,,,,,,,,0,56,56,5,,,,,,,,,,,,,,,,,,,,,moral_self_bias,24,20,60.044206741,f,001,2018_Apr_02_1822,
,,,,,,,,,,,,,,,,,,,,,3*3= ?,,,,,,,,,,,,,,,,,,,,0,57,57,54,,,,,,,,,,,,,,,,,,,,,moral_self_bias,24,20,60.044206741,f,001,2018_Apr_02_1822,
,,,,,,,,,,,,,,,,,,,,,11-5= ?,,,,,,,,,,,,,,,,,,,,0,58,58,107,,,,,,,,,,,,,,,,,,,,,moral_self_bias,24,20,60.044206741,f,001,2018_Apr_02_1822,
,,,,,,,,,,,,,,,,,,,,,11-3=？,,,,,,,,,,,,,,,,,,,,0,59,59,68,,,,,,,,,,,,,,,,,,,,,moral_self_bias,24,20,60.044206741,f,001,2018_Apr_02_1822,
,,,,,,,,,,,,,,,,,,,,,3+1= ?,,,,,,,,,,,,,,,,,,,,0,60,60,16,,,,,,,,,,,,,,,,,,,,,moral_self_bias,24,20,60.044206741,f,001,2018_Apr_02_1822,
,,,,,,,,,,,,,,,,,,,,,5+3= ?,,,,,,,,,,,,,,,,,,,,0,61,61,36,,,,,,,,,,,,,,,,,,,,,moral_self_bias,24,20,60.044206741,f,001,2018_Apr_02_1822,
,,,,,,,,,,,,,,,,,,,,,5/1= ?,,,,,,,,,,,,,,,,,,,,0,62,62,59,,,,,,,,,,,,,,,,,,,,,moral_self_bias,24,20,60.044206741,f,001,2018_Apr_02_1822,
,,,,,,,,,,,,,,,,,,,,,21/7= ?,,,,,,,,,,,,,,,,,,,,0,63,63,70,,,,,,,,,,,,,,,,,,,,,moral_self_bias,24,20,60.044206741,f,001,2018_Apr_02_1822,
,,,,,,,,,,,,,,,,,,,,,1+9= ?,,,,,,,,,,,,,,,,,,,,0,64,64,3,,,,,,,,,,,,,,,,,,,,,moral_self_bias,24,20,60.044206741,f,001,2018_Apr_02_1822,
,,,,,,,,,,,,,,,,,,,,,12/4= ?,,,,,,,,,,,,,,,,,,,,0,65,65,89,,,,,,,,,,,,,,,,,,,,,moral_self_bias,24,20,60.044206741,f,001,2018_Apr_02_1822,
,,,,,,,,,,,,,,,,,,,,,3*1= ?,,,,,,,,,,,,,,,,,,,,0,66,66,83,,,,,,,,,,,,,,,,,,,,,moral_self_bias,24,20,60.044206741,f,001,2018_Apr_02_1822,
,,,,,,,,,,,,,,,,,,,,,49/7 = ?,,,,,,,,,,,,,,,,,,,,0,67,67,78,,,,,,,,,,,,,,,,,,,,,moral_self_bias,24,20,60.044206741,f,001,2018_Apr_02_1822,
,,,,,,,,,,,,,,,,,,,,,6/2= ?,,,,,,,,,,,,,,,,,,,,0,68,68,58,,,,,,,,,,,,,,,,,,,,,moral_self_bias,24,20,60.044206741,f,001,2018_Apr_02_1822,
,,,,,,,,,,,,,,,,,,,,,8-5= ?,,,,,,,,,,,,,,,,,,,,0,69,69,41,,,,,,,,,,,,,,,,,,,,,moral_self_bias,24,20,60.044206741,f,001,2018_Apr_02_1822,
,,,,,,,,,,,,,,,,,,,,,7+2= ?,,,,,,,,,,,,,,,,,,,,0,70,70,47,,,,,,,,,,,,,,,,,,,,,moral_self_bias,24,20,60.044206741,f,001,2018_Apr_02_1822,
,,,,,,,,,,,,,,,,,,,,,12-7= ?,,,,,,,,,,,,,,,,,,,,0,71,71,115,,,,,,,,,,,,,,,,,,,,,moral_self_bias,24,20,60.044206741,f,001,2018_Apr_02_1822,
,,,,,,,,,,,,,,,,,,,,,13-6=？,,,,,,,,,,,,,,,,,,,,0,72,72,64,,,,,,,,,,,,,,,,,,,,,moral_self_bias,24,20,60.044206741,f,001,2018_Apr_02_1822,
,,,,,,,,,,,,,,,,,,,,,21/3= ? ,,,,,,,,,,,,,,,,,,,,0,73,73,95,,,,,,,,,,,,,,,,,,,,,moral_self_bias,24,20,60.044206741,f,001,2018_Apr_02_1822,
,,,,,,,,,,,,,,,,,,,,,2^2= ?,,,,,,,,,,,,,,,,,,,,0,74,74,49,,,,,,,,,,,,,,,,,,,,,moral_self_bias,24,20,60.044206741,f,001,2018_Apr_02_1822,
,,,,,,,,,,,,,,,,,,,,,8-6= ?,,,,,,,,,,,,,,,,,,,,0,75,75,42,,,,,,,,,,,,,,,,,,,,,moral_self_bias,24,20,60.044206741,f,001,2018_Apr_02_1822,
,,,,,,,,,,,,,,,,,,,,,9-6= ?,,,,,,,,,,,,,,,,,,,,0,76,76,24,,,,,,,,,,,,,,,,,,,,,moral_self_bias,24,20,60.044206741,f,001,2018_Apr_02_1822,
,,,,,,,,,,,,,,,,,,,,,12-5=？,,,,,,,,,,,,,,,,,,,,0,77,77,65,,,,,,,,,,,,,,,,,,,,,moral_self_bias,24,20,60.044206741,f,001,2018_Apr_02_1822,
,,,,,,,,,,,,,,,,,,,,,5+2= ?,,,,,,,,,,,,,,,,,,,,0,78,78,35,,,,,,,,,,,,,,,,,,,,,moral_self_bias,24,20,60.044206741,f,001,2018_Apr_02_1822,
,,,,,,,,,,,,,,,,,,,,,5-3= ?,,,,,,,,,,,,,,,,,,,,0,79,79,116,,,,,,,,,,,,,,,,,,,,,moral_self_bias,24,20,60.044206741,f,001,2018_Apr_02_1822,
,,,,,,,,,,,,,,,,,,,,,23^0= ?,,,,,,,,,,,,,,,,,,,,0,80,80,94,,,,,,,,,,,,,,,,,,,,,moral_self_bias,24,20,60.044206741,f,001,2018_Apr_02_1822,
,,,,,,,,,,,,,,,,,,,,,11-11= ?,,,,,,,,,,,,,,,,,,,,0,81,81,119,,,,,,,,,,,,,,,,,,,,,moral_self_bias,24,20,60.044206741,f,001,2018_Apr_02_1822,
,,,,,,,,,,,,,,,,,,,,,12-12= ?,,,,,,,,,,,,,,,,,,,,0,82,82,99,,,,,,,,,,,,,,,,,,,,,moral_self_bias,24,20,60.044206741,f,001,2018_Apr_02_1822,
,,,,,,,,,,,,,,,,,,,,,20/5=？,,,,,,,,,,,,,,,,,,,,0,83,83,69,,,,,,,,,,,,,,,,,,,,,moral_self_bias,24,20,60.044206741,f,001,2018_Apr_02_1822,
,,,,,,,,,,,,,,,,,,,,,2+3= ?,,,,,,,,,,,,,,,,,,,,0,84,84,9,,,,,,,,,,,,,,,,,,,,,moral_self_bias,24,20,60.044206741,f,001,2018_Apr_02_1822,
,,,,,,,,,,,,,,,,,,,,,3^1= ?,,,,,,,,,,,,,,,,,,,,0,85,85,101,,,,,,,,,,,,,,,,,,,,,moral_self_bias,24,20,60.044206741,f,001,2018_Apr_02_1822,
,,,,,,,,,,,,,,,,,,,,,7*0= ?,,,,,,,,,,,,,,,,,,,,0,86,86,88,,,,,,,,,,,,,,,,,,,,,moral_self_bias,24,20,60.044206741,f,001,2018_Apr_02_1822,
,,,,,,,,,,,,,,,,,,,,,3+4= ?,,,,,,,,,,,,,,,,,,,,0,87,87,19,,,,,,,,,,,,,,,,,,,,,moral_self_bias,24,20,60.044206741,f,001,2018_Apr_02_1822,
,,,,,,,,,,,,,,,,,,,,,9-8= ?,,,,,,,,,,,,,,,,,,,,0,88,88,31,,,,,,,,,,,,,,,,,,,,,moral_self_bias,24,20,60.044206741,f,001,2018_Apr_02_1822,
,,,,,,,,,,,,,,,,,,,,,6+3= ?,,,,,,,,,,,,,,,,,,,,0,89,89,45,,,,,,,,,,,,,,,,,,,,,moral_self_bias,24,20,60.044206741,f,001,2018_Apr_02_1822,
,,,,,,,,,,,,,,,,,,,,,2+6= ?,,,,,,,,,,,,,,,,,,,,0,90,90,12,,,,,,,,,,,,,,,,,,,,,moral_self_bias,24,20,60.044206741,f,001,2018_Apr_02_1822,
,,,,,,,,,,,,,,,,,,,,,32-32= ?,,,,,,,,,,,,,,,,,,,,0,91,91,80,,,,,,,,,,,,,,,,,,,,,moral_self_bias,24,20,60.044206741,f,001,2018_Apr_02_1822,
,,,,,,,,,,,,,,,,,,,,,12/6= ?,,,,,,,,,,,,,,,,,,,,0,92,92,90,,,,,,,,,,,,,,,,,,,,,moral_self_bias,24,20,60.044206741,f,001,2018_Apr_02_1822,
,,,,,,,,,,,,,,,,,,,,,12/12= ?,,,,,,,,,,,,,,,,,,,,0,93,93,91,,,,,,,,,,,,,,,,,,,,,moral_self_bias,24,20,60.044206741,f,001,2018_Apr_02_1822,
,,,,,,,,,,,,,,,,,,,,,6^0= ?,,,,,,,,,,,,,,,,,,,,0,94,94,114,,,,,,,,,,,,,,,,,,,,,moral_self_bias,24,20,60.044206741,f,001,2018_Apr_02_1822,
,,,,,,,,,,,,,,,,,,,,,8/4= ?,,,,,,,,,,,,,,,,,,,,0,95,95,57,,,,,,,,,,,,,,,,,,,,,moral_self_bias,24,20,60.044206741,f,001,2018_Apr_02_1822,
,,,,,,,,,,,,,,,,,,,,,9/3= ?,,,,,,,,,,,,,,,,,,,,0,96,96,56,,,,,,,,,,,,,,,,,,,,,moral_self_bias,24,20,60.044206741,f,001,2018_Apr_02_1822,
,,,,,,,,,,,,,,,,,,,,,2+4= ?,,,,,,,,,,,,,,,,,,,,0,97,97,10,,,,,,,,,,,,,,,,,,,,,moral_self_bias,24,20,60.044206741,f,001,2018_Apr_02_1822,
,,,,,,,,,,,,,,,,,,,,,1-1= ?,,,,,,,,,,,,,,,,,,,,0,98,98,52,,,,,,,,,,,,,,,,,,,,,moral_self_bias,24,20,60.044206741,f,001,2018_Apr_02_1822,
,,,,,,,,,,,,,,,,,,,,,14-9=？,,,,,,,,,,,,,,,,,,,,0,99,99,63,,,,,,,,,,,,,,,,,,,,,moral_self_bias,24,20,60.044206741,f,001,2018_Apr_02_1822,
,,,,,,,,,,,,,,,,,,,,,9-9= ?,,,,,,,,,,,,,,,,,,,,0,100,100,32,,,,,,,,,,,,,,,,,,,,,moral_self_bias,24,20,60.044206741,f,001,2018_Apr_02_1822,
,,,,,,,,,,,,,,,,,,,,,1^2= ?,,,,,,,,,,,,,,,,,,,,0,101,101,51,,,,,,,,,,,,,,,,,,,,,moral_self_bias,24,20,60.044206741,f,001,2018_Apr_02_1822,
,,,,,,,,,,,,,,,,,,,,,10-5=？,,,,,,,,,,,,,,,,,,,,0,102,102,67,,,,,,,,,,,,,,,,,,,,,moral_self_bias,24,20,60.044206741,f,001,2018_Apr_02_1822,
,,,,,,,,,,,,,,,,,,,,,50-42= ?,,,,,,,,,,,,,,,,,,,,0,103,103,81,,,,,,,,,,,,,,,,,,,,,moral_self_bias,24,20,60.044206741,f,001,2018_Apr_02_1822,
,,,,,,,,,,,,,,,,,,,,,4+1= ?,,,,,,,,,,,,,,,,,,,,0,104,104,25,,,,,,,,,,,,,,,,,,,,,moral_self_bias,24,20,60.044206741,f,001,2018_Apr_02_1822,
,,,,,,,,,,,,,,,,,,,,,9-2= ?,,,,,,,,,,,,,,,,,,,,0,105,105,14,,,,,,,,,,,,,,,,,,,,,moral_self_bias,24,20,60.044206741,f,001,2018_Apr_02_1822,
,,,,,,,,,,,,,,,,,,,,,8+1= ?,,,,,,,,,,,,,,,,,,,,0,106,106,48,,,,,,,,,,,,,,,,,,,,,moral_self_bias,24,20,60.044206741,f,001,2018_Apr_02_1822,
,,,,,,,,,,,,,,,,,,,,,10-9= ?,,,,,,,,,,,,,,,,,,,,0,107,107,112,,,,,,,,,,,,,,,,,,,,,moral_self_bias,24,20,60.044206741,f,001,2018_Apr_02_1822,
,,,,,,,,,,,,,,,,,,,,,3+2= ?,,,,,,,,,,,,,,,,,,,,0,108,108,17,,,,,,,,,,,,,,,,,,,,,moral_self_bias,24,20,60.044206741,f,001,2018_Apr_02_1822,
,,,,,,,,,,,,,,,,,,,,,4+3= ?,,,,,,,,,,,,,,,,,,,,0,109,109,27,,,,,,,,,,,,,,,,,,,,,moral_self_bias,24,20,60.044206741,f,001,2018_Apr_02_1822,
,,,,,,,,,,,,,,,,,,,,,22-22= ?,,,,,,,,,,,,,,,,,,,,0,110,110,93,,,,,,,,,,,,,,,,,,,,,moral_self_bias,24,20,60.044206741,f,001,2018_Apr_02_1822,
,,,,,,,,,,,,,,,,,,,,,1*8= ?,,,,,,,,,,,,,,,,,,,,0,111,111,110,,,,,,,,,,,,,,,,,,,,,moral_self_bias,24,20,60.044206741,f,001,2018_Apr_02_1822,
,,,,,,,,,,,,,,,,,,,,,29-27= ?,,,,,,,,,,,,,,,,,,,,0,112,112,72,,,,,,,,,,,,,,,,,,,,,moral_self_bias,24,20,60.044206741,f,001,2018_Apr_02_1822,
,,,,,,,,,,,,,,,,,,,,,3+6= ?,,,,,,,,,,,,,,,,,,,,0,113,113,21,,,,,,,,,,,,,,,,,,,,,moral_self_bias,24,20,60.044206741,f,001,2018_Apr_02_1822,
,,,,,,,,,,,,,,,,,,,,,6*0= ?,,,,,,,,,,,,,,,,,,,,0,114,114,87,,,,,,,,,,,,,,,,,,,,,moral_self_bias,24,20,60.044206741,f,001,2018_Apr_02_1822,
,,,,,,,,,,,,,,,,,,,,,5*0= ?,,,,,,,,,,,,,,,,,,,,0,115,115,86,,,,,,,,,,,,,,,,,,,,,moral_self_bias,24,20,60.044206741,f,001,2018_Apr_02_1822,
,,,,,,,,,,,,,,,,,,,,,13-5= ?,,,,,,,,,,,,,,,,,,,,0,116,116,98,,,,,,,,,,,,,,,,,,,,,moral_self_bias,24,20,60.044206741,f,001,2018_Apr_02_1822,
,,,,,,,,,,,,,,,,,,,,,9-1=?,,,,,,,,,,,,,,,,,,,,0,117,117,2,,,,,,,,,,,,,,,,,,,,,moral_self_bias,24,20,60.044206741,f,001,2018_Apr_02_1822,
,,,,,,,,,,,,,,,,,,,,,4/4= ?,,,,,,,,,,,,,,,,,,,,0,118,118,55,,,,,,,,,,,,,,,,,,,,,moral_self_bias,24,20,60.044206741,f,001,2018_Apr_02_1822,
,,,,,,,,,,,,,,,,,,,,,7-0= ?,,,,,,,,,,,,,,,,,,,,0,119,119,117,,,,,,,,,,,,,,,,,,,,,moral_self_bias,24,20,60.044206741,f,001,2018_Apr_02_1822,
,,,,,,,,,,,,,,,,,,,,,,,,,,,,,,,,,,,,,,,,,,,,,,,,,,,,,,,,,3,6.39360499382,,,,,,,moral_self_bias,24,20,60.044206741,f,001,2018_Apr_02_1822,
,,,,,,,,,,,,,,,,,,,,,,material/18.png,1,敏锐,material/118.png,1,material/18.png,机敏,1,f,f,f,2,2,2,敏锐,,,,,,,,,0,0,0,97,,,,,,,,,,,j,0,10.7414369583,,,,moral_self_bias,24,20,60.044206741,f,001,2018_Apr_02_1822,
,,,,,,,,,,,,,,,,,,,,,,material/2.png,1,爱心,material/102.png,1,material/102.png,爱心,1,f,f,f,1,1,1,善心,,,,,,,,,0,1,1,81,0,0,0,0,,,,,,,f,1,2.90815091133,f,0,7.29120111465,moral_self_bias,24,20,60.044206741,f,001,2018_Apr_02_1822,
,,,,,,,,,,,,,,,,,,,,,,material/2.png,1,爱心,material/102.png,1,material/102.png,爱心,1,f,f,f,1,1,1,善心,,,,,,,,,0,1,1,81,,,,,,,,,,,,,,,,,moral_self_bias,24,20,60.044206741,f,001,2018_Apr_02_1822,
,,,,,,,,,,,,,,,,,,,,,,material/118.png,1,机敏,material/18.png,1,material/118.png,敏锐,1,j,j,j,2,2,2,机敏,,,,,,,,,0,2,2,17,0,0,0,0,,,,,,,f,0,2.27430796623,f,0,0.658452033997,moral_self_bias,24,20,60.044206741,f,001,2018_Apr_02_1822,
,,,,,,,,,,,,,,,,,,,,,,material/118.png,1,机敏,material/18.png,1,material/118.png,敏锐,1,j,j,j,2,2,2,机敏,,,,,,,,,0,2,2,17,,,,,,,,,,,,,,,,,moral_self_bias,24,20,60.044206741,f,001,2018_Apr_02_1822,
,,,,,,,,,,,,,,,,,,,,,,material/150.png,2,鲁钝,material/50.png,2,material/150.png,愚笨,2,j,j,j,2,2,2,鲁钝,,,,,,,,,0,3,3,49,,,,,,,,,,,j,1,2.66636800766,,,,moral_self_bias,24,20,60.044206741,f,001,2018_Apr_02_1822,
,,,,,,,,,,,,,,,,,,,,,,material/104.png,1,友爱,material/4.png,1,material/4.png,友爱,1,j,j,j,1,1,1,友善,,,,,,,,,0,4,4,3,,,,,,,,,,,j,1,3.07427096367,,,,moral_self_bias,24,20,60.044206741,f,001,2018_Apr_02_1822,
,,,,,,,,,,,,,,,,,,,,,,material/171.png,1,高效,material/67.png,1,material/171.png,骁勇,1,j,j,j,2,2,2,高效,,,,,,,,,0,5,5,65,,,,,,,,,,,j,1,1.42463588715,,,,moral_self_bias,24,20,60.044206741,f,001,2018_Apr_02_1822,
,,,,,,,,,,,,,,,,,,,,,,material/119.png,1,机灵,material/19.png,1,material/119.png,灵活,1,j,j,j,2,2,2,机灵,,,,,,,,,0,6,6,18,0,0,0,0,,,,,,,f,0,3.49264907837,j,1,1.78972005844,moral_self_bias,24,20,60.044206741,f,001,2018_Apr_02_1822,
,,,,,,,,,,,,,,,,,,,,,,material/119.png,1,机灵,material/19.png,1,material/119.png,灵活,1,j,j,j,2,2,2,机灵,,,,,,,,,0,6,6,18,,,,,,,,,,,,,,,,,moral_self_bias,24,20,60.044206741,f,001,2018_Apr_02_1822,
,,,,,,,,,,,,,,,,,,,,,,material/76.png,2,放纵,material/176.png,2,material/176.png,放纵,2,f,f,f,1,1,1,虚伪,,,,,,,,,0,7,7,155,,,,,,,,,,,j,0,1.55828118324,,,,moral_self_bias,24,20,60.044206741,f,001,2018_Apr_02_1822,
,,,,,,,,,,,,,,,,,,,,,,material/1.png,1,博爱,material/101.png,1,material/101.png,博爱,1,f,f,f,1,1,1,善良,,,,,,,,,0,8,8,80,,,,,,,,,,,j,0,2.77451109886,,,,moral_self_bias,24,20,60.044206741,f,001,2018_Apr_02_1822,
,,,,,,,,,,,,,,,,,,,,,,material/56.png,2,愚昧,material/156.png,2,material/56.png,愚钝,2,f,f,f,2,2,2,愚昧,,,,,,,,,0,9,9,135,0,0,0,0,,,,,,,f,1,1.04086494446,f,0,1.20715904236,moral_self_bias,24,20,60.044206741,f,001,2018_Apr_02_1822,
,,,,,,,,,,,,,,,,,,,,,,material/56.png,2,愚昧,material/156.png,2,material/56.png,愚钝,2,f,f,f,2,2,2,愚昧,,,,,,,,,0,9,9,135,,,,,,,,,,,,,,,,,moral_self_bias,24,20,60.044206741,f,001,2018_Apr_02_1822,
,,,,,,,,,,,,,,,,,,,,,,material/20.png,1,厉害,material/120.png,1,material/20.png,能干,1,f,f,f,2,2,2,厉害,,,,,,,,,0,10,10,99,,,,,,,,,,,j,0,2.3416788578,,,,moral_self_bias,24,20,60.044206741,f,001,2018_Apr_02_1822,
,,,,,,,,,,,,,,,,,,,,,,material/63.png,1,正义,material/166.png,1,material/66.png,仗义,1,f,f,f,1,1,1,文明,,,,,,,,,0,11,11,145,,,,,,,,,,,j,0,1.15799212456,,,,moral_self_bias,24,20,60.044206741,f,001,2018_Apr_02_1822,
,,,,,,,,,,,,,,,,,,,,,,material/159.png,2,弱智,material/59.png,2,material/159.png,智障,2,j,j,j,2,2,2,弱智,,,,,,,,,0,12,12,58,0,0,0,0,,,,,,,f,0,1.30549001694,j,1,2.32324290276,moral_self_bias,24,20,60.044206741,f,001,2018_Apr_02_1822,
,,,,,,,,,,,,,,,,,,,,,,material/159.png,2,弱智,material/59.png,2,material/159.png,智障,2,j,j,j,2,2,2,弱智,,,,,,,,,0,12,12,58,,,,,,,,,,,,,,,,,moral_self_bias,24,20,60.044206741,f,001,2018_Apr_02_1822,
,,,,,,,,,,,,,,,,,,,,,,material/153.png,2,迟钝,material/53.png,2,material/153.png,迟缓,2,j,j,j,2,2,2,迟钝,,,,,,,,,0,13,13,52,,,,,,,,,,,j,1,2.12485098839,,,,moral_self_bias,24,20,60.044206741,f,001,2018_Apr_02_1822,
,,,,,,,,,,,,,,,,,,,,,,material/156.png,2,愚钝,material/56.png,2,material/156.png,愚昧,2,j,j,j,2,2,2,愚钝,,,,,,,,,0,14,14,55,0,0,0,0,,,,,,,f,0,1.27465605736,f,0,0.657910108566,moral_self_bias,24,20,60.044206741,f,001,2018_Apr_02_1822,
,,,,,,,,,,,,,,,,,,,,,,material/156.png,2,愚钝,material/56.png,2,material/156.png,愚昧,2,j,j,j,2,2,2,愚钝,,,,,,,,,0,14,14,55,,,,,,,,,,,,,,,,,moral_self_bias,24,20,60.044206741,f,001,2018_Apr_02_1822,
,,,,,,,,,,,,,,,,,,,,,,material/27.png,1,卓越,material/127.png,1,material/27.png,超群,1,f,f,f,2,2,2,卓越,,,,,,,,,0,15,15,106,,,,,,,,,,,j,0,1.29143095016,,,,moral_self_bias,24,20,60.044206741,f,001,2018_Apr_02_1822,
,,,,,,,,,,,,,,,,,,,,,,material/75.png,2,卑劣,material/74.png,2,material/74.png,卑劣,2,j,j,j,1,1,1,害人,,,,,,,,,0,16,16,70,,,,,,,,,,,j,1,2.99119186401,,,,moral_self_bias,24,20,60.044206741,f,001,2018_Apr_02_1822,
,,,,,,,,,,,,,,,,,,,,,,material/158.png,2,浅薄,material/58.png,2,material/158.png,肤浅,2,j,j,j,2,2,2,浅薄,,,,,,,,,0,17,17,57,,,,,,,,,,,j,1,2.75803494453,,,,moral_self_bias,24,20,60.044206741,f,001,2018_Apr_02_1822,
,,,,,,,,,,,,,,,,,,,,,,material/101.png,1,善良,material/1.png,1,material/1.png,善良,1,j,j,j,1,1,1,博爱,,,,,,,,,0,18,18,0,0,0,0,0,,,,,,,f,0,1.25752401352,j,1,1.19189810753,moral_self_bias,24,20,60.044206741,f,001,2018_Apr_02_1822,
,,,,,,,,,,,,,,,,,,,,,,material/101.png,1,善良,material/1.png,1,material/1.png,善良,1,j,j,j,1,1,1,博爱,,,,,,,,,0,18,18,0,,,,,,,,,,,,,,,,,moral_self_bias,24,20,60.044206741,f,001,2018_Apr_02_1822,
,,,,,,,,,,,,,,,,,,,,,,material/36.png,2,撒谎,material/136.png,2,material/136.png,撒谎,2,f,f,f,1,1,1,说谎,,,,,,,,,0,19,19,115,0,0,0,0,,,,,,,f,1,3.00772500038,f,0,1.00771999359,moral_self_bias,24,20,60.044206741,f,001,2018_Apr_02_1822,
,,,,,,,,,,,,,,,,,,,,,,material/36.png,2,撒谎,material/136.png,2,material/136.png,撒谎,2,f,f,f,1,1,1,说谎,,,,,,,,,0,19,19,115,,,,,,,,,,,,,,,,,moral_self_bias,24,20,60.044206741,f,001,2018_Apr_02_1822,
,,,,,,,,,,,,,,,,,,,,,,material/38.png,2,缺德,material/138.png,2,material/138.png,缺德,2,f,f,f,1,1,1,无德,,,,,,,,,0,20,20,117,0,0,0,0,,,,,,,f,1,1.79130506516,j,1,0.524912834167,moral_self_bias,24,20,60.044206741,f,001,2018_Apr_02_1822,
,,,,,,,,,,,,,,,,,,,,,,material/38.png,2,缺德,material/138.png,2,material/138.png,缺德,2,f,f,f,1,1,1,无德,,,,,,,,,0,20,20,117,,,,,,,,,,,,,,,,,moral_self_bias,24,20,60.044206741,f,001,2018_Apr_02_1822,
,,,,,,,,,,,,,,,,,,,,,,material/106.png,1,诚实,material/6.png,1,material/6.png,诚实,1,j,j,j,1,1,1,厚道,,,,,,,,,0,21,21,5,0,0,0,0,,,,,,,f,0,3.47423005104,f,0,0.424885034561,moral_self_bias,24,20,60.044206741,f,001,2018_Apr_02_1822,
,,,,,,,,,,,,,,,,,,,,,,material/106.png,1,诚实,material/6.png,1,material/6.png,诚实,1,j,j,j,1,1,1,厚道,,,,,,,,,0,21,21,5,,,,,,,,,,,,,,,,,moral_self_bias,24,20,60.044206741,f,001,2018_Apr_02_1822,
,,,,,,,,,,,,,,,,,,,,,,material/12.png,1,忠心,material/112.png,1,material/112.png,忠心,1,f,f,f,1,1,1,忠诚,,,,,,,,,0,22,22,91,,,,,,,,,,,j,0,3.06620907784,,,,moral_self_bias,24,20,60.044206741,f,001,2018_Apr_02_1822,
,,,,,,,,,,,,,,,,,,,,,,material/163.png,1,文明,material/163.png,1,material/63.png,宽容,1,f,f,f,1,1,1,宽容,,,,,,,,,0,23,23,142,,,,,,,,,,,j,0,4.53416585922,,,,moral_self_bias,24,20,60.044206741,f,001,2018_Apr_02_1822,
,,,,,,,,,,,,,,,,,,,,,,material/79.png,2,薄弱,material/81.png,2,material/183.png,无助,2,j,j,j,2,2,2,颓废,,,,,,,,,0,24,24,77,,,,,,,,,,,j,1,0.987812042236,,,,moral_self_bias,24,20,60.044206741,f,001,2018_Apr_02_1822,
,,,,,,,,,,,,,,,,,,,,,,material/40.png,2,狠毒,material/140.png,2,material/140.png,狠毒,2,f,f,f,1,1,1,邪恶,,,,,,,,,0,25,25,119,0,0,0,0,,,,,,,f,1,1.07481193542,j,1,0.904919147491,moral_self_bias,24,20,60.044206741,f,001,2018_Apr_02_1822,
,,,,,,,,,,,,,,,,,,,,,,material/40.png,2,狠毒,material/140.png,2,material/140.png,狠毒,2,f,f,f,1,1,1,邪恶,,,,,,,,,0,25,25,119,,,,,,,,,,,,,,,,,moral_self_bias,24,20,60.044206741,f,001,2018_Apr_02_1822,
,,,,,,,,,,,,,,,,,,,,,,material/64.png,1,谦虚,material/165.png,1,material/65.png,独立,1,f,f,f,1,1,1,奉献,,,,,,,,,0,26,26,144,0,0,0,0,,,,,,,f,1,2.57452201843,f,0,0.291604042053,moral_self_bias,24,20,60.044206741,f,001,2018_Apr_02_1822,
,,,,,,,,,,,,,,,,,,,,,,material/64.png,1,谦虚,material/165.png,1,material/65.png,独立,1,f,f,f,1,1,1,奉献,,,,,,,,,0,26,26,144,,,,,,,,,,,,,,,,,moral_self_bias,24,20,60.044206741,f,001,2018_Apr_02_1822,
,,,,,,,,,,,,,,,,,,,,,,material/128.png,1,自律,material/28.png,1,material/128.png,克己,1,j,j,j,2,2,2,自律,,,,,,,,,0,27,27,27,,,,,,,,,,,j,1,1.90805912018,,,,moral_self_bias,24,20,60.044206741,f,001,2018_Apr_02_1822,
,,,,,,,,,,,,,,,,,,,,,,material/103.png,1,仁慈,material/3.png,1,material/3.png,仁慈,1,j,j,j,1,1,1,仁厚,,,,,,,,,0,28,28,2,0,0,0,0,,,,,,,f,0,4.27449703217,f,0,0.358465909958,moral_self_bias,24,20,60.044206741,f,001,2018_Apr_02_1822,
,,,,,,,,,,,,,,,,,,,,,,material/103.png,1,仁慈,material/3.png,1,material/3.png,仁慈,1,j,j,j,1,1,1,仁厚,,,,,,,,,0,28,28,2,,,,,,,,,,,,,,,,,moral_self_bias,24,20,60.044206741,f,001,2018_Apr_02_1822,
,,,,,,,,,,,,,,,,,,,,,,material/138.png,2,无德,material/38.png,2,material/38.png,无德,2,j,j,j,1,1,1,缺德,,,,,,,,,0,29,29,37,,,,,,,,,,,j,1,1.40786790848,,,,moral_self_bias,24,20,60.044206741,f,001,2018_Apr_02_1822,
,,,,,,,,,,,,,,,,,,,,,,material/157.png,2,无能,material/57.png,2,material/157.png,无知,2,j,j,j,2,2,2,无能,,,,,,,,,0,30,30,56,0,0,0,0,,,,,,,f,0,1.19149804115,j,1,0.891839027405,moral_self_bias,24,20,60.044206741,f,001,2018_Apr_02_1822,
,,,,,,,,,,,,,,,,,,,,,,material/157.png,2,无能,material/57.png,2,material/157.png,无知,2,j,j,j,2,2,2,无能,,,,,,,,,0,30,30,56,,,,,,,,,,,,,,,,,moral_self_bias,24,20,60.044206741,f,001,2018_Apr_02_1822,
,,,,,,,,,,,,,,,,,,,,,,material/154.png,2,依靠,material/54.png,2,material/154.png,依赖,2,j,j,j,2,2,2,依靠,,,,,,,,,0,31,31,53,0,0,0,0,,,,,,,f,0,1.50103282928,f,0,0.391268014908,moral_self_bias,24,20,60.044206741,f,001,2018_Apr_02_1822,
,,,,,,,,,,,,,,,,,,,,,,material/154.png,2,依靠,material/54.png,2,material/154.png,依赖,2,j,j,j,2,2,2,依靠,,,,,,,,,0,31,31,53,,,,,,,,,,,,,,,,,moral_self_bias,24,20,60.044206741,f,001,2018_Apr_02_1822,
,,,,,,,,,,,,,,,,,,,,,,material/24.png,1,理智,material/124.png,1,material/24.png,冷静,1,f,f,f,2,2,2,理智,,,,,,,,,0,32,32,103,0,0,0,0,,,,,,,f,1,2.42509889603,f,0,0.857112884521,moral_self_bias,24,20,60.044206741,f,001,2018_Apr_02_1822,
,,,,,,,,,,,,,,,,,,,,,,material/24.png,1,理智,material/124.png,1,material/24.png,冷静,1,f,f,f,2,2,2,理智,,,,,,,,,0,32,32,103,,,,,,,,,,,,,,,,,moral_self_bias,24,20,60.044206741,f,001,2018_Apr_02_1822,
,,,,,,,,,,,,,,,,,,,,,,material/31.png,1,笃学,material/131.png,1,material/31.png,笃行,1,f,f,f,2,2,2,笃学,,,,,,,,,0,33,33,110,0,0,0,0,,,,,,,f,1,2.30852890015,j,1,0.624566078186,moral_self_bias,24,20,60.044206741,f,001,2018_Apr_02_1822,
,,,,,,,,,,,,,,,,,,,,,,material/31.png,1,笃学,material/131.png,1,material/31.png,笃行,1,f,f,f,2,2,2,笃学,,,,,,,,,0,33,33,110,,,,,,,,,,,,,,,,,moral_self_bias,24,20,60.044206741,f,001,2018_Apr_02_1822,
,,,,,,,,,,,,,,,,,,,,,,material/15.png,1,纯洁,material/115.png,1,material/115.png,纯洁,1,f,f,f,1,1,1,清白,,,,,,,,,0,34,34,94,0,0,0,0,,,,,,,f,1,3.6582930088,j,1,0.57373213768,moral_self_bias,24,20,60.044206741,f,001,2018_Apr_02_1822,
,,,,,,,,,,,,,,,,,,,,,,material/15.png,1,纯洁,material/115.png,1,material/115.png,纯洁,1,f,f,f,1,1,1,清白,,,,,,,,,0,34,34,94,,,,,,,,,,,,,,,,,moral_self_bias,24,20,60.044206741,f,001,2018_Apr_02_1822,
,,,,,,,,,,,,,,,,,,,,,,material/34.png,2,可恶,material/134.png,2,material/134.png,可恶,2,f,f,f,1,1,1,可恨,,,,,,,,,0,35,35,113,,,,,,,,,,,j,0,1.46735811234,,,,moral_self_bias,24,20,60.044206741,f,001,2018_Apr_02_1822,
,,,,,,,,,,,,,,,,,,,,,,material/5.png,1,诚信,material/105.png,1,material/105.png,诚信,1,f,f,f,1,1,1,守信,,,,,,,,,0,36,36,84,0,0,0,0,,,,,,,f,1,1.75671291351,f,0,0.292294025421,moral_self_bias,24,20,60.044206741,f,001,2018_Apr_02_1822,
,,,,,,,,,,,,,,,,,,,,,,material/5.png,1,诚信,material/105.png,1,material/105.png,诚信,1,f,f,f,1,1,1,守信,,,,,,,,,0,36,36,84,,,,,,,,,,,,,,,,,moral_self_bias,24,20,60.044206741,f,001,2018_Apr_02_1822,
,,,,,,,,,,,,,,,,,,,,,,material/6.png,1,厚道,material/106.png,1,material/106.png,厚道,1,f,f,f,1,1,1,诚实,,,,,,,,,0,37,37,85,0,0,0,0,,,,,,,f,1,1.93753695488,f,0,0.316874027252,moral_self_bias,24,20,60.044206741,f,001,2018_Apr_02_1822,
,,,,,,,,,,,,,,,,,,,,,,material/6.png,1,厚道,material/106.png,1,material/106.png,厚道,1,f,f,f,1,1,1,诚实,,,,,,,,,0,37,37,85,,,,,,,,,,,,,,,,,moral_self_bias,24,20,60.044206741,f,001,2018_Apr_02_1822,
,,,,,,,,,,,,,,,,,,,,,,material/164.png,1,宽容,material/63.png,1,material/163.png,文明,1,j,j,j,1,1,1,孝顺,,,,,,,,,0,38,38,62,0,0,0,0,,,,,,,f,0,1.38418412209,f,0,0.307345151901,moral_self_bias,24,20,60.044206741,f,001,2018_Apr_02_1822,
,,,,,,,,,,,,,,,,,,,,,,material/164.png,1,宽容,material/63.png,1,material/163.png,文明,1,j,j,j,1,1,1,孝顺,,,,,,,,,0,38,38,62,,,,,,,,,,,,,,,,,moral_self_bias,24,20,60.044206741,f,001,2018_Apr_02_1822,
,,,,,,,,,,,,,,,,,,,,,,material/46.png,2,自私,material/146.png,2,material/146.png,自私,2,f,f,f,1,1,1,小气,,,,,,,,,0,39,39,125,0,0,0,0,,,,,,,f,1,8.95062613487,j,1,3.27458620071,moral_self_bias,24,20,60.044206741,f,001,2018_Apr_02_1822,
,,,,,,,,,,,,,,,,,,,,,,material/46.png,2,自私,material/146.png,2,material/146.png,自私,2,f,f,f,1,1,1,小气,,,,,,,,,0,39,39,125,,,,,,,,,,,,,,,,,moral_self_bias,24,20,60.044206741,f,001,2018_Apr_02_1822,
,,,,,,,,,,,,,,,,,,,,,,material/78.png,2,厌学,material/181.png,2,material/184.png,犹豫,2,f,f,f,2,2,2,草率,,,,,,,,,0,40,40,160,0,0,0,0,,,,,,,f,1,2.87544298172,j,1,0.524316072464,moral_self_bias,24,20,60.044206741,f,001,2018_Apr_02_1822,
,,,,,,,,,,,,,,,,,,,,,,material/78.png,2,厌学,material/181.png,2,material/184.png,犹豫,2,f,f,f,2,2,2,草率,,,,,,,,,0,40,40,160,,,,,,,,,,,,,,,,,moral_self_bias,24,20,60.044206741,f,001,2018_Apr_02_1822,
,,,,,,,,,,,,,,,,,,,,,,material/117.png,1,聪颖,material/17.png,1,material/117.png,聪明,1,j,j,j,2,2,2,聪颖,,,,,,,,,0,41,41,16,0,0,0,0,,,,,,,f,0,5.64079189301,f,0,0.572639942169,moral_self_bias,24,20,60.044206741,f,001,2018_Apr_02_1822,
,,,,,,,,,,,,,,,,,,,,,,material/117.png,1,聪颖,material/17.png,1,material/117.png,聪明,1,j,j,j,2,2,2,聪颖,,,,,,,,,0,41,41,16,,,,,,,,,,,,,,,,,moral_self_bias,24,20,60.044206741,f,001,2018_Apr_02_1822,
,,,,,,,,,,,,,,,,,,,,,,material/54.png,2,依赖,material/154.png,2,material/54.png,依靠,2,f,f,f,2,2,2,依赖,,,,,,,,,0,42,42,133,,,,,,,,,,,j,0,1.04105496407,,,,moral_self_bias,24,20,60.044206741,f,001,2018_Apr_02_1822,
,,,,,,,,,,,,,,,,,,,,,,material/72.png,2,软弱,material/77.png,2,material/77.png,软弱,2,j,j,j,1,1,1,谄媚,,,,,,,,,0,43,43,73,,,,,,,,,,,j,1,1.67483496666,,,,moral_self_bias,24,20,60.044206741,f,001,2018_Apr_02_1822,
,,,,,,,,,,,,,,,,,,,,,,material/112.png,1,忠诚,material/12.png,1,material/12.png,忠诚,1,j,j,j,1,1,1,忠心,,,,,,,,,0,44,44,11,0,0,0,0,,,,,,,f,0,1.37371277809,j,1,0.390987873077,moral_self_bias,24,20,60.044206741,f,001,2018_Apr_02_1822,
,,,,,,,,,,,,,,,,,,,,,,material/112.png,1,忠诚,material/12.png,1,material/12.png,忠诚,1,j,j,j,1,1,1,忠心,,,,,,,,,0,44,44,11,,,,,,,,,,,,,,,,,moral_self_bias,24,20,60.044206741,f,001,2018_Apr_02_1822,
,,,,,,,,,,,,,,,,,,,,,,material/53.png,2,迟缓,material/153.png,2,material/53.png,迟钝,2,f,f,f,2,2,2,迟缓,,,,,,,,,0,45,45,132,0,0,0,0,,,,,,,f,1,1.97434091568,j,1,0.541856050491,moral_self_bias,24,20,60.044206741,f,001,2018_Apr_02_1822,
,,,,,,,,,,,,,,,,,,,,,,material/53.png,2,迟缓,material/153.png,2,material/53.png,迟钝,2,f,f,f,2,2,2,迟缓,,,,,,,,,0,45,45,132,,,,,,,,,,,,,,,,,moral_self_bias,24,20,60.044206741,f,001,2018_Apr_02_1822,
,,,,,,,,,,,,,,,,,,,,,,material/60.png,2,粗拙,material/160.png,2,material/60.png,笨拙,2,f,f,f,2,2,2,粗拙,,,,,,,,,0,46,46,139,0,0,0,0,,,,,,,f,1,1.35084295273,f,0,1.12447094917,moral_self_bias,24,20,60.044206741,f,001,2018_Apr_02_1822,
,,,,,,,,,,,,,,,,,,,,,,material/60.png,2,粗拙,material/160.png,2,material/60.png,笨拙,2,f,f,f,2,2,2,粗拙,,,,,,,,,0,46,46,139,,,,,,,,,,,,,,,,,moral_self_bias,24,20,60.044206741,f,001,2018_Apr_02_1822,
,,,,,,,,,,,,,,,,,,,,,,material/127.png,1,超群,material/27.png,1,material/127.png,卓越,1,j,j,j,2,2,2,超群,,,,,,,,,0,47,47,26,0,0,0,0,,,,,,,f,0,1.29127502441,f,0,0.325513124466,moral_self_bias,24,20,60.044206741,f,001,2018_Apr_02_1822,
,,,,,,,,,,,,,,,,,,,,,,material/127.png,1,超群,material/27.png,1,material/127.png,卓越,1,j,j,j,2,2,2,超群,,,,,,,,,0,47,47,26,,,,,,,,,,,,,,,,,moral_self_bias,24,20,60.044206741,f,001,2018_Apr_02_1822,
,,,,,,,,,,,,,,,,,,,,,,material/151.png,2,迷糊,material/51.png,2,material/151.png,糊涂,2,j,j,j,2,2,2,迷糊,,,,,,,,,0,48,48,50,,,,,,,,,,,j,1,1.6079018116,,,,moral_self_bias,24,20,60.044206741,f,001,2018_Apr_02_1822,
,,,,,,,,,,,,,,,,,,,,,,material/105.png,1,守信,material/5.png,1,material/5.png,守信,1,j,j,j,1,1,1,诚信,,,,,,,,,0,49,49,4,,,,,,,,,,,j,1,0.990700006485,,,,moral_self_bias,24,20,60.044206741,f,001,2018_Apr_02_1822,
,,,,,,,,,,,,,,,,,,,,,,material/134.png,2,可恨,material/34.png,2,material/34.png,可恨,2,j,j,j,1,1,1,可恶,,,,,,,,,0,50,50,33,0,0,0,0,,,,,,,f,0,1.29055905342,f,0,0.841706037521,moral_self_bias,24,20,60.044206741,f,001,2018_Apr_02_1822,
,,,,,,,,,,,,,,,,,,,,,,material/134.png,2,可恨,material/34.png,2,material/34.png,可恨,2,j,j,j,1,1,1,可恶,,,,,,,,,0,50,50,33,,,,,,,,,,,,,,,,,moral_self_bias,24,20,60.044206741,f,001,2018_Apr_02_1822,
,,,,,,,,,,,,,,,,,,,,,,material/168.png,1,机变,material/170.png,1,material/168.png,坚忍,1,f,f,f,2,2,2,机变,,,,,,,,,0,51,51,149,,,,,,,,,,,j,0,1.4423661232,,,,moral_self_bias,24,20,60.044206741,f,001,2018_Apr_02_1822,
,,,,,,,,,,,,,,,,,,,,,,material/109.png,1,秉直,material/9.png,1,material/9.png,秉直,1,j,j,j,1,1,1,正直,,,,,,,,,0,52,52,8,,,,,,,,,,,j,1,0.96700501442,,,,moral_self_bias,24,20,60.044206741,f,001,2018_Apr_02_1822,
,,,,,,,,,,,,,,,,,,,,,,material/147.png,2,刻板,material/47.png,2,material/147.png,死板,2,j,j,j,2,2,2,刻板,,,,,,,,,0,53,53,46,0,0,0,0,,,,,,,f,0,1.59155106544,j,1,0.508796930313,moral_self_bias,24,20,60.044206741,f,001,2018_Apr_02_1822,
,,,,,,,,,,,,,,,,,,,,,,material/147.png,2,刻板,material/47.png,2,material/147.png,死板,2,j,j,j,2,2,2,刻板,,,,,,,,,0,53,53,46,,,,,,,,,,,,,,,,,moral_self_bias,24,20,60.044206741,f,001,2018_Apr_02_1822,
,,,,,,,,,,,,,,,,,,,,,,material/142.png,2,阴险,material/42.png,2,material/42.png,阴险,2,j,j,j,1,1,1,奸诈,,,,,,,,,0,54,54,41,,,,,,,,,,,j,1,1.40795207024,,,,moral_self_bias,24,20,60.044206741,f,001,2018_Apr_02_1822,
,,,,,,,,,,,,,,,,,,,,,,material/173.png,2,不义,material/174.png,2,material/174.png,不义,2,f,f,f,1,1,1,黑心,,,,,,,,,0,55,55,153,,,,,,,,,,,j,0,1.14137578011,,,,moral_self_bias,24,20,60.044206741,f,001,2018_Apr_02_1822,
,,,,,,,,,,,,,,,,,,,,,,material/16.png,1,睿智,material/116.png,1,material/16.png,机智,1,f,f,f,2,2,2,睿智,,,,,,,,,0,56,56,95,,,,,,,,,,,j,0,4.34148097038,,,,moral_self_bias,24,20,60.044206741,f,001,2018_Apr_02_1822,
,,,,,,,,,,,,,,,,,,,,,,material/50.png,2,愚笨,material/150.png,2,material/50.png,鲁钝,2,f,f,f,2,2,2,愚笨,,,,,,,,,0,57,57,129,,,,,,,,,,,j,0,1.28301501274,,,,moral_self_bias,24,20,60.044206741,f,001,2018_Apr_02_1822,
,,,,,,,,,,,,,,,,,,,,,,material/152.png,2,缓慢,material/52.png,2,material/152.png,拖延,2,j,j,j,2,2,2,缓慢,,,,,,,,,0,58,58,51,,,,,,,,,,,j,1,1.02335691452,,,,moral_self_bias,24,20,60.044206741,f,001,2018_Apr_02_1822,
,,,,,,,,,,,,,,,,,,,,,,material/120.png,1,能干,material/20.png,1,material/120.png,厉害,1,j,j,j,2,2,2,能干,,,,,,,,,0,59,59,19,,,,,,,,,,,j,1,1.29241394997,,,,moral_self_bias,24,20,60.044206741,f,001,2018_Apr_02_1822,
,,,,,,,,,,,,,,,,,,,,,,material/144.png,2,失信,material/44.png,2,material/44.png,失信,2,j,j,j,1,1,1,爽约,,,,,,,,,0,60,60,43,0,0,0,0,,,,,,,f,0,1.26784491539,j,1,0.64134979248,moral_self_bias,24,20,60.044206741,f,001,2018_Apr_02_1822,
,,,,,,,,,,,,,,,,,,,,,,material/144.png,2,失信,material/44.png,2,material/44.png,失信,2,j,j,j,1,1,1,爽约,,,,,,,,,0,60,60,43,,,,,,,,,,,,,,,,,moral_self_bias,24,20,60.044206741,f,001,2018_Apr_02_1822,
,,,,,,,,,,,,,,,,,,,,,,material/170.png,1,坚忍,material/71.png,1,material/170.png,严谨,1,j,j,j,2,2,2,坚忍,,,,,,,,,0,61,61,68,,,,,,,,,,,j,1,1.14083003998,,,,moral_self_bias,24,20,60.044206741,f,001,2018_Apr_02_1822,
,,,,,,,,,,,,,,,,,,,,,,material/59.png,2,智障,material/159.png,2,material/59.png,弱智,2,f,f,f,2,2,2,智障,,,,,,,,,0,62,62,138,,,,,,,,,,,j,0,1.34038591385,,,,moral_self_bias,24,20,60.044206741,f,001,2018_Apr_02_1822,
,,,,,,,,,,,,,,,,,,,,,,material/35.png,2,冷血,material/135.png,2,material/135.png,冷血,2,f,f,f,1,1,1,冷漠,,,,,,,,,0,63,63,114,,,,,,,,,,,j,0,1.32357907295,,,,moral_self_bias,24,20,60.044206741,f,001,2018_Apr_02_1822,
,,,,,,,,,,,,,,,,,,,,,,material/183.png,2,颓废,material/182.png,2,material/79.png,才尽,2,f,f,f,2,2,2,薄弱,,,,,,,,,0,64,64,161,,,,,,,,,,,j,0,1.39143109322,,,,moral_self_bias,24,20,60.044206741,f,001,2018_Apr_02_1822,
,,,,,,,,,,,,,,,,,,,,,,material/137.png,2,无耻,material/37.png,2,material/37.png,无耻,2,j,j,j,1,1,1,卑鄙,,,,,,,,,0,65,65,36,,,,,,,,,,,j,1,2.85817503929,,,,moral_self_bias,24,20,60.044206741,f,001,2018_Apr_02_1822,
,,,,,,,,,,,,,,,,,,,,,,material/58.png,2,肤浅,material/158.png,2,material/58.png,浅薄,2,f,f,f,2,2,2,肤浅,,,,,,,,,0,66,66,137,,,,,,,,,,,j,0,0.774825811386,,,,moral_self_bias,24,20,60.044206741,f,001,2018_Apr_02_1822,
,,,,,,,,,,,,,,,,,,,,,,material/17.png,1,聪明,material/117.png,1,material/17.png,聪颖,1,f,f,f,2,2,2,聪明,,,,,,,,,0,67,67,96,,,,,,,,,,,j,0,1.15783286095,,,,moral_self_bias,24,20,60.044206741,f,001,2018_Apr_02_1822,
,,,,,,,,,,,,,,,,,,,,,,material/145.png,2,下流,material/45.png,2,material/45.png,下流,2,j,j,j,1,1,1,小人,,,,,,,,,0,68,68,44,,,,,,,,,,,j,1,0.80814909935,,,,moral_self_bias,24,20,60.044206741,f,001,2018_Apr_02_1822,
,,,,,,,,,,,,,,,,,,,,,,material/19.png,1,灵活,material/119.png,1,material/19.png,机灵,1,f,f,f,2,2,2,灵活,,,,,,,,,0,69,69,98,0,0,0,0,,,,,,,f,1,1.17495918274,j,1,0.324411869049,moral_self_bias,24,20,60.044206741,f,001,2018_Apr_02_1822,
,,,,,,,,,,,,,,,,,,,,,,material/19.png,1,灵活,material/119.png,1,material/19.png,机灵,1,f,f,f,2,2,2,灵活,,,,,,,,,0,69,69,98,,,,,,,,,,,,,,,,,moral_self_bias,24,20,60.044206741,f,001,2018_Apr_02_1822,
,,,,,,,,,,,,,,,,,,,,,,material/43.png,2,虚荣,material/143.png,2,material/143.png,虚荣,2,f,f,f,1,1,1,拜金,,,,,,,,,0,70,70,122,,,,,,,,,,,j,0,1.37451791763,,,,moral_self_bias,24,20,60.044206741,f,001,2018_Apr_02_1822,
,,,,,,,,,,,,,,,,,,,,,,material/172.png,2,无情,material/175.png,2,material/175.png,无情,2,f,f,f,1,1,1,浮夸,,,,,,,,,0,71,71,154,,,,,,,,,,,j,0,0.791319131851,,,,moral_self_bias,24,20,60.044206741,f,001,2018_Apr_02_1822,
,,,,,,,,,,,,,,,,,,,,,,material/69.png,1,高明,material/69.png,1,material/69.png,高明,1,f,f,f,2,2,2,高明,,,,,,,,,0,72,72,166,,,,,,,,,,,j,0,1.61579179764,,,,moral_self_bias,24,20,60.044206741,f,001,2018_Apr_02_1822,
,,,,,,,,,,,,,,,,,,,,,,material/141.png,2,歹毒,material/41.png,2,material/41.png,歹毒,2,j,j,j,1,1,1,残忍,,,,,,,,,0,73,73,40,0,0,0,0,,,,,,,f,0,1.49071002007,j,1,0.457718133926,moral_self_bias,24,20,60.044206741,f,001,2018_Apr_02_1822,
,,,,,,,,,,,,,,,,,,,,,,material/141.png,2,歹毒,material/41.png,2,material/41.png,歹毒,2,j,j,j,1,1,1,残忍,,,,,,,,,0,73,73,40,,,,,,,,,,,,,,,,,moral_self_bias,24,20,60.044206741,f,001,2018_Apr_02_1822,
,,,,,,,,,,,,,,,,,,,,,,material/174.png,2,虚伪,material/76.png,2,material/76.png,虚伪,2,j,j,j,1,1,1,不义,,,,,,,,,0,74,74,72,,,,,,,,,,,j,1,2.17401194572,,,,moral_self_bias,24,20,60.044206741,f,001,2018_Apr_02_1822,
,,,,,,,,,,,,,,,,,,,,,,material/37.png,2,卑鄙,material/137.png,2,material/137.png,卑鄙,2,f,f,f,1,1,1,无耻,,,,,,,,,0,75,75,116,,,,,,,,,,,j,0,1.3754940033,,,,moral_self_bias,24,20,60.044206741,f,001,2018_Apr_02_1822,
,,,,,,,,,,,,,,,,,,,,,,material/146.png,2,小气,material/46.png,2,material/46.png,小气,2,j,j,j,1,1,1,自私,,,,,,,,,0,76,76,45,,,,,,,,,,,j,1,1.14146709442,,,,moral_self_bias,24,20,60.044206741,f,001,2018_Apr_02_1822,
,,,,,,,,,,,,,,,,,,,,,,material/148.png,2,笨蛋,material/48.png,2,material/148.png,愚蠢,2,j,j,j,2,2,2,笨蛋,,,,,,,,,0,77,77,47,0,0,0,0,,,,,,,f,0,1.49094700813,j,1,0.55860710144,moral_self_bias,24,20,60.044206741,f,001,2018_Apr_02_1822,
,,,,,,,,,,,,,,,,,,,,,,material/148.png,2,笨蛋,material/48.png,2,material/148.png,愚蠢,2,j,j,j,2,2,2,笨蛋,,,,,,,,,0,77,77,47,,,,,,,,,,,,,,,,,moral_self_bias,24,20,60.044206741,f,001,2018_Apr_02_1822,
,,,,,,,,,,,,,,,,,,,,,,material/108.png,1,公道,material/8.png,1,material/8.png,公道,1,j,j,j,1,1,1,无私,,,,,,,,,0,78,78,7,,,,,,,,,,,j,1,1.10793709755,,,,moral_self_bias,24,20,60.044206741,f,001,2018_Apr_02_1822,
,,,,,,,,,,,,,,,,,,,,,,material/61.png,1,仗义,material/65.png,1,material/166.png,谦虚,1,j,j,j,1,1,1,平等,,,,,,,,,0,79,79,64,0,0,0,0,,,,,,,f,0,1.32447218895,f,0,0.540714025497,moral_self_bias,24,20,60.044206741,f,001,2018_Apr_02_1822,
,,,,,,,,,,,,,,,,,,,,,,material/61.png,1,仗义,material/65.png,1,material/166.png,谦虚,1,j,j,j,1,1,1,平等,,,,,,,,,0,79,79,64,,,,,,,,,,,,,,,,,moral_self_bias,24,20,60.044206741,f,001,2018_Apr_02_1822,
,,,,,,,,,,,,,,,,,,,,,,material/182.png,2,健忘,material/184.png,2,material/80.png,厌学,2,f,f,f,2,2,2,才尽,,,,,,,,,0,80,80,163,0,0,0,0,,,,,,,f,1,1.45845198631,f,0,0.683634996414,moral_self_bias,24,20,60.044206741,f,001,2018_Apr_02_1822,
,,,,,,,,,,,,,,,,,,,,,,material/182.png,2,健忘,material/184.png,2,material/80.png,厌学,2,f,f,f,2,2,2,才尽,,,,,,,,,0,80,80,163,,,,,,,,,,,,,,,,,moral_self_bias,24,20,60.044206741,f,001,2018_Apr_02_1822,
,,,,,,,,,,,,,,,,,,,,,,material/51.png,2,糊涂,material/151.png,2,material/51.png,迷糊,2,f,f,f,2,2,2,糊涂,,,,,,,,,0,81,81,130,0,0,0,0,,,,,,,f,1,3.19095993042,f,0,0.667323827744,moral_self_bias,24,20,60.044206741,f,001,2018_Apr_02_1822,
,,,,,,,,,,,,,,,,,,,,,,material/51.png,2,糊涂,material/151.png,2,material/51.png,迷糊,2,f,f,f,2,2,2,糊涂,,,,,,,,,0,81,81,130,,,,,,,,,,,,,,,,,moral_self_bias,24,20,60.044206741,f,001,2018_Apr_02_1822,
,,,,,,,,,,,,,,,,,,,,,,material/8.png,1,无私,material/108.png,1,material/108.png,无私,1,f,f,f,1,1,1,公道,,,,,,,,,0,82,82,87,0,0,0,0,,,,,,,f,1,1.05770802498,f,0,0.54009604454,moral_self_bias,24,20,60.044206741,f,001,2018_Apr_02_1822,
,,,,,,,,,,,,,,,,,,,,,,material/8.png,1,无私,material/108.png,1,material/108.png,无私,1,f,f,f,1,1,1,公道,,,,,,,,,0,82,82,87,,,,,,,,,,,,,,,,,moral_self_bias,24,20,60.044206741,f,001,2018_Apr_02_1822,
,,,,,,,,,,,,,,,,,,,,,,material/42.png,2,奸诈,material/142.png,2,material/142.png,奸诈,2,f,f,f,1,1,1,阴险,,,,,,,,,0,83,83,121,,,,,,,,,,,j,0,0.841548919678,,,,moral_self_bias,24,20,60.044206741,f,001,2018_Apr_02_1822,
,,,,,,,,,,,,,,,,,,,,,,material/66.png,1,独立,material/66.png,1,material/165.png,正义,1,f,f,f,1,1,1,正义,,,,,,,,,0,84,84,164,0,0,0,0,,,,,,,f,1,1.47480416298,f,0,0.623382091522,moral_self_bias,24,20,60.044206741,f,001,2018_Apr_02_1822,
,,,,,,,,,,,,,,,,,,,,,,material/66.png,1,独立,material/66.png,1,material/165.png,正义,1,f,f,f,1,1,1,正义,,,,,,,,,0,84,84,164,,,,,,,,,,,,,,,,,moral_self_bias,24,20,60.044206741,f,001,2018_Apr_02_1822,
,,,,,,,,,,,,,,,,,,,,,,material/165.png,1,平等,material/161.png,1,material/61.png,勇敢,1,f,f,f,1,1,1,独立,,,,,,,,,0,85,85,140,,,,,,,,,,,j,0,1.27478194237,,,,moral_self_bias,24,20,60.044206741,f,001,2018_Apr_02_1822,
,,,,,,,,,,,,,,,,,,,,,,material/57.png,2,无知,material/157.png,2,material/57.png,无能,2,f,f,f,2,2,2,无知,,,,,,,,,0,86,86,136,,,,,,,,,,,j,0,1.04134988785,,,,moral_self_bias,24,20,60.044206741,f,001,2018_Apr_02_1822,
,,,,,,,,,,,,,,,,,,,,,,material/52.png,2,拖延,material/152.png,2,material/52.png,缓慢,2,f,f,f,2,2,2,拖延,,,,,,,,,0,87,87,131,,,,,,,,,,,j,0,1.82546210289,,,,moral_self_bias,24,20,60.044206741,f,001,2018_Apr_02_1822,
,,,,,,,,,,,,,,,,,,,,,,material/143.png,2,拜金,material/43.png,2,material/43.png,拜金,2,j,j,j,1,1,1,虚荣,,,,,,,,,0,88,88,42,,,,,,,,,,,j,1,1.05870914459,,,,moral_self_bias,24,20,60.044206741,f,001,2018_Apr_02_1822,
,,,,,,,,,,,,,,,,,,,,,,material/122.png,1,博学,material/22.png,1,material/122.png,才学,1,j,j,j,2,2,2,博学,,,,,,,,,0,89,89,21,0,0,0,0,,,,,,,f,0,1.641466856,j,1,0.741682052612,moral_self_bias,24,20,60.044206741,f,001,2018_Apr_02_1822,
,,,,,,,,,,,,,,,,,,,,,,material/122.png,1,博学,material/22.png,1,material/122.png,才学,1,j,j,j,2,2,2,博学,,,,,,,,,0,89,89,21,,,,,,,,,,,,,,,,,moral_self_bias,24,20,60.044206741,f,001,2018_Apr_02_1822,
,,,,,,,,,,,,,,,,,,,,,,material/7.png,1,公平,material/107.png,1,material/107.png,公平,1,f,f,f,1,1,1,公正,,,,,,,,,0,90,90,86,,,,,,,,,,,j,0,1.33386898041,,,,moral_self_bias,24,20,60.044206741,f,001,2018_Apr_02_1822,
,,,,,,,,,,,,,,,,,,,,,,material/178.png,2,窝囊,material/82.png,2,material/82.png,窝囊,2,j,j,j,2,2,2,毛糙,,,,,,,,,0,91,91,78,,,,,,,,,,,j,1,0.875324964523,,,,moral_self_bias,24,20,60.044206741,f,001,2018_Apr_02_1822,
,,,,,,,,,,,,,,,,,,,,,,material/3.png,1,仁厚,material/103.png,1,material/103.png,仁厚,1,f,f,f,1,1,1,仁慈,,,,,,,,,0,92,92,82,,,,,,,,,,,j,0,1.17435193062,,,,moral_self_bias,24,20,60.044206741,f,001,2018_Apr_02_1822,
,,,,,,,,,,,,,,,,,,,,,,material/114.png,1,爱国,material/14.png,1,material/14.png,爱国,1,j,j,j,1,1,1,忠贞,,,,,,,,,0,93,93,13,,,,,,,,,,,j,1,1.58316898346,,,,moral_self_bias,24,20,60.044206741,f,001,2018_Apr_02_1822,
,,,,,,,,,,,,,,,,,,,,,,material/26.png,1,刻苦,material/126.png,1,material/26.png,勤快,1,f,f,f,2,2,2,刻苦,,,,,,,,,0,94,94,105,,,,,,,,,,,j,0,0.92494893074,,,,moral_self_bias,24,20,60.044206741,f,001,2018_Apr_02_1822,
,,,,,,,,,,,,,,,,,,,,,,material/135.png,2,冷漠,material/35.png,2,material/35.png,冷漠,2,j,j,j,1,1,1,冷血,,,,,,,,,0,95,95,34,,,,,,,,,,,j,1,0.709025859833,,,,moral_self_bias,24,20,60.044206741,f,001,2018_Apr_02_1822,
,,,,,,,,,,,,,,,,,,,,,,material/126.png,1,勤快,material/26.png,1,material/126.png,刻苦,1,j,j,j,2,2,2,勤快,,,,,,,,,0,96,96,25,0,0,0,0,,,,,,,f,0,2.23313999176,j,1,0.740570068359,moral_self_bias,24,20,60.044206741,f,001,2018_Apr_02_1822,
,,,,,,,,,,,,,,,,,,,,,,material/126.png,1,勤快,material/26.png,1,material/126.png,刻苦,1,j,j,j,2,2,2,勤快,,,,,,,,,0,96,96,25,,,,,,,,,,,,,,,,,moral_self_bias,24,20,60.044206741,f,001,2018_Apr_02_1822,
,,,,,,,,,,,,,,,,,,,,,,material/169.png,1,颖悟,material/171.png,1,material/169.png,高效,1,f,f,f,2,2,2,颖悟,,,,,,,,,0,97,97,150,,,,,,,,,,,j,0,1.04973888397,,,,moral_self_bias,24,20,60.044206741,f,001,2018_Apr_02_1822,
,,,,,,,,,,,,,,,,,,,,,,material/68.png,1,广博,material/167.png,1,material/68.png,高手,1,f,f,f,2,2,2,广博,,,,,,,,,0,98,98,146,,,,,,,,,,,j,0,0.875138044357,,,,moral_self_bias,24,20,60.044206741,f,001,2018_Apr_02_1822,
,,,,,,,,,,,,,,,,,,,,,,material/73.png,2,恶心,material/177.png,2,material/177.png,恶心,2,f,f,f,1,1,1,残虐,,,,,,,,,0,99,99,156,,,,,,,,,,,j,0,1.02360105515,,,,moral_self_bias,24,20,60.044206741,f,001,2018_Apr_02_1822,
,,,,,,,,,,,,,,,,,,,,,,material/39.png,2,恶毒,material/139.png,2,material/139.png,恶毒,2,f,f,f,1,1,1,凶残,,,,,,,,,0,100,100,118,0,0,0,0,,,,,,,f,1,1.30826711655,j,1,0.97570681572,moral_self_bias,24,20,60.044206741,f,001,2018_Apr_02_1822,
,,,,,,,,,,,,,,,,,,,,,,material/39.png,2,恶毒,material/139.png,2,material/139.png,恶毒,2,f,f,f,1,1,1,凶残,,,,,,,,,0,100,100,118,,,,,,,,,,,,,,,,,moral_self_bias,24,20,60.044206741,f,001,2018_Apr_02_1822,
,,,,,,,,,,,,,,,,,,,,,,material/133.png,2,腐败,material/33.png,2,material/33.png,腐败,2,j,j,j,1,1,1,贪污,,,,,,,,,0,101,101,32,,,,,,,,,,,j,1,1.00693893433,,,,moral_self_bias,24,20,60.044206741,f,001,2018_Apr_02_1822,
,,,,,,,,,,,,,,,,,,,,,,material/4.png,1,友善,material/104.png,1,material/104.png,友善,1,f,f,f,1,1,1,友爱,,,,,,,,,0,102,102,83,,,,,,,,,,,j,0,1.07472801208,,,,moral_self_bias,24,20,60.044206741,f,001,2018_Apr_02_1822,
,,,,,,,,,,,,,,,,,,,,,,material/10.png,1,坚毅,material/110.png,1,material/110.png,坚毅,1,f,f,f,1,1,1,顽强,,,,,,,,,0,103,103,89,0,0,0,0,,,,,,,f,1,1.19191479683,j,1,1.77331805229,moral_self_bias,24,20,60.044206741,f,001,2018_Apr_02_1822,
,,,,,,,,,,,,,,,,,,,,,,material/10.png,1,坚毅,material/110.png,1,material/110.png,坚毅,1,f,f,f,1,1,1,顽强,,,,,,,,,0,103,103,89,,,,,,,,,,,,,,,,,moral_self_bias,24,20,60.044206741,f,001,2018_Apr_02_1822,
,,,,,,,,,,,,,,,,,,,,,,material/116.png,1,机智,material/16.png,1,material/116.png,睿智,1,j,j,j,2,2,2,机智,,,,,,,,,0,104,104,15,0,0,0,0,,,,,,,f,0,1.22470617294,j,1,0.457101106644,moral_self_bias,24,20,60.044206741,f,001,2018_Apr_02_1822,
,,,,,,,,,,,,,,,,,,,,,,material/116.png,1,机智,material/16.png,1,material/116.png,睿智,1,j,j,j,2,2,2,机智,,,,,,,,,0,104,104,15,,,,,,,,,,,,,,,,,moral_self_bias,24,20,60.044206741,f,001,2018_Apr_02_1822,
,,,,,,,,,,,,,,,,,,,,,,material/74.png,2,黑心,material/173.png,2,material/173.png,黑心,2,f,f,f,1,1,1,卑劣,,,,,,,,,0,105,105,152,,,,,,,,,,,j,0,0.957509040833,,,,moral_self_bias,24,20,60.044206741,f,001,2018_Apr_02_1822,
,,,,,,,,,,,,,,,,,,,,,,material/77.png,2,浮夸,material/172.png,2,material/172.png,浮夸,2,f,f,f,1,1,1,软弱,,,,,,,,,0,106,106,151,0,0,0,0,,,,,,,f,1,1.20752501488,f,0,0.658718109131,moral_self_bias,24,20,60.044206741,f,001,2018_Apr_02_1822,
,,,,,,,,,,,,,,,,,,,,,,material/77.png,2,浮夸,material/172.png,2,material/172.png,浮夸,2,f,f,f,1,1,1,软弱,,,,,,,,,0,106,106,151,,,,,,,,,,,,,,,,,moral_self_bias,24,20,60.044206741,f,001,2018_Apr_02_1822,
,,,,,,,,,,,,,,,,,,,,,,material/161.png,1,奉献,material/164.png,1,material/64.png,孝顺,1,f,f,f,1,1,1,勇敢,,,,,,,,,0,107,107,143,,,,,,,,,,,j,0,0.992640972137,,,,moral_self_bias,24,20,60.044206741,f,001,2018_Apr_02_1822,
,,,,,,,,,,,,,,,,,,,,,,material/167.png,1,高手,material/169.png,1,material/167.png,颖悟,1,f,f,f,2,2,2,高手,,,,,,,,,0,108,108,148,,,,,,,,,,,j,0,0.95817899704,,,,moral_self_bias,24,20,60.044206741,f,001,2018_Apr_02_1822,
,,,,,,,,,,,,,,,,,,,,,,material/149.png,2,白痴,material/49.png,2,material/149.png,痴呆,2,j,j,j,2,2,2,白痴,,,,,,,,,0,109,109,48,,,,,,,,,,,j,1,0.908769130707,,,,moral_self_bias,24,20,60.044206741,f,001,2018_Apr_02_1822,
,,,,,,,,,,,,,,,,,,,,,,material/176.png,2,害人,material/75.png,2,material/75.png,害人,2,j,j,j,1,1,1,放纵,,,,,,,,,0,110,110,71,,,,,,,,,,,j,1,1.4507689476,,,,moral_self_bias,24,20,60.044206741,f,001,2018_Apr_02_1822,
,,,,,,,,,,,,,,,,,,,,,,material/82.png,2,毛糙,material/183.png,2,material/178.png,薄弱,2,f,f,f,2,2,2,窝囊,,,,,,,,,0,111,111,162,,,,,,,,,,,j,0,0.958297014236,,,,moral_self_bias,24,20,60.044206741,f,001,2018_Apr_02_1822,
,,,,,,,,,,,,,,,,,,,,,,material/140.png,2,邪恶,material/40.png,2,material/40.png,邪恶,2,j,j,j,1,1,1,狠毒,,,,,,,,,0,112,112,39,,,,,,,,,,,j,1,2.12503409386,,,,moral_self_bias,24,20,60.044206741,f,001,2018_Apr_02_1822,
,,,,,,,,,,,,,,,,,,,,,,material/32.png,2,背叛,material/132.png,2,material/132.png,背叛,2,f,f,f,1,1,1,不忠,,,,,,,,,0,113,113,111,0,0,0,0,,,,,,,f,1,1.22485303879,j,1,2.12463617325,moral_self_bias,24,20,60.044206741,f,001,2018_Apr_02_1822,
,,,,,,,,,,,,,,,,,,,,,,material/32.png,2,背叛,material/132.png,2,material/132.png,背叛,2,f,f,f,1,1,1,不忠,,,,,,,,,0,113,113,111,,,,,,,,,,,,,,,,,moral_self_bias,24,20,60.044206741,f,001,2018_Apr_02_1822,
,,,,,,,,,,,,,,,,,,,,,,material/132.png,2,不忠,material/32.png,2,material/32.png,不忠,2,j,j,j,1,1,1,背叛,,,,,,,,,0,114,114,31,,,,,,,,,,,j,1,2.53791189194,,,,moral_self_bias,24,20,60.044206741,f,001,2018_Apr_02_1822,
,,,,,,,,,,,,,,,,,,,,,,material/71.png,1,严谨,material/68.png,1,material/71.png,广博,1,j,j,j,2,2,2,严谨,,,,,,,,,0,115,115,66,0,0,0,0,,,,,,,f,0,1.07435202599,j,1,0.975214958191,moral_self_bias,24,20,60.044206741,f,001,2018_Apr_02_1822,
,,,,,,,,,,,,,,,,,,,,,,material/71.png,1,严谨,material/68.png,1,material/71.png,广博,1,j,j,j,2,2,2,严谨,,,,,,,,,0,115,115,66,,,,,,,,,,,,,,,,,moral_self_bias,24,20,60.044206741,f,001,2018_Apr_02_1822,
,,,,,,,,,,,,,,,,,,,,,,material/29.png,1,好学,material/129.png,1,material/29.png,好问,1,f,f,f,2,2,2,好学,,,,,,,,,0,116,116,108,,,,,,,,,,,j,0,1.67412400246,,,,moral_self_bias,24,20,60.044206741,f,001,2018_Apr_02_1822,
,,,,,,,,,,,,,,,,,,,,,,material/107.png,1,公正,material/7.png,1,material/7.png,公正,1,j,j,j,1,1,1,公平,,,,,,,,,0,117,117,6,,,,,,,,,,,j,1,2.08365106583,,,,moral_self_bias,24,20,60.044206741,f,001,2018_Apr_02_1822,
,,,,,,,,,,,,,,,,,,,,,,material/113.png,1,廉洁,material/13.png,1,material/13.png,廉洁,1,j,j,j,1,1,1,廉明,,,,,,,,,0,118,118,12,,,,,,,,,,,j,1,3.64122104645,,,,moral_self_bias,24,20,60.044206741,f,001,2018_Apr_02_1822,
,,,,,,,,,,,,,,,,,,,,,,material/83.png,2,差生,material/78.png,2,material/179.png,草率,2,j,j,j,2,2,2,呆笨,,,,,,,,,0,119,119,74,,,,,,,,,,,j,1,2.24191021919,,,,moral_self_bias,24,20,60.044206741,f,001,2018_Apr_02_1822,
,,,,,,,,,,,,,,,,,,,,,,material/25.png,1,果断,material/125.png,1,material/25.png,果敢,1,f,f,f,2,2,2,果断,,,,,,,,,0,120,120,104,,,,,,,,,,,j,0,2.34119391441,,,,moral_self_bias,24,20,60.044206741,f,001,2018_Apr_02_1822,
,,,,,,,,,,,,,,,,,,,,,,material/14.png,1,忠贞,material/114.png,1,material/114.png,忠贞,1,f,f,f,1,1,1,爱国,,,,,,,,,0,121,121,93,0,0,0,0,,,,,,,f,1,1.2407541275,j,1,0.724693059921,moral_self_bias,24,20,60.044206741,f,001,2018_Apr_02_1822,
,,,,,,,,,,,,,,,,,,,,,,material/14.png,1,忠贞,material/114.png,1,material/114.png,忠贞,1,f,f,f,1,1,1,爱国,,,,,,,,,0,121,121,93,,,,,,,,,,,,,,,,,moral_self_bias,24,20,60.044206741,f,001,2018_Apr_02_1822,
,,,,,,,,,,,,,,,,,,,,,,material/11.png,1,高尚,material/111.png,1,material/111.png,高尚,1,f,f,f,1,1,1,高雅,,,,,,,,,0,122,122,90,,,,,,,,,,,j,0,1.09182190895,,,,moral_self_bias,24,20,60.044206741,f,001,2018_Apr_02_1822,
,,,,,,,,,,,,,,,,,,,,,,material/136.png,2,说谎,material/36.png,2,material/36.png,说谎,2,j,j,j,1,1,1,撒谎,,,,,,,,,0,123,123,35,0,0,0,0,,,,,,,f,0,1.50782704353,j,1,0.44109916687,moral_self_bias,24,20,60.044206741,f,001,2018_Apr_02_1822,
,,,,,,,,,,,,,,,,,,,,,,material/136.png,2,说谎,material/36.png,2,material/36.png,说谎,2,j,j,j,1,1,1,撒谎,,,,,,,,,0,123,123,35,,,,,,,,,,,,,,,,,moral_self_bias,24,20,60.044206741,f,001,2018_Apr_02_1822,
,,,,,,,,,,,,,,,,,,,,,,material/70.png,1,全面,material/168.png,1,material/70.png,机变,1,f,f,f,2,2,2,全面,,,,,,,,,0,124,124,147,,,,,,,,,,,j,0,0.899770021439,,,,moral_self_bias,24,20,60.044206741,f,001,2018_Apr_02_1822,
,,,,,,,,,,,,,,,,,,,,,,material/110.png,1,顽强,material/10.png,1,material/10.png,顽强,1,j,j,j,1,1,1,坚毅,,,,,,,,,0,125,125,9,,,,,,,,,,,j,1,2.3747651577,,,,moral_self_bias,24,20,60.044206741,f,001,2018_Apr_02_1822,
,,,,,,,,,,,,,,,,,,,,,,material/179.png,2,顽愚,material/178.png,2,material/84.png,毛糙,2,f,f,f,2,2,2,差生,,,,,,,,,0,126,126,157,0,0,0,0,,,,,,,f,1,1.79219508171,j,1,0.773820161819,moral_self_bias,24,20,60.044206741,f,001,2018_Apr_02_1822,
,,,,,,,,,,,,,,,,,,,,,,material/179.png,2,顽愚,material/178.png,2,material/84.png,毛糙,2,f,f,f,2,2,2,差生,,,,,,,,,0,126,126,157,,,,,,,,,,,,,,,,,moral_self_bias,24,20,60.044206741,f,001,2018_Apr_02_1822,
,,,,,,,,,,,,,,,,,,,,,,material/81.png,2,呆笨,material/179.png,2,material/83.png,差生,2,f,f,f,2,2,2,无助,,,,,,,,,0,127,127,158,,,,,,,,,,,j,0,0.908118009567,,,,moral_self_bias,24,20,60.044206741,f,001,2018_Apr_02_1822,
,,,,,,,,,,,,,,,,,,,,,,material/162.png,1,敬业,material/62.png,1,material/162.png,坚韧,1,j,j,j,1,1,1,敬业,,,,,,,,,0,128,128,61,,,,,,,,,,,j,1,1.22447395325,,,,moral_self_bias,24,20,60.044206741,f,001,2018_Apr_02_1822,
,,,,,,,,,,,,,,,,,,,,,,material/125.png,1,果敢,material/25.png,1,material/125.png,果断,1,j,j,j,2,2,2,果敢,,,,,,,,,0,129,129,24,,,,,,,,,,,j,1,1.25849699974,,,,moral_self_bias,24,20,60.044206741,f,001,2018_Apr_02_1822,
,,,,,,,,,,,,,,,,,,,,,,material/48.png,2,愚蠢,material/148.png,2,material/48.png,笨蛋,2,f,f,f,2,2,2,愚蠢,,,,,,,,,0,130,130,127,,,,,,,,,,,j,0,1.62483096123,,,,moral_self_bias,24,20,60.044206741,f,001,2018_Apr_02_1822,
,,,,,,,,,,,,,,,,,,,,,,material/124.png,1,冷静,material/24.png,1,material/124.png,理智,1,j,j,j,2,2,2,冷静,,,,,,,,,0,131,131,23,0,0,0,0,,,,,,,f,0,1.51669597626,f,0,0.490812063217,moral_self_bias,24,20,60.044206741,f,001,2018_Apr_02_1822,
,,,,,,,,,,,,,,,,,,,,,,material/124.png,1,冷静,material/24.png,1,material/124.png,理智,1,j,j,j,2,2,2,冷静,,,,,,,,,0,131,131,23,,,,,,,,,,,,,,,,,moral_self_bias,24,20,60.044206741,f,001,2018_Apr_02_1822,
,,,,,,,,,,,,,,,,,,,,,,material/33.png,2,贪污,material/133.png,2,material/133.png,贪污,2,f,f,f,1,1,1,腐败,,,,,,,,,0,132,132,112,,,,,,,,,,,j,0,1.20776796341,,,,moral_self_bias,24,20,60.044206741,f,001,2018_Apr_02_1822,
,,,,,,,,,,,,,,,,,,,,,,material/84.png,2,犹豫,material/84.png,2,material/181.png,顽愚,2,f,f,f,2,2,2,顽愚,,,,,,,,,0,133,133,167,,,,,,,,,,,j,0,3.09184908867,,,,moral_self_bias,24,20,60.044206741,f,001,2018_Apr_02_1822,
,,,,,,,,,,,,,,,,,,,,,,material/131.png,1,笃行,material/31.png,1,material/131.png,笃学,1,j,j,j,2,2,2,笃行,,,,,,,,,0,134,134,30,0,0,0,0,,,,,,,f,0,0.890926122665,f,0,0.458415031433,moral_self_bias,24,20,60.044206741,f,001,2018_Apr_02_1822,
,,,,,,,,,,,,,,,,,,,,,,material/131.png,1,笃行,material/31.png,1,material/131.png,笃学,1,j,j,j,2,2,2,笃行,,,,,,,,,0,134,134,30,,,,,,,,,,,,,,,,,moral_self_bias,24,20,60.044206741,f,001,2018_Apr_02_1822,
,,,,,,,,,,,,,,,,,,,,,,material/123.png,1,多才,material/23.png,1,material/123.png,有才,1,j,j,j,2,2,2,多才,,,,,,,,,0,135,135,22,0,0,0,0,,,,,,,f,0,1.0582048893,j,1,0.44254899025,moral_self_bias,24,20,60.044206741,f,001,2018_Apr_02_1822,
,,,,,,,,,,,,,,,,,,,,,,material/123.png,1,多才,material/23.png,1,material/123.png,有才,1,j,j,j,2,2,2,多才,,,,,,,,,0,135,135,22,,,,,,,,,,,,,,,,,moral_self_bias,24,20,60.044206741,f,001,2018_Apr_02_1822,
,,,,,,,,,,,,,,,,,,,,,,material/121.png,1,精干,material/21.png,1,material/121.png,干练,1,j,j,j,2,2,2,精干,,,,,,,,,0,136,136,20,0,0,0,0,,,,,,,f,0,1.8672170639,f,0,0.857969999313,moral_self_bias,24,20,60.044206741,f,001,2018_Apr_02_1822,
,,,,,,,,,,,,,,,,,,,,,,material/121.png,1,精干,material/21.png,1,material/121.png,干练,1,j,j,j,2,2,2,精干,,,,,,,,,0,136,136,20,,,,,,,,,,,,,,,,,moral_self_bias,24,20,60.044206741,f,001,2018_Apr_02_1822,
,,,,,,,,,,,,,,,,,,,,,,material/160.png,2,笨拙,material/60.png,2,material/160.png,粗拙,2,j,j,j,2,2,2,笨拙,,,,,,,,,0,137,137,59,,,,,,,,,,,j,1,1.22472691536,,,,moral_self_bias,24,20,60.044206741,f,001,2018_Apr_02_1822,
,,,,,,,,,,,,,,,,,,,,,,material/49.png,2,痴呆,material/149.png,2,material/49.png,白痴,2,f,f,f,2,2,2,痴呆,,,,,,,,,0,138,138,128,,,,,,,,,,,j,0,1.02468585968,,,,moral_self_bias,24,20,60.044206741,f,001,2018_Apr_02_1822,
,,,,,,,,,,,,,,,,,,,,,,material/41.png,2,残忍,material/141.png,2,material/141.png,残忍,2,f,f,f,1,1,1,歹毒,,,,,,,,,0,139,139,120,0,0,0,0,,,,,,,f,1,1.05704808235,j,1,0.491671085358,moral_self_bias,24,20,60.044206741,f,001,2018_Apr_02_1822,
,,,,,,,,,,,,,,,,,,,,,,material/41.png,2,残忍,material/141.png,2,material/141.png,残忍,2,f,f,f,1,1,1,歹毒,,,,,,,,,0,139,139,120,,,,,,,,,,,,,,,,,moral_self_bias,24,20,60.044206741,f,001,2018_Apr_02_1822,
,,,,,,,,,,,,,,,,,,,,,,material/184.png,2,草率,material/80.png,2,material/78.png,健忘,2,j,j,j,2,2,2,厌学,,,,,,,,,0,140,140,76,,,,,,,,,,,j,1,1.15804696083,,,,moral_self_bias,24,20,60.044206741,f,001,2018_Apr_02_1822,
,,,,,,,,,,,,,,,,,,,,,,material/28.png,1,克己,material/128.png,1,material/28.png,自律,1,f,f,f,2,2,2,克己,,,,,,,,,0,141,141,107,0,0,0,0,,,,,,,f,1,2.38279604912,f,0,0.32444691658,moral_self_bias,24,20,60.044206741,f,001,2018_Apr_02_1822,
,,,,,,,,,,,,,,,,,,,,,,material/28.png,1,克己,material/128.png,1,material/28.png,自律,1,f,f,f,2,2,2,克己,,,,,,,,,0,141,141,107,,,,,,,,,,,,,,,,,moral_self_bias,24,20,60.044206741,f,001,2018_Apr_02_1822,
,,,,,,,,,,,,,,,,,,,,,,material/47.png,2,死板,material/147.png,2,material/47.png,刻板,2,f,f,f,2,2,2,死板,,,,,,,,,0,142,142,126,,,,,,,,,,,j,0,0.733381986618,,,,moral_self_bias,24,20,60.044206741,f,001,2018_Apr_02_1822,
,,,,,,,,,,,,,,,,,,,,,,material/23.png,1,有才,material/123.png,1,material/23.png,多才,1,f,f,f,2,2,2,有才,,,,,,,,,0,143,143,102,0,0,0,0,,,,,,,f,1,1.57468509674,f,0,1.02418208122,moral_self_bias,24,20,60.044206741,f,001,2018_Apr_02_1822,
,,,,,,,,,,,,,,,,,,,,,,material/23.png,1,有才,material/123.png,1,material/23.png,多才,1,f,f,f,2,2,2,有才,,,,,,,,,0,143,143,102,,,,,,,,,,,,,,,,,moral_self_bias,24,20,60.044206741,f,001,2018_Apr_02_1822,
,,,,,,,,,,,,,,,,,,,,,,material/177.png,2,谄媚,material/72.png,2,material/72.png,谄媚,2,j,j,j,1,1,1,恶心,,,,,,,,,0,144,144,69,,,,,,,,,,,j,1,0.641732215881,,,,moral_self_bias,24,20,60.044206741,f,001,2018_Apr_02_1822,
,,,,,,,,,,,,,,,,,,,,,,material/139.png,2,凶残,material/39.png,2,material/39.png,凶残,2,j,j,j,1,1,1,恶毒,,,,,,,,,0,145,145,38,,,,,,,,,,,j,1,1.52520298958,,,,moral_self_bias,24,20,60.044206741,f,001,2018_Apr_02_1822,
,,,,,,,,,,,,,,,,,,,,,,material/30.png,1,上进,material/130.png,1,material/30.png,进取,1,f,f,f,2,2,2,上进,,,,,,,,,0,146,146,109,,,,,,,,,,,j,0,0.717046022415,,,,moral_self_bias,24,20,60.044206741,f,001,2018_Apr_02_1822,
,,,,,,,,,,,,,,,,,,,,,,material/80.png,2,才尽,material/83.png,2,material/182.png,呆笨,2,j,j,j,2,2,2,健忘,,,,,,,,,0,147,147,79,,,,,,,,,,,j,1,0.858325004578,,,,moral_self_bias,24,20,60.044206741,f,001,2018_Apr_02_1822,
,,,,,,,,,,,,,,,,,,,,,,material/45.png,2,小人,material/145.png,2,material/145.png,小人,2,f,f,f,1,1,1,下流,,,,,,,,,0,148,148,124,,,,,,,,,,,j,0,1.62098002434,,,,moral_self_bias,24,20,60.044206741,f,001,2018_Apr_02_1822,
,,,,,,,,,,,,,,,,,,,,,,material/13.png,1,廉明,material/113.png,1,material/113.png,廉明,1,f,f,f,1,1,1,廉洁,,,,,,,,,0,149,149,92,,,,,,,,,,,j,0,0.891770839691,,,,moral_self_bias,24,20,60.044206741,f,001,2018_Apr_02_1822,
,,,,,,,,,,,,,,,,,,,,,,material/180.png,2,无助,material/79.png,2,material/81.png,颓废,2,j,j,j,2,2,2,怠惰,,,,,,,,,0,150,150,75,0,0,0,0,,,,,,,f,0,3.0418279171,j,1,0.525590896606,moral_self_bias,24,20,60.044206741,f,001,2018_Apr_02_1822,
,,,,,,,,,,,,,,,,,,,,,,material/180.png,2,无助,material/79.png,2,material/81.png,颓废,2,j,j,j,2,2,2,怠惰,,,,,,,,,0,150,150,75,,,,,,,,,,,,,,,,,moral_self_bias,24,20,60.044206741,f,001,2018_Apr_02_1822,
,,,,,,,,,,,,,,,,,,,,,,material/115.png,1,清白,material/15.png,1,material/15.png,清白,1,j,j,j,1,1,1,纯洁,,,,,,,,,0,151,151,14,,,,,,,,,,,j,1,0.824596881866,,,,moral_self_bias,24,20,60.044206741,f,001,2018_Apr_02_1822,
,,,,,,,,,,,,,,,,,,,,,,material/166.png,1,孝顺,material/64.png,1,material/164.png,奉献,1,j,j,j,1,1,1,仗义,,,,,,,,,0,152,152,63,,,,,,,,,,,j,1,1.47459506989,,,,moral_self_bias,24,20,60.044206741,f,001,2018_Apr_02_1822,
,,,,,,,,,,,,,,,,,,,,,,material/155.png,2,盲目,material/55.png,2,material/155.png,盲从,2,j,j,j,2,2,2,盲目,,,,,,,,,0,153,153,54,0,0,0,0,,,,,,,f,0,1.75855493546,f,0,2.00003790855,moral_self_bias,24,20,60.044206741,f,001,2018_Apr_02_1822,
,,,,,,,,,,,,,,,,,,,,,,material/155.png,2,盲目,material/55.png,2,material/155.png,盲从,2,j,j,j,2,2,2,盲目,,,,,,,,,0,153,153,54,,,,,,,,,,,,,,,,,moral_self_bias,24,20,60.044206741,f,001,2018_Apr_02_1822,
,,,,,,,,,,,,,,,,,,,,,,material/44.png,2,爽约,material/144.png,2,material/144.png,爽约,2,f,f,f,1,1,1,失信,,,,,,,,,0,154,154,123,,,,,,,,,,,j,0,1.07480216026,,,,moral_self_bias,24,20,60.044206741,f,001,2018_Apr_02_1822,
,,,,,,,,,,,,,,,,,,,,,,material/62.png,1,坚韧,material/162.png,1,material/62.png,敬业,1,f,f,f,1,1,1,坚韧,,,,,,,,,0,155,155,141,0,0,0,0,,,,,,,f,1,2.90742993355,j,1,0.524739980698,moral_self_bias,24,20,60.044206741,f,001,2018_Apr_02_1822,
,,,,,,,,,,,,,,,,,,,,,,material/62.png,1,坚韧,material/162.png,1,material/62.png,敬业,1,f,f,f,1,1,1,坚韧,,,,,,,,,0,155,155,141,,,,,,,,,,,,,,,,,moral_self_bias,24,20,60.044206741,f,001,2018_Apr_02_1822,
,,,,,,,,,,,,,,,,,,,,,,material/21.png,1,干练,material/121.png,1,material/21.png,精干,1,f,f,f,2,2,2,干练,,,,,,,,,0,156,156,100,,,,,,,,,,,j,0,0.783947944641,,,,moral_self_bias,24,20,60.044206741,f,001,2018_Apr_02_1822,
,,,,,,,,,,,,,,,,,,,,,,material/55.png,2,盲从,material/155.png,2,material/55.png,盲目,2,f,f,f,2,2,2,盲从,,,,,,,,,0,157,157,134,0,0,0,0,,,,,,,f,1,1.62453699112,j,1,0.324241876602,moral_self_bias,24,20,60.044206741,f,001,2018_Apr_02_1822,
,,,,,,,,,,,,,,,,,,,,,,material/55.png,2,盲从,material/155.png,2,material/55.png,盲目,2,f,f,f,2,2,2,盲从,,,,,,,,,0,157,157,134,,,,,,,,,,,,,,,,,moral_self_bias,24,20,60.044206741,f,001,2018_Apr_02_1822,
,,,,,,,,,,,,,,,,,,,,,,material/9.png,1,正直,material/109.png,1,material/109.png,正直,1,f,f,f,1,1,1,秉直,,,,,,,,,0,158,158,88,0,0,0,0,,,,,,,f,1,1.17470502853,j,1,0.208568096161,moral_self_bias,24,20,60.044206741,f,001,2018_Apr_02_1822,
,,,,,,,,,,,,,,,,,,,,,,material/9.png,1,正直,material/109.png,1,material/109.png,正直,1,f,f,f,1,1,1,秉直,,,,,,,,,0,158,158,88,,,,,,,,,,,,,,,,,moral_self_bias,24,20,60.044206741,f,001,2018_Apr_02_1822,
,,,,,,,,,,,,,,,,,,,,,,material/130.png,1,进取,material/30.png,1,material/130.png,上进,1,j,j,j,2,2,2,进取,,,,,,,,,0,159,159,29,0,0,0,0,,,,,,,f,0,1.01693105698,j,1,0.24115395546,moral_self_bias,24,20,60.044206741,f,001,2018_Apr_02_1822,
,,,,,,,,,,,,,,,,,,,,,,material/130.png,1,进取,material/30.png,1,material/130.png,上进,1,j,j,j,2,2,2,进取,,,,,,,,,0,159,159,29,,,,,,,,,,,,,,,,,moral_self_bias,24,20,60.044206741,f,001,2018_Apr_02_1822,
,,,,,,,,,,,,,,,,,,,,,,material/181.png,2,怠惰,material/180.png,2,material/180.png,怠惰,2,f,f,f,2,2,2,犹豫,,,,,,,,,0,160,160,159,,,,,,,,,,,j,0,0.908342838287,,,,moral_self_bias,24,20,60.044206741,f,001,2018_Apr_02_1822,
,,,,,,,,,,,,,,,,,,,,,,material/129.png,1,好问,material/29.png,1,material/129.png,好学,1,j,j,j,2,2,2,好问,,,,,,,,,0,161,161,28,0,0,0,0,,,,,,,f,0,1.39196205139,j,1,0.342082977295,moral_self_bias,24,20,60.044206741,f,001,2018_Apr_02_1822,
,,,,,,,,,,,,,,,,,,,,,,material/129.png,1,好问,material/29.png,1,material/129.png,好学,1,j,j,j,2,2,2,好问,,,,,,,,,0,161,161,28,,,,,,,,,,,,,,,,,moral_self_bias,24,20,60.044206741,f,001,2018_Apr_02_1822,
,,,,,,,,,,,,,,,,,,,,,,material/22.png,1,才学,material/122.png,1,material/22.png,博学,1,f,f,f,2,2,2,才学,,,,,,,,,0,162,162,101,0,0,0,0,,,,,,,f,1,1.12407112122,j,1,1.82469987869,moral_self_bias,24,20,60.044206741,f,001,2018_Apr_02_1822,
,,,,,,,,,,,,,,,,,,,,,,material/22.png,1,才学,material/122.png,1,material/22.png,博学,1,f,f,f,2,2,2,才学,,,,,,,,,0,162,162,101,,,,,,,,,,,,,,,,,moral_self_bias,24,20,60.044206741,f,001,2018_Apr_02_1822,
,,,,,,,,,,,,,,,,,,,,,,material/175.png,2,残虐,material/73.png,2,material/73.png,残虐,2,f,f,f,1,1,1,无情,,,,,,,,,0,163,163,165,,,,,,,,,,,j,0,0.833219051361,,,,moral_self_bias,24,20,60.044206741,f,001,2018_Apr_02_1822,
,,,,,,,,,,,,,,,,,,,,,,material/111.png,1,高雅,material/11.png,1,material/11.png,高雅,1,j,j,j,1,1,1,高尚,,,,,,,,,0,164,164,10,,,,,,,,,,,j,1,0.757775068283,,,,moral_self_bias,24,20,60.044206741,f,001,2018_Apr_02_1822,
,,,,,,,,,,,,,,,,,,,,,,material/102.png,1,善心,material/2.png,1,material/2.png,善心,1,j,j,j,1,1,1,爱心,,,,,,,,,0,165,165,1,,,,,,,,,,,j,1,0.707935094833,,,,moral_self_bias,24,20,60.044206741,f,001,2018_Apr_02_1822,
,,,,,,,,,,,,,,,,,,,,,,material/67.png,1,骁勇,material/70.png,1,material/67.png,全面,1,j,j,j,2,2,2,骁勇,,,,,,,,,0,166,166,67,,,,,,,,,,,j,1,1.17530298233,,,,moral_self_bias,24,20,60.044206741,f,001,2018_Apr_02_1822,
,,,,,,,,,,,,,,,,,,,,,,material/65.png,1,勇敢,material/61.png,1,material/161.png,平等,1,j,j,j,1,1,1,谦虚,,,,,,,,,0,167,167,60,,,,,,,,,,,j,1,1.77533817291,,,,moral_self_bias,24,20,60.044206741,f,001,2018_Apr_02_1822,
