"rt","stimulus","response","trial_type","trial_index","time_elapsed","internal_node_id","ses_1","ses_2","ses_3","ses_4","ses_5","ses_6","ses_7","ses_8","ses_9","ses_10","coreself_1","coreself_2","coreself_3","coreself_4","coreself_5","coreself_6","coreself_7","coreself_8","coreself_9","coreself_10","SGPS_1","SGPS_2","SGPS_3","SGPS_4","SGPS_5","SGPS_6","SGPS_7","SGPS_8","SGPS_9","NPI1","NPI2","NPI3","NPI4","NPI5","NPI6","NPI7","NPI8","NPI9","NPI10","NPI11","NPI12","NPI13","NPI14","NPI15","hsns_1","hsns_2","hsns_3","hsns_4","hsns_5","trap1","hsns_6","hsns_7","hsns_8","hsns_9","hsns_10","subj_idx","friend_name","ParticipantID","value","success","user_agent","responses","item_order","radio_event_ids","radio_event_times","key_event_times","mouse_event_times","straightlining","zigzagging","honeypot","timeout","failed_images","failed_audio","failed_video","version_attrib","version_target","correct","IAT","screen_id","task_id","RT","condition","word","varname","summary","version_attrib2","version_target2","time_stamp","view_history","response_type","key_press","avg_frame_time","center_x","center_y","correct_response","identity","Image","question_order","correct_answer","trap1_item"
"28364","
   <p><div style = ""color: white;font-size:25px;"">您好，欢迎参加本次实验。</div> </p>
   <p><div style = ""color: white;font-size:25px;"">为充分保障您的权利，请确保您已经知晓并同意《参与实验同意书》以及《数据公开知情同意书》。</div></p>
   <p><div style = ""color: white;font-size:25px;"">如果您未见过上述内容，请咨询实验员。</div></p>
   <p><div style = ""color: white;font-size:25px;"">如果您选择继续实验，则表示您已经清楚两份知情同意书的内容并同意。</div></p>
   <p><div style = ""color: pink;font-size:30px;"">请确保您记得day0的实验编号，您将在本次实验输入该编号，若您忘记，请咨询实验员后作答。</div></p>
   <p><div style = ""color: lightblue;font-size:25px;"">请您尽可能认真地作答，我们将依据您在各问卷和按键任务中的作答质量发放报酬。</div></p>
   <p> <div style = ""color: green;font-size:25px;""><按空格键至下页></div> </p>
   "," ","html-keyboard-response","0","28366","0.0-0.0","3","4","4","3","3","3","3","4","4","4","4","4","4","5","4","4","4","4","4","5","1","1","1","1","1","1","1","1","1","1","0","0","0","0","0","0","1","0","1","0","0","1","0","0","4","1","2","2","3","4","4","3","4","4","2","755482622574202882","水","291","","","","","","","","","","","","","","","","","","","","","","","","","","","","","","","","","","","","","","","","","",""
"","","","call-function","1","28367","0.0-1.0-0.0","3","4","4","3","3","3","3","4","4","4","4","4","4","5","4","4","4","4","4","5","1","1","1","1","1","1","1","1","1","1","0","0","0","0","0","0","1","0","1","0","0","1","0","0","4","1","2","2","3","4","4","3","4","4","2","755482622574202882","水","291","","","","","","","","","","","","","","","","","","","","","","","","","","","","","","","","","","","","","","","","","",""
"16515","","{""friend_name"":""水"",""ParticipantID"":""291""}","survey-html-form","2","44883","0.0-1.0-1.0","3","4","4","3","3","3","3","4","4","4","4","4","4","5","4","4","4","4","4","5","1","1","1","1","1","1","1","1","1","1","0","0","0","0","0","0","1","0","1","0","0","1","0","0","4","1","2","2","3","4","4","3","4","4","2","755482622574202882","水","291","","","","","","","","","","","","","","","","","","","","","","","","","","","","","","","","","","","","","","","","","",""
"","","","fullscreen","3","96999","0.0-2.0","3","4","4","3","3","3","3","4","4","4","4","4","4","5","4","4","4","4","4","5","1","1","1","1","1","1","1","1","1","1","0","0","0","0","0","0","1","0","1","0","0","1","0","0","4","1","2","2","3","4","4","3","4","4","2","755482622574202882","水","291","","true","{}","","","","","","","","","","","","","","","","","","","","","","","","","","","","","","","","","","","","","","",""
"31722.20000001788","","{""Q01"":""3"",""Q02"":""4"",""Q03"":""4"",""Q04"":""3"",""Q05"":""3"",""Q06"":""3"",""Q07"":""3"",""Q08"":""4"",""Q09"":""4"",""Q10"":""4""}","survey-template","4","128724","0.0-3.0","3","4","4","3","3","3","3","4","4","4","4","4","4","5","4","4","4","4","4","5","1","1","1","1","1","1","1","1","1","1","0","0","0","0","0","0","1","0","1","0","0","1","0","0","4","1","2","2","3","4","4","3","4","4","2","755482622574202882","水","291","","","","{""Q01"":""3"",""Q02"":""4"",""Q03"":""4"",""Q04"":""3"",""Q05"":""3"",""Q06"":""3"",""Q07"":""3"",""Q08"":""4"",""Q09"":""4"",""Q10"":""4""}","[0,1,2,3,4,5,6,7,8,9]","[""Q01"",""Q02"",""Q03"",""Q04"",""Q05"",""Q06"",""Q07"",""Q08"",""Q09"",""Q10""]","[4913.200000017881,6833.5,9585.300000011921,11961.600000023842,14721.100000023842,16513.30000001192,18265.20000001788,22457.40000000596,26585.20000001788,27921.20000001788]","[]","[4913.200000017881,6833.5,9585.300000011921,11537.90000000596,11961.600000023842,14721.100000023842,16513.30000001192,18265.20000001788,22457.40000000596,26585.20000001788,27921.20000001788,31721.30000001192]","0.4","0.4444444444444444","0","","","","","","","","","","","","","","","","","","","","","","","","","","","","","",""
"33803.79999998212","","{""Q01"":""4"",""Q02"":""4"",""Q03"":""4"",""Q04"":""5"",""Q05"":""4"",""Q06"":""4"",""Q07"":""4"",""Q08"":""4"",""Q09"":""4"",""Q10"":""5""}","survey-template","5","162532","0.0-4.0","3","4","4","3","3","3","3","4","4","4","4","4","4","5","4","4","4","4","4","5","1","1","1","1","1","1","1","1","1","1","0","0","0","0","0","0","1","0","1","0","0","1","0","0","4","1","2","2","3","4","4","3","4","4","2","755482622574202882","水","291","","","","{""Q01"":""4"",""Q02"":""4"",""Q03"":""4"",""Q04"":""5"",""Q05"":""4"",""Q06"":""4"",""Q07"":""4"",""Q08"":""4"",""Q09"":""4"",""Q10"":""5""}","[0,1,2,3,4,5,6,7,8,9]","[""Q01"",""Q02"",""Q03"",""Q04"",""Q05"",""Q06"",""Q07"",""Q08"",""Q08"",""Q09"",""Q10""]","[3899.5999999940395,7300,9627.09999999404,13099,16731.09999999404,18587.19999998808,23115.19999998808,25411,26900.19999998808,30372.90000000596,32979]","[]","[3435,3899.5999999940395,7300,9627.09999999404,13099,16731.09999999404,18587.19999998808,21347,21827,22267,23115.19999998808,25411,26900.19999998808,30372.90000000596,32979,33802.90000000596]","0.5","0","0","","","","","","","","","","","","","","","","","","","","","","","","","","","","","",""
"","","","preload","6","165078","0.0-5.0","3","4","4","3","3","3","3","4","4","4","4","4","4","5","4","4","4","4","4","5","1","1","1","1","1","1","1","1","1","1","0","0","0","0","0","0","1","0","1","0","0","1","0","0","4","1","2","2","3","4","4","3","4","4","2","755482622574202882","水","291","","true","","","","","","","","","","","false","[]","[]","[]","","","","","","","","","","","","","","","","","","","","","","","","","",""
"23740","
    <h3>词语分类任务</h3>
    <p>在接下来的任务中，你需要对一系列词语进行分类。</p>
    <p>请先熟悉这些词语，这有利于你完成接下来的任务。</p>
    <table align=""center"" border=1 cellpadding=3 cellspacing=0>
    <tr> <th>类别</th> <th>词语</th> </tr>
    <tr> <td>&emsp;积极&emsp;</td> <td>&emsp;能干、全能、全才、高效、精干、天才&emsp;</td> </tr>
    <tr> <td>&emsp;消极&emsp;</td> <td>&emsp;无能、低能、废物、拙笨、愚钝、蠢笨&emsp;</td> </tr>
    <tr> <td>&emsp;自我&emsp;</td> <td>&emsp;我、我的、自己、自己的、本人、本人的&emsp;</td> </tr>
    <tr> <td>&emsp;他人&emsp;</td> <td>&emsp;他、他的、别人、别人的、他人、他人的&emsp;</td> </tr>
    </table><br/>","0","html-button-response","7","188818","0.0-6.0-0.0-0.0","3","4","4","3","3","3","3","4","4","4","4","4","4","5","4","4","4","4","4","5","1","1","1","1","1","1","1","1","1","1","0","0","0","0","0","0","1","0","1","0","0","1","0","0","4","1","2","2","3","4","4","3","4","4","2","755482622574202882","水","291","","","","","","","","","","","","","","","","","2","2","","","","","","","","","","","","","","","","","","","","","","","",""
"13934","
    <div class=""tag-bottom"">
    <p> —— 任务1：对“他人”词和“自我”词分类 ——<p/>
    不同词语会出现在屏幕中央，类别标签将始终显示在屏幕上方<p/>   
    <span style=""color:#FFD866""><b>请根据上方标签的提示，尽可能正确并且快速地做出按键反应</b></span><p/>
    当按键错误时屏幕中会出现<span style=""color:red""> X </span>，需要按另一个键纠正才能继续<br/><p/>
    请把双手食指分别放在键盘的“E”键和“I”键上<p/>
    按<空格键>开始
    </p></div>"," ","html-keyboard-response","8","202754","0.0-6.0-0.0-1.0","3","4","4","3","3","3","3","4","4","4","4","4","4","5","4","4","4","4","4","5","1","1","1","1","1","1","1","1","1","1","0","0","0","0","0","0","1","0","1","0","0","1","0","0","4","1","2","2","3","4","4","3","4","4","2","755482622574202882","水","291","","","","","","","","","","","","","","","","","","","","","","","","","","","","","","","","","","","","","","","","","",""
"null","","null","html-keyboard-response","9","203006","0.0-6.0-0.0-2.0-0.0","3","4","4","3","3","3","3","4","4","4","4","4","4","5","4","4","4","4","4","5","1","1","1","1","1","1","1","1","1","1","0","0","0","0","0","0","1","0","1","0","0","1","0","0","4","1","2","2","3","4","4","3","4","4","2","755482622574202882","水","291","","","","","","","","","","","","","","","","","","","","","","","","","","","","","","","","","","","","","","","","","",""
"846","<p style=""color:rgb(150, 250, 100); font-size: 35px;"">我</p>","i","categorize-html","10","203854","0.0-6.0-0.0-2.0-1.0","3","4","4","3","3","3","3","4","4","4","4","4","4","5","4","4","4","4","4","5","1","1","1","1","1","1","1","1","1","1","0","0","0","0","0","0","1","0","1","0","0","1","0","0","4","1","2","2","3","4","4","3","4","4","2","755482622574202882","水","291","","","","","","","","","","","","","","","","","","","true","1","1","ability","846","self","我","","","","","","","","","","","","","","","","",""
"null","","null","html-keyboard-response","11","204106","0.0-6.0-0.0-2.0-0.1","3","4","4","3","3","3","3","4","4","4","4","4","4","5","4","4","4","4","4","5","1","1","1","1","1","1","1","1","1","1","0","0","0","0","0","0","1","0","1","0","0","1","0","0","4","1","2","2","3","4","4","3","4","4","2","755482622574202882","水","291","","","","","","","","","","","","","","","","","","","","","","","","","","","","","","","","","","","","","","","","","",""
"594","<p style=""color:rgb(150, 250, 100); font-size: 35px;"">我的</p>","i","categorize-html","12","204700","0.0-6.0-0.0-2.0-1.1","3","4","4","3","3","3","3","4","4","4","4","4","4","5","4","4","4","4","4","5","1","1","1","1","1","1","1","1","1","1","0","0","0","0","0","0","1","0","1","0","0","1","0","0","4","1","2","2","3","4","4","3","4","4","2","755482622574202882","水","291","","","","","","","","","","","","","","","","","","","true","1","1","ability","594","self","我的","","","","","","","","","","","","","","","","",""
"null","","null","html-keyboard-response","13","204952","0.0-6.0-0.0-2.0-0.2","3","4","4","3","3","3","3","4","4","4","4","4","4","5","4","4","4","4","4","5","1","1","1","1","1","1","1","1","1","1","0","0","0","0","0","0","1","0","1","0","0","1","0","0","4","1","2","2","3","4","4","3","4","4","2","755482622574202882","水","291","","","","","","","","","","","","","","","","","","","","","","","","","","","","","","","","","","","","","","","","","",""
"527","<p style=""color:rgb(150, 250, 100); font-size: 35px;"">自己的</p>","i","categorize-html","14","205481","0.0-6.0-0.0-2.0-1.2","3","4","4","3","3","3","3","4","4","4","4","4","4","5","4","4","4","4","4","5","1","1","1","1","1","1","1","1","1","1","0","0","0","0","0","0","1","0","1","0","0","1","0","0","4","1","2","2","3","4","4","3","4","4","2","755482622574202882","水","291","","","","","","","","","","","","","","","","","","","true","1","1","ability","527","self","自己的","","","","","","","","","","","","","","","","",""
"null","","null","html-keyboard-response","15","205732","0.0-6.0-0.0-2.0-0.3","3","4","4","3","3","3","3","4","4","4","4","4","4","5","4","4","4","4","4","5","1","1","1","1","1","1","1","1","1","1","0","0","0","0","0","0","1","0","1","0","0","1","0","0","4","1","2","2","3","4","4","3","4","4","2","755482622574202882","水","291","","","","","","","","","","","","","","","","","","","","","","","","","","","","","","","","","","","","","","","","","",""
"487","<p style=""color:rgb(150, 250, 100); font-size: 35px;"">他人</p>","e","categorize-html","16","206220","0.0-6.0-0.0-2.0-1.3","3","4","4","3","3","3","3","4","4","4","4","4","4","5","4","4","4","4","4","5","1","1","1","1","1","1","1","1","1","1","0","0","0","0","0","0","1","0","1","0","0","1","0","0","4","1","2","2","3","4","4","3","4","4","2","755482622574202882","水","291","","","","","","","","","","","","","","","","","","","true","1","1","ability","487","other","他人","","","","","","","","","","","","","","","","",""
"null","","null","html-keyboard-response","17","206471","0.0-6.0-0.0-2.0-0.4","3","4","4","3","3","3","3","4","4","4","4","4","4","5","4","4","4","4","4","5","1","1","1","1","1","1","1","1","1","1","0","0","0","0","0","0","1","0","1","0","0","1","0","0","4","1","2","2","3","4","4","3","4","4","2","755482622574202882","水","291","","","","","","","","","","","","","","","","","","","","","","","","","","","","","","","","","","","","","","","","","",""
"590","<p style=""color:rgb(150, 250, 100); font-size: 35px;"">本人</p>","i","categorize-html","18","207061","0.0-6.0-0.0-2.0-1.4","3","4","4","3","3","3","3","4","4","4","4","4","4","5","4","4","4","4","4","5","1","1","1","1","1","1","1","1","1","1","0","0","0","0","0","0","1","0","1","0","0","1","0","0","4","1","2","2","3","4","4","3","4","4","2","755482622574202882","水","291","","","","","","","","","","","","","","","","","","","true","1","1","ability","590","self","本人","","","","","","","","","","","","","","","","",""
"null","","null","html-keyboard-response","19","207313","0.0-6.0-0.0-2.0-0.5","3","4","4","3","3","3","3","4","4","4","4","4","4","5","4","4","4","4","4","5","1","1","1","1","1","1","1","1","1","1","0","0","0","0","0","0","1","0","1","0","0","1","0","0","4","1","2","2","3","4","4","3","4","4","2","755482622574202882","水","291","","","","","","","","","","","","","","","","","","","","","","","","","","","","","","","","","","","","","","","","","",""
"549","<p style=""color:rgb(150, 250, 100); font-size: 35px;"">别人</p>","e","categorize-html","20","207862","0.0-6.0-0.0-2.0-1.5","3","4","4","3","3","3","3","4","4","4","4","4","4","5","4","4","4","4","4","5","1","1","1","1","1","1","1","1","1","1","0","0","0","0","0","0","1","0","1","0","0","1","0","0","4","1","2","2","3","4","4","3","4","4","2","755482622574202882","水","291","","","","","","","","","","","","","","","","","","","true","1","1","ability","549","other","别人","","","","","","","","","","","","","","","","",""
"null","","null","html-keyboard-response","21","208113","0.0-6.0-0.0-2.0-0.6","3","4","4","3","3","3","3","4","4","4","4","4","4","5","4","4","4","4","4","5","1","1","1","1","1","1","1","1","1","1","0","0","0","0","0","0","1","0","1","0","0","1","0","0","4","1","2","2","3","4","4","3","4","4","2","755482622574202882","水","291","","","","","","","","","","","","","","","","","","","","","","","","","","","","","","","","","","","","","","","","","",""
"651","<p style=""color:rgb(150, 250, 100); font-size: 35px;"">自己</p>","i","categorize-html","22","208765","0.0-6.0-0.0-2.0-1.6","3","4","4","3","3","3","3","4","4","4","4","4","4","5","4","4","4","4","4","5","1","1","1","1","1","1","1","1","1","1","0","0","0","0","0","0","1","0","1","0","0","1","0","0","4","1","2","2","3","4","4","3","4","4","2","755482622574202882","水","291","","","","","","","","","","","","","","","","","","","true","1","1","ability","651","self","自己","","","","","","","","","","","","","","","","",""
"null","","null","html-keyboard-response","23","209017","0.0-6.0-0.0-2.0-0.7","3","4","4","3","3","3","3","4","4","4","4","4","4","5","4","4","4","4","4","5","1","1","1","1","1","1","1","1","1","1","0","0","0","0","0","0","1","0","1","0","0","1","0","0","4","1","2","2","3","4","4","3","4","4","2","755482622574202882","水","291","","","","","","","","","","","","","","","","","","","","","","","","","","","","","","","","","","","","","","","","","",""
"623","<p style=""color:rgb(150, 250, 100); font-size: 35px;"">他的</p>","e","categorize-html","24","209640","0.0-6.0-0.0-2.0-1.7","3","4","4","3","3","3","3","4","4","4","4","4","4","5","4","4","4","4","4","5","1","1","1","1","1","1","1","1","1","1","0","0","0","0","0","0","1","0","1","0","0","1","0","0","4","1","2","2","3","4","4","3","4","4","2","755482622574202882","水","291","","","","","","","","","","","","","","","","","","","true","1","1","ability","623","other","他的","","","","","","","","","","","","","","","","",""
"null","","null","html-keyboard-response","25","209892","0.0-6.0-0.0-2.0-0.8","3","4","4","3","3","3","3","4","4","4","4","4","4","5","4","4","4","4","4","5","1","1","1","1","1","1","1","1","1","1","0","0","0","0","0","0","1","0","1","0","0","1","0","0","4","1","2","2","3","4","4","3","4","4","2","755482622574202882","水","291","","","","","","","","","","","","","","","","","","","","","","","","","","","","","","","","","","","","","","","","","",""
"695","<p style=""color:rgb(150, 250, 100); font-size: 35px;"">他</p>","e","categorize-html","26","210588","0.0-6.0-0.0-2.0-1.8","3","4","4","3","3","3","3","4","4","4","4","4","4","5","4","4","4","4","4","5","1","1","1","1","1","1","1","1","1","1","0","0","0","0","0","0","1","0","1","0","0","1","0","0","4","1","2","2","3","4","4","3","4","4","2","755482622574202882","水","291","","","","","","","","","","","","","","","","","","","true","1","1","ability","695","other","他","","","","","","","","","","","","","","","","",""
"null","","null","html-keyboard-response","27","210839","0.0-6.0-0.0-2.0-0.9","3","4","4","3","3","3","3","4","4","4","4","4","4","5","4","4","4","4","4","5","1","1","1","1","1","1","1","1","1","1","0","0","0","0","0","0","1","0","1","0","0","1","0","0","4","1","2","2","3","4","4","3","4","4","2","755482622574202882","水","291","","","","","","","","","","","","","","","","","","","","","","","","","","","","","","","","","","","","","","","","","",""
"725","<p style=""color:rgb(150, 250, 100); font-size: 35px;"">他人的</p>","e","categorize-html","28","211565","0.0-6.0-0.0-2.0-1.9","3","4","4","3","3","3","3","4","4","4","4","4","4","5","4","4","4","4","4","5","1","1","1","1","1","1","1","1","1","1","0","0","0","0","0","0","1","0","1","0","0","1","0","0","4","1","2","2","3","4","4","3","4","4","2","755482622574202882","水","291","","","","","","","","","","","","","","","","","","","true","1","1","ability","725","other","他人的","","","","","","","","","","","","","","","","",""
"null","","null","html-keyboard-response","29","211829","0.0-6.0-0.0-2.0-0.10","3","4","4","3","3","3","3","4","4","4","4","4","4","5","4","4","4","4","4","5","1","1","1","1","1","1","1","1","1","1","0","0","0","0","0","0","1","0","1","0","0","1","0","0","4","1","2","2","3","4","4","3","4","4","2","755482622574202882","水","291","","","","","","","","","","","","","","","","","","","","","","","","","","","","","","","","","","","","","","","","","",""
"647","<p style=""color:rgb(150, 250, 100); font-size: 35px;"">别人的</p>","e","categorize-html","30","212476","0.0-6.0-0.0-2.0-1.10","3","4","4","3","3","3","3","4","4","4","4","4","4","5","4","4","4","4","4","5","1","1","1","1","1","1","1","1","1","1","0","0","0","0","0","0","1","0","1","0","0","1","0","0","4","1","2","2","3","4","4","3","4","4","2","755482622574202882","水","291","","","","","","","","","","","","","","","","","","","true","1","1","ability","647","other","别人的","","","","","","","","","","","","","","","","",""
"null","","null","html-keyboard-response","31","212727","0.0-6.0-0.0-2.0-0.11","3","4","4","3","3","3","3","4","4","4","4","4","4","5","4","4","4","4","4","5","1","1","1","1","1","1","1","1","1","1","0","0","0","0","0","0","1","0","1","0","0","1","0","0","4","1","2","2","3","4","4","3","4","4","2","755482622574202882","水","291","","","","","","","","","","","","","","","","","","","","","","","","","","","","","","","","","","","","","","","","","",""
"531","<p style=""color:rgb(150, 250, 100); font-size: 35px;"">本人的</p>","i","categorize-html","32","213259","0.0-6.0-0.0-2.0-1.11","3","4","4","3","3","3","3","4","4","4","4","4","4","5","4","4","4","4","4","5","1","1","1","1","1","1","1","1","1","1","0","0","0","0","0","0","1","0","1","0","0","1","0","0","4","1","2","2","3","4","4","3","4","4","2","755482622574202882","水","291","","","","","","","","","","","","","","","","","","","true","1","1","ability","531","self","本人的","","","","","","","","","","","","","","","","",""
"13378","
    <div class=""tag-bottom""><p>
    —— 任务2：对“消极”词和“积极”词分类 ——<p/>   
    <span style=""color:#78DCE8""><b>注意上方，类别标签和需要分类的词语都已经改变</b></span><p/>
    <span style=""color:#FFD866""><b>请根据上方标签的提示，尽可能正确并且快速地做出按键反应</b></span><p/>
    当按键错误时屏幕中会出现<span style=""color:red""> X </span>，需要按另一个键纠正才能继续<br/><p/>
    请把双手食指分别放在键盘的“E”键和“I”键上<p/>
    按<空格键>开始
    </p></div>"," ","html-keyboard-response","33","226638","0.0-6.0-0.0-3.0","3","4","4","3","3","3","3","4","4","4","4","4","4","5","4","4","4","4","4","5","1","1","1","1","1","1","1","1","1","1","0","0","0","0","0","0","1","0","1","0","0","1","0","0","4","1","2","2","3","4","4","3","4","4","2","755482622574202882","水","291","","","","","","","","","","","","","","","","","","","","","","","","","","","","","","","","","","","","","","","","","",""
"null","","null","html-keyboard-response","34","226889","0.0-6.0-0.0-4.0-0.0","3","4","4","3","3","3","3","4","4","4","4","4","4","5","4","4","4","4","4","5","1","1","1","1","1","1","1","1","1","1","0","0","0","0","0","0","1","0","1","0","0","1","0","0","4","1","2","2","3","4","4","3","4","4","2","755482622574202882","水","291","","","","","","","","","","","","","","","","","","","","","","","","","","","","","","","","","","","","","","","","","",""
"898","<p style=""color:white; font-size: 35px;"">全能</p>","i","categorize-html","35","227788","0.0-6.0-0.0-4.0-1.0","3","4","4","3","3","3","3","4","4","4","4","4","4","5","4","4","4","4","4","5","1","1","1","1","1","1","1","1","1","1","0","0","0","0","0","0","1","0","1","0","0","1","0","0","4","1","2","2","3","4","4","3","4","4","2","755482622574202882","水","291","","","","","","","","","","","","","","","","","","","true","2","2","ability","898","positive","全能","","","","","","","","","","","","","","","","",""
"null","","null","html-keyboard-response","36","228040","0.0-6.0-0.0-4.0-0.1","3","4","4","3","3","3","3","4","4","4","4","4","4","5","4","4","4","4","4","5","1","1","1","1","1","1","1","1","1","1","0","0","0","0","0","0","1","0","1","0","0","1","0","0","4","1","2","2","3","4","4","3","4","4","2","755482622574202882","水","291","","","","","","","","","","","","","","","","","","","","","","","","","","","","","","","","","","","","","","","","","",""
"534","<p style=""color:white; font-size: 35px;"">高效</p>","i","categorize-html","37","228574","0.0-6.0-0.0-4.0-1.1","3","4","4","3","3","3","3","4","4","4","4","4","4","5","4","4","4","4","4","5","1","1","1","1","1","1","1","1","1","1","0","0","0","0","0","0","1","0","1","0","0","1","0","0","4","1","2","2","3","4","4","3","4","4","2","755482622574202882","水","291","","","","","","","","","","","","","","","","","","","true","2","2","ability","534","positive","高效","","","","","","","","","","","","","","","","",""
"null","","null","html-keyboard-response","38","228824","0.0-6.0-0.0-4.0-0.2","3","4","4","3","3","3","3","4","4","4","4","4","4","5","4","4","4","4","4","5","1","1","1","1","1","1","1","1","1","1","0","0","0","0","0","0","1","0","1","0","0","1","0","0","4","1","2","2","3","4","4","3","4","4","2","755482622574202882","水","291","","","","","","","","","","","","","","","","","","","","","","","","","","","","","","","","","","","","","","","","","",""
"585","<p style=""color:white; font-size: 35px;"">拙笨</p>","e","categorize-html","39","229410","0.0-6.0-0.0-4.0-1.2","3","4","4","3","3","3","3","4","4","4","4","4","4","5","4","4","4","4","4","5","1","1","1","1","1","1","1","1","1","1","0","0","0","0","0","0","1","0","1","0","0","1","0","0","4","1","2","2","3","4","4","3","4","4","2","755482622574202882","水","291","","","","","","","","","","","","","","","","","","","true","2","2","ability","585","negative","拙笨","","","","","","","","","","","","","","","","",""
"null","","null","html-keyboard-response","40","229662","0.0-6.0-0.0-4.0-0.3","3","4","4","3","3","3","3","4","4","4","4","4","4","5","4","4","4","4","4","5","1","1","1","1","1","1","1","1","1","1","0","0","0","0","0","0","1","0","1","0","0","1","0","0","4","1","2","2","3","4","4","3","4","4","2","755482622574202882","水","291","","","","","","","","","","","","","","","","","","","","","","","","","","","","","","","","","","","","","","","","","",""
"509","<p style=""color:white; font-size: 35px;"">废物</p>","e","categorize-html","41","230172","0.0-6.0-0.0-4.0-1.3","3","4","4","3","3","3","3","4","4","4","4","4","4","5","4","4","4","4","4","5","1","1","1","1","1","1","1","1","1","1","0","0","0","0","0","0","1","0","1","0","0","1","0","0","4","1","2","2","3","4","4","3","4","4","2","755482622574202882","水","291","","","","","","","","","","","","","","","","","","","true","2","2","ability","509","negative","废物","","","","","","","","","","","","","","","","",""
"null","","null","html-keyboard-response","42","230422","0.0-6.0-0.0-4.0-0.4","3","4","4","3","3","3","3","4","4","4","4","4","4","5","4","4","4","4","4","5","1","1","1","1","1","1","1","1","1","1","0","0","0","0","0","0","1","0","1","0","0","1","0","0","4","1","2","2","3","4","4","3","4","4","2","755482622574202882","水","291","","","","","","","","","","","","","","","","","","","","","","","","","","","","","","","","","","","","","","","","","",""
"591","<p style=""color:white; font-size: 35px;"">无能</p>","e","categorize-html","43","231014","0.0-6.0-0.0-4.0-1.4","3","4","4","3","3","3","3","4","4","4","4","4","4","5","4","4","4","4","4","5","1","1","1","1","1","1","1","1","1","1","0","0","0","0","0","0","1","0","1","0","0","1","0","0","4","1","2","2","3","4","4","3","4","4","2","755482622574202882","水","291","","","","","","","","","","","","","","","","","","","true","2","2","ability","591","negative","无能","","","","","","","","","","","","","","","","",""
"null","","null","html-keyboard-response","44","231264","0.0-6.0-0.0-4.0-0.5","3","4","4","3","3","3","3","4","4","4","4","4","4","5","4","4","4","4","4","5","1","1","1","1","1","1","1","1","1","1","0","0","0","0","0","0","1","0","1","0","0","1","0","0","4","1","2","2","3","4","4","3","4","4","2","755482622574202882","水","291","","","","","","","","","","","","","","","","","","","","","","","","","","","","","","","","","","","","","","","","","",""
"635","<p style=""color:white; font-size: 35px;"">能干</p>","i","categorize-html","45","231900","0.0-6.0-0.0-4.0-1.5","3","4","4","3","3","3","3","4","4","4","4","4","4","5","4","4","4","4","4","5","1","1","1","1","1","1","1","1","1","1","0","0","0","0","0","0","1","0","1","0","0","1","0","0","4","1","2","2","3","4","4","3","4","4","2","755482622574202882","水","291","","","","","","","","","","","","","","","","","","","true","2","2","ability","635","positive","能干","","","","","","","","","","","","","","","","",""
"null","","null","html-keyboard-response","46","232151","0.0-6.0-0.0-4.0-0.6","3","4","4","3","3","3","3","4","4","4","4","4","4","5","4","4","4","4","4","5","1","1","1","1","1","1","1","1","1","1","0","0","0","0","0","0","1","0","1","0","0","1","0","0","4","1","2","2","3","4","4","3","4","4","2","755482622574202882","水","291","","","","","","","","","","","","","","","","","","","","","","","","","","","","","","","","","","","","","","","","","",""
"708","<p style=""color:white; font-size: 35px;"">低能</p>","e","categorize-html","47","232861","0.0-6.0-0.0-4.0-1.6","3","4","4","3","3","3","3","4","4","4","4","4","4","5","4","4","4","4","4","5","1","1","1","1","1","1","1","1","1","1","0","0","0","0","0","0","1","0","1","0","0","1","0","0","4","1","2","2","3","4","4","3","4","4","2","755482622574202882","水","291","","","","","","","","","","","","","","","","","","","true","2","2","ability","708","negative","低能","","","","","","","","","","","","","","","","",""
"null","","null","html-keyboard-response","48","233113","0.0-6.0-0.0-4.0-0.7","3","4","4","3","3","3","3","4","4","4","4","4","4","5","4","4","4","4","4","5","1","1","1","1","1","1","1","1","1","1","0","0","0","0","0","0","1","0","1","0","0","1","0","0","4","1","2","2","3","4","4","3","4","4","2","755482622574202882","水","291","","","","","","","","","","","","","","","","","","","","","","","","","","","","","","","","","","","","","","","","","",""
"514","<p style=""color:white; font-size: 35px;"">蠢笨</p>","e","categorize-html","49","233629","0.0-6.0-0.0-4.0-1.7","3","4","4","3","3","3","3","4","4","4","4","4","4","5","4","4","4","4","4","5","1","1","1","1","1","1","1","1","1","1","0","0","0","0","0","0","1","0","1","0","0","1","0","0","4","1","2","2","3","4","4","3","4","4","2","755482622574202882","水","291","","","","","","","","","","","","","","","","","","","true","2","2","ability","514","negative","蠢笨","","","","","","","","","","","","","","","","",""
"null","","null","html-keyboard-response","50","233879","0.0-6.0-0.0-4.0-0.8","3","4","4","3","3","3","3","4","4","4","4","4","4","5","4","4","4","4","4","5","1","1","1","1","1","1","1","1","1","1","0","0","0","0","0","0","1","0","1","0","0","1","0","0","4","1","2","2","3","4","4","3","4","4","2","755482622574202882","水","291","","","","","","","","","","","","","","","","","","","","","","","","","","","","","","","","","","","","","","","","","",""
"745","<p style=""color:white; font-size: 35px;"">天才</p>","i","categorize-html","51","234626","0.0-6.0-0.0-4.0-1.8","3","4","4","3","3","3","3","4","4","4","4","4","4","5","4","4","4","4","4","5","1","1","1","1","1","1","1","1","1","1","0","0","0","0","0","0","1","0","1","0","0","1","0","0","4","1","2","2","3","4","4","3","4","4","2","755482622574202882","水","291","","","","","","","","","","","","","","","","","","","true","2","2","ability","745","positive","天才","","","","","","","","","","","","","","","","",""
"null","","null","html-keyboard-response","52","234878","0.0-6.0-0.0-4.0-0.9","3","4","4","3","3","3","3","4","4","4","4","4","4","5","4","4","4","4","4","5","1","1","1","1","1","1","1","1","1","1","0","0","0","0","0","0","1","0","1","0","0","1","0","0","4","1","2","2","3","4","4","3","4","4","2","755482622574202882","水","291","","","","","","","","","","","","","","","","","","","","","","","","","","","","","","","","","","","","","","","","","",""
"591","<p style=""color:white; font-size: 35px;"">愚钝</p>","e","categorize-html","53","235470","0.0-6.0-0.0-4.0-1.9","3","4","4","3","3","3","3","4","4","4","4","4","4","5","4","4","4","4","4","5","1","1","1","1","1","1","1","1","1","1","0","0","0","0","0","0","1","0","1","0","0","1","0","0","4","1","2","2","3","4","4","3","4","4","2","755482622574202882","水","291","","","","","","","","","","","","","","","","","","","true","2","2","ability","591","negative","愚钝","","","","","","","","","","","","","","","","",""
"null","","null","html-keyboard-response","54","235721","0.0-6.0-0.0-4.0-0.10","3","4","4","3","3","3","3","4","4","4","4","4","4","5","4","4","4","4","4","5","1","1","1","1","1","1","1","1","1","1","0","0","0","0","0","0","1","0","1","0","0","1","0","0","4","1","2","2","3","4","4","3","4","4","2","755482622574202882","水","291","","","","","","","","","","","","","","","","","","","","","","","","","","","","","","","","","","","","","","","","","",""
"645","<p style=""color:white; font-size: 35px;"">精干</p>","i","categorize-html","55","236366","0.0-6.0-0.0-4.0-1.10","3","4","4","3","3","3","3","4","4","4","4","4","4","5","4","4","4","4","4","5","1","1","1","1","1","1","1","1","1","1","0","0","0","0","0","0","1","0","1","0","0","1","0","0","4","1","2","2","3","4","4","3","4","4","2","755482622574202882","水","291","","","","","","","","","","","","","","","","","","","true","2","2","ability","645","positive","精干","","","","","","","","","","","","","","","","",""
"null","","null","html-keyboard-response","56","236617","0.0-6.0-0.0-4.0-0.11","3","4","4","3","3","3","3","4","4","4","4","4","4","5","4","4","4","4","4","5","1","1","1","1","1","1","1","1","1","1","0","0","0","0","0","0","1","0","1","0","0","1","0","0","4","1","2","2","3","4","4","3","4","4","2","755482622574202882","水","291","","","","","","","","","","","","","","","","","","","","","","","","","","","","","","","","","","","","","","","","","",""
"562","<p style=""color:white; font-size: 35px;"">全才</p>","i","categorize-html","57","237179","0.0-6.0-0.0-4.0-1.11","3","4","4","3","3","3","3","4","4","4","4","4","4","5","4","4","4","4","4","5","1","1","1","1","1","1","1","1","1","1","0","0","0","0","0","0","1","0","1","0","0","1","0","0","4","1","2","2","3","4","4","3","4","4","2","755482622574202882","水","291","","","","","","","","","","","","","","","","","","","true","2","2","ability","562","positive","全才","","","","","","","","","","","","","","","","",""
"8339","
    <div class=""tag-bottom""><p>
    —— 任务3：对“他人/消极”词和“自我/积极”词分类 ——<p/>
    <span style=""color:#78DCE8""><b>注意上方，之前的四类词语将混合在一起交替呈现</b></span><p/>
    <span style=""color:#FFD866""><b>请根据上方标签的提示，尽可能正确并且快速地做出按键反应</b></span><p/>
    当按键错误时屏幕中会出现<span style=""color:red""> X </span>，需要按另一个键纠正才能继续<br/><p/>
    请把双手食指分别放在键盘的“E”键和“I”键上<p/>
    按<空格键>开始
    </p></div>"," ","html-keyboard-response","58","245519","0.0-6.0-0.0-5.0","3","4","4","3","3","3","3","4","4","4","4","4","4","5","4","4","4","4","4","5","1","1","1","1","1","1","1","1","1","1","0","0","0","0","0","0","1","0","1","0","0","1","0","0","4","1","2","2","3","4","4","3","4","4","2","755482622574202882","水","291","","","","","","","","","","","","","","","","","","","","","","","","","","","","","","","","","","","","","","","","","",""
"null","","null","html-keyboard-response","59","245769","0.0-6.0-0.0-6.0-0.0","3","4","4","3","3","3","3","4","4","4","4","4","4","5","4","4","4","4","4","5","1","1","1","1","1","1","1","1","1","1","0","0","0","0","0","0","1","0","1","0","0","1","0","0","4","1","2","2","3","4","4","3","4","4","2","755482622574202882","水","291","","","","","","","","","","","","","","","","","","","","","","","","","","","","","","","","","","","","","","","","","",""
"769","<p style=""color:rgb(150, 250, 100); font-size: 35px;"">我</p>","i","categorize-html","60","246539","0.0-6.0-0.0-6.0-1.0","3","4","4","3","3","3","3","4","4","4","4","4","4","5","4","4","4","4","4","5","1","1","1","1","1","1","1","1","1","1","0","0","0","0","0","0","1","0","1","0","0","1","0","0","4","1","2","2","3","4","4","3","4","4","2","755482622574202882","水","291","","","","","","","","","","","","","","","","","","","true","3","3","ability","769","self","我","","","","","","","","","","","","","","","","",""
"null","","null","html-keyboard-response","61","246789","0.0-6.0-0.0-6.0-0.1","3","4","4","3","3","3","3","4","4","4","4","4","4","5","4","4","4","4","4","5","1","1","1","1","1","1","1","1","1","1","0","0","0","0","0","0","1","0","1","0","0","1","0","0","4","1","2","2","3","4","4","3","4","4","2","755482622574202882","水","291","","","","","","","","","","","","","","","","","","","","","","","","","","","","","","","","","","","","","","","","","",""
"953","<p style=""color:white; font-size: 35px;"">天才</p>","i","categorize-html","62","247744","0.0-6.0-0.0-6.0-1.1","3","4","4","3","3","3","3","4","4","4","4","4","4","5","4","4","4","4","4","5","1","1","1","1","1","1","1","1","1","1","0","0","0","0","0","0","1","0","1","0","0","1","0","0","4","1","2","2","3","4","4","3","4","4","2","755482622574202882","水","291","","","","","","","","","","","","","","","","","","","true","3","3","ability","953","positive","天才","","","","","","","","","","","","","","","","",""
"null","","null","html-keyboard-response","63","247995","0.0-6.0-0.0-6.0-0.2","3","4","4","3","3","3","3","4","4","4","4","4","4","5","4","4","4","4","4","5","1","1","1","1","1","1","1","1","1","1","0","0","0","0","0","0","1","0","1","0","0","1","0","0","4","1","2","2","3","4","4","3","4","4","2","755482622574202882","水","291","","","","","","","","","","","","","","","","","","","","","","","","","","","","","","","","","","","","","","","","","",""
"754","<p style=""color:rgb(150, 250, 100); font-size: 35px;"">别人的</p>","e","categorize-html","64","248750","0.0-6.0-0.0-6.0-1.2","3","4","4","3","3","3","3","4","4","4","4","4","4","5","4","4","4","4","4","5","1","1","1","1","1","1","1","1","1","1","0","0","0","0","0","0","1","0","1","0","0","1","0","0","4","1","2","2","3","4","4","3","4","4","2","755482622574202882","水","291","","","","","","","","","","","","","","","","","","","true","3","3","ability","754","other","别人的","","","","","","","","","","","","","","","","",""
"null","","null","html-keyboard-response","65","249002","0.0-6.0-0.0-6.0-0.3","3","4","4","3","3","3","3","4","4","4","4","4","4","5","4","4","4","4","4","5","1","1","1","1","1","1","1","1","1","1","0","0","0","0","0","0","1","0","1","0","0","1","0","0","4","1","2","2","3","4","4","3","4","4","2","755482622574202882","水","291","","","","","","","","","","","","","","","","","","","","","","","","","","","","","","","","","","","","","","","","","",""
"1477","<p style=""color:white; font-size: 35px;"">拙笨</p>","e","categorize-html","66","250479","0.0-6.0-0.0-6.0-1.3","3","4","4","3","3","3","3","4","4","4","4","4","4","5","4","4","4","4","4","5","1","1","1","1","1","1","1","1","1","1","0","0","0","0","0","0","1","0","1","0","0","1","0","0","4","1","2","2","3","4","4","3","4","4","2","755482622574202882","水","291","","","","","","","","","","","","","","","","","","","true","3","3","ability","1477","negative","拙笨","","","","","","","","","","","","","","","","",""
"null","","null","html-keyboard-response","67","250730","0.0-6.0-0.0-6.0-0.4","3","4","4","3","3","3","3","4","4","4","4","4","4","5","4","4","4","4","4","5","1","1","1","1","1","1","1","1","1","1","0","0","0","0","0","0","1","0","1","0","0","1","0","0","4","1","2","2","3","4","4","3","4","4","2","755482622574202882","水","291","","","","","","","","","","","","","","","","","","","","","","","","","","","","","","","","","","","","","","","","","",""
"776","<p style=""color:rgb(150, 250, 100); font-size: 35px;"">自己的</p>","i","categorize-html","68","251507","0.0-6.0-0.0-6.0-1.4","3","4","4","3","3","3","3","4","4","4","4","4","4","5","4","4","4","4","4","5","1","1","1","1","1","1","1","1","1","1","0","0","0","0","0","0","1","0","1","0","0","1","0","0","4","1","2","2","3","4","4","3","4","4","2","755482622574202882","水","291","","","","","","","","","","","","","","","","","","","true","3","3","ability","776","self","自己的","","","","","","","","","","","","","","","","",""
"null","","null","html-keyboard-response","69","251759","0.0-6.0-0.0-6.0-0.5","3","4","4","3","3","3","3","4","4","4","4","4","4","5","4","4","4","4","4","5","1","1","1","1","1","1","1","1","1","1","0","0","0","0","0","0","1","0","1","0","0","1","0","0","4","1","2","2","3","4","4","3","4","4","2","755482622574202882","水","291","","","","","","","","","","","","","","","","","","","","","","","","","","","","","","","","","","","","","","","","","",""
"765","<p style=""color:white; font-size: 35px;"">全才</p>","i","categorize-html","70","252525","0.0-6.0-0.0-6.0-1.5","3","4","4","3","3","3","3","4","4","4","4","4","4","5","4","4","4","4","4","5","1","1","1","1","1","1","1","1","1","1","0","0","0","0","0","0","1","0","1","0","0","1","0","0","4","1","2","2","3","4","4","3","4","4","2","755482622574202882","水","291","","","","","","","","","","","","","","","","","","","true","3","3","ability","765","positive","全才","","","","","","","","","","","","","","","","",""
"null","","null","html-keyboard-response","71","252788","0.0-6.0-0.0-6.0-0.6","3","4","4","3","3","3","3","4","4","4","4","4","4","5","4","4","4","4","4","5","1","1","1","1","1","1","1","1","1","1","0","0","0","0","0","0","1","0","1","0","0","1","0","0","4","1","2","2","3","4","4","3","4","4","2","755482622574202882","水","291","","","","","","","","","","","","","","","","","","","","","","","","","","","","","","","","","","","","","","","","","",""
"794","<p style=""color:rgb(150, 250, 100); font-size: 35px;"">他的</p>","e","categorize-html","72","253583","0.0-6.0-0.0-6.0-1.6","3","4","4","3","3","3","3","4","4","4","4","4","4","5","4","4","4","4","4","5","1","1","1","1","1","1","1","1","1","1","0","0","0","0","0","0","1","0","1","0","0","1","0","0","4","1","2","2","3","4","4","3","4","4","2","755482622574202882","水","291","","","","","","","","","","","","","","","","","","","true","3","3","ability","794","other","他的","","","","","","","","","","","","","","","","",""
"null","","null","html-keyboard-response","73","253834","0.0-6.0-0.0-6.0-0.7","3","4","4","3","3","3","3","4","4","4","4","4","4","5","4","4","4","4","4","5","1","1","1","1","1","1","1","1","1","1","0","0","0","0","0","0","1","0","1","0","0","1","0","0","4","1","2","2","3","4","4","3","4","4","2","755482622574202882","水","291","","","","","","","","","","","","","","","","","","","","","","","","","","","","","","","","","","","","","","","","","",""
"1213","<p style=""color:white; font-size: 35px;"">废物</p>","e","categorize-html","74","255048","0.0-6.0-0.0-6.0-1.7","3","4","4","3","3","3","3","4","4","4","4","4","4","5","4","4","4","4","4","5","1","1","1","1","1","1","1","1","1","1","0","0","0","0","0","0","1","0","1","0","0","1","0","0","4","1","2","2","3","4","4","3","4","4","2","755482622574202882","水","291","","","","","","","","","","","","","","","","","","","true","3","3","ability","1213","negative","废物","","","","","","","","","","","","","","","","",""
"null","","null","html-keyboard-response","75","255299","0.0-6.0-0.0-6.0-0.8","3","4","4","3","3","3","3","4","4","4","4","4","4","5","4","4","4","4","4","5","1","1","1","1","1","1","1","1","1","1","0","0","0","0","0","0","1","0","1","0","0","1","0","0","4","1","2","2","3","4","4","3","4","4","2","755482622574202882","水","291","","","","","","","","","","","","","","","","","","","","","","","","","","","","","","","","","","","","","","","","","",""
"639","<p style=""color:rgb(150, 250, 100); font-size: 35px;"">他人</p>","e","categorize-html","76","255938","0.0-6.0-0.0-6.0-1.8","3","4","4","3","3","3","3","4","4","4","4","4","4","5","4","4","4","4","4","5","1","1","1","1","1","1","1","1","1","1","0","0","0","0","0","0","1","0","1","0","0","1","0","0","4","1","2","2","3","4","4","3","4","4","2","755482622574202882","水","291","","","","","","","","","","","","","","","","","","","true","3","3","ability","639","other","他人","","","","","","","","","","","","","","","","",""
"null","","null","html-keyboard-response","77","256190","0.0-6.0-0.0-6.0-0.9","3","4","4","3","3","3","3","4","4","4","4","4","4","5","4","4","4","4","4","5","1","1","1","1","1","1","1","1","1","1","0","0","0","0","0","0","1","0","1","0","0","1","0","0","4","1","2","2","3","4","4","3","4","4","2","755482622574202882","水","291","","","","","","","","","","","","","","","","","","","","","","","","","","","","","","","","","","","","","","","","","",""
"562","<p style=""color:white; font-size: 35px;"">低能</p>","e","categorize-html","78","256753","0.0-6.0-0.0-6.0-1.9","3","4","4","3","3","3","3","4","4","4","4","4","4","5","4","4","4","4","4","5","1","1","1","1","1","1","1","1","1","1","0","0","0","0","0","0","1","0","1","0","0","1","0","0","4","1","2","2","3","4","4","3","4","4","2","755482622574202882","水","291","","","","","","","","","","","","","","","","","","","true","3","3","ability","562","negative","低能","","","","","","","","","","","","","","","","",""
"null","","null","html-keyboard-response","79","257005","0.0-6.0-0.0-6.0-0.10","3","4","4","3","3","3","3","4","4","4","4","4","4","5","4","4","4","4","4","5","1","1","1","1","1","1","1","1","1","1","0","0","0","0","0","0","1","0","1","0","0","1","0","0","4","1","2","2","3","4","4","3","4","4","2","755482622574202882","水","291","","","","","","","","","","","","","","","","","","","","","","","","","","","","","","","","","","","","","","","","","",""
"699","<p style=""color:rgb(150, 250, 100); font-size: 35px;"">我的</p>","i","categorize-html","80","257705","0.0-6.0-0.0-6.0-1.10","3","4","4","3","3","3","3","4","4","4","4","4","4","5","4","4","4","4","4","5","1","1","1","1","1","1","1","1","1","1","0","0","0","0","0","0","1","0","1","0","0","1","0","0","4","1","2","2","3","4","4","3","4","4","2","755482622574202882","水","291","","","","","","","","","","","","","","","","","","","true","3","3","ability","699","self","我的","","","","","","","","","","","","","","","","",""
"null","","null","html-keyboard-response","81","257956","0.0-6.0-0.0-6.0-0.11","3","4","4","3","3","3","3","4","4","4","4","4","4","5","4","4","4","4","4","5","1","1","1","1","1","1","1","1","1","1","0","0","0","0","0","0","1","0","1","0","0","1","0","0","4","1","2","2","3","4","4","3","4","4","2","755482622574202882","水","291","","","","","","","","","","","","","","","","","","","","","","","","","","","","","","","","","","","","","","","","","",""
"609","<p style=""color:white; font-size: 35px;"">全能</p>","i","categorize-html","82","258566","0.0-6.0-0.0-6.0-1.11","3","4","4","3","3","3","3","4","4","4","4","4","4","5","4","4","4","4","4","5","1","1","1","1","1","1","1","1","1","1","0","0","0","0","0","0","1","0","1","0","0","1","0","0","4","1","2","2","3","4","4","3","4","4","2","755482622574202882","水","291","","","","","","","","","","","","","","","","","","","true","3","3","ability","609","positive","全能","","","","","","","","","","","","","","","","",""
"null","","null","html-keyboard-response","83","258817","0.0-6.0-0.0-6.0-0.12","3","4","4","3","3","3","3","4","4","4","4","4","4","5","4","4","4","4","4","5","1","1","1","1","1","1","1","1","1","1","0","0","0","0","0","0","1","0","1","0","0","1","0","0","4","1","2","2","3","4","4","3","4","4","2","755482622574202882","水","291","","","","","","","","","","","","","","","","","","","","","","","","","","","","","","","","","","","","","","","","","",""
"667","<p style=""color:rgb(150, 250, 100); font-size: 35px;"">他</p>","e","categorize-html","84","259485","0.0-6.0-0.0-6.0-1.12","3","4","4","3","3","3","3","4","4","4","4","4","4","5","4","4","4","4","4","5","1","1","1","1","1","1","1","1","1","1","0","0","0","0","0","0","1","0","1","0","0","1","0","0","4","1","2","2","3","4","4","3","4","4","2","755482622574202882","水","291","","","","","","","","","","","","","","","","","","","true","3","3","ability","667","other","他","","","","","","","","","","","","","","","","",""
"null","","null","html-keyboard-response","85","259735","0.0-6.0-0.0-6.0-0.13","3","4","4","3","3","3","3","4","4","4","4","4","4","5","4","4","4","4","4","5","1","1","1","1","1","1","1","1","1","1","0","0","0","0","0","0","1","0","1","0","0","1","0","0","4","1","2","2","3","4","4","3","4","4","2","755482622574202882","水","291","","","","","","","","","","","","","","","","","","","","","","","","","","","","","","","","","","","","","","","","","",""
"1285","<p style=""color:white; font-size: 35px;"">无能</p>","e","categorize-html","86","261021","0.0-6.0-0.0-6.0-1.13","3","4","4","3","3","3","3","4","4","4","4","4","4","5","4","4","4","4","4","5","1","1","1","1","1","1","1","1","1","1","0","0","0","0","0","0","1","0","1","0","0","1","0","0","4","1","2","2","3","4","4","3","4","4","2","755482622574202882","水","291","","","","","","","","","","","","","","","","","","","true","3","3","ability","1285","negative","无能","","","","","","","","","","","","","","","","",""
"null","","null","html-keyboard-response","87","261272","0.0-6.0-0.0-6.0-0.14","3","4","4","3","3","3","3","4","4","4","4","4","4","5","4","4","4","4","4","5","1","1","1","1","1","1","1","1","1","1","0","0","0","0","0","0","1","0","1","0","0","1","0","0","4","1","2","2","3","4","4","3","4","4","2","755482622574202882","水","291","","","","","","","","","","","","","","","","","","","","","","","","","","","","","","","","","","","","","","","","","",""
"855","<p style=""color:rgb(150, 250, 100); font-size: 35px;"">本人的</p>","i","categorize-html","88","262128","0.0-6.0-0.0-6.0-1.14","3","4","4","3","3","3","3","4","4","4","4","4","4","5","4","4","4","4","4","5","1","1","1","1","1","1","1","1","1","1","0","0","0","0","0","0","1","0","1","0","0","1","0","0","4","1","2","2","3","4","4","3","4","4","2","755482622574202882","水","291","","","","","","","","","","","","","","","","","","","true","3","3","ability","855","self","本人的","","","","","","","","","","","","","","","","",""
"null","","null","html-keyboard-response","89","262379","0.0-6.0-0.0-6.0-0.15","3","4","4","3","3","3","3","4","4","4","4","4","4","5","4","4","4","4","4","5","1","1","1","1","1","1","1","1","1","1","0","0","0","0","0","0","1","0","1","0","0","1","0","0","4","1","2","2","3","4","4","3","4","4","2","755482622574202882","水","291","","","","","","","","","","","","","","","","","","","","","","","","","","","","","","","","","","","","","","","","","",""
"609","<p style=""color:white; font-size: 35px;"">精干</p>","i","categorize-html","90","262988","0.0-6.0-0.0-6.0-1.15","3","4","4","3","3","3","3","4","4","4","4","4","4","5","4","4","4","4","4","5","1","1","1","1","1","1","1","1","1","1","0","0","0","0","0","0","1","0","1","0","0","1","0","0","4","1","2","2","3","4","4","3","4","4","2","755482622574202882","水","291","","","","","","","","","","","","","","","","","","","true","3","3","ability","609","positive","精干","","","","","","","","","","","","","","","","",""
"null","","null","html-keyboard-response","91","263240","0.0-6.0-0.0-6.0-0.16","3","4","4","3","3","3","3","4","4","4","4","4","4","5","4","4","4","4","4","5","1","1","1","1","1","1","1","1","1","1","0","0","0","0","0","0","1","0","1","0","0","1","0","0","4","1","2","2","3","4","4","3","4","4","2","755482622574202882","水","291","","","","","","","","","","","","","","","","","","","","","","","","","","","","","","","","","","","","","","","","","",""
"740","<p style=""color:rgb(150, 250, 100); font-size: 35px;"">他人的</p>","e","categorize-html","92","263981","0.0-6.0-0.0-6.0-1.16","3","4","4","3","3","3","3","4","4","4","4","4","4","5","4","4","4","4","4","5","1","1","1","1","1","1","1","1","1","1","0","0","0","0","0","0","1","0","1","0","0","1","0","0","4","1","2","2","3","4","4","3","4","4","2","755482622574202882","水","291","","","","","","","","","","","","","","","","","","","true","3","3","ability","740","other","他人的","","","","","","","","","","","","","","","","",""
"null","","null","html-keyboard-response","93","264231","0.0-6.0-0.0-6.0-0.17","3","4","4","3","3","3","3","4","4","4","4","4","4","5","4","4","4","4","4","5","1","1","1","1","1","1","1","1","1","1","0","0","0","0","0","0","1","0","1","0","0","1","0","0","4","1","2","2","3","4","4","3","4","4","2","755482622574202882","水","291","","","","","","","","","","","","","","","","","","","","","","","","","","","","","","","","","","","","","","","","","",""
"513","<p style=""color:white; font-size: 35px;"">愚钝</p>","e","categorize-html","94","264746","0.0-6.0-0.0-6.0-1.17","3","4","4","3","3","3","3","4","4","4","4","4","4","5","4","4","4","4","4","5","1","1","1","1","1","1","1","1","1","1","0","0","0","0","0","0","1","0","1","0","0","1","0","0","4","1","2","2","3","4","4","3","4","4","2","755482622574202882","水","291","","","","","","","","","","","","","","","","","","","true","3","3","ability","513","negative","愚钝","","","","","","","","","","","","","","","","",""
"null","","null","html-keyboard-response","95","264997","0.0-6.0-0.0-6.0-0.18","3","4","4","3","3","3","3","4","4","4","4","4","4","5","4","4","4","4","4","5","1","1","1","1","1","1","1","1","1","1","0","0","0","0","0","0","1","0","1","0","0","1","0","0","4","1","2","2","3","4","4","3","4","4","2","755482622574202882","水","291","","","","","","","","","","","","","","","","","","","","","","","","","","","","","","","","","","","","","","","","","",""
"853","<p style=""color:rgb(150, 250, 100); font-size: 35px;"">本人</p>","i","categorize-html","96","265851","0.0-6.0-0.0-6.0-1.18","3","4","4","3","3","3","3","4","4","4","4","4","4","5","4","4","4","4","4","5","1","1","1","1","1","1","1","1","1","1","0","0","0","0","0","0","1","0","1","0","0","1","0","0","4","1","2","2","3","4","4","3","4","4","2","755482622574202882","水","291","","","","","","","","","","","","","","","","","","","true","3","3","ability","853","self","本人","","","","","","","","","","","","","","","","",""
"null","","null","html-keyboard-response","97","266102","0.0-6.0-0.0-6.0-0.19","3","4","4","3","3","3","3","4","4","4","4","4","4","5","4","4","4","4","4","5","1","1","1","1","1","1","1","1","1","1","0","0","0","0","0","0","1","0","1","0","0","1","0","0","4","1","2","2","3","4","4","3","4","4","2","755482622574202882","水","291","","","","","","","","","","","","","","","","","","","","","","","","","","","","","","","","","","","","","","","","","",""
"544","<p style=""color:white; font-size: 35px;"">能干</p>","i","categorize-html","98","266648","0.0-6.0-0.0-6.0-1.19","3","4","4","3","3","3","3","4","4","4","4","4","4","5","4","4","4","4","4","5","1","1","1","1","1","1","1","1","1","1","0","0","0","0","0","0","1","0","1","0","0","1","0","0","4","1","2","2","3","4","4","3","4","4","2","755482622574202882","水","291","","","","","","","","","","","","","","","","","","","true","3","3","ability","544","positive","能干","","","","","","","","","","","","","","","","",""
"null","","null","html-keyboard-response","99","266898","0.0-6.0-0.0-6.0-0.20","3","4","4","3","3","3","3","4","4","4","4","4","4","5","4","4","4","4","4","5","1","1","1","1","1","1","1","1","1","1","0","0","0","0","0","0","1","0","1","0","0","1","0","0","4","1","2","2","3","4","4","3","4","4","2","755482622574202882","水","291","","","","","","","","","","","","","","","","","","","","","","","","","","","","","","","","","","","","","","","","","",""
"650","<p style=""color:rgb(150, 250, 100); font-size: 35px;"">别人</p>","e","categorize-html","100","267548","0.0-6.0-0.0-6.0-1.20","3","4","4","3","3","3","3","4","4","4","4","4","4","5","4","4","4","4","4","5","1","1","1","1","1","1","1","1","1","1","0","0","0","0","0","0","1","0","1","0","0","1","0","0","4","1","2","2","3","4","4","3","4","4","2","755482622574202882","水","291","","","","","","","","","","","","","","","","","","","true","3","3","ability","650","other","别人","","","","","","","","","","","","","","","","",""
"null","","null","html-keyboard-response","101","267801","0.0-6.0-0.0-6.0-0.21","3","4","4","3","3","3","3","4","4","4","4","4","4","5","4","4","4","4","4","5","1","1","1","1","1","1","1","1","1","1","0","0","0","0","0","0","1","0","1","0","0","1","0","0","4","1","2","2","3","4","4","3","4","4","2","755482622574202882","水","291","","","","","","","","","","","","","","","","","","","","","","","","","","","","","","","","","","","","","","","","","",""
"537","<p style=""color:white; font-size: 35px;"">蠢笨</p>","e","categorize-html","102","268338","0.0-6.0-0.0-6.0-1.21","3","4","4","3","3","3","3","4","4","4","4","4","4","5","4","4","4","4","4","5","1","1","1","1","1","1","1","1","1","1","0","0","0","0","0","0","1","0","1","0","0","1","0","0","4","1","2","2","3","4","4","3","4","4","2","755482622574202882","水","291","","","","","","","","","","","","","","","","","","","true","3","3","ability","537","negative","蠢笨","","","","","","","","","","","","","","","","",""
"null","","null","html-keyboard-response","103","268593","0.0-6.0-0.0-6.0-0.22","3","4","4","3","3","3","3","4","4","4","4","4","4","5","4","4","4","4","4","5","1","1","1","1","1","1","1","1","1","1","0","0","0","0","0","0","1","0","1","0","0","1","0","0","4","1","2","2","3","4","4","3","4","4","2","755482622574202882","水","291","","","","","","","","","","","","","","","","","","","","","","","","","","","","","","","","","","","","","","","","","",""
"639","<p style=""color:rgb(150, 250, 100); font-size: 35px;"">自己</p>","i","categorize-html","104","269233","0.0-6.0-0.0-6.0-1.22","3","4","4","3","3","3","3","4","4","4","4","4","4","5","4","4","4","4","4","5","1","1","1","1","1","1","1","1","1","1","0","0","0","0","0","0","1","0","1","0","0","1","0","0","4","1","2","2","3","4","4","3","4","4","2","755482622574202882","水","291","","","","","","","","","","","","","","","","","","","true","3","3","ability","639","self","自己","","","","","","","","","","","","","","","","",""
"null","","null","html-keyboard-response","105","269484","0.0-6.0-0.0-6.0-0.23","3","4","4","3","3","3","3","4","4","4","4","4","4","5","4","4","4","4","4","5","1","1","1","1","1","1","1","1","1","1","0","0","0","0","0","0","1","0","1","0","0","1","0","0","4","1","2","2","3","4","4","3","4","4","2","755482622574202882","水","291","","","","","","","","","","","","","","","","","","","","","","","","","","","","","","","","","","","","","","","","","",""
"602","<p style=""color:white; font-size: 35px;"">高效</p>","i","categorize-html","106","270087","0.0-6.0-0.0-6.0-1.23","3","4","4","3","3","3","3","4","4","4","4","4","4","5","4","4","4","4","4","5","1","1","1","1","1","1","1","1","1","1","0","0","0","0","0","0","1","0","1","0","0","1","0","0","4","1","2","2","3","4","4","3","4","4","2","755482622574202882","水","291","","","","","","","","","","","","","","","","","","","true","3","3","ability","602","positive","高效","","","","","","","","","","","","","","","","",""
"12498","
    <div class=""tag-bottom""><p>
    —— 任务4：对“他人/消极”词和“自我/积极”词分类 ——<p/>
    <span style=""color:#78DCE8""><b>与刚才的任务完全相同，请再次对这四类词语分类</b></span><p/>
    <span style=""color:#FFD866""><b>请根据上方标签的提示，尽可能正确并且快速地做出按键反应</b></span><p/>
    当按键错误时屏幕中会出现<span style=""color:red""> X </span>，需要按另一个键纠正才能继续<br/><p/>
    请把双手食指分别放在键盘的“E”键和“I”键上<p/>
    按<空格键>开始
    </p></div>"," ","html-keyboard-response","107","282585","0.0-6.0-0.0-7.0","3","4","4","3","3","3","3","4","4","4","4","4","4","5","4","4","4","4","4","5","1","1","1","1","1","1","1","1","1","1","0","0","0","0","0","0","1","0","1","0","0","1","0","0","4","1","2","2","3","4","4","3","4","4","2","755482622574202882","水","291","","","","","","","","","","","","","","","","","","","","","","","","","","","","","","","","","","","","","","","","","",""
"null","","null","html-keyboard-response","108","282835","0.0-6.0-0.0-8.0-0.0","3","4","4","3","3","3","3","4","4","4","4","4","4","5","4","4","4","4","4","5","1","1","1","1","1","1","1","1","1","1","0","0","0","0","0","0","1","0","1","0","0","1","0","0","4","1","2","2","3","4","4","3","4","4","2","755482622574202882","水","291","","","","","","","","","","","","","","","","","","","","","","","","","","","","","","","","","","","","","","","","","",""
"679","<p style=""color:rgb(150, 250, 100); font-size: 35px;"">自己</p>","i","categorize-html","109","283516","0.0-6.0-0.0-8.0-1.0","3","4","4","3","3","3","3","4","4","4","4","4","4","5","4","4","4","4","4","5","1","1","1","1","1","1","1","1","1","1","0","0","0","0","0","0","1","0","1","0","0","1","0","0","4","1","2","2","3","4","4","3","4","4","2","755482622574202882","水","291","","","","","","","","","","","","","","","","","","","true","4","4","ability","679","self","自己","","","","","","","","","","","","","","","","",""
"null","","null","html-keyboard-response","110","283767","0.0-6.0-0.0-8.0-0.1","3","4","4","3","3","3","3","4","4","4","4","4","4","5","4","4","4","4","4","5","1","1","1","1","1","1","1","1","1","1","0","0","0","0","0","0","1","0","1","0","0","1","0","0","4","1","2","2","3","4","4","3","4","4","2","755482622574202882","水","291","","","","","","","","","","","","","","","","","","","","","","","","","","","","","","","","","","","","","","","","","",""
"536","<p style=""color:white; font-size: 35px;"">天才</p>","i","categorize-html","111","284304","0.0-6.0-0.0-8.0-1.1","3","4","4","3","3","3","3","4","4","4","4","4","4","5","4","4","4","4","4","5","1","1","1","1","1","1","1","1","1","1","0","0","0","0","0","0","1","0","1","0","0","1","0","0","4","1","2","2","3","4","4","3","4","4","2","755482622574202882","水","291","","","","","","","","","","","","","","","","","","","true","4","4","ability","536","positive","天才","","","","","","","","","","","","","","","","",""
"null","","null","html-keyboard-response","112","284555","0.0-6.0-0.0-8.0-0.2","3","4","4","3","3","3","3","4","4","4","4","4","4","5","4","4","4","4","4","5","1","1","1","1","1","1","1","1","1","1","0","0","0","0","0","0","1","0","1","0","0","1","0","0","4","1","2","2","3","4","4","3","4","4","2","755482622574202882","水","291","","","","","","","","","","","","","","","","","","","","","","","","","","","","","","","","","","","","","","","","","",""
"838","<p style=""color:rgb(150, 250, 100); font-size: 35px;"">别人</p>","e","categorize-html","113","285393","0.0-6.0-0.0-8.0-1.2","3","4","4","3","3","3","3","4","4","4","4","4","4","5","4","4","4","4","4","5","1","1","1","1","1","1","1","1","1","1","0","0","0","0","0","0","1","0","1","0","0","1","0","0","4","1","2","2","3","4","4","3","4","4","2","755482622574202882","水","291","","","","","","","","","","","","","","","","","","","true","4","4","ability","838","other","别人","","","","","","","","","","","","","","","","",""
"null","","null","html-keyboard-response","114","285644","0.0-6.0-0.0-8.0-0.3","3","4","4","3","3","3","3","4","4","4","4","4","4","5","4","4","4","4","4","5","1","1","1","1","1","1","1","1","1","1","0","0","0","0","0","0","1","0","1","0","0","1","0","0","4","1","2","2","3","4","4","3","4","4","2","755482622574202882","水","291","","","","","","","","","","","","","","","","","","","","","","","","","","","","","","","","","","","","","","","","","",""
"563","<p style=""color:white; font-size: 35px;"">愚钝</p>","e","categorize-html","115","286208","0.0-6.0-0.0-8.0-1.3","3","4","4","3","3","3","3","4","4","4","4","4","4","5","4","4","4","4","4","5","1","1","1","1","1","1","1","1","1","1","0","0","0","0","0","0","1","0","1","0","0","1","0","0","4","1","2","2","3","4","4","3","4","4","2","755482622574202882","水","291","","","","","","","","","","","","","","","","","","","true","4","4","ability","563","negative","愚钝","","","","","","","","","","","","","","","","",""
"null","","null","html-keyboard-response","116","286459","0.0-6.0-0.0-8.0-0.4","3","4","4","3","3","3","3","4","4","4","4","4","4","5","4","4","4","4","4","5","1","1","1","1","1","1","1","1","1","1","0","0","0","0","0","0","1","0","1","0","0","1","0","0","4","1","2","2","3","4","4","3","4","4","2","755482622574202882","水","291","","","","","","","","","","","","","","","","","","","","","","","","","","","","","","","","","","","","","","","","","",""
"581","<p style=""color:rgb(150, 250, 100); font-size: 35px;"">我的</p>","i","categorize-html","117","287040","0.0-6.0-0.0-8.0-1.4","3","4","4","3","3","3","3","4","4","4","4","4","4","5","4","4","4","4","4","5","1","1","1","1","1","1","1","1","1","1","0","0","0","0","0","0","1","0","1","0","0","1","0","0","4","1","2","2","3","4","4","3","4","4","2","755482622574202882","水","291","","","","","","","","","","","","","","","","","","","true","4","4","ability","581","self","我的","","","","","","","","","","","","","","","","",""
"null","","null","html-keyboard-response","118","287291","0.0-6.0-0.0-8.0-0.5","3","4","4","3","3","3","3","4","4","4","4","4","4","5","4","4","4","4","4","5","1","1","1","1","1","1","1","1","1","1","0","0","0","0","0","0","1","0","1","0","0","1","0","0","4","1","2","2","3","4","4","3","4","4","2","755482622574202882","水","291","","","","","","","","","","","","","","","","","","","","","","","","","","","","","","","","","","","","","","","","","",""
"770","<p style=""color:white; font-size: 35px;"">低能</p>","e","categorize-html","119","288063","0.0-6.0-0.0-8.0-1.5","3","4","4","3","3","3","3","4","4","4","4","4","4","5","4","4","4","4","4","5","1","1","1","1","1","1","1","1","1","1","0","0","0","0","0","0","1","0","1","0","0","1","0","0","4","1","2","2","3","4","4","3","4","4","2","755482622574202882","水","291","","","","","","","","","","","","","","","","","","","true","4","4","ability","770","negative","低能","","","","","","","","","","","","","","","","",""
"null","","null","html-keyboard-response","120","288313","0.0-6.0-0.0-8.0-0.6","3","4","4","3","3","3","3","4","4","4","4","4","4","5","4","4","4","4","4","5","1","1","1","1","1","1","1","1","1","1","0","0","0","0","0","0","1","0","1","0","0","1","0","0","4","1","2","2","3","4","4","3","4","4","2","755482622574202882","水","291","","","","","","","","","","","","","","","","","","","","","","","","","","","","","","","","","","","","","","","","","",""
"880","<p style=""color:rgb(150, 250, 100); font-size: 35px;"">别人的</p>","e","categorize-html","121","289194","0.0-6.0-0.0-8.0-1.6","3","4","4","3","3","3","3","4","4","4","4","4","4","5","4","4","4","4","4","5","1","1","1","1","1","1","1","1","1","1","0","0","0","0","0","0","1","0","1","0","0","1","0","0","4","1","2","2","3","4","4","3","4","4","2","755482622574202882","水","291","","","","","","","","","","","","","","","","","","","true","4","4","ability","880","other","别人的","","","","","","","","","","","","","","","","",""
"null","","null","html-keyboard-response","122","289445","0.0-6.0-0.0-8.0-0.7","3","4","4","3","3","3","3","4","4","4","4","4","4","5","4","4","4","4","4","5","1","1","1","1","1","1","1","1","1","1","0","0","0","0","0","0","1","0","1","0","0","1","0","0","4","1","2","2","3","4","4","3","4","4","2","755482622574202882","水","291","","","","","","","","","","","","","","","","","","","","","","","","","","","","","","","","","","","","","","","","","",""
"660","<p style=""color:white; font-size: 35px;"">精干</p>","i","categorize-html","123","290106","0.0-6.0-0.0-8.0-1.7","3","4","4","3","3","3","3","4","4","4","4","4","4","5","4","4","4","4","4","5","1","1","1","1","1","1","1","1","1","1","0","0","0","0","0","0","1","0","1","0","0","1","0","0","4","1","2","2","3","4","4","3","4","4","2","755482622574202882","水","291","","","","","","","","","","","","","","","","","","","true","4","4","ability","660","positive","精干","","","","","","","","","","","","","","","","",""
"null","","null","html-keyboard-response","124","290358","0.0-6.0-0.0-8.0-0.8","3","4","4","3","3","3","3","4","4","4","4","4","4","5","4","4","4","4","4","5","1","1","1","1","1","1","1","1","1","1","0","0","0","0","0","0","1","0","1","0","0","1","0","0","4","1","2","2","3","4","4","3","4","4","2","755482622574202882","水","291","","","","","","","","","","","","","","","","","","","","","","","","","","","","","","","","","","","","","","","","","",""
"735","<p style=""color:rgb(150, 250, 100); font-size: 35px;"">他</p>","e","categorize-html","125","291094","0.0-6.0-0.0-8.0-1.8","3","4","4","3","3","3","3","4","4","4","4","4","4","5","4","4","4","4","4","5","1","1","1","1","1","1","1","1","1","1","0","0","0","0","0","0","1","0","1","0","0","1","0","0","4","1","2","2","3","4","4","3","4","4","2","755482622574202882","水","291","","","","","","","","","","","","","","","","","","","true","4","4","ability","735","other","他","","","","","","","","","","","","","","","","",""
"null","","null","html-keyboard-response","126","291346","0.0-6.0-0.0-8.0-0.9","3","4","4","3","3","3","3","4","4","4","4","4","4","5","4","4","4","4","4","5","1","1","1","1","1","1","1","1","1","1","0","0","0","0","0","0","1","0","1","0","0","1","0","0","4","1","2","2","3","4","4","3","4","4","2","755482622574202882","水","291","","","","","","","","","","","","","","","","","","","","","","","","","","","","","","","","","","","","","","","","","",""
"918","<p style=""color:white; font-size: 35px;"">能干</p>","i","categorize-html","127","292265","0.0-6.0-0.0-8.0-1.9","3","4","4","3","3","3","3","4","4","4","4","4","4","5","4","4","4","4","4","5","1","1","1","1","1","1","1","1","1","1","0","0","0","0","0","0","1","0","1","0","0","1","0","0","4","1","2","2","3","4","4","3","4","4","2","755482622574202882","水","291","","","","","","","","","","","","","","","","","","","true","4","4","ability","918","positive","能干","","","","","","","","","","","","","","","","",""
"null","","null","html-keyboard-response","128","292515","0.0-6.0-0.0-8.0-0.10","3","4","4","3","3","3","3","4","4","4","4","4","4","5","4","4","4","4","4","5","1","1","1","1","1","1","1","1","1","1","0","0","0","0","0","0","1","0","1","0","0","1","0","0","4","1","2","2","3","4","4","3","4","4","2","755482622574202882","水","291","","","","","","","","","","","","","","","","","","","","","","","","","","","","","","","","","","","","","","","","","",""
"469","<p style=""color:rgb(150, 250, 100); font-size: 35px;"">我的</p>","i","categorize-html","129","292986","0.0-6.0-0.0-8.0-1.10","3","4","4","3","3","3","3","4","4","4","4","4","4","5","4","4","4","4","4","5","1","1","1","1","1","1","1","1","1","1","0","0","0","0","0","0","1","0","1","0","0","1","0","0","4","1","2","2","3","4","4","3","4","4","2","755482622574202882","水","291","","","","","","","","","","","","","","","","","","","true","4","4","ability","469","self","我的","","","","","","","","","","","","","","","","",""
"null","","null","html-keyboard-response","130","293236","0.0-6.0-0.0-8.0-0.11","3","4","4","3","3","3","3","4","4","4","4","4","4","5","4","4","4","4","4","5","1","1","1","1","1","1","1","1","1","1","0","0","0","0","0","0","1","0","1","0","0","1","0","0","4","1","2","2","3","4","4","3","4","4","2","755482622574202882","水","291","","","","","","","","","","","","","","","","","","","","","","","","","","","","","","","","","","","","","","","","","",""
"934","<p style=""color:white; font-size: 35px;"">拙笨</p>","e","categorize-html","131","294171","0.0-6.0-0.0-8.0-1.11","3","4","4","3","3","3","3","4","4","4","4","4","4","5","4","4","4","4","4","5","1","1","1","1","1","1","1","1","1","1","0","0","0","0","0","0","1","0","1","0","0","1","0","0","4","1","2","2","3","4","4","3","4","4","2","755482622574202882","水","291","","","","","","","","","","","","","","","","","","","true","4","4","ability","934","negative","拙笨","","","","","","","","","","","","","","","","",""
"null","","null","html-keyboard-response","132","294421","0.0-6.0-0.0-8.0-0.12","3","4","4","3","3","3","3","4","4","4","4","4","4","5","4","4","4","4","4","5","1","1","1","1","1","1","1","1","1","1","0","0","0","0","0","0","1","0","1","0","0","1","0","0","4","1","2","2","3","4","4","3","4","4","2","755482622574202882","水","291","","","","","","","","","","","","","","","","","","","","","","","","","","","","","","","","","","","","","","","","","",""
"748","<p style=""color:rgb(150, 250, 100); font-size: 35px;"">自己的</p>","i","categorize-html","133","295170","0.0-6.0-0.0-8.0-1.12","3","4","4","3","3","3","3","4","4","4","4","4","4","5","4","4","4","4","4","5","1","1","1","1","1","1","1","1","1","1","0","0","0","0","0","0","1","0","1","0","0","1","0","0","4","1","2","2","3","4","4","3","4","4","2","755482622574202882","水","291","","","","","","","","","","","","","","","","","","","true","4","4","ability","748","self","自己的","","","","","","","","","","","","","","","","",""
"null","","null","html-keyboard-response","134","295421","0.0-6.0-0.0-8.0-0.13","3","4","4","3","3","3","3","4","4","4","4","4","4","5","4","4","4","4","4","5","1","1","1","1","1","1","1","1","1","1","0","0","0","0","0","0","1","0","1","0","0","1","0","0","4","1","2","2","3","4","4","3","4","4","2","755482622574202882","水","291","","","","","","","","","","","","","","","","","","","","","","","","","","","","","","","","","","","","","","","","","",""
"1006","<p style=""color:white; font-size: 35px;"">无能</p>","e","categorize-html","135","296428","0.0-6.0-0.0-8.0-1.13","3","4","4","3","3","3","3","4","4","4","4","4","4","5","4","4","4","4","4","5","1","1","1","1","1","1","1","1","1","1","0","0","0","0","0","0","1","0","1","0","0","1","0","0","4","1","2","2","3","4","4","3","4","4","2","755482622574202882","水","291","","","","","","","","","","","","","","","","","","","true","4","4","ability","1006","negative","无能","","","","","","","","","","","","","","","","",""
"null","","null","html-keyboard-response","136","296679","0.0-6.0-0.0-8.0-0.14","3","4","4","3","3","3","3","4","4","4","4","4","4","5","4","4","4","4","4","5","1","1","1","1","1","1","1","1","1","1","0","0","0","0","0","0","1","0","1","0","0","1","0","0","4","1","2","2","3","4","4","3","4","4","2","755482622574202882","水","291","","","","","","","","","","","","","","","","","","","","","","","","","","","","","","","","","","","","","","","","","",""
"678","<p style=""color:rgb(150, 250, 100); font-size: 35px;"">他人的</p>","e","categorize-html","137","297359","0.0-6.0-0.0-8.0-1.14","3","4","4","3","3","3","3","4","4","4","4","4","4","5","4","4","4","4","4","5","1","1","1","1","1","1","1","1","1","1","0","0","0","0","0","0","1","0","1","0","0","1","0","0","4","1","2","2","3","4","4","3","4","4","2","755482622574202882","水","291","","","","","","","","","","","","","","","","","","","true","4","4","ability","678","other","他人的","","","","","","","","","","","","","","","","",""
"null","","null","html-keyboard-response","138","297610","0.0-6.0-0.0-8.0-0.15","3","4","4","3","3","3","3","4","4","4","4","4","4","5","4","4","4","4","4","5","1","1","1","1","1","1","1","1","1","1","0","0","0","0","0","0","1","0","1","0","0","1","0","0","4","1","2","2","3","4","4","3","4","4","2","755482622574202882","水","291","","","","","","","","","","","","","","","","","","","","","","","","","","","","","","","","","","","","","","","","","",""
"732","<p style=""color:white; font-size: 35px;"">天才</p>","i","categorize-html","139","298343","0.0-6.0-0.0-8.0-1.15","3","4","4","3","3","3","3","4","4","4","4","4","4","5","4","4","4","4","4","5","1","1","1","1","1","1","1","1","1","1","0","0","0","0","0","0","1","0","1","0","0","1","0","0","4","1","2","2","3","4","4","3","4","4","2","755482622574202882","水","291","","","","","","","","","","","","","","","","","","","true","4","4","ability","732","positive","天才","","","","","","","","","","","","","","","","",""
"null","","null","html-keyboard-response","140","298594","0.0-6.0-0.0-8.0-0.16","3","4","4","3","3","3","3","4","4","4","4","4","4","5","4","4","4","4","4","5","1","1","1","1","1","1","1","1","1","1","0","0","0","0","0","0","1","0","1","0","0","1","0","0","4","1","2","2","3","4","4","3","4","4","2","755482622574202882","水","291","","","","","","","","","","","","","","","","","","","","","","","","","","","","","","","","","","","","","","","","","",""
"711","<p style=""color:rgb(150, 250, 100); font-size: 35px;"">他人的</p>","e","categorize-html","141","299306","0.0-6.0-0.0-8.0-1.16","3","4","4","3","3","3","3","4","4","4","4","4","4","5","4","4","4","4","4","5","1","1","1","1","1","1","1","1","1","1","0","0","0","0","0","0","1","0","1","0","0","1","0","0","4","1","2","2","3","4","4","3","4","4","2","755482622574202882","水","291","","","","","","","","","","","","","","","","","","","true","4","4","ability","711","other","他人的","","","","","","","","","","","","","","","","",""
"null","","null","html-keyboard-response","142","299557","0.0-6.0-0.0-8.0-0.17","3","4","4","3","3","3","3","4","4","4","4","4","4","5","4","4","4","4","4","5","1","1","1","1","1","1","1","1","1","1","0","0","0","0","0","0","1","0","1","0","0","1","0","0","4","1","2","2","3","4","4","3","4","4","2","755482622574202882","水","291","","","","","","","","","","","","","","","","","","","","","","","","","","","","","","","","","","","","","","","","","",""
"1319","<p style=""color:white; font-size: 35px;"">无能</p>","e","categorize-html","143","300877","0.0-6.0-0.0-8.0-1.17","3","4","4","3","3","3","3","4","4","4","4","4","4","5","4","4","4","4","4","5","1","1","1","1","1","1","1","1","1","1","0","0","0","0","0","0","1","0","1","0","0","1","0","0","4","1","2","2","3","4","4","3","4","4","2","755482622574202882","水","291","","","","","","","","","","","","","","","","","","","true","4","4","ability","1319","negative","无能","","","","","","","","","","","","","","","","",""
"null","","null","html-keyboard-response","144","301129","0.0-6.0-0.0-8.0-0.18","3","4","4","3","3","3","3","4","4","4","4","4","4","5","4","4","4","4","4","5","1","1","1","1","1","1","1","1","1","1","0","0","0","0","0","0","1","0","1","0","0","1","0","0","4","1","2","2","3","4","4","3","4","4","2","755482622574202882","水","291","","","","","","","","","","","","","","","","","","","","","","","","","","","","","","","","","","","","","","","","","",""
"815","<p style=""color:rgb(150, 250, 100); font-size: 35px;"">本人的</p>","i","categorize-html","145","301945","0.0-6.0-0.0-8.0-1.18","3","4","4","3","3","3","3","4","4","4","4","4","4","5","4","4","4","4","4","5","1","1","1","1","1","1","1","1","1","1","0","0","0","0","0","0","1","0","1","0","0","1","0","0","4","1","2","2","3","4","4","3","4","4","2","755482622574202882","水","291","","","","","","","","","","","","","","","","","","","true","4","4","ability","815","self","本人的","","","","","","","","","","","","","","","","",""
"null","","null","html-keyboard-response","146","302195","0.0-6.0-0.0-8.0-0.19","3","4","4","3","3","3","3","4","4","4","4","4","4","5","4","4","4","4","4","5","1","1","1","1","1","1","1","1","1","1","0","0","0","0","0","0","1","0","1","0","0","1","0","0","4","1","2","2","3","4","4","3","4","4","2","755482622574202882","水","291","","","","","","","","","","","","","","","","","","","","","","","","","","","","","","","","","","","","","","","","","",""
"729","<p style=""color:white; font-size: 35px;"">全才</p>","i","categorize-html","147","302925","0.0-6.0-0.0-8.0-1.19","3","4","4","3","3","3","3","4","4","4","4","4","4","5","4","4","4","4","4","5","1","1","1","1","1","1","1","1","1","1","0","0","0","0","0","0","1","0","1","0","0","1","0","0","4","1","2","2","3","4","4","3","4","4","2","755482622574202882","水","291","","","","","","","","","","","","","","","","","","","true","4","4","ability","729","positive","全才","","","","","","","","","","","","","","","","",""
"null","","null","html-keyboard-response","148","303176","0.0-6.0-0.0-8.0-0.20","3","4","4","3","3","3","3","4","4","4","4","4","4","5","4","4","4","4","4","5","1","1","1","1","1","1","1","1","1","1","0","0","0","0","0","0","1","0","1","0","0","1","0","0","4","1","2","2","3","4","4","3","4","4","2","755482622574202882","水","291","","","","","","","","","","","","","","","","","","","","","","","","","","","","","","","","","","","","","","","","","",""
"888","<p style=""color:rgb(150, 250, 100); font-size: 35px;"">他人</p>","e","categorize-html","149","304065","0.0-6.0-0.0-8.0-1.20","3","4","4","3","3","3","3","4","4","4","4","4","4","5","4","4","4","4","4","5","1","1","1","1","1","1","1","1","1","1","0","0","0","0","0","0","1","0","1","0","0","1","0","0","4","1","2","2","3","4","4","3","4","4","2","755482622574202882","水","291","","","","","","","","","","","","","","","","","","","true","4","4","ability","888","other","他人","","","","","","","","","","","","","","","","",""
"null","","null","html-keyboard-response","150","304315","0.0-6.0-0.0-8.0-0.21","3","4","4","3","3","3","3","4","4","4","4","4","4","5","4","4","4","4","4","5","1","1","1","1","1","1","1","1","1","1","0","0","0","0","0","0","1","0","1","0","0","1","0","0","4","1","2","2","3","4","4","3","4","4","2","755482622574202882","水","291","","","","","","","","","","","","","","","","","","","","","","","","","","","","","","","","","","","","","","","","","",""
"1316","<p style=""color:white; font-size: 35px;"">蠢笨</p>","e","categorize-html","151","305632","0.0-6.0-0.0-8.0-1.21","3","4","4","3","3","3","3","4","4","4","4","4","4","5","4","4","4","4","4","5","1","1","1","1","1","1","1","1","1","1","0","0","0","0","0","0","1","0","1","0","0","1","0","0","4","1","2","2","3","4","4","3","4","4","2","755482622574202882","水","291","","","","","","","","","","","","","","","","","","","true","4","4","ability","1316","negative","蠢笨","","","","","","","","","","","","","","","","",""
"null","","null","html-keyboard-response","152","305884","0.0-6.0-0.0-8.0-0.22","3","4","4","3","3","3","3","4","4","4","4","4","4","5","4","4","4","4","4","5","1","1","1","1","1","1","1","1","1","1","0","0","0","0","0","0","1","0","1","0","0","1","0","0","4","1","2","2","3","4","4","3","4","4","2","755482622574202882","水","291","","","","","","","","","","","","","","","","","","","","","","","","","","","","","","","","","","","","","","","","","",""
"548","<p style=""color:rgb(150, 250, 100); font-size: 35px;"">我</p>","i","categorize-html","153","306432","0.0-6.0-0.0-8.0-1.22","3","4","4","3","3","3","3","4","4","4","4","4","4","5","4","4","4","4","4","5","1","1","1","1","1","1","1","1","1","1","0","0","0","0","0","0","1","0","1","0","0","1","0","0","4","1","2","2","3","4","4","3","4","4","2","755482622574202882","水","291","","","","","","","","","","","","","","","","","","","true","4","4","ability","548","self","我","","","","","","","","","","","","","","","","",""
"null","","null","html-keyboard-response","154","306683","0.0-6.0-0.0-8.0-0.23","3","4","4","3","3","3","3","4","4","4","4","4","4","5","4","4","4","4","4","5","1","1","1","1","1","1","1","1","1","1","0","0","0","0","0","0","1","0","1","0","0","1","0","0","4","1","2","2","3","4","4","3","4","4","2","755482622574202882","水","291","","","","","","","","","","","","","","","","","","","","","","","","","","","","","","","","","","","","","","","","","",""
"682","<p style=""color:white; font-size: 35px;"">高效</p>","i","categorize-html","155","307366","0.0-6.0-0.0-8.0-1.23","3","4","4","3","3","3","3","4","4","4","4","4","4","5","4","4","4","4","4","5","1","1","1","1","1","1","1","1","1","1","0","0","0","0","0","0","1","0","1","0","0","1","0","0","4","1","2","2","3","4","4","3","4","4","2","755482622574202882","水","291","","","","","","","","","","","","","","","","","","","true","4","4","ability","682","positive","高效","","","","","","","","","","","","","","","","",""
"null","","null","html-keyboard-response","156","307624","0.0-6.0-0.0-8.0-0.24","3","4","4","3","3","3","3","4","4","4","4","4","4","5","4","4","4","4","4","5","1","1","1","1","1","1","1","1","1","1","0","0","0","0","0","0","1","0","1","0","0","1","0","0","4","1","2","2","3","4","4","3","4","4","2","755482622574202882","水","291","","","","","","","","","","","","","","","","","","","","","","","","","","","","","","","","","","","","","","","","","",""
"720","<p style=""color:rgb(150, 250, 100); font-size: 35px;"">别人</p>","e","categorize-html","157","308344","0.0-6.0-0.0-8.0-1.24","3","4","4","3","3","3","3","4","4","4","4","4","4","5","4","4","4","4","4","5","1","1","1","1","1","1","1","1","1","1","0","0","0","0","0","0","1","0","1","0","0","1","0","0","4","1","2","2","3","4","4","3","4","4","2","755482622574202882","水","291","","","","","","","","","","","","","","","","","","","true","4","4","ability","720","other","别人","","","","","","","","","","","","","","","","",""
"null","","null","html-keyboard-response","158","308609","0.0-6.0-0.0-8.0-0.25","3","4","4","3","3","3","3","4","4","4","4","4","4","5","4","4","4","4","4","5","1","1","1","1","1","1","1","1","1","1","0","0","0","0","0","0","1","0","1","0","0","1","0","0","4","1","2","2","3","4","4","3","4","4","2","755482622574202882","水","291","","","","","","","","","","","","","","","","","","","","","","","","","","","","","","","","","","","","","","","","","",""
"697","<p style=""color:white; font-size: 35px;"">高效</p>","i","categorize-html","159","309306","0.0-6.0-0.0-8.0-1.25","3","4","4","3","3","3","3","4","4","4","4","4","4","5","4","4","4","4","4","5","1","1","1","1","1","1","1","1","1","1","0","0","0","0","0","0","1","0","1","0","0","1","0","0","4","1","2","2","3","4","4","3","4","4","2","755482622574202882","水","291","","","","","","","","","","","","","","","","","","","true","4","4","ability","697","positive","高效","","","","","","","","","","","","","","","","",""
"null","","null","html-keyboard-response","160","309558","0.0-6.0-0.0-8.0-0.26","3","4","4","3","3","3","3","4","4","4","4","4","4","5","4","4","4","4","4","5","1","1","1","1","1","1","1","1","1","1","0","0","0","0","0","0","1","0","1","0","0","1","0","0","4","1","2","2","3","4","4","3","4","4","2","755482622574202882","水","291","","","","","","","","","","","","","","","","","","","","","","","","","","","","","","","","","","","","","","","","","",""
"521","<p style=""color:rgb(150, 250, 100); font-size: 35px;"">本人</p>","i","categorize-html","161","310080","0.0-6.0-0.0-8.0-1.26","3","4","4","3","3","3","3","4","4","4","4","4","4","5","4","4","4","4","4","5","1","1","1","1","1","1","1","1","1","1","0","0","0","0","0","0","1","0","1","0","0","1","0","0","4","1","2","2","3","4","4","3","4","4","2","755482622574202882","水","291","","","","","","","","","","","","","","","","","","","true","4","4","ability","521","self","本人","","","","","","","","","","","","","","","","",""
"null","","null","html-keyboard-response","162","310330","0.0-6.0-0.0-8.0-0.27","3","4","4","3","3","3","3","4","4","4","4","4","4","5","4","4","4","4","4","5","1","1","1","1","1","1","1","1","1","1","0","0","0","0","0","0","1","0","1","0","0","1","0","0","4","1","2","2","3","4","4","3","4","4","2","755482622574202882","水","291","","","","","","","","","","","","","","","","","","","","","","","","","","","","","","","","","","","","","","","","","",""
"1065","<p style=""color:white; font-size: 35px;"">低能</p>","e","categorize-html","163","311396","0.0-6.0-0.0-8.0-1.27","3","4","4","3","3","3","3","4","4","4","4","4","4","5","4","4","4","4","4","5","1","1","1","1","1","1","1","1","1","1","0","0","0","0","0","0","1","0","1","0","0","1","0","0","4","1","2","2","3","4","4","3","4","4","2","755482622574202882","水","291","","","","","","","","","","","","","","","","","","","true","4","4","ability","1065","negative","低能","","","","","","","","","","","","","","","","",""
"null","","null","html-keyboard-response","164","311647","0.0-6.0-0.0-8.0-0.28","3","4","4","3","3","3","3","4","4","4","4","4","4","5","4","4","4","4","4","5","1","1","1","1","1","1","1","1","1","1","0","0","0","0","0","0","1","0","1","0","0","1","0","0","4","1","2","2","3","4","4","3","4","4","2","755482622574202882","水","291","","","","","","","","","","","","","","","","","","","","","","","","","","","","","","","","","","","","","","","","","",""
"923","<p style=""color:rgb(150, 250, 100); font-size: 35px;"">他的</p>","e","categorize-html","165","312571","0.0-6.0-0.0-8.0-1.28","3","4","4","3","3","3","3","4","4","4","4","4","4","5","4","4","4","4","4","5","1","1","1","1","1","1","1","1","1","1","0","0","0","0","0","0","1","0","1","0","0","1","0","0","4","1","2","2","3","4","4","3","4","4","2","755482622574202882","水","291","","","","","","","","","","","","","","","","","","","true","4","4","ability","923","other","他的","","","","","","","","","","","","","","","","",""
"null","","null","html-keyboard-response","166","312822","0.0-6.0-0.0-8.0-0.29","3","4","4","3","3","3","3","4","4","4","4","4","4","5","4","4","4","4","4","5","1","1","1","1","1","1","1","1","1","1","0","0","0","0","0","0","1","0","1","0","0","1","0","0","4","1","2","2","3","4","4","3","4","4","2","755482622574202882","水","291","","","","","","","","","","","","","","","","","","","","","","","","","","","","","","","","","","","","","","","","","",""
"665","<p style=""color:white; font-size: 35px;"">愚钝</p>","e","categorize-html","167","313487","0.0-6.0-0.0-8.0-1.29","3","4","4","3","3","3","3","4","4","4","4","4","4","5","4","4","4","4","4","5","1","1","1","1","1","1","1","1","1","1","0","0","0","0","0","0","1","0","1","0","0","1","0","0","4","1","2","2","3","4","4","3","4","4","2","755482622574202882","水","291","","","","","","","","","","","","","","","","","","","true","4","4","ability","665","negative","愚钝","","","","","","","","","","","","","","","","",""
"null","","null","html-keyboard-response","168","313738","0.0-6.0-0.0-8.0-0.30","3","4","4","3","3","3","3","4","4","4","4","4","4","5","4","4","4","4","4","5","1","1","1","1","1","1","1","1","1","1","0","0","0","0","0","0","1","0","1","0","0","1","0","0","4","1","2","2","3","4","4","3","4","4","2","755482622574202882","水","291","","","","","","","","","","","","","","","","","","","","","","","","","","","","","","","","","","","","","","","","","",""
"548","<p style=""color:rgb(150, 250, 100); font-size: 35px;"">本人</p>","i","categorize-html","169","314288","0.0-6.0-0.0-8.0-1.30","3","4","4","3","3","3","3","4","4","4","4","4","4","5","4","4","4","4","4","5","1","1","1","1","1","1","1","1","1","1","0","0","0","0","0","0","1","0","1","0","0","1","0","0","4","1","2","2","3","4","4","3","4","4","2","755482622574202882","水","291","","","","","","","","","","","","","","","","","","","true","4","4","ability","548","self","本人","","","","","","","","","","","","","","","","",""
"null","","null","html-keyboard-response","170","314539","0.0-6.0-0.0-8.0-0.31","3","4","4","3","3","3","3","4","4","4","4","4","4","5","4","4","4","4","4","5","1","1","1","1","1","1","1","1","1","1","0","0","0","0","0","0","1","0","1","0","0","1","0","0","4","1","2","2","3","4","4","3","4","4","2","755482622574202882","水","291","","","","","","","","","","","","","","","","","","","","","","","","","","","","","","","","","","","","","","","","","",""
"561","<p style=""color:white; font-size: 35px;"">精干</p>","i","categorize-html","171","315101","0.0-6.0-0.0-8.0-1.31","3","4","4","3","3","3","3","4","4","4","4","4","4","5","4","4","4","4","4","5","1","1","1","1","1","1","1","1","1","1","0","0","0","0","0","0","1","0","1","0","0","1","0","0","4","1","2","2","3","4","4","3","4","4","2","755482622574202882","水","291","","","","","","","","","","","","","","","","","","","true","4","4","ability","561","positive","精干","","","","","","","","","","","","","","","","",""
"null","","null","html-keyboard-response","172","315352","0.0-6.0-0.0-8.0-0.32","3","4","4","3","3","3","3","4","4","4","4","4","4","5","4","4","4","4","4","5","1","1","1","1","1","1","1","1","1","1","0","0","0","0","0","0","1","0","1","0","0","1","0","0","4","1","2","2","3","4","4","3","4","4","2","755482622574202882","水","291","","","","","","","","","","","","","","","","","","","","","","","","","","","","","","","","","","","","","","","","","",""
"588","<p style=""color:rgb(150, 250, 100); font-size: 35px;"">自己的</p>","i","categorize-html","173","315941","0.0-6.0-0.0-8.0-1.32","3","4","4","3","3","3","3","4","4","4","4","4","4","5","4","4","4","4","4","5","1","1","1","1","1","1","1","1","1","1","0","0","0","0","0","0","1","0","1","0","0","1","0","0","4","1","2","2","3","4","4","3","4","4","2","755482622574202882","水","291","","","","","","","","","","","","","","","","","","","true","4","4","ability","588","self","自己的","","","","","","","","","","","","","","","","",""
"null","","null","html-keyboard-response","174","316193","0.0-6.0-0.0-8.0-0.33","3","4","4","3","3","3","3","4","4","4","4","4","4","5","4","4","4","4","4","5","1","1","1","1","1","1","1","1","1","1","0","0","0","0","0","0","1","0","1","0","0","1","0","0","4","1","2","2","3","4","4","3","4","4","2","755482622574202882","水","291","","","","","","","","","","","","","","","","","","","","","","","","","","","","","","","","","","","","","","","","","",""
"664","<p style=""color:white; font-size: 35px;"">能干</p>","i","categorize-html","175","316858","0.0-6.0-0.0-8.0-1.33","3","4","4","3","3","3","3","4","4","4","4","4","4","5","4","4","4","4","4","5","1","1","1","1","1","1","1","1","1","1","0","0","0","0","0","0","1","0","1","0","0","1","0","0","4","1","2","2","3","4","4","3","4","4","2","755482622574202882","水","291","","","","","","","","","","","","","","","","","","","true","4","4","ability","664","positive","能干","","","","","","","","","","","","","","","","",""
"null","","null","html-keyboard-response","176","317109","0.0-6.0-0.0-8.0-0.34","3","4","4","3","3","3","3","4","4","4","4","4","4","5","4","4","4","4","4","5","1","1","1","1","1","1","1","1","1","1","0","0","0","0","0","0","1","0","1","0","0","1","0","0","4","1","2","2","3","4","4","3","4","4","2","755482622574202882","水","291","","","","","","","","","","","","","","","","","","","","","","","","","","","","","","","","","","","","","","","","","",""
"662","<p style=""color:rgb(150, 250, 100); font-size: 35px;"">他的</p>","e","categorize-html","177","317772","0.0-6.0-0.0-8.0-1.34","3","4","4","3","3","3","3","4","4","4","4","4","4","5","4","4","4","4","4","5","1","1","1","1","1","1","1","1","1","1","0","0","0","0","0","0","1","0","1","0","0","1","0","0","4","1","2","2","3","4","4","3","4","4","2","755482622574202882","水","291","","","","","","","","","","","","","","","","","","","true","4","4","ability","662","other","他的","","","","","","","","","","","","","","","","",""
"null","","null","html-keyboard-response","178","318023","0.0-6.0-0.0-8.0-0.35","3","4","4","3","3","3","3","4","4","4","4","4","4","5","4","4","4","4","4","5","1","1","1","1","1","1","1","1","1","1","0","0","0","0","0","0","1","0","1","0","0","1","0","0","4","1","2","2","3","4","4","3","4","4","2","755482622574202882","水","291","","","","","","","","","","","","","","","","","","","","","","","","","","","","","","","","","","","","","","","","","",""
"671","<p style=""color:white; font-size: 35px;"">废物</p>","e","categorize-html","179","318695","0.0-6.0-0.0-8.0-1.35","3","4","4","3","3","3","3","4","4","4","4","4","4","5","4","4","4","4","4","5","1","1","1","1","1","1","1","1","1","1","0","0","0","0","0","0","1","0","1","0","0","1","0","0","4","1","2","2","3","4","4","3","4","4","2","755482622574202882","水","291","","","","","","","","","","","","","","","","","","","true","4","4","ability","671","negative","废物","","","","","","","","","","","","","","","","",""
"null","","null","html-keyboard-response","180","318946","0.0-6.0-0.0-8.0-0.36","3","4","4","3","3","3","3","4","4","4","4","4","4","5","4","4","4","4","4","5","1","1","1","1","1","1","1","1","1","1","0","0","0","0","0","0","1","0","1","0","0","1","0","0","4","1","2","2","3","4","4","3","4","4","2","755482622574202882","水","291","","","","","","","","","","","","","","","","","","","","","","","","","","","","","","","","","","","","","","","","","",""
"574","<p style=""color:rgb(150, 250, 100); font-size: 35px;"">他人</p>","e","categorize-html","181","319521","0.0-6.0-0.0-8.0-1.36","3","4","4","3","3","3","3","4","4","4","4","4","4","5","4","4","4","4","4","5","1","1","1","1","1","1","1","1","1","1","0","0","0","0","0","0","1","0","1","0","0","1","0","0","4","1","2","2","3","4","4","3","4","4","2","755482622574202882","水","291","","","","","","","","","","","","","","","","","","","true","4","4","ability","574","other","他人","","","","","","","","","","","","","","","","",""
"null","","null","html-keyboard-response","182","319771","0.0-6.0-0.0-8.0-0.37","3","4","4","3","3","3","3","4","4","4","4","4","4","5","4","4","4","4","4","5","1","1","1","1","1","1","1","1","1","1","0","0","0","0","0","0","1","0","1","0","0","1","0","0","4","1","2","2","3","4","4","3","4","4","2","755482622574202882","水","291","","","","","","","","","","","","","","","","","","","","","","","","","","","","","","","","","","","","","","","","","",""
"777","<p style=""color:white; font-size: 35px;"">全能</p>","i","categorize-html","183","320550","0.0-6.0-0.0-8.0-1.37","3","4","4","3","3","3","3","4","4","4","4","4","4","5","4","4","4","4","4","5","1","1","1","1","1","1","1","1","1","1","0","0","0","0","0","0","1","0","1","0","0","1","0","0","4","1","2","2","3","4","4","3","4","4","2","755482622574202882","水","291","","","","","","","","","","","","","","","","","","","true","4","4","ability","777","positive","全能","","","","","","","","","","","","","","","","",""
"null","","null","html-keyboard-response","184","320801","0.0-6.0-0.0-8.0-0.38","3","4","4","3","3","3","3","4","4","4","4","4","4","5","4","4","4","4","4","5","1","1","1","1","1","1","1","1","1","1","0","0","0","0","0","0","1","0","1","0","0","1","0","0","4","1","2","2","3","4","4","3","4","4","2","755482622574202882","水","291","","","","","","","","","","","","","","","","","","","","","","","","","","","","","","","","","","","","","","","","","",""
"845","<p style=""color:rgb(150, 250, 100); font-size: 35px;"">本人的</p>","i","categorize-html","185","321647","0.0-6.0-0.0-8.0-1.38","3","4","4","3","3","3","3","4","4","4","4","4","4","5","4","4","4","4","4","5","1","1","1","1","1","1","1","1","1","1","0","0","0","0","0","0","1","0","1","0","0","1","0","0","4","1","2","2","3","4","4","3","4","4","2","755482622574202882","水","291","","","","","","","","","","","","","","","","","","","true","4","4","ability","845","self","本人的","","","","","","","","","","","","","","","","",""
"null","","null","html-keyboard-response","186","321898","0.0-6.0-0.0-8.0-0.39","3","4","4","3","3","3","3","4","4","4","4","4","4","5","4","4","4","4","4","5","1","1","1","1","1","1","1","1","1","1","0","0","0","0","0","0","1","0","1","0","0","1","0","0","4","1","2","2","3","4","4","3","4","4","2","755482622574202882","水","291","","","","","","","","","","","","","","","","","","","","","","","","","","","","","","","","","","","","","","","","","",""
"618","<p style=""color:white; font-size: 35px;"">拙笨</p>","e","categorize-html","187","322516","0.0-6.0-0.0-8.0-1.39","3","4","4","3","3","3","3","4","4","4","4","4","4","5","4","4","4","4","4","5","1","1","1","1","1","1","1","1","1","1","0","0","0","0","0","0","1","0","1","0","0","1","0","0","4","1","2","2","3","4","4","3","4","4","2","755482622574202882","水","291","","","","","","","","","","","","","","","","","","","true","4","4","ability","618","negative","拙笨","","","","","","","","","","","","","","","","",""
"null","","null","html-keyboard-response","188","322768","0.0-6.0-0.0-8.0-0.40","3","4","4","3","3","3","3","4","4","4","4","4","4","5","4","4","4","4","4","5","1","1","1","1","1","1","1","1","1","1","0","0","0","0","0","0","1","0","1","0","0","1","0","0","4","1","2","2","3","4","4","3","4","4","2","755482622574202882","水","291","","","","","","","","","","","","","","","","","","","","","","","","","","","","","","","","","","","","","","","","","",""
"688","<p style=""color:rgb(150, 250, 100); font-size: 35px;"">我</p>","i","categorize-html","189","323457","0.0-6.0-0.0-8.0-1.40","3","4","4","3","3","3","3","4","4","4","4","4","4","5","4","4","4","4","4","5","1","1","1","1","1","1","1","1","1","1","0","0","0","0","0","0","1","0","1","0","0","1","0","0","4","1","2","2","3","4","4","3","4","4","2","755482622574202882","水","291","","","","","","","","","","","","","","","","","","","true","4","4","ability","688","self","我","","","","","","","","","","","","","","","","",""
"null","","null","html-keyboard-response","190","323708","0.0-6.0-0.0-8.0-0.41","3","4","4","3","3","3","3","4","4","4","4","4","4","5","4","4","4","4","4","5","1","1","1","1","1","1","1","1","1","1","0","0","0","0","0","0","1","0","1","0","0","1","0","0","4","1","2","2","3","4","4","3","4","4","2","755482622574202882","水","291","","","","","","","","","","","","","","","","","","","","","","","","","","","","","","","","","","","","","","","","","",""
"599","<p style=""color:white; font-size: 35px;"">全才</p>","i","categorize-html","191","324308","0.0-6.0-0.0-8.0-1.41","3","4","4","3","3","3","3","4","4","4","4","4","4","5","4","4","4","4","4","5","1","1","1","1","1","1","1","1","1","1","0","0","0","0","0","0","1","0","1","0","0","1","0","0","4","1","2","2","3","4","4","3","4","4","2","755482622574202882","水","291","","","","","","","","","","","","","","","","","","","true","4","4","ability","599","positive","全才","","","","","","","","","","","","","","","","",""
"null","","null","html-keyboard-response","192","324559","0.0-6.0-0.0-8.0-0.42","3","4","4","3","3","3","3","4","4","4","4","4","4","5","4","4","4","4","4","5","1","1","1","1","1","1","1","1","1","1","0","0","0","0","0","0","1","0","1","0","0","1","0","0","4","1","2","2","3","4","4","3","4","4","2","755482622574202882","水","291","","","","","","","","","","","","","","","","","","","","","","","","","","","","","","","","","","","","","","","","","",""
"746","<p style=""color:rgb(150, 250, 100); font-size: 35px;"">别人的</p>","e","categorize-html","193","325305","0.0-6.0-0.0-8.0-1.42","3","4","4","3","3","3","3","4","4","4","4","4","4","5","4","4","4","4","4","5","1","1","1","1","1","1","1","1","1","1","0","0","0","0","0","0","1","0","1","0","0","1","0","0","4","1","2","2","3","4","4","3","4","4","2","755482622574202882","水","291","","","","","","","","","","","","","","","","","","","true","4","4","ability","746","other","别人的","","","","","","","","","","","","","","","","",""
