"rt","stimulus","response","trial_type","trial_index","time_elapsed","internal_node_id","ses_1","ses_2","ses_3","ses_4","ses_5","ses_6","ses_7","ses_8","ses_9","ses_10","coreself_1","coreself_2","coreself_3","coreself_4","coreself_5","coreself_6","coreself_7","coreself_8","coreself_9","coreself_10","SGPS_1","SGPS_2","SGPS_3","SGPS_4","SGPS_5","SGPS_6","SGPS_7","SGPS_8","SGPS_9","NPI1","NPI2","NPI3","NPI4","NPI5","NPI6","NPI7","NPI8","NPI9","NPI10","NPI11","NPI12","NPI13","NPI14","NPI15","hsns_1","hsns_2","hsns_3","hsns_4","hsns_5","trap1","hsns_6","hsns_7","hsns_8","hsns_9","hsns_10","subj_idx","friend_name","ParticipantID","value","success","user_agent","responses","item_order","radio_event_ids","radio_event_times","key_event_times","mouse_event_times","straightlining","zigzagging","honeypot","timeout","failed_images","failed_audio","failed_video","version_attrib2","version_target2","correct","IAT","screen_id","task_id","RT","condition","word","varname","summary","version_attrib","version_target","time_stamp","view_history","response_type","key_press","avg_frame_time","center_x","center_y","correct_response","identity","Image","question_order","correct_answer","trap1_item"
"5247","
   <p><div style = ""color: white;font-size:25px;"">您好，欢迎参加本次实验。</div> </p>
   <p><div style = ""color: white;font-size:25px;"">为充分保障您的权利，请确保您已经知晓并同意《参与实验同意书》以及《数据公开知情同意书》。</div></p>
   <p><div style = ""color: white;font-size:25px;"">如果您未见过上述内容，请咨询实验员。</div></p>
   <p><div style = ""color: white;font-size:25px;"">如果您选择继续实验，则表示您已经清楚两份知情同意书的内容并同意。</div></p>
   <p><div style = ""color: pink;font-size:30px;"">请确保您记得day0的实验编号，您将在本次实验输入该编号，若您忘记，请咨询实验员后作答。</div></p>
   <p><div style = ""color: lightblue;font-size:25px;"">请您尽可能认真地作答，我们将依据您在各问卷和按键任务中的作答质量发放报酬。</div></p>
   <p> <div style = ""color: green;font-size:25px;""><按空格键至下页></div> </p>
   "," ","html-keyboard-response","0","5272","0.0-0.0","3","4","4","3","4","3","4","1","4","4","4","5","4","4","5","5","4","4","4","5","1","2","2","2","1","2","1","1","2","1","0","1","1","0","0","0","1","0","1","1","0","1","0","1","5","1","2","2","1","2","1","2","1","1","2","772056166992973826","侯","46","","","","","","","","","","","","","","","","","","","","","","","","","","","","","","","","","","","","","","","","","",""
"","","","call-function","1","5285","0.0-1.0-0.0","3","4","4","3","4","3","4","1","4","4","4","5","4","4","5","5","4","4","4","5","1","2","2","2","1","2","1","1","2","1","0","1","1","0","0","0","1","0","1","1","0","1","0","1","5","1","2","2","1","2","1","2","1","1","2","772056166992973826","侯","46","","","","","","","","","","","","","","","","","","","","","","","","","","","","","","","","","","","","","","","","","",""
"46103","","{""friend_name"":""侯"",""ParticipantID"":""46""}","survey-html-form","2","51395","0.0-1.0-1.0","3","4","4","3","4","3","4","1","4","4","4","5","4","4","5","5","4","4","4","5","1","2","2","2","1","2","1","1","2","1","0","1","1","0","0","0","1","0","1","1","0","1","0","1","5","1","2","2","1","2","1","2","1","1","2","772056166992973826","侯","46","","","","","","","","","","","","","","","","","","","","","","","","","","","","","","","","","","","","","","","","","",""
"","","","fullscreen","3","55314","0.0-2.0","3","4","4","3","4","3","4","1","4","4","4","5","4","4","5","5","4","4","4","5","1","2","2","2","1","2","1","1","2","1","0","1","1","0","0","0","1","0","1","1","0","1","0","1","5","1","2","2","1","2","1","2","1","1","2","772056166992973826","侯","46","","true","{}","","","","","","","","","","","","","","","","","","","","","","","","","","","","","","","","","","","","","","",""
"24005","","{""Q01"":""3"",""Q02"":""4"",""Q03"":""4"",""Q04"":""3"",""Q05"":""4"",""Q06"":""3"",""Q07"":""4"",""Q08"":""1"",""Q09"":""4"",""Q10"":""4""}","survey-template","4","79327","0.0-3.0","3","4","4","3","4","3","4","1","4","4","4","5","4","4","5","5","4","4","4","5","1","2","2","2","1","2","1","1","2","1","0","1","1","0","0","0","1","0","1","1","0","1","0","1","5","1","2","2","1","2","1","2","1","1","2","772056166992973826","侯","46","","","","{""Q01"":""3"",""Q02"":""4"",""Q03"":""4"",""Q04"":""3"",""Q05"":""4"",""Q06"":""3"",""Q07"":""4"",""Q08"":""1"",""Q09"":""4"",""Q10"":""4""}","[0,1,2,3,4,5,6,7,8,9]","[""Q01"",""Q02"",""Q03"",""Q04"",""Q05"",""Q05"",""Q06"",""Q07"",""Q08"",""Q08"",""Q08"",""Q09"",""Q10""]","[3027.899999976158,4958.399999976158,5710.399999976158,7002.5,8311.899999976158,8868.5,10668,11735.399999976158,14460.899999976158,16718,17151.5,18662.899999976158,19901.299999952316]","[]","[3027.899999976158,4958.399999976158,5710.399999976158,7002.5,8311.899999976158,8868.5,10668,11735.399999976158,14460.899999976158,16718,17151.5,18662.899999976158,19901.299999952316,24002.5]","0.4","0.4444444444444444","0","","","","","","","","","","","","","","","","","","","","","","","","","","","","","",""
"17795.200000047684","","{""Q01"":""4"",""Q02"":""5"",""Q03"":""4"",""Q04"":""4"",""Q05"":""5"",""Q06"":""5"",""Q07"":""4"",""Q08"":""4"",""Q09"":""4"",""Q10"":""5""}","survey-template","5","97142","0.0-4.0","3","4","4","3","4","3","4","1","4","4","4","5","4","4","5","5","4","4","4","5","1","2","2","2","1","2","1","1","2","1","0","1","1","0","0","0","1","0","1","1","0","1","0","1","5","1","2","2","1","2","1","2","1","1","2","772056166992973826","侯","46","","","","{""Q01"":""4"",""Q02"":""5"",""Q03"":""4"",""Q04"":""4"",""Q05"":""5"",""Q06"":""5"",""Q07"":""4"",""Q08"":""4"",""Q09"":""4"",""Q10"":""5""}","[0,1,2,3,4,5,6,7,8,9]","[""Q01"",""Q02"",""Q03"",""Q04"",""Q05"",""Q06"",""Q07"",""Q08"",""Q09"",""Q10""]","[1332.7000000476837,2585.100000023842,4160,5317.200000047684,6876.700000047684,8609.800000071526,10477.5,12069,15394,16944.899999976158]","[]","[1332.7000000476837,2585.100000023842,4160,5317.200000047684,6876.700000047684,8609.800000071526,10477.5,12069,15394,16944.899999976158,17793.100000023842]","0.3","0.2222222222222222","0","","","","","","","","","","","","","","","","","","","","","","","","","","","","","",""
"","","","preload","6","97706","0.0-5.0","3","4","4","3","4","3","4","1","4","4","4","5","4","4","5","5","4","4","4","5","1","2","2","2","1","2","1","1","2","1","0","1","1","0","0","0","1","0","1","1","0","1","0","1","5","1","2","2","1","2","1","2","1","1","2","772056166992973826","侯","46","","true","","","","","","","","","","","false","[]","[]","[]","","","","","","","","","","","","","","","","","","","","","","","","","",""
"13196","
    <h3>词语分类任务</h3>
    <p>在接下来的任务中，你需要对一系列词语进行分类。<p/>
    请先熟悉这些词语，这有利于你完成接下来的任务。</p>
    <table align=""center"" border=1 cellpadding=3 cellspacing=0>
    <tr> <th>类别</th> <th>词语</th> </tr>
    <tr> <td>&emsp;积极&emsp;</td> <td>&emsp;高尚、诚信、善良、君子、廉正、正直&emsp;</td> </tr>
    <tr> <td>&emsp;消极&emsp;</td> <td>&emsp;缺德、卑鄙、不孝、不仁、小人、黑心&emsp;</td> </tr>
    <tr> <td>&emsp;自我&emsp;</td> <td>&emsp;我、我的、自己、自己的、本人、本人的&emsp;</td> </tr>
    <tr> <td>&emsp;他人&emsp;</td> <td>&emsp;他、他的、别人、别人的、他人、他人的&emsp;</td> </tr>
    </table><br/>","0","html-button-response","7","110906","0.0-6.0-1.0-0.0","3","4","4","3","4","3","4","1","4","4","4","5","4","4","5","5","4","4","4","5","1","2","2","2","1","2","1","1","2","1","0","1","1","0","0","0","1","0","1","1","0","1","0","1","5","1","2","2","1","2","1","2","1","1","2","772056166992973826","侯","46","","","","","","","","","","","","","","","","","2","1","","","","","","","","","","","","","","","","","","","","","","","",""
"5591","
    <div class=""tag-bottom""><p>
    —— 任务1：对“自我”词和“他人”词分类 ——<p/>
    不同词语会出现在屏幕中央，类别标签将始终显示在屏幕上方<p/>   
    <span style=""color:#FFD866""><b>请根据上方标签的提示，尽可能正确并且快速地做出按键反应</b></span><p/>
    当按键错误时屏幕中会出现<span style=""color:red""> X </span>，需要按另一个键纠正才能继续<br/><p/>
    请把双手食指分别放在键盘的“E”键和“I”键上<p/>
    按<空格键>开始
    </p></div>"," ","html-keyboard-response","8","116509","0.0-6.0-1.0-1.0","3","4","4","3","4","3","4","1","4","4","4","5","4","4","5","5","4","4","4","5","1","2","2","2","1","2","1","1","2","1","0","1","1","0","0","0","1","0","1","1","0","1","0","1","5","1","2","2","1","2","1","2","1","1","2","772056166992973826","侯","46","","","","","","","","","","","","","","","","","","","","","","","","","","","","","","","","","","","","","","","","","",""
"null","","null","html-keyboard-response","9","116765","0.0-6.0-1.0-2.0-0.0","3","4","4","3","4","3","4","1","4","4","4","5","4","4","5","5","4","4","4","5","1","2","2","2","1","2","1","1","2","1","0","1","1","0","0","0","1","0","1","1","0","1","0","1","5","1","2","2","1","2","1","2","1","1","2","772056166992973826","侯","46","","","","","","","","","","","","","","","","","","","","","","","","","","","","","","","","","","","","","","","","","",""
"1042","<p style=""color:rgb(150, 250, 100); font-size: 35px;"">他人的</p>","i","categorize-html","10","117838","0.0-6.0-1.0-2.0-1.0","3","4","4","3","4","3","4","1","4","4","4","5","4","4","5","5","4","4","4","5","1","2","2","2","1","2","1","1","2","1","0","1","1","0","0","0","1","0","1","1","0","1","0","1","5","1","2","2","1","2","1","2","1","1","2","772056166992973826","侯","46","","","","","","","","","","","","","","","","","","","true","11","1","moral","1042","other","他人的","","","","","","","","","","","","","","","","",""
"null","","null","html-keyboard-response","11","118094","0.0-6.0-1.0-2.0-0.1","3","4","4","3","4","3","4","1","4","4","4","5","4","4","5","5","4","4","4","5","1","2","2","2","1","2","1","1","2","1","0","1","1","0","0","0","1","0","1","1","0","1","0","1","5","1","2","2","1","2","1","2","1","1","2","772056166992973826","侯","46","","","","","","","","","","","","","","","","","","","","","","","","","","","","","","","","","","","","","","","","","",""
"1436","<p style=""color:rgb(150, 250, 100); font-size: 35px;"">别人</p>","i","categorize-html","12","119547","0.0-6.0-1.0-2.0-1.1","3","4","4","3","4","3","4","1","4","4","4","5","4","4","5","5","4","4","4","5","1","2","2","2","1","2","1","1","2","1","0","1","1","0","0","0","1","0","1","1","0","1","0","1","5","1","2","2","1","2","1","2","1","1","2","772056166992973826","侯","46","","","","","","","","","","","","","","","","","","","true","11","1","moral","1436","other","别人","","","","","","","","","","","","","","","","",""
"null","","null","html-keyboard-response","13","119808","0.0-6.0-1.0-2.0-0.2","3","4","4","3","4","3","4","1","4","4","4","5","4","4","5","5","4","4","4","5","1","2","2","2","1","2","1","1","2","1","0","1","1","0","0","0","1","0","1","1","0","1","0","1","5","1","2","2","1","2","1","2","1","1","2","772056166992973826","侯","46","","","","","","","","","","","","","","","","","","","","","","","","","","","","","","","","","","","","","","","","","",""
"662","<p style=""color:rgb(150, 250, 100); font-size: 35px;"">他人</p>","i","categorize-html","14","120496","0.0-6.0-1.0-2.0-1.2","3","4","4","3","4","3","4","1","4","4","4","5","4","4","5","5","4","4","4","5","1","2","2","2","1","2","1","1","2","1","0","1","1","0","0","0","1","0","1","1","0","1","0","1","5","1","2","2","1","2","1","2","1","1","2","772056166992973826","侯","46","","","","","","","","","","","","","","","","","","","true","11","1","moral","662","other","他人","","","","","","","","","","","","","","","","",""
"null","","null","html-keyboard-response","15","120750","0.0-6.0-1.0-2.0-0.3","3","4","4","3","4","3","4","1","4","4","4","5","4","4","5","5","4","4","4","5","1","2","2","2","1","2","1","1","2","1","0","1","1","0","0","0","1","0","1","1","0","1","0","1","5","1","2","2","1","2","1","2","1","1","2","772056166992973826","侯","46","","","","","","","","","","","","","","","","","","","","","","","","","","","","","","","","","","","","","","","","","",""
"596","<p style=""color:rgb(150, 250, 100); font-size: 35px;"">他</p>","i","categorize-html","16","121365","0.0-6.0-1.0-2.0-1.3","3","4","4","3","4","3","4","1","4","4","4","5","4","4","5","5","4","4","4","5","1","2","2","2","1","2","1","1","2","1","0","1","1","0","0","0","1","0","1","1","0","1","0","1","5","1","2","2","1","2","1","2","1","1","2","772056166992973826","侯","46","","","","","","","","","","","","","","","","","","","true","11","1","moral","596","other","他","","","","","","","","","","","","","","","","",""
"null","","null","html-keyboard-response","17","121628","0.0-6.0-1.0-2.0-0.4","3","4","4","3","4","3","4","1","4","4","4","5","4","4","5","5","4","4","4","5","1","2","2","2","1","2","1","1","2","1","0","1","1","0","0","0","1","0","1","1","0","1","0","1","5","1","2","2","1","2","1","2","1","1","2","772056166992973826","侯","46","","","","","","","","","","","","","","","","","","","","","","","","","","","","","","","","","","","","","","","","","",""
"635","<p style=""color:rgb(150, 250, 100); font-size: 35px;"">本人的</p>","e","categorize-html","18","122286","0.0-6.0-1.0-2.0-1.4","3","4","4","3","4","3","4","1","4","4","4","5","4","4","5","5","4","4","4","5","1","2","2","2","1","2","1","1","2","1","0","1","1","0","0","0","1","0","1","1","0","1","0","1","5","1","2","2","1","2","1","2","1","1","2","772056166992973826","侯","46","","","","","","","","","","","","","","","","","","","true","11","1","moral","635","self","本人的","","","","","","","","","","","","","","","","",""
"null","","null","html-keyboard-response","19","122547","0.0-6.0-1.0-2.0-0.5","3","4","4","3","4","3","4","1","4","4","4","5","4","4","5","5","4","4","4","5","1","2","2","2","1","2","1","1","2","1","0","1","1","0","0","0","1","0","1","1","0","1","0","1","5","1","2","2","1","2","1","2","1","1","2","772056166992973826","侯","46","","","","","","","","","","","","","","","","","","","","","","","","","","","","","","","","","","","","","","","","","",""
"586","<p style=""color:rgb(150, 250, 100); font-size: 35px;"">他的</p>","i","categorize-html","20","123152","0.0-6.0-1.0-2.0-1.5","3","4","4","3","4","3","4","1","4","4","4","5","4","4","5","5","4","4","4","5","1","2","2","2","1","2","1","1","2","1","0","1","1","0","0","0","1","0","1","1","0","1","0","1","5","1","2","2","1","2","1","2","1","1","2","772056166992973826","侯","46","","","","","","","","","","","","","","","","","","","true","11","1","moral","586","other","他的","","","","","","","","","","","","","","","","",""
"null","","null","html-keyboard-response","21","123405","0.0-6.0-1.0-2.0-0.6","3","4","4","3","4","3","4","1","4","4","4","5","4","4","5","5","4","4","4","5","1","2","2","2","1","2","1","1","2","1","0","1","1","0","0","0","1","0","1","1","0","1","0","1","5","1","2","2","1","2","1","2","1","1","2","772056166992973826","侯","46","","","","","","","","","","","","","","","","","","","","","","","","","","","","","","","","","","","","","","","","","",""
"815","<p style=""color:rgb(150, 250, 100); font-size: 35px;"">别人的</p>","i","categorize-html","22","124241","0.0-6.0-1.0-2.0-1.6","3","4","4","3","4","3","4","1","4","4","4","5","4","4","5","5","4","4","4","5","1","2","2","2","1","2","1","1","2","1","0","1","1","0","0","0","1","0","1","1","0","1","0","1","5","1","2","2","1","2","1","2","1","1","2","772056166992973826","侯","46","","","","","","","","","","","","","","","","","","","true","11","1","moral","815","other","别人的","","","","","","","","","","","","","","","","",""
"null","","null","html-keyboard-response","23","124497","0.0-6.0-1.0-2.0-0.7","3","4","4","3","4","3","4","1","4","4","4","5","4","4","5","5","4","4","4","5","1","2","2","2","1","2","1","1","2","1","0","1","1","0","0","0","1","0","1","1","0","1","0","1","5","1","2","2","1","2","1","2","1","1","2","772056166992973826","侯","46","","","","","","","","","","","","","","","","","","","","","","","","","","","","","","","","","","","","","","","","","",""
"570","<p style=""color:rgb(150, 250, 100); font-size: 35px;"">我</p>","e","categorize-html","24","125103","0.0-6.0-1.0-2.0-1.7","3","4","4","3","4","3","4","1","4","4","4","5","4","4","5","5","4","4","4","5","1","2","2","2","1","2","1","1","2","1","0","1","1","0","0","0","1","0","1","1","0","1","0","1","5","1","2","2","1","2","1","2","1","1","2","772056166992973826","侯","46","","","","","","","","","","","","","","","","","","","true","11","1","moral","570","self","我","","","","","","","","","","","","","","","","",""
"null","","null","html-keyboard-response","25","125360","0.0-6.0-1.0-2.0-0.8","3","4","4","3","4","3","4","1","4","4","4","5","4","4","5","5","4","4","4","5","1","2","2","2","1","2","1","1","2","1","0","1","1","0","0","0","1","0","1","1","0","1","0","1","5","1","2","2","1","2","1","2","1","1","2","772056166992973826","侯","46","","","","","","","","","","","","","","","","","","","","","","","","","","","","","","","","","","","","","","","","","",""
"673","<p style=""color:rgb(150, 250, 100); font-size: 35px;"">自己的</p>","e","categorize-html","26","126049","0.0-6.0-1.0-2.0-1.8","3","4","4","3","4","3","4","1","4","4","4","5","4","4","5","5","4","4","4","5","1","2","2","2","1","2","1","1","2","1","0","1","1","0","0","0","1","0","1","1","0","1","0","1","5","1","2","2","1","2","1","2","1","1","2","772056166992973826","侯","46","","","","","","","","","","","","","","","","","","","true","11","1","moral","673","self","自己的","","","","","","","","","","","","","","","","",""
"null","","null","html-keyboard-response","27","126304","0.0-6.0-1.0-2.0-0.9","3","4","4","3","4","3","4","1","4","4","4","5","4","4","5","5","4","4","4","5","1","2","2","2","1","2","1","1","2","1","0","1","1","0","0","0","1","0","1","1","0","1","0","1","5","1","2","2","1","2","1","2","1","1","2","772056166992973826","侯","46","","","","","","","","","","","","","","","","","","","","","","","","","","","","","","","","","","","","","","","","","",""
"542","<p style=""color:rgb(150, 250, 100); font-size: 35px;"">我的</p>","e","categorize-html","28","126868","0.0-6.0-1.0-2.0-1.9","3","4","4","3","4","3","4","1","4","4","4","5","4","4","5","5","4","4","4","5","1","2","2","2","1","2","1","1","2","1","0","1","1","0","0","0","1","0","1","1","0","1","0","1","5","1","2","2","1","2","1","2","1","1","2","772056166992973826","侯","46","","","","","","","","","","","","","","","","","","","true","11","1","moral","542","self","我的","","","","","","","","","","","","","","","","",""
"null","","null","html-keyboard-response","29","127124","0.0-6.0-1.0-2.0-0.10","3","4","4","3","4","3","4","1","4","4","4","5","4","4","5","5","4","4","4","5","1","2","2","2","1","2","1","1","2","1","0","1","1","0","0","0","1","0","1","1","0","1","0","1","5","1","2","2","1","2","1","2","1","1","2","772056166992973826","侯","46","","","","","","","","","","","","","","","","","","","","","","","","","","","","","","","","","","","","","","","","","",""
"586","<p style=""color:rgb(150, 250, 100); font-size: 35px;"">本人</p>","e","categorize-html","30","127734","0.0-6.0-1.0-2.0-1.10","3","4","4","3","4","3","4","1","4","4","4","5","4","4","5","5","4","4","4","5","1","2","2","2","1","2","1","1","2","1","0","1","1","0","0","0","1","0","1","1","0","1","0","1","5","1","2","2","1","2","1","2","1","1","2","772056166992973826","侯","46","","","","","","","","","","","","","","","","","","","true","11","1","moral","586","self","本人","","","","","","","","","","","","","","","","",""
"null","","null","html-keyboard-response","31","127989","0.0-6.0-1.0-2.0-0.11","3","4","4","3","4","3","4","1","4","4","4","5","4","4","5","5","4","4","4","5","1","2","2","2","1","2","1","1","2","1","0","1","1","0","0","0","1","0","1","1","0","1","0","1","5","1","2","2","1","2","1","2","1","1","2","772056166992973826","侯","46","","","","","","","","","","","","","","","","","","","","","","","","","","","","","","","","","","","","","","","","","",""
"570","<p style=""color:rgb(150, 250, 100); font-size: 35px;"">自己</p>","e","categorize-html","32","128582","0.0-6.0-1.0-2.0-1.11","3","4","4","3","4","3","4","1","4","4","4","5","4","4","5","5","4","4","4","5","1","2","2","2","1","2","1","1","2","1","0","1","1","0","0","0","1","0","1","1","0","1","0","1","5","1","2","2","1","2","1","2","1","1","2","772056166992973826","侯","46","","","","","","","","","","","","","","","","","","","true","11","1","moral","570","self","自己","","","","","","","","","","","","","","","","",""
"5267","
    <div class=""tag-bottom""><p>
    —— 任务2：对“消极”词和“积极”词分类 ——<p/>   
    <span style=""color:#78DCE8""><b>注意上方，类别标签和需要分类的词语都已经改变</b></span><p/>
    <span style=""color:#FFD866""><b>请根据上方标签的提示，尽可能正确并且快速地做出按键反应</b></span><p/>
    当按键错误时屏幕中会出现<span style=""color:red""> X </span>，需要按另一个键纠正才能继续<br/><p/>
    请把双手食指分别放在键盘的“E”键和“I”键上<p/>
    按<空格键>开始
    </p></div>"," ","html-keyboard-response","33","133863","0.0-6.0-1.0-3.0","3","4","4","3","4","3","4","1","4","4","4","5","4","4","5","5","4","4","4","5","1","2","2","2","1","2","1","1","2","1","0","1","1","0","0","0","1","0","1","1","0","1","0","1","5","1","2","2","1","2","1","2","1","1","2","772056166992973826","侯","46","","","","","","","","","","","","","","","","","","","","","","","","","","","","","","","","","","","","","","","","","",""
"null","","null","html-keyboard-response","34","134122","0.0-6.0-1.0-4.0-0.0","3","4","4","3","4","3","4","1","4","4","4","5","4","4","5","5","4","4","4","5","1","2","2","2","1","2","1","1","2","1","0","1","1","0","0","0","1","0","1","1","0","1","0","1","5","1","2","2","1","2","1","2","1","1","2","772056166992973826","侯","46","","","","","","","","","","","","","","","","","","","","","","","","","","","","","","","","","","","","","","","","","",""
"1799","<p style=""color:white; font-size: 35px;"">廉正</p>","i","categorize-html","35","135944","0.0-6.0-1.0-4.0-1.0","3","4","4","3","4","3","4","1","4","4","4","5","4","4","5","5","4","4","4","5","1","2","2","2","1","2","1","1","2","1","0","1","1","0","0","0","1","0","1","1","0","1","0","1","5","1","2","2","1","2","1","2","1","1","2","772056166992973826","侯","46","","","","","","","","","","","","","","","","","","","true","12","2","moral","1799","positive","廉正","","","","","","","","","","","","","","","","",""
"null","","null","html-keyboard-response","36","136202","0.0-6.0-1.0-4.0-0.1","3","4","4","3","4","3","4","1","4","4","4","5","4","4","5","5","4","4","4","5","1","2","2","2","1","2","1","1","2","1","0","1","1","0","0","0","1","0","1","1","0","1","0","1","5","1","2","2","1","2","1","2","1","1","2","772056166992973826","侯","46","","","","","","","","","","","","","","","","","","","","","","","","","","","","","","","","","","","","","","","","","",""
"825","<p style=""color:white; font-size: 35px;"">君子</p>","i","categorize-html","37","137053","0.0-6.0-1.0-4.0-1.1","3","4","4","3","4","3","4","1","4","4","4","5","4","4","5","5","4","4","4","5","1","2","2","2","1","2","1","1","2","1","0","1","1","0","0","0","1","0","1","1","0","1","0","1","5","1","2","2","1","2","1","2","1","1","2","772056166992973826","侯","46","","","","","","","","","","","","","","","","","","","true","12","2","moral","825","positive","君子","","","","","","","","","","","","","","","","",""
"null","","null","html-keyboard-response","38","137310","0.0-6.0-1.0-4.0-0.2","3","4","4","3","4","3","4","1","4","4","4","5","4","4","5","5","4","4","4","5","1","2","2","2","1","2","1","1","2","1","0","1","1","0","0","0","1","0","1","1","0","1","0","1","5","1","2","2","1","2","1","2","1","1","2","772056166992973826","侯","46","","","","","","","","","","","","","","","","","","","","","","","","","","","","","","","","","","","","","","","","","",""
"653","<p style=""color:white; font-size: 35px;"">善良</p>","i","categorize-html","39","137980","0.0-6.0-1.0-4.0-1.2","3","4","4","3","4","3","4","1","4","4","4","5","4","4","5","5","4","4","4","5","1","2","2","2","1","2","1","1","2","1","0","1","1","0","0","0","1","0","1","1","0","1","0","1","5","1","2","2","1","2","1","2","1","1","2","772056166992973826","侯","46","","","","","","","","","","","","","","","","","","","true","12","2","moral","653","positive","善良","","","","","","","","","","","","","","","","",""
"null","","null","html-keyboard-response","40","138236","0.0-6.0-1.0-4.0-0.3","3","4","4","3","4","3","4","1","4","4","4","5","4","4","5","5","4","4","4","5","1","2","2","2","1","2","1","1","2","1","0","1","1","0","0","0","1","0","1","1","0","1","0","1","5","1","2","2","1","2","1","2","1","1","2","772056166992973826","侯","46","","","","","","","","","","","","","","","","","","","","","","","","","","","","","","","","","","","","","","","","","",""
"870","<p style=""color:white; font-size: 35px;"">不仁</p>","e","categorize-html","41","139137","0.0-6.0-1.0-4.0-1.3","3","4","4","3","4","3","4","1","4","4","4","5","4","4","5","5","4","4","4","5","1","2","2","2","1","2","1","1","2","1","0","1","1","0","0","0","1","0","1","1","0","1","0","1","5","1","2","2","1","2","1","2","1","1","2","772056166992973826","侯","46","","","","","","","","","","","","","","","","","","","true","12","2","moral","870","negative","不仁","","","","","","","","","","","","","","","","",""
"null","","null","html-keyboard-response","42","139393","0.0-6.0-1.0-4.0-0.4","3","4","4","3","4","3","4","1","4","4","4","5","4","4","5","5","4","4","4","5","1","2","2","2","1","2","1","1","2","1","0","1","1","0","0","0","1","0","1","1","0","1","0","1","5","1","2","2","1","2","1","2","1","1","2","772056166992973826","侯","46","","","","","","","","","","","","","","","","","","","","","","","","","","","","","","","","","","","","","","","","","",""
"623","<p style=""color:white; font-size: 35px;"">不孝</p>","e","categorize-html","43","140042","0.0-6.0-1.0-4.0-1.4","3","4","4","3","4","3","4","1","4","4","4","5","4","4","5","5","4","4","4","5","1","2","2","2","1","2","1","1","2","1","0","1","1","0","0","0","1","0","1","1","0","1","0","1","5","1","2","2","1","2","1","2","1","1","2","772056166992973826","侯","46","","","","","","","","","","","","","","","","","","","true","12","2","moral","623","negative","不孝","","","","","","","","","","","","","","","","",""
"null","","null","html-keyboard-response","44","140301","0.0-6.0-1.0-4.0-0.5","3","4","4","3","4","3","4","1","4","4","4","5","4","4","5","5","4","4","4","5","1","2","2","2","1","2","1","1","2","1","0","1","1","0","0","0","1","0","1","1","0","1","0","1","5","1","2","2","1","2","1","2","1","1","2","772056166992973826","侯","46","","","","","","","","","","","","","","","","","","","","","","","","","","","","","","","","","","","","","","","","","",""
"732","<p style=""color:white; font-size: 35px;"">高尚</p>","i","categorize-html","45","141053","0.0-6.0-1.0-4.0-1.5","3","4","4","3","4","3","4","1","4","4","4","5","4","4","5","5","4","4","4","5","1","2","2","2","1","2","1","1","2","1","0","1","1","0","0","0","1","0","1","1","0","1","0","1","5","1","2","2","1","2","1","2","1","1","2","772056166992973826","侯","46","","","","","","","","","","","","","","","","","","","true","12","2","moral","732","positive","高尚","","","","","","","","","","","","","","","","",""
"null","","null","html-keyboard-response","46","141311","0.0-6.0-1.0-4.0-0.6","3","4","4","3","4","3","4","1","4","4","4","5","4","4","5","5","4","4","4","5","1","2","2","2","1","2","1","1","2","1","0","1","1","0","0","0","1","0","1","1","0","1","0","1","5","1","2","2","1","2","1","2","1","1","2","772056166992973826","侯","46","","","","","","","","","","","","","","","","","","","","","","","","","","","","","","","","","","","","","","","","","",""
"713","<p style=""color:white; font-size: 35px;"">诚信</p>","i","categorize-html","47","142052","0.0-6.0-1.0-4.0-1.6","3","4","4","3","4","3","4","1","4","4","4","5","4","4","5","5","4","4","4","5","1","2","2","2","1","2","1","1","2","1","0","1","1","0","0","0","1","0","1","1","0","1","0","1","5","1","2","2","1","2","1","2","1","1","2","772056166992973826","侯","46","","","","","","","","","","","","","","","","","","","true","12","2","moral","713","positive","诚信","","","","","","","","","","","","","","","","",""
"null","","null","html-keyboard-response","48","142314","0.0-6.0-1.0-4.0-0.7","3","4","4","3","4","3","4","1","4","4","4","5","4","4","5","5","4","4","4","5","1","2","2","2","1","2","1","1","2","1","0","1","1","0","0","0","1","0","1","1","0","1","0","1","5","1","2","2","1","2","1","2","1","1","2","772056166992973826","侯","46","","","","","","","","","","","","","","","","","","","","","","","","","","","","","","","","","","","","","","","","","",""
"746","<p style=""color:white; font-size: 35px;"">黑心</p>","e","categorize-html","49","143077","0.0-6.0-1.0-4.0-1.7","3","4","4","3","4","3","4","1","4","4","4","5","4","4","5","5","4","4","4","5","1","2","2","2","1","2","1","1","2","1","0","1","1","0","0","0","1","0","1","1","0","1","0","1","5","1","2","2","1","2","1","2","1","1","2","772056166992973826","侯","46","","","","","","","","","","","","","","","","","","","true","12","2","moral","746","negative","黑心","","","","","","","","","","","","","","","","",""
"null","","null","html-keyboard-response","50","143332","0.0-6.0-1.0-4.0-0.8","3","4","4","3","4","3","4","1","4","4","4","5","4","4","5","5","4","4","4","5","1","2","2","2","1","2","1","1","2","1","0","1","1","0","0","0","1","0","1","1","0","1","0","1","5","1","2","2","1","2","1","2","1","1","2","772056166992973826","侯","46","","","","","","","","","","","","","","","","","","","","","","","","","","","","","","","","","","","","","","","","","",""
"1088","<p style=""color:white; font-size: 35px;"">小人</p>","e","categorize-html","51","144449","0.0-6.0-1.0-4.0-1.8","3","4","4","3","4","3","4","1","4","4","4","5","4","4","5","5","4","4","4","5","1","2","2","2","1","2","1","1","2","1","0","1","1","0","0","0","1","0","1","1","0","1","0","1","5","1","2","2","1","2","1","2","1","1","2","772056166992973826","侯","46","","","","","","","","","","","","","","","","","","","true","12","2","moral","1088","negative","小人","","","","","","","","","","","","","","","","",""
"null","","null","html-keyboard-response","52","144706","0.0-6.0-1.0-4.0-0.9","3","4","4","3","4","3","4","1","4","4","4","5","4","4","5","5","4","4","4","5","1","2","2","2","1","2","1","1","2","1","0","1","1","0","0","0","1","0","1","1","0","1","0","1","5","1","2","2","1","2","1","2","1","1","2","772056166992973826","侯","46","","","","","","","","","","","","","","","","","","","","","","","","","","","","","","","","","","","","","","","","","",""
"662","<p style=""color:white; font-size: 35px;"">正直</p>","i","categorize-html","53","145394","0.0-6.0-1.0-4.0-1.9","3","4","4","3","4","3","4","1","4","4","4","5","4","4","5","5","4","4","4","5","1","2","2","2","1","2","1","1","2","1","0","1","1","0","0","0","1","0","1","1","0","1","0","1","5","1","2","2","1","2","1","2","1","1","2","772056166992973826","侯","46","","","","","","","","","","","","","","","","","","","true","12","2","moral","662","positive","正直","","","","","","","","","","","","","","","","",""
"null","","null","html-keyboard-response","54","145648","0.0-6.0-1.0-4.0-0.10","3","4","4","3","4","3","4","1","4","4","4","5","4","4","5","5","4","4","4","5","1","2","2","2","1","2","1","1","2","1","0","1","1","0","0","0","1","0","1","1","0","1","0","1","5","1","2","2","1","2","1","2","1","1","2","772056166992973826","侯","46","","","","","","","","","","","","","","","","","","","","","","","","","","","","","","","","","","","","","","","","","",""
"846","<p style=""color:white; font-size: 35px;"">缺德</p>","e","categorize-html","55","146517","0.0-6.0-1.0-4.0-1.10","3","4","4","3","4","3","4","1","4","4","4","5","4","4","5","5","4","4","4","5","1","2","2","2","1","2","1","1","2","1","0","1","1","0","0","0","1","0","1","1","0","1","0","1","5","1","2","2","1","2","1","2","1","1","2","772056166992973826","侯","46","","","","","","","","","","","","","","","","","","","true","12","2","moral","846","negative","缺德","","","","","","","","","","","","","","","","",""
"null","","null","html-keyboard-response","56","146774","0.0-6.0-1.0-4.0-0.11","3","4","4","3","4","3","4","1","4","4","4","5","4","4","5","5","4","4","4","5","1","2","2","2","1","2","1","1","2","1","0","1","1","0","0","0","1","0","1","1","0","1","0","1","5","1","2","2","1","2","1","2","1","1","2","772056166992973826","侯","46","","","","","","","","","","","","","","","","","","","","","","","","","","","","","","","","","","","","","","","","","",""
"693","<p style=""color:white; font-size: 35px;"">卑鄙</p>","e","categorize-html","57","147485","0.0-6.0-1.0-4.0-1.11","3","4","4","3","4","3","4","1","4","4","4","5","4","4","5","5","4","4","4","5","1","2","2","2","1","2","1","1","2","1","0","1","1","0","0","0","1","0","1","1","0","1","0","1","5","1","2","2","1","2","1","2","1","1","2","772056166992973826","侯","46","","","","","","","","","","","","","","","","","","","true","12","2","moral","693","negative","卑鄙","","","","","","","","","","","","","","","","",""
"5496","
    <div class=""tag-bottom""><p>
    —— 任务3：对“自我/消极”词和“他人/积极”词分类 ——<p/>
    <span style=""color:#78DCE8""><b>注意上方，之前的四类词语将混合在一起交替呈现</b></span><p/>
    <span style=""color:#FFD866""><b>请根据上方标签的提示，尽可能正确并且快速地做出按键反应</b></span><p/>
    当按键错误时屏幕中会出现<span style=""color:red""> X </span>，需要按另一个键纠正才能继续<br/><p/>
    请把双手食指分别放在键盘的“E”键和“I”键上<p/>
    按<空格键>开始
    </p></div>"," ","html-keyboard-response","58","152987","0.0-6.0-1.0-5.0","3","4","4","3","4","3","4","1","4","4","4","5","4","4","5","5","4","4","4","5","1","2","2","2","1","2","1","1","2","1","0","1","1","0","0","0","1","0","1","1","0","1","0","1","5","1","2","2","1","2","1","2","1","1","2","772056166992973826","侯","46","","","","","","","","","","","","","","","","","","","","","","","","","","","","","","","","","","","","","","","","","",""
"null","","null","html-keyboard-response","59","153243","0.0-6.0-1.0-6.0-0.0","3","4","4","3","4","3","4","1","4","4","4","5","4","4","5","5","4","4","4","5","1","2","2","2","1","2","1","1","2","1","0","1","1","0","0","0","1","0","1","1","0","1","0","1","5","1","2","2","1","2","1","2","1","1","2","772056166992973826","侯","46","","","","","","","","","","","","","","","","","","","","","","","","","","","","","","","","","","","","","","","","","",""
"1330","<p style=""color:rgb(150, 250, 100); font-size: 35px;"">本人的</p>","e","categorize-html","60","154601","0.0-6.0-1.0-6.0-1.0","3","4","4","3","4","3","4","1","4","4","4","5","4","4","5","5","4","4","4","5","1","2","2","2","1","2","1","1","2","1","0","1","1","0","0","0","1","0","1","1","0","1","0","1","5","1","2","2","1","2","1","2","1","1","2","772056166992973826","侯","46","","","","","","","","","","","","","","","","","","","true","13","3","moral","1330","self","本人的","","","","","","","","","","","","","","","","",""
"null","","null","html-keyboard-response","61","154859","0.0-6.0-1.0-6.0-0.1","3","4","4","3","4","3","4","1","4","4","4","5","4","4","5","5","4","4","4","5","1","2","2","2","1","2","1","1","2","1","0","1","1","0","0","0","1","0","1","1","0","1","0","1","5","1","2","2","1","2","1","2","1","1","2","772056166992973826","侯","46","","","","","","","","","","","","","","","","","","","","","","","","","","","","","","","","","","","","","","","","","",""
"1659","<p style=""color:white; font-size: 35px;"">小人</p>","e","categorize-html","62","156552","0.0-6.0-1.0-6.0-1.1","3","4","4","3","4","3","4","1","4","4","4","5","4","4","5","5","4","4","4","5","1","2","2","2","1","2","1","1","2","1","0","1","1","0","0","0","1","0","1","1","0","1","0","1","5","1","2","2","1","2","1","2","1","1","2","772056166992973826","侯","46","","","","","","","","","","","","","","","","","","","true","13","3","moral","1659","negative","小人","","","","","","","","","","","","","","","","",""
"null","","null","html-keyboard-response","63","156807","0.0-6.0-1.0-6.0-0.2","3","4","4","3","4","3","4","1","4","4","4","5","4","4","5","5","4","4","4","5","1","2","2","2","1","2","1","1","2","1","0","1","1","0","0","0","1","0","1","1","0","1","0","1","5","1","2","2","1","2","1","2","1","1","2","772056166992973826","侯","46","","","","","","","","","","","","","","","","","","","","","","","","","","","","","","","","","","","","","","","","","",""
"817","<p style=""color:rgb(150, 250, 100); font-size: 35px;"">别人</p>","i","categorize-html","64","157659","0.0-6.0-1.0-6.0-1.2","3","4","4","3","4","3","4","1","4","4","4","5","4","4","5","5","4","4","4","5","1","2","2","2","1","2","1","1","2","1","0","1","1","0","0","0","1","0","1","1","0","1","0","1","5","1","2","2","1","2","1","2","1","1","2","772056166992973826","侯","46","","","","","","","","","","","","","","","","","","","true","13","3","moral","817","other","别人","","","","","","","","","","","","","","","","",""
"null","","null","html-keyboard-response","65","157914","0.0-6.0-1.0-6.0-0.3","3","4","4","3","4","3","4","1","4","4","4","5","4","4","5","5","4","4","4","5","1","2","2","2","1","2","1","1","2","1","0","1","1","0","0","0","1","0","1","1","0","1","0","1","5","1","2","2","1","2","1","2","1","1","2","772056166992973826","侯","46","","","","","","","","","","","","","","","","","","","","","","","","","","","","","","","","","","","","","","","","","",""
"985","<p style=""color:white; font-size: 35px;"">廉正</p>","i","categorize-html","66","158922","0.0-6.0-1.0-6.0-1.3","3","4","4","3","4","3","4","1","4","4","4","5","4","4","5","5","4","4","4","5","1","2","2","2","1","2","1","1","2","1","0","1","1","0","0","0","1","0","1","1","0","1","0","1","5","1","2","2","1","2","1","2","1","1","2","772056166992973826","侯","46","","","","","","","","","","","","","","","","","","","true","13","3","moral","985","positive","廉正","","","","","","","","","","","","","","","","",""
"null","","null","html-keyboard-response","67","159184","0.0-6.0-1.0-6.0-0.4","3","4","4","3","4","3","4","1","4","4","4","5","4","4","5","5","4","4","4","5","1","2","2","2","1","2","1","1","2","1","0","1","1","0","0","0","1","0","1","1","0","1","0","1","5","1","2","2","1","2","1","2","1","1","2","772056166992973826","侯","46","","","","","","","","","","","","","","","","","","","","","","","","","","","","","","","","","","","","","","","","","",""
"775","<p style=""color:rgb(150, 250, 100); font-size: 35px;"">自己</p>","e","categorize-html","68","159984","0.0-6.0-1.0-6.0-1.4","3","4","4","3","4","3","4","1","4","4","4","5","4","4","5","5","4","4","4","5","1","2","2","2","1","2","1","1","2","1","0","1","1","0","0","0","1","0","1","1","0","1","0","1","5","1","2","2","1","2","1","2","1","1","2","772056166992973826","侯","46","","","","","","","","","","","","","","","","","","","true","13","3","moral","775","self","自己","","","","","","","","","","","","","","","","",""
"null","","null","html-keyboard-response","69","160242","0.0-6.0-1.0-6.0-0.5","3","4","4","3","4","3","4","1","4","4","4","5","4","4","5","5","4","4","4","5","1","2","2","2","1","2","1","1","2","1","0","1","1","0","0","0","1","0","1","1","0","1","0","1","5","1","2","2","1","2","1","2","1","1","2","772056166992973826","侯","46","","","","","","","","","","","","","","","","","","","","","","","","","","","","","","","","","","","","","","","","","",""
"1278","<p style=""color:white; font-size: 35px;"">诚信</p>","i","categorize-html","70","161549","0.0-6.0-1.0-6.0-1.5","3","4","4","3","4","3","4","1","4","4","4","5","4","4","5","5","4","4","4","5","1","2","2","2","1","2","1","1","2","1","0","1","1","0","0","0","1","0","1","1","0","1","0","1","5","1","2","2","1","2","1","2","1","1","2","772056166992973826","侯","46","","","","","","","","","","","","","","","","","","","true","13","3","moral","1278","positive","诚信","","","","","","","","","","","","","","","","",""
"null","","null","html-keyboard-response","71","161807","0.0-6.0-1.0-6.0-0.6","3","4","4","3","4","3","4","1","4","4","4","5","4","4","5","5","4","4","4","5","1","2","2","2","1","2","1","1","2","1","0","1","1","0","0","0","1","0","1","1","0","1","0","1","5","1","2","2","1","2","1","2","1","1","2","772056166992973826","侯","46","","","","","","","","","","","","","","","","","","","","","","","","","","","","","","","","","","","","","","","","","",""
"962","<p style=""color:rgb(150, 250, 100); font-size: 35px;"">别人的</p>","i","categorize-html","72","162798","0.0-6.0-1.0-6.0-1.6","3","4","4","3","4","3","4","1","4","4","4","5","4","4","5","5","4","4","4","5","1","2","2","2","1","2","1","1","2","1","0","1","1","0","0","0","1","0","1","1","0","1","0","1","5","1","2","2","1","2","1","2","1","1","2","772056166992973826","侯","46","","","","","","","","","","","","","","","","","","","true","13","3","moral","962","other","别人的","","","","","","","","","","","","","","","","",""
"null","","null","html-keyboard-response","73","163060","0.0-6.0-1.0-6.0-0.7","3","4","4","3","4","3","4","1","4","4","4","5","4","4","5","5","4","4","4","5","1","2","2","2","1","2","1","1","2","1","0","1","1","0","0","0","1","0","1","1","0","1","0","1","5","1","2","2","1","2","1","2","1","1","2","772056166992973826","侯","46","","","","","","","","","","","","","","","","","","","","","","","","","","","","","","","","","","","","","","","","","",""
"1406","<p style=""color:white; font-size: 35px;"">缺德</p>","e","categorize-html","74","164488","0.0-6.0-1.0-6.0-1.7","3","4","4","3","4","3","4","1","4","4","4","5","4","4","5","5","4","4","4","5","1","2","2","2","1","2","1","1","2","1","0","1","1","0","0","0","1","0","1","1","0","1","0","1","5","1","2","2","1","2","1","2","1","1","2","772056166992973826","侯","46","","","","","","","","","","","","","","","","","","","true","13","3","moral","1406","negative","缺德","","","","","","","","","","","","","","","","",""
"null","","null","html-keyboard-response","75","164743","0.0-6.0-1.0-6.0-0.8","3","4","4","3","4","3","4","1","4","4","4","5","4","4","5","5","4","4","4","5","1","2","2","2","1","2","1","1","2","1","0","1","1","0","0","0","1","0","1","1","0","1","0","1","5","1","2","2","1","2","1","2","1","1","2","772056166992973826","侯","46","","","","","","","","","","","","","","","","","","","","","","","","","","","","","","","","","","","","","","","","","",""
"1290","<p style=""color:rgb(150, 250, 100); font-size: 35px;"">我</p>","e","categorize-html","76","166066","0.0-6.0-1.0-6.0-1.8","3","4","4","3","4","3","4","1","4","4","4","5","4","4","5","5","4","4","4","5","1","2","2","2","1","2","1","1","2","1","0","1","1","0","0","0","1","0","1","1","0","1","0","1","5","1","2","2","1","2","1","2","1","1","2","772056166992973826","侯","46","","","","","","","","","","","","","","","","","","","true","13","3","moral","1290","self","我","","","","","","","","","","","","","","","","",""
"null","","null","html-keyboard-response","77","166324","0.0-6.0-1.0-6.0-0.9","3","4","4","3","4","3","4","1","4","4","4","5","4","4","5","5","4","4","4","5","1","2","2","2","1","2","1","1","2","1","0","1","1","0","0","0","1","0","1","1","0","1","0","1","5","1","2","2","1","2","1","2","1","1","2","772056166992973826","侯","46","","","","","","","","","","","","","","","","","","","","","","","","","","","","","","","","","","","","","","","","","",""
"1328","<p style=""color:white; font-size: 35px;"">善良</p>","i","categorize-html","78","167671","0.0-6.0-1.0-6.0-1.9","3","4","4","3","4","3","4","1","4","4","4","5","4","4","5","5","4","4","4","5","1","2","2","2","1","2","1","1","2","1","0","1","1","0","0","0","1","0","1","1","0","1","0","1","5","1","2","2","1","2","1","2","1","1","2","772056166992973826","侯","46","","","","","","","","","","","","","","","","","","","true","13","3","moral","1328","positive","善良","","","","","","","","","","","","","","","","",""
"null","","null","html-keyboard-response","79","167928","0.0-6.0-1.0-6.0-0.10","3","4","4","3","4","3","4","1","4","4","4","5","4","4","5","5","4","4","4","5","1","2","2","2","1","2","1","1","2","1","0","1","1","0","0","0","1","0","1","1","0","1","0","1","5","1","2","2","1","2","1","2","1","1","2","772056166992973826","侯","46","","","","","","","","","","","","","","","","","","","","","","","","","","","","","","","","","","","","","","","","","",""
"1063","<p style=""color:rgb(150, 250, 100); font-size: 35px;"">他人</p>","i","categorize-html","80","169008","0.0-6.0-1.0-6.0-1.10","3","4","4","3","4","3","4","1","4","4","4","5","4","4","5","5","4","4","4","5","1","2","2","2","1","2","1","1","2","1","0","1","1","0","0","0","1","0","1","1","0","1","0","1","5","1","2","2","1","2","1","2","1","1","2","772056166992973826","侯","46","","","","","","","","","","","","","","","","","","","true","13","3","moral","1063","other","他人","","","","","","","","","","","","","","","","",""
"null","","null","html-keyboard-response","81","169265","0.0-6.0-1.0-6.0-0.11","3","4","4","3","4","3","4","1","4","4","4","5","4","4","5","5","4","4","4","5","1","2","2","2","1","2","1","1","2","1","0","1","1","0","0","0","1","0","1","1","0","1","0","1","5","1","2","2","1","2","1","2","1","1","2","772056166992973826","侯","46","","","","","","","","","","","","","","","","","","","","","","","","","","","","","","","","","","","","","","","","","",""
"892","<p style=""color:white; font-size: 35px;"">不仁</p>","e","categorize-html","82","170176","0.0-6.0-1.0-6.0-1.11","3","4","4","3","4","3","4","1","4","4","4","5","4","4","5","5","4","4","4","5","1","2","2","2","1","2","1","1","2","1","0","1","1","0","0","0","1","0","1","1","0","1","0","1","5","1","2","2","1","2","1","2","1","1","2","772056166992973826","侯","46","","","","","","","","","","","","","","","","","","","true","13","3","moral","892","negative","不仁","","","","","","","","","","","","","","","","",""
"null","","null","html-keyboard-response","83","170432","0.0-6.0-1.0-6.0-0.12","3","4","4","3","4","3","4","1","4","4","4","5","4","4","5","5","4","4","4","5","1","2","2","2","1","2","1","1","2","1","0","1","1","0","0","0","1","0","1","1","0","1","0","1","5","1","2","2","1","2","1","2","1","1","2","772056166992973826","侯","46","","","","","","","","","","","","","","","","","","","","","","","","","","","","","","","","","","","","","","","","","",""
"903","<p style=""color:rgb(150, 250, 100); font-size: 35px;"">他</p>","i","categorize-html","84","171375","0.0-6.0-1.0-6.0-1.12","3","4","4","3","4","3","4","1","4","4","4","5","4","4","5","5","4","4","4","5","1","2","2","2","1","2","1","1","2","1","0","1","1","0","0","0","1","0","1","1","0","1","0","1","5","1","2","2","1","2","1","2","1","1","2","772056166992973826","侯","46","","","","","","","","","","","","","","","","","","","true","13","3","moral","903","other","他","","","","","","","","","","","","","","","","",""
"null","","null","html-keyboard-response","85","171632","0.0-6.0-1.0-6.0-0.13","3","4","4","3","4","3","4","1","4","4","4","5","4","4","5","5","4","4","4","5","1","2","2","2","1","2","1","1","2","1","0","1","1","0","0","0","1","0","1","1","0","1","0","1","5","1","2","2","1","2","1","2","1","1","2","772056166992973826","侯","46","","","","","","","","","","","","","","","","","","","","","","","","","","","","","","","","","","","","","","","","","",""
"1370","<p style=""color:white; font-size: 35px;"">黑心</p>","e","categorize-html","86","173031","0.0-6.0-1.0-6.0-1.13","3","4","4","3","4","3","4","1","4","4","4","5","4","4","5","5","4","4","4","5","1","2","2","2","1","2","1","1","2","1","0","1","1","0","0","0","1","0","1","1","0","1","0","1","5","1","2","2","1","2","1","2","1","1","2","772056166992973826","侯","46","","","","","","","","","","","","","","","","","","","true","13","3","moral","1370","negative","黑心","","","","","","","","","","","","","","","","",""
"null","","null","html-keyboard-response","87","173288","0.0-6.0-1.0-6.0-0.14","3","4","4","3","4","3","4","1","4","4","4","5","4","4","5","5","4","4","4","5","1","2","2","2","1","2","1","1","2","1","0","1","1","0","0","0","1","0","1","1","0","1","0","1","5","1","2","2","1","2","1","2","1","1","2","772056166992973826","侯","46","","","","","","","","","","","","","","","","","","","","","","","","","","","","","","","","","","","","","","","","","",""
"744","<p style=""color:rgb(150, 250, 100); font-size: 35px;"">自己的</p>","e","categorize-html","88","174064","0.0-6.0-1.0-6.0-1.14","3","4","4","3","4","3","4","1","4","4","4","5","4","4","5","5","4","4","4","5","1","2","2","2","1","2","1","1","2","1","0","1","1","0","0","0","1","0","1","1","0","1","0","1","5","1","2","2","1","2","1","2","1","1","2","772056166992973826","侯","46","","","","","","","","","","","","","","","","","","","true","13","3","moral","744","self","自己的","","","","","","","","","","","","","","","","",""
"null","","null","html-keyboard-response","89","174320","0.0-6.0-1.0-6.0-0.15","3","4","4","3","4","3","4","1","4","4","4","5","4","4","5","5","4","4","4","5","1","2","2","2","1","2","1","1","2","1","0","1","1","0","0","0","1","0","1","1","0","1","0","1","5","1","2","2","1","2","1","2","1","1","2","772056166992973826","侯","46","","","","","","","","","","","","","","","","","","","","","","","","","","","","","","","","","","","","","","","","","",""
"933","<p style=""color:white; font-size: 35px;"">正直</p>","i","categorize-html","90","175281","0.0-6.0-1.0-6.0-1.15","3","4","4","3","4","3","4","1","4","4","4","5","4","4","5","5","4","4","4","5","1","2","2","2","1","2","1","1","2","1","0","1","1","0","0","0","1","0","1","1","0","1","0","1","5","1","2","2","1","2","1","2","1","1","2","772056166992973826","侯","46","","","","","","","","","","","","","","","","","","","true","13","3","moral","933","positive","正直","","","","","","","","","","","","","","","","",""
"null","","null","html-keyboard-response","91","175537","0.0-6.0-1.0-6.0-0.16","3","4","4","3","4","3","4","1","4","4","4","5","4","4","5","5","4","4","4","5","1","2","2","2","1","2","1","1","2","1","0","1","1","0","0","0","1","0","1","1","0","1","0","1","5","1","2","2","1","2","1","2","1","1","2","772056166992973826","侯","46","","","","","","","","","","","","","","","","","","","","","","","","","","","","","","","","","","","","","","","","","",""
"1115","<p style=""color:rgb(150, 250, 100); font-size: 35px;"">本人</p>","e","categorize-html","92","176679","0.0-6.0-1.0-6.0-1.16","3","4","4","3","4","3","4","1","4","4","4","5","4","4","5","5","4","4","4","5","1","2","2","2","1","2","1","1","2","1","0","1","1","0","0","0","1","0","1","1","0","1","0","1","5","1","2","2","1","2","1","2","1","1","2","772056166992973826","侯","46","","","","","","","","","","","","","","","","","","","true","13","3","moral","1115","self","本人","","","","","","","","","","","","","","","","",""
"null","","null","html-keyboard-response","93","176940","0.0-6.0-1.0-6.0-0.17","3","4","4","3","4","3","4","1","4","4","4","5","4","4","5","5","4","4","4","5","1","2","2","2","1","2","1","1","2","1","0","1","1","0","0","0","1","0","1","1","0","1","0","1","5","1","2","2","1","2","1","2","1","1","2","772056166992973826","侯","46","","","","","","","","","","","","","","","","","","","","","","","","","","","","","","","","","","","","","","","","","",""
"1365","<p style=""color:white; font-size: 35px;"">不孝</p>","i","categorize-html","94","181249","0.0-6.0-1.0-6.0-1.17","3","4","4","3","4","3","4","1","4","4","4","5","4","4","5","5","4","4","4","5","1","2","2","2","1","2","1","1","2","1","0","1","1","0","0","0","1","0","1","1","0","1","0","1","5","1","2","2","1","2","1","2","1","1","2","772056166992973826","侯","46","","","","","","","","","","","","","","","","","","","false","13","3","moral","1653.8695652173913","negative","不孝","","","","","","","","","","","","","","","","",""
"null","","null","html-keyboard-response","95","181508","0.0-6.0-1.0-6.0-0.18","3","4","4","3","4","3","4","1","4","4","4","5","4","4","5","5","4","4","4","5","1","2","2","2","1","2","1","1","2","1","0","1","1","0","0","0","1","0","1","1","0","1","0","1","5","1","2","2","1","2","1","2","1","1","2","772056166992973826","侯","46","","","","","","","","","","","","","","","","","","","","","","","","","","","","","","","","","","","","","","","","","",""
"980","<p style=""color:rgb(150, 250, 100); font-size: 35px;"">他人的</p>","i","categorize-html","96","182519","0.0-6.0-1.0-6.0-1.18","3","4","4","3","4","3","4","1","4","4","4","5","4","4","5","5","4","4","4","5","1","2","2","2","1","2","1","1","2","1","0","1","1","0","0","0","1","0","1","1","0","1","0","1","5","1","2","2","1","2","1","2","1","1","2","772056166992973826","侯","46","","","","","","","","","","","","","","","","","","","true","13","3","moral","980","other","他人的","","","","","","","","","","","","","","","","",""
"null","","null","html-keyboard-response","97","182778","0.0-6.0-1.0-6.0-0.19","3","4","4","3","4","3","4","1","4","4","4","5","4","4","5","5","4","4","4","5","1","2","2","2","1","2","1","1","2","1","0","1","1","0","0","0","1","0","1","1","0","1","0","1","5","1","2","2","1","2","1","2","1","1","2","772056166992973826","侯","46","","","","","","","","","","","","","","","","","","","","","","","","","","","","","","","","","","","","","","","","","",""
"976","<p style=""color:white; font-size: 35px;"">高尚</p>","i","categorize-html","98","183788","0.0-6.0-1.0-6.0-1.19","3","4","4","3","4","3","4","1","4","4","4","5","4","4","5","5","4","4","4","5","1","2","2","2","1","2","1","1","2","1","0","1","1","0","0","0","1","0","1","1","0","1","0","1","5","1","2","2","1","2","1","2","1","1","2","772056166992973826","侯","46","","","","","","","","","","","","","","","","","","","true","13","3","moral","976","positive","高尚","","","","","","","","","","","","","","","","",""
"null","","null","html-keyboard-response","99","184045","0.0-6.0-1.0-6.0-0.20","3","4","4","3","4","3","4","1","4","4","4","5","4","4","5","5","4","4","4","5","1","2","2","2","1","2","1","1","2","1","0","1","1","0","0","0","1","0","1","1","0","1","0","1","5","1","2","2","1","2","1","2","1","1","2","772056166992973826","侯","46","","","","","","","","","","","","","","","","","","","","","","","","","","","","","","","","","","","","","","","","","",""
"926","<p style=""color:rgb(150, 250, 100); font-size: 35px;"">他的</p>","i","categorize-html","100","184991","0.0-6.0-1.0-6.0-1.20","3","4","4","3","4","3","4","1","4","4","4","5","4","4","5","5","4","4","4","5","1","2","2","2","1","2","1","1","2","1","0","1","1","0","0","0","1","0","1","1","0","1","0","1","5","1","2","2","1","2","1","2","1","1","2","772056166992973826","侯","46","","","","","","","","","","","","","","","","","","","true","13","3","moral","926","other","他的","","","","","","","","","","","","","","","","",""
"null","","null","html-keyboard-response","101","185249","0.0-6.0-1.0-6.0-0.21","3","4","4","3","4","3","4","1","4","4","4","5","4","4","5","5","4","4","4","5","1","2","2","2","1","2","1","1","2","1","0","1","1","0","0","0","1","0","1","1","0","1","0","1","5","1","2","2","1","2","1","2","1","1","2","772056166992973826","侯","46","","","","","","","","","","","","","","","","","","","","","","","","","","","","","","","","","","","","","","","","","",""
"741","<p style=""color:white; font-size: 35px;"">君子</p>","i","categorize-html","102","186024","0.0-6.0-1.0-6.0-1.21","3","4","4","3","4","3","4","1","4","4","4","5","4","4","5","5","4","4","4","5","1","2","2","2","1","2","1","1","2","1","0","1","1","0","0","0","1","0","1","1","0","1","0","1","5","1","2","2","1","2","1","2","1","1","2","772056166992973826","侯","46","","","","","","","","","","","","","","","","","","","true","13","3","moral","741","positive","君子","","","","","","","","","","","","","","","","",""
"null","","null","html-keyboard-response","103","186279","0.0-6.0-1.0-6.0-0.22","3","4","4","3","4","3","4","1","4","4","4","5","4","4","5","5","4","4","4","5","1","2","2","2","1","2","1","1","2","1","0","1","1","0","0","0","1","0","1","1","0","1","0","1","5","1","2","2","1","2","1","2","1","1","2","772056166992973826","侯","46","","","","","","","","","","","","","","","","","","","","","","","","","","","","","","","","","","","","","","","","","",""
"820","<p style=""color:rgb(150, 250, 100); font-size: 35px;"">我的</p>","e","categorize-html","104","187138","0.0-6.0-1.0-6.0-1.22","3","4","4","3","4","3","4","1","4","4","4","5","4","4","5","5","4","4","4","5","1","2","2","2","1","2","1","1","2","1","0","1","1","0","0","0","1","0","1","1","0","1","0","1","5","1","2","2","1","2","1","2","1","1","2","772056166992973826","侯","46","","","","","","","","","","","","","","","","","","","true","13","3","moral","820","self","我的","","","","","","","","","","","","","","","","",""
"null","","null","html-keyboard-response","105","187398","0.0-6.0-1.0-6.0-0.23","3","4","4","3","4","3","4","1","4","4","4","5","4","4","5","5","4","4","4","5","1","2","2","2","1","2","1","1","2","1","0","1","1","0","0","0","1","0","1","1","0","1","0","1","5","1","2","2","1","2","1","2","1","1","2","772056166992973826","侯","46","","","","","","","","","","","","","","","","","","","","","","","","","","","","","","","","","","","","","","","","","",""
"946","<p style=""color:white; font-size: 35px;"">卑鄙</p>","e","categorize-html","106","188374","0.0-6.0-1.0-6.0-1.23","3","4","4","3","4","3","4","1","4","4","4","5","4","4","5","5","4","4","4","5","1","2","2","2","1","2","1","1","2","1","0","1","1","0","0","0","1","0","1","1","0","1","0","1","5","1","2","2","1","2","1","2","1","1","2","772056166992973826","侯","46","","","","","","","","","","","","","","","","","","","true","13","3","moral","946","negative","卑鄙","","","","","","","","","","","","","","","","",""
"18864","
    <div class=""tag-bottom""><p>
    —— 任务4：对“自我/消极”词和“他人/积极”词分类 ——<p/>
    <span style=""color:#78DCE8""><b>与刚才的任务完全相同，请再次对这四类词语分类</b></span><p/>
    <span style=""color:#FFD866""><b>请根据上方标签的提示，尽可能正确并且快速地做出按键反应</b></span><p/>
    当按键错误时屏幕中会出现<span style=""color:red""> X </span>，需要按另一个键纠正才能继续<br/><p/>
    请把双手食指分别放在键盘的“E”键和“I”键上<p/>
    按<空格键>开始
    </p></div>"," ","html-keyboard-response","107","207246","0.0-6.0-1.0-7.0","3","4","4","3","4","3","4","1","4","4","4","5","4","4","5","5","4","4","4","5","1","2","2","2","1","2","1","1","2","1","0","1","1","0","0","0","1","0","1","1","0","1","0","1","5","1","2","2","1","2","1","2","1","1","2","772056166992973826","侯","46","","","","","","","","","","","","","","","","","","","","","","","","","","","","","","","","","","","","","","","","","",""
"null","","null","html-keyboard-response","108","207502","0.0-6.0-1.0-8.0-0.0","3","4","4","3","4","3","4","1","4","4","4","5","4","4","5","5","4","4","4","5","1","2","2","2","1","2","1","1","2","1","0","1","1","0","0","0","1","0","1","1","0","1","0","1","5","1","2","2","1","2","1","2","1","1","2","772056166992973826","侯","46","","","","","","","","","","","","","","","","","","","","","","","","","","","","","","","","","","","","","","","","","",""
"953","<p style=""color:rgb(150, 250, 100); font-size: 35px;"">他人</p>","i","categorize-html","109","208489","0.0-6.0-1.0-8.0-1.0","3","4","4","3","4","3","4","1","4","4","4","5","4","4","5","5","4","4","4","5","1","2","2","2","1","2","1","1","2","1","0","1","1","0","0","0","1","0","1","1","0","1","0","1","5","1","2","2","1","2","1","2","1","1","2","772056166992973826","侯","46","","","","","","","","","","","","","","","","","","","true","14","4","moral","953","other","他人","","","","","","","","","","","","","","","","",""
"null","","null","html-keyboard-response","110","208750","0.0-6.0-1.0-8.0-0.1","3","4","4","3","4","3","4","1","4","4","4","5","4","4","5","5","4","4","4","5","1","2","2","2","1","2","1","1","2","1","0","1","1","0","0","0","1","0","1","1","0","1","0","1","5","1","2","2","1","2","1","2","1","1","2","772056166992973826","侯","46","","","","","","","","","","","","","","","","","","","","","","","","","","","","","","","","","","","","","","","","","",""
"960","<p style=""color:white; font-size: 35px;"">诚信</p>","i","categorize-html","111","209733","0.0-6.0-1.0-8.0-1.1","3","4","4","3","4","3","4","1","4","4","4","5","4","4","5","5","4","4","4","5","1","2","2","2","1","2","1","1","2","1","0","1","1","0","0","0","1","0","1","1","0","1","0","1","5","1","2","2","1","2","1","2","1","1","2","772056166992973826","侯","46","","","","","","","","","","","","","","","","","","","true","14","4","moral","960","positive","诚信","","","","","","","","","","","","","","","","",""
"null","","null","html-keyboard-response","112","209990","0.0-6.0-1.0-8.0-0.2","3","4","4","3","4","3","4","1","4","4","4","5","4","4","5","5","4","4","4","5","1","2","2","2","1","2","1","1","2","1","0","1","1","0","0","0","1","0","1","1","0","1","0","1","5","1","2","2","1","2","1","2","1","1","2","772056166992973826","侯","46","","","","","","","","","","","","","","","","","","","","","","","","","","","","","","","","","","","","","","","","","",""
"841","<p style=""color:rgb(150, 250, 100); font-size: 35px;"">我的</p>","e","categorize-html","113","210865","0.0-6.0-1.0-8.0-1.2","3","4","4","3","4","3","4","1","4","4","4","5","4","4","5","5","4","4","4","5","1","2","2","2","1","2","1","1","2","1","0","1","1","0","0","0","1","0","1","1","0","1","0","1","5","1","2","2","1","2","1","2","1","1","2","772056166992973826","侯","46","","","","","","","","","","","","","","","","","","","true","14","4","moral","841","self","我的","","","","","","","","","","","","","","","","",""
"null","","null","html-keyboard-response","114","211124","0.0-6.0-1.0-8.0-0.3","3","4","4","3","4","3","4","1","4","4","4","5","4","4","5","5","4","4","4","5","1","2","2","2","1","2","1","1","2","1","0","1","1","0","0","0","1","0","1","1","0","1","0","1","5","1","2","2","1","2","1","2","1","1","2","772056166992973826","侯","46","","","","","","","","","","","","","","","","","","","","","","","","","","","","","","","","","","","","","","","","","",""
"1644","<p style=""color:white; font-size: 35px;"">卑鄙</p>","e","categorize-html","115","212789","0.0-6.0-1.0-8.0-1.3","3","4","4","3","4","3","4","1","4","4","4","5","4","4","5","5","4","4","4","5","1","2","2","2","1","2","1","1","2","1","0","1","1","0","0","0","1","0","1","1","0","1","0","1","5","1","2","2","1","2","1","2","1","1","2","772056166992973826","侯","46","","","","","","","","","","","","","","","","","","","true","14","4","moral","1644","negative","卑鄙","","","","","","","","","","","","","","","","",""
"null","","null","html-keyboard-response","116","213052","0.0-6.0-1.0-8.0-0.4","3","4","4","3","4","3","4","1","4","4","4","5","4","4","5","5","4","4","4","5","1","2","2","2","1","2","1","1","2","1","0","1","1","0","0","0","1","0","1","1","0","1","0","1","5","1","2","2","1","2","1","2","1","1","2","772056166992973826","侯","46","","","","","","","","","","","","","","","","","","","","","","","","","","","","","","","","","","","","","","","","","",""
"764","<p style=""color:rgb(150, 250, 100); font-size: 35px;"">自己的</p>","e","categorize-html","117","213840","0.0-6.0-1.0-8.0-1.4","3","4","4","3","4","3","4","1","4","4","4","5","4","4","5","5","4","4","4","5","1","2","2","2","1","2","1","1","2","1","0","1","1","0","0","0","1","0","1","1","0","1","0","1","5","1","2","2","1","2","1","2","1","1","2","772056166992973826","侯","46","","","","","","","","","","","","","","","","","","","true","14","4","moral","764","self","自己的","","","","","","","","","","","","","","","","",""
"null","","null","html-keyboard-response","118","214096","0.0-6.0-1.0-8.0-0.5","3","4","4","3","4","3","4","1","4","4","4","5","4","4","5","5","4","4","4","5","1","2","2","2","1","2","1","1","2","1","0","1","1","0","0","0","1","0","1","1","0","1","0","1","5","1","2","2","1","2","1","2","1","1","2","772056166992973826","侯","46","","","","","","","","","","","","","","","","","","","","","","","","","","","","","","","","","","","","","","","","","",""
"1221","<p style=""color:white; font-size: 35px;"">黑心</p>","e","categorize-html","119","215351","0.0-6.0-1.0-8.0-1.5","3","4","4","3","4","3","4","1","4","4","4","5","4","4","5","5","4","4","4","5","1","2","2","2","1","2","1","1","2","1","0","1","1","0","0","0","1","0","1","1","0","1","0","1","5","1","2","2","1","2","1","2","1","1","2","772056166992973826","侯","46","","","","","","","","","","","","","","","","","","","true","14","4","moral","1221","negative","黑心","","","","","","","","","","","","","","","","",""
"null","","null","html-keyboard-response","120","215606","0.0-6.0-1.0-8.0-0.6","3","4","4","3","4","3","4","1","4","4","4","5","4","4","5","5","4","4","4","5","1","2","2","2","1","2","1","1","2","1","0","1","1","0","0","0","1","0","1","1","0","1","0","1","5","1","2","2","1","2","1","2","1","1","2","772056166992973826","侯","46","","","","","","","","","","","","","","","","","","","","","","","","","","","","","","","","","","","","","","","","","",""
"765","<p style=""color:rgb(150, 250, 100); font-size: 35px;"">他的</p>","i","categorize-html","121","216418","0.0-6.0-1.0-8.0-1.6","3","4","4","3","4","3","4","1","4","4","4","5","4","4","5","5","4","4","4","5","1","2","2","2","1","2","1","1","2","1","0","1","1","0","0","0","1","0","1","1","0","1","0","1","5","1","2","2","1","2","1","2","1","1","2","772056166992973826","侯","46","","","","","","","","","","","","","","","","","","","true","14","4","moral","765","other","他的","","","","","","","","","","","","","","","","",""
"null","","null","html-keyboard-response","122","216672","0.0-6.0-1.0-8.0-0.7","3","4","4","3","4","3","4","1","4","4","4","5","4","4","5","5","4","4","4","5","1","2","2","2","1","2","1","1","2","1","0","1","1","0","0","0","1","0","1","1","0","1","0","1","5","1","2","2","1","2","1","2","1","1","2","772056166992973826","侯","46","","","","","","","","","","","","","","","","","","","","","","","","","","","","","","","","","","","","","","","","","",""
"1284","<p style=""color:white; font-size: 35px;"">善良</p>","i","categorize-html","123","217988","0.0-6.0-1.0-8.0-1.7","3","4","4","3","4","3","4","1","4","4","4","5","4","4","5","5","4","4","4","5","1","2","2","2","1","2","1","1","2","1","0","1","1","0","0","0","1","0","1","1","0","1","0","1","5","1","2","2","1","2","1","2","1","1","2","772056166992973826","侯","46","","","","","","","","","","","","","","","","","","","true","14","4","moral","1284","positive","善良","","","","","","","","","","","","","","","","",""
"null","","null","html-keyboard-response","124","218244","0.0-6.0-1.0-8.0-0.8","3","4","4","3","4","3","4","1","4","4","4","5","4","4","5","5","4","4","4","5","1","2","2","2","1","2","1","1","2","1","0","1","1","0","0","0","1","0","1","1","0","1","0","1","5","1","2","2","1","2","1","2","1","1","2","772056166992973826","侯","46","","","","","","","","","","","","","","","","","","","","","","","","","","","","","","","","","","","","","","","","","",""
"898","<p style=""color:rgb(150, 250, 100); font-size: 35px;"">我</p>","e","categorize-html","125","219179","0.0-6.0-1.0-8.0-1.8","3","4","4","3","4","3","4","1","4","4","4","5","4","4","5","5","4","4","4","5","1","2","2","2","1","2","1","1","2","1","0","1","1","0","0","0","1","0","1","1","0","1","0","1","5","1","2","2","1","2","1","2","1","1","2","772056166992973826","侯","46","","","","","","","","","","","","","","","","","","","true","14","4","moral","898","self","我","","","","","","","","","","","","","","","","",""
"null","","null","html-keyboard-response","126","219435","0.0-6.0-1.0-8.0-0.9","3","4","4","3","4","3","4","1","4","4","4","5","4","4","5","5","4","4","4","5","1","2","2","2","1","2","1","1","2","1","0","1","1","0","0","0","1","0","1","1","0","1","0","1","5","1","2","2","1","2","1","2","1","1","2","772056166992973826","侯","46","","","","","","","","","","","","","","","","","","","","","","","","","","","","","","","","","","","","","","","","","",""
"1248","<p style=""color:white; font-size: 35px;"">不仁</p>","e","categorize-html","127","220708","0.0-6.0-1.0-8.0-1.9","3","4","4","3","4","3","4","1","4","4","4","5","4","4","5","5","4","4","4","5","1","2","2","2","1","2","1","1","2","1","0","1","1","0","0","0","1","0","1","1","0","1","0","1","5","1","2","2","1","2","1","2","1","1","2","772056166992973826","侯","46","","","","","","","","","","","","","","","","","","","true","14","4","moral","1248","negative","不仁","","","","","","","","","","","","","","","","",""
"null","","null","html-keyboard-response","128","220965","0.0-6.0-1.0-8.0-0.10","3","4","4","3","4","3","4","1","4","4","4","5","4","4","5","5","4","4","4","5","1","2","2","2","1","2","1","1","2","1","0","1","1","0","0","0","1","0","1","1","0","1","0","1","5","1","2","2","1","2","1","2","1","1","2","772056166992973826","侯","46","","","","","","","","","","","","","","","","","","","","","","","","","","","","","","","","","","","","","","","","","",""
"894","<p style=""color:rgb(150, 250, 100); font-size: 35px;"">别人</p>","i","categorize-html","129","221887","0.0-6.0-1.0-8.0-1.10","3","4","4","3","4","3","4","1","4","4","4","5","4","4","5","5","4","4","4","5","1","2","2","2","1","2","1","1","2","1","0","1","1","0","0","0","1","0","1","1","0","1","0","1","5","1","2","2","1","2","1","2","1","1","2","772056166992973826","侯","46","","","","","","","","","","","","","","","","","","","true","14","4","moral","894","other","别人","","","","","","","","","","","","","","","","",""
"null","","null","html-keyboard-response","130","222144","0.0-6.0-1.0-8.0-0.11","3","4","4","3","4","3","4","1","4","4","4","5","4","4","5","5","4","4","4","5","1","2","2","2","1","2","1","1","2","1","0","1","1","0","0","0","1","0","1","1","0","1","0","1","5","1","2","2","1","2","1","2","1","1","2","772056166992973826","侯","46","","","","","","","","","","","","","","","","","","","","","","","","","","","","","","","","","","","","","","","","","",""
"1963","<p style=""color:white; font-size: 35px;"">正直</p>","i","categorize-html","131","224134","0.0-6.0-1.0-8.0-1.11","3","4","4","3","4","3","4","1","4","4","4","5","4","4","5","5","4","4","4","5","1","2","2","2","1","2","1","1","2","1","0","1","1","0","0","0","1","0","1","1","0","1","0","1","5","1","2","2","1","2","1","2","1","1","2","772056166992973826","侯","46","","","","","","","","","","","","","","","","","","","true","14","4","moral","1963","positive","正直","","","","","","","","","","","","","","","","",""
"null","","null","html-keyboard-response","132","224391","0.0-6.0-1.0-8.0-0.12","3","4","4","3","4","3","4","1","4","4","4","5","4","4","5","5","4","4","4","5","1","2","2","2","1","2","1","1","2","1","0","1","1","0","0","0","1","0","1","1","0","1","0","1","5","1","2","2","1","2","1","2","1","1","2","772056166992973826","侯","46","","","","","","","","","","","","","","","","","","","","","","","","","","","","","","","","","","","","","","","","","",""
"720","<p style=""color:rgb(150, 250, 100); font-size: 35px;"">他人</p>","i","categorize-html","133","225134","0.0-6.0-1.0-8.0-1.12","3","4","4","3","4","3","4","1","4","4","4","5","4","4","5","5","4","4","4","5","1","2","2","2","1","2","1","1","2","1","0","1","1","0","0","0","1","0","1","1","0","1","0","1","5","1","2","2","1","2","1","2","1","1","2","772056166992973826","侯","46","","","","","","","","","","","","","","","","","","","true","14","4","moral","720","other","他人","","","","","","","","","","","","","","","","",""
"null","","null","html-keyboard-response","134","225391","0.0-6.0-1.0-8.0-0.13","3","4","4","3","4","3","4","1","4","4","4","5","4","4","5","5","4","4","4","5","1","2","2","2","1","2","1","1","2","1","0","1","1","0","0","0","1","0","1","1","0","1","0","1","5","1","2","2","1","2","1","2","1","1","2","772056166992973826","侯","46","","","","","","","","","","","","","","","","","","","","","","","","","","","","","","","","","","","","","","","","","",""
"1070","<p style=""color:white; font-size: 35px;"">黑心</p>","e","categorize-html","135","226495","0.0-6.0-1.0-8.0-1.13","3","4","4","3","4","3","4","1","4","4","4","5","4","4","5","5","4","4","4","5","1","2","2","2","1","2","1","1","2","1","0","1","1","0","0","0","1","0","1","1","0","1","0","1","5","1","2","2","1","2","1","2","1","1","2","772056166992973826","侯","46","","","","","","","","","","","","","","","","","","","true","14","4","moral","1070","negative","黑心","","","","","","","","","","","","","","","","",""
"null","","null","html-keyboard-response","136","226754","0.0-6.0-1.0-8.0-0.14","3","4","4","3","4","3","4","1","4","4","4","5","4","4","5","5","4","4","4","5","1","2","2","2","1","2","1","1","2","1","0","1","1","0","0","0","1","0","1","1","0","1","0","1","5","1","2","2","1","2","1","2","1","1","2","772056166992973826","侯","46","","","","","","","","","","","","","","","","","","","","","","","","","","","","","","","","","","","","","","","","","",""
"1778","<p style=""color:rgb(150, 250, 100); font-size: 35px;"">本人</p>","e","categorize-html","137","228564","0.0-6.0-1.0-8.0-1.14","3","4","4","3","4","3","4","1","4","4","4","5","4","4","5","5","4","4","4","5","1","2","2","2","1","2","1","1","2","1","0","1","1","0","0","0","1","0","1","1","0","1","0","1","5","1","2","2","1","2","1","2","1","1","2","772056166992973826","侯","46","","","","","","","","","","","","","","","","","","","true","14","4","moral","1778","self","本人","","","","","","","","","","","","","","","","",""
"null","","null","html-keyboard-response","138","228821","0.0-6.0-1.0-8.0-0.15","3","4","4","3","4","3","4","1","4","4","4","5","4","4","5","5","4","4","4","5","1","2","2","2","1","2","1","1","2","1","0","1","1","0","0","0","1","0","1","1","0","1","0","1","5","1","2","2","1","2","1","2","1","1","2","772056166992973826","侯","46","","","","","","","","","","","","","","","","","","","","","","","","","","","","","","","","","","","","","","","","","",""
"1568","<p style=""color:white; font-size: 35px;"">高尚</p>","i","categorize-html","139","230410","0.0-6.0-1.0-8.0-1.15","3","4","4","3","4","3","4","1","4","4","4","5","4","4","5","5","4","4","4","5","1","2","2","2","1","2","1","1","2","1","0","1","1","0","0","0","1","0","1","1","0","1","0","1","5","1","2","2","1","2","1","2","1","1","2","772056166992973826","侯","46","","","","","","","","","","","","","","","","","","","true","14","4","moral","1568","positive","高尚","","","","","","","","","","","","","","","","",""
"null","","null","html-keyboard-response","140","230669","0.0-6.0-1.0-8.0-0.16","3","4","4","3","4","3","4","1","4","4","4","5","4","4","5","5","4","4","4","5","1","2","2","2","1","2","1","1","2","1","0","1","1","0","0","0","1","0","1","1","0","1","0","1","5","1","2","2","1","2","1","2","1","1","2","772056166992973826","侯","46","","","","","","","","","","","","","","","","","","","","","","","","","","","","","","","","","","","","","","","","","",""
"717","<p style=""color:rgb(150, 250, 100); font-size: 35px;"">他人的</p>","i","categorize-html","141","231405","0.0-6.0-1.0-8.0-1.16","3","4","4","3","4","3","4","1","4","4","4","5","4","4","5","5","4","4","4","5","1","2","2","2","1","2","1","1","2","1","0","1","1","0","0","0","1","0","1","1","0","1","0","1","5","1","2","2","1","2","1","2","1","1","2","772056166992973826","侯","46","","","","","","","","","","","","","","","","","","","true","14","4","moral","717","other","他人的","","","","","","","","","","","","","","","","",""
"null","","null","html-keyboard-response","142","231661","0.0-6.0-1.0-8.0-0.17","3","4","4","3","4","3","4","1","4","4","4","5","4","4","5","5","4","4","4","5","1","2","2","2","1","2","1","1","2","1","0","1","1","0","0","0","1","0","1","1","0","1","0","1","5","1","2","2","1","2","1","2","1","1","2","772056166992973826","侯","46","","","","","","","","","","","","","","","","","","","","","","","","","","","","","","","","","","","","","","","","","",""
"1407","<p style=""color:white; font-size: 35px;"">廉正</p>","i","categorize-html","143","233095","0.0-6.0-1.0-8.0-1.17","3","4","4","3","4","3","4","1","4","4","4","5","4","4","5","5","4","4","4","5","1","2","2","2","1","2","1","1","2","1","0","1","1","0","0","0","1","0","1","1","0","1","0","1","5","1","2","2","1","2","1","2","1","1","2","772056166992973826","侯","46","","","","","","","","","","","","","","","","","","","true","14","4","moral","1407","positive","廉正","","","","","","","","","","","","","","","","",""
"null","","null","html-keyboard-response","144","233353","0.0-6.0-1.0-8.0-0.18","3","4","4","3","4","3","4","1","4","4","4","5","4","4","5","5","4","4","4","5","1","2","2","2","1","2","1","1","2","1","0","1","1","0","0","0","1","0","1","1","0","1","0","1","5","1","2","2","1","2","1","2","1","1","2","772056166992973826","侯","46","","","","","","","","","","","","","","","","","","","","","","","","","","","","","","","","","","","","","","","","","",""
"825","<p style=""color:rgb(150, 250, 100); font-size: 35px;"">自己的</p>","e","categorize-html","145","234203","0.0-6.0-1.0-8.0-1.18","3","4","4","3","4","3","4","1","4","4","4","5","4","4","5","5","4","4","4","5","1","2","2","2","1","2","1","1","2","1","0","1","1","0","0","0","1","0","1","1","0","1","0","1","5","1","2","2","1","2","1","2","1","1","2","772056166992973826","侯","46","","","","","","","","","","","","","","","","","","","true","14","4","moral","825","self","自己的","","","","","","","","","","","","","","","","",""
"null","","null","html-keyboard-response","146","234461","0.0-6.0-1.0-8.0-0.19","3","4","4","3","4","3","4","1","4","4","4","5","4","4","5","5","4","4","4","5","1","2","2","2","1","2","1","1","2","1","0","1","1","0","0","0","1","0","1","1","0","1","0","1","5","1","2","2","1","2","1","2","1","1","2","772056166992973826","侯","46","","","","","","","","","","","","","","","","","","","","","","","","","","","","","","","","","","","","","","","","","",""
"2690","<p style=""color:white; font-size: 35px;"">小人</p>","i","categorize-html","147","238060","0.0-6.0-1.0-8.0-1.19","3","4","4","3","4","3","4","1","4","4","4","5","4","4","5","5","4","4","4","5","1","2","2","2","1","2","1","1","2","1","0","1","1","0","0","0","1","0","1","1","0","1","0","1","5","1","2","2","1","2","1","2","1","1","2","772056166992973826","侯","46","","","","","","","","","","","","","","","","","","","false","14","4","moral","1739","negative","小人","","","","","","","","","","","","","","","","",""
"null","","null","html-keyboard-response","148","238317","0.0-6.0-1.0-8.0-0.20","3","4","4","3","4","3","4","1","4","4","4","5","4","4","5","5","4","4","4","5","1","2","2","2","1","2","1","1","2","1","0","1","1","0","0","0","1","0","1","1","0","1","0","1","5","1","2","2","1","2","1","2","1","1","2","772056166992973826","侯","46","","","","","","","","","","","","","","","","","","","","","","","","","","","","","","","","","","","","","","","","","",""
"871","<p style=""color:rgb(150, 250, 100); font-size: 35px;"">他</p>","i","categorize-html","149","239215","0.0-6.0-1.0-8.0-1.20","3","4","4","3","4","3","4","1","4","4","4","5","4","4","5","5","4","4","4","5","1","2","2","2","1","2","1","1","2","1","0","1","1","0","0","0","1","0","1","1","0","1","0","1","5","1","2","2","1","2","1","2","1","1","2","772056166992973826","侯","46","","","","","","","","","","","","","","","","","","","true","14","4","moral","871","other","他","","","","","","","","","","","","","","","","",""
"null","","null","html-keyboard-response","150","239470","0.0-6.0-1.0-8.0-0.21","3","4","4","3","4","3","4","1","4","4","4","5","4","4","5","5","4","4","4","5","1","2","2","2","1","2","1","1","2","1","0","1","1","0","0","0","1","0","1","1","0","1","0","1","5","1","2","2","1","2","1","2","1","1","2","772056166992973826","侯","46","","","","","","","","","","","","","","","","","","","","","","","","","","","","","","","","","","","","","","","","","",""
"703","<p style=""color:white; font-size: 35px;"">善良</p>","i","categorize-html","151","240194","0.0-6.0-1.0-8.0-1.21","3","4","4","3","4","3","4","1","4","4","4","5","4","4","5","5","4","4","4","5","1","2","2","2","1","2","1","1","2","1","0","1","1","0","0","0","1","0","1","1","0","1","0","1","5","1","2","2","1","2","1","2","1","1","2","772056166992973826","侯","46","","","","","","","","","","","","","","","","","","","true","14","4","moral","703","positive","善良","","","","","","","","","","","","","","","","",""
"null","","null","html-keyboard-response","152","240455","0.0-6.0-1.0-8.0-0.22","3","4","4","3","4","3","4","1","4","4","4","5","4","4","5","5","4","4","4","5","1","2","2","2","1","2","1","1","2","1","0","1","1","0","0","0","1","0","1","1","0","1","0","1","5","1","2","2","1","2","1","2","1","1","2","772056166992973826","侯","46","","","","","","","","","","","","","","","","","","","","","","","","","","","","","","","","","","","","","","","","","",""
"998","<p style=""color:rgb(150, 250, 100); font-size: 35px;"">本人的</p>","e","categorize-html","153","241490","0.0-6.0-1.0-8.0-1.22","3","4","4","3","4","3","4","1","4","4","4","5","4","4","5","5","4","4","4","5","1","2","2","2","1","2","1","1","2","1","0","1","1","0","0","0","1","0","1","1","0","1","0","1","5","1","2","2","1","2","1","2","1","1","2","772056166992973826","侯","46","","","","","","","","","","","","","","","","","","","true","14","4","moral","998","self","本人的","","","","","","","","","","","","","","","","",""
"null","","null","html-keyboard-response","154","241744","0.0-6.0-1.0-8.0-0.23","3","4","4","3","4","3","4","1","4","4","4","5","4","4","5","5","4","4","4","5","1","2","2","2","1","2","1","1","2","1","0","1","1","0","0","0","1","0","1","1","0","1","0","1","5","1","2","2","1","2","1","2","1","1","2","772056166992973826","侯","46","","","","","","","","","","","","","","","","","","","","","","","","","","","","","","","","","","","","","","","","","",""
"1144","<p style=""color:white; font-size: 35px;"">缺德</p>","e","categorize-html","155","242913","0.0-6.0-1.0-8.0-1.23","3","4","4","3","4","3","4","1","4","4","4","5","4","4","5","5","4","4","4","5","1","2","2","2","1","2","1","1","2","1","0","1","1","0","0","0","1","0","1","1","0","1","0","1","5","1","2","2","1","2","1","2","1","1","2","772056166992973826","侯","46","","","","","","","","","","","","","","","","","","","true","14","4","moral","1144","negative","缺德","","","","","","","","","","","","","","","","",""
"null","","null","html-keyboard-response","156","243170","0.0-6.0-1.0-8.0-0.24","3","4","4","3","4","3","4","1","4","4","4","5","4","4","5","5","4","4","4","5","1","2","2","2","1","2","1","1","2","1","0","1","1","0","0","0","1","0","1","1","0","1","0","1","5","1","2","2","1","2","1","2","1","1","2","772056166992973826","侯","46","","","","","","","","","","","","","","","","","","","","","","","","","","","","","","","","","","","","","","","","","",""
"872","<p style=""color:rgb(150, 250, 100); font-size: 35px;"">别人的</p>","i","categorize-html","157","244071","0.0-6.0-1.0-8.0-1.24","3","4","4","3","4","3","4","1","4","4","4","5","4","4","5","5","4","4","4","5","1","2","2","2","1","2","1","1","2","1","0","1","1","0","0","0","1","0","1","1","0","1","0","1","5","1","2","2","1","2","1","2","1","1","2","772056166992973826","侯","46","","","","","","","","","","","","","","","","","","","true","14","4","moral","872","other","别人的","","","","","","","","","","","","","","","","",""
"null","","null","html-keyboard-response","158","244330","0.0-6.0-1.0-8.0-0.25","3","4","4","3","4","3","4","1","4","4","4","5","4","4","5","5","4","4","4","5","1","2","2","2","1","2","1","1","2","1","0","1","1","0","0","0","1","0","1","1","0","1","0","1","5","1","2","2","1","2","1","2","1","1","2","772056166992973826","侯","46","","","","","","","","","","","","","","","","","","","","","","","","","","","","","","","","","","","","","","","","","",""
"1112","<p style=""color:white; font-size: 35px;"">卑鄙</p>","e","categorize-html","159","245471","0.0-6.0-1.0-8.0-1.25","3","4","4","3","4","3","4","1","4","4","4","5","4","4","5","5","4","4","4","5","1","2","2","2","1","2","1","1","2","1","0","1","1","0","0","0","1","0","1","1","0","1","0","1","5","1","2","2","1","2","1","2","1","1","2","772056166992973826","侯","46","","","","","","","","","","","","","","","","","","","true","14","4","moral","1112","negative","卑鄙","","","","","","","","","","","","","","","","",""
"null","","null","html-keyboard-response","160","245735","0.0-6.0-1.0-8.0-0.26","3","4","4","3","4","3","4","1","4","4","4","5","4","4","5","5","4","4","4","5","1","2","2","2","1","2","1","1","2","1","0","1","1","0","0","0","1","0","1","1","0","1","0","1","5","1","2","2","1","2","1","2","1","1","2","772056166992973826","侯","46","","","","","","","","","","","","","","","","","","","","","","","","","","","","","","","","","","","","","","","","","",""
"690","<p style=""color:rgb(150, 250, 100); font-size: 35px;"">自己</p>","e","categorize-html","161","246452","0.0-6.0-1.0-8.0-1.26","3","4","4","3","4","3","4","1","4","4","4","5","4","4","5","5","4","4","4","5","1","2","2","2","1","2","1","1","2","1","0","1","1","0","0","0","1","0","1","1","0","1","0","1","5","1","2","2","1","2","1","2","1","1","2","772056166992973826","侯","46","","","","","","","","","","","","","","","","","","","true","14","4","moral","690","self","自己","","","","","","","","","","","","","","","","",""
"null","","null","html-keyboard-response","162","246706","0.0-6.0-1.0-8.0-0.27","3","4","4","3","4","3","4","1","4","4","4","5","4","4","5","5","4","4","4","5","1","2","2","2","1","2","1","1","2","1","0","1","1","0","0","0","1","0","1","1","0","1","0","1","5","1","2","2","1","2","1","2","1","1","2","772056166992973826","侯","46","","","","","","","","","","","","","","","","","","","","","","","","","","","","","","","","","","","","","","","","","",""
"1286","<p style=""color:white; font-size: 35px;"">君子</p>","i","categorize-html","163","248022","0.0-6.0-1.0-8.0-1.27","3","4","4","3","4","3","4","1","4","4","4","5","4","4","5","5","4","4","4","5","1","2","2","2","1","2","1","1","2","1","0","1","1","0","0","0","1","0","1","1","0","1","0","1","5","1","2","2","1","2","1","2","1","1","2","772056166992973826","侯","46","","","","","","","","","","","","","","","","","","","true","14","4","moral","1286","positive","君子","","","","","","","","","","","","","","","","",""
"null","","null","html-keyboard-response","164","248280","0.0-6.0-1.0-8.0-0.28","3","4","4","3","4","3","4","1","4","4","4","5","4","4","5","5","4","4","4","5","1","2","2","2","1","2","1","1","2","1","0","1","1","0","0","0","1","0","1","1","0","1","0","1","5","1","2","2","1","2","1","2","1","1","2","772056166992973826","侯","46","","","","","","","","","","","","","","","","","","","","","","","","","","","","","","","","","","","","","","","","","",""
"1101","<p style=""color:rgb(150, 250, 100); font-size: 35px;"">他人的</p>","i","categorize-html","165","249413","0.0-6.0-1.0-8.0-1.28","3","4","4","3","4","3","4","1","4","4","4","5","4","4","5","5","4","4","4","5","1","2","2","2","1","2","1","1","2","1","0","1","1","0","0","0","1","0","1","1","0","1","0","1","5","1","2","2","1","2","1","2","1","1","2","772056166992973826","侯","46","","","","","","","","","","","","","","","","","","","true","14","4","moral","1101","other","他人的","","","","","","","","","","","","","","","","",""
"null","","null","html-keyboard-response","166","249670","0.0-6.0-1.0-8.0-0.29","3","4","4","3","4","3","4","1","4","4","4","5","4","4","5","5","4","4","4","5","1","2","2","2","1","2","1","1","2","1","0","1","1","0","0","0","1","0","1","1","0","1","0","1","5","1","2","2","1","2","1","2","1","1","2","772056166992973826","侯","46","","","","","","","","","","","","","","","","","","","","","","","","","","","","","","","","","","","","","","","","","",""
"1302","<p style=""color:white; font-size: 35px;"">廉正</p>","i","categorize-html","167","251006","0.0-6.0-1.0-8.0-1.29","3","4","4","3","4","3","4","1","4","4","4","5","4","4","5","5","4","4","4","5","1","2","2","2","1","2","1","1","2","1","0","1","1","0","0","0","1","0","1","1","0","1","0","1","5","1","2","2","1","2","1","2","1","1","2","772056166992973826","侯","46","","","","","","","","","","","","","","","","","","","true","14","4","moral","1302","positive","廉正","","","","","","","","","","","","","","","","",""
"null","","null","html-keyboard-response","168","251262","0.0-6.0-1.0-8.0-0.30","3","4","4","3","4","3","4","1","4","4","4","5","4","4","5","5","4","4","4","5","1","2","2","2","1","2","1","1","2","1","0","1","1","0","0","0","1","0","1","1","0","1","0","1","5","1","2","2","1","2","1","2","1","1","2","772056166992973826","侯","46","","","","","","","","","","","","","","","","","","","","","","","","","","","","","","","","","","","","","","","","","",""
"913","<p style=""color:rgb(150, 250, 100); font-size: 35px;"">我</p>","e","categorize-html","169","252201","0.0-6.0-1.0-8.0-1.30","3","4","4","3","4","3","4","1","4","4","4","5","4","4","5","5","4","4","4","5","1","2","2","2","1","2","1","1","2","1","0","1","1","0","0","0","1","0","1","1","0","1","0","1","5","1","2","2","1","2","1","2","1","1","2","772056166992973826","侯","46","","","","","","","","","","","","","","","","","","","true","14","4","moral","913","self","我","","","","","","","","","","","","","","","","",""
"null","","null","html-keyboard-response","170","252456","0.0-6.0-1.0-8.0-0.31","3","4","4","3","4","3","4","1","4","4","4","5","4","4","5","5","4","4","4","5","1","2","2","2","1","2","1","1","2","1","0","1","1","0","0","0","1","0","1","1","0","1","0","1","5","1","2","2","1","2","1","2","1","1","2","772056166992973826","侯","46","","","","","","","","","","","","","","","","","","","","","","","","","","","","","","","","","","","","","","","","","",""
"2165","<p style=""color:white; font-size: 35px;"">小人</p>","e","categorize-html","171","254651","0.0-6.0-1.0-8.0-1.31","3","4","4","3","4","3","4","1","4","4","4","5","4","4","5","5","4","4","4","5","1","2","2","2","1","2","1","1","2","1","0","1","1","0","0","0","1","0","1","1","0","1","0","1","5","1","2","2","1","2","1","2","1","1","2","772056166992973826","侯","46","","","","","","","","","","","","","","","","","","","true","14","4","moral","2165","negative","小人","","","","","","","","","","","","","","","","",""
"null","","null","html-keyboard-response","172","254908","0.0-6.0-1.0-8.0-0.32","3","4","4","3","4","3","4","1","4","4","4","5","4","4","5","5","4","4","4","5","1","2","2","2","1","2","1","1","2","1","0","1","1","0","0","0","1","0","1","1","0","1","0","1","5","1","2","2","1","2","1","2","1","1","2","772056166992973826","侯","46","","","","","","","","","","","","","","","","","","","","","","","","","","","","","","","","","","","","","","","","","",""
"848","<p style=""color:rgb(150, 250, 100); font-size: 35px;"">他</p>","i","categorize-html","173","255790","0.0-6.0-1.0-8.0-1.32","3","4","4","3","4","3","4","1","4","4","4","5","4","4","5","5","4","4","4","5","1","2","2","2","1","2","1","1","2","1","0","1","1","0","0","0","1","0","1","1","0","1","0","1","5","1","2","2","1","2","1","2","1","1","2","772056166992973826","侯","46","","","","","","","","","","","","","","","","","","","true","14","4","moral","848","other","他","","","","","","","","","","","","","","","","",""
"null","","null","html-keyboard-response","174","256047","0.0-6.0-1.0-8.0-0.33","3","4","4","3","4","3","4","1","4","4","4","5","4","4","5","5","4","4","4","5","1","2","2","2","1","2","1","1","2","1","0","1","1","0","0","0","1","0","1","1","0","1","0","1","5","1","2","2","1","2","1","2","1","1","2","772056166992973826","侯","46","","","","","","","","","","","","","","","","","","","","","","","","","","","","","","","","","","","","","","","","","",""
"1409","<p style=""color:white; font-size: 35px;"">不孝</p>","e","categorize-html","175","257481","0.0-6.0-1.0-8.0-1.33","3","4","4","3","4","3","4","1","4","4","4","5","4","4","5","5","4","4","4","5","1","2","2","2","1","2","1","1","2","1","0","1","1","0","0","0","1","0","1","1","0","1","0","1","5","1","2","2","1","2","1","2","1","1","2","772056166992973826","侯","46","","","","","","","","","","","","","","","","","","","true","14","4","moral","1409","negative","不孝","","","","","","","","","","","","","","","","",""
"null","","null","html-keyboard-response","176","257739","0.0-6.0-1.0-8.0-0.34","3","4","4","3","4","3","4","1","4","4","4","5","4","4","5","5","4","4","4","5","1","2","2","2","1","2","1","1","2","1","0","1","1","0","0","0","1","0","1","1","0","1","0","1","5","1","2","2","1","2","1","2","1","1","2","772056166992973826","侯","46","","","","","","","","","","","","","","","","","","","","","","","","","","","","","","","","","","","","","","","","","",""
"915","<p style=""color:rgb(150, 250, 100); font-size: 35px;"">我的</p>","e","categorize-html","177","258680","0.0-6.0-1.0-8.0-1.34","3","4","4","3","4","3","4","1","4","4","4","5","4","4","5","5","4","4","4","5","1","2","2","2","1","2","1","1","2","1","0","1","1","0","0","0","1","0","1","1","0","1","0","1","5","1","2","2","1","2","1","2","1","1","2","772056166992973826","侯","46","","","","","","","","","","","","","","","","","","","true","14","4","moral","915","self","我的","","","","","","","","","","","","","","","","",""
"null","","null","html-keyboard-response","178","258937","0.0-6.0-1.0-8.0-0.35","3","4","4","3","4","3","4","1","4","4","4","5","4","4","5","5","4","4","4","5","1","2","2","2","1","2","1","1","2","1","0","1","1","0","0","0","1","0","1","1","0","1","0","1","5","1","2","2","1","2","1","2","1","1","2","772056166992973826","侯","46","","","","","","","","","","","","","","","","","","","","","","","","","","","","","","","","","","","","","","","","","",""
"2193","<p style=""color:white; font-size: 35px;"">正直</p>","i","categorize-html","179","261155","0.0-6.0-1.0-8.0-1.35","3","4","4","3","4","3","4","1","4","4","4","5","4","4","5","5","4","4","4","5","1","2","2","2","1","2","1","1","2","1","0","1","1","0","0","0","1","0","1","1","0","1","0","1","5","1","2","2","1","2","1","2","1","1","2","772056166992973826","侯","46","","","","","","","","","","","","","","","","","","","true","14","4","moral","2193","positive","正直","","","","","","","","","","","","","","","","",""
"null","","null","html-keyboard-response","180","261413","0.0-6.0-1.0-8.0-0.36","3","4","4","3","4","3","4","1","4","4","4","5","4","4","5","5","4","4","4","5","1","2","2","2","1","2","1","1","2","1","0","1","1","0","0","0","1","0","1","1","0","1","0","1","5","1","2","2","1","2","1","2","1","1","2","772056166992973826","侯","46","","","","","","","","","","","","","","","","","","","","","","","","","","","","","","","","","","","","","","","","","",""
"810","<p style=""color:rgb(150, 250, 100); font-size: 35px;"">别人</p>","i","categorize-html","181","262261","0.0-6.0-1.0-8.0-1.36","3","4","4","3","4","3","4","1","4","4","4","5","4","4","5","5","4","4","4","5","1","2","2","2","1","2","1","1","2","1","0","1","1","0","0","0","1","0","1","1","0","1","0","1","5","1","2","2","1","2","1","2","1","1","2","772056166992973826","侯","46","","","","","","","","","","","","","","","","","","","true","14","4","moral","810","other","别人","","","","","","","","","","","","","","","","",""
"null","","null","html-keyboard-response","182","262516","0.0-6.0-1.0-8.0-0.37","3","4","4","3","4","3","4","1","4","4","4","5","4","4","5","5","4","4","4","5","1","2","2","2","1","2","1","1","2","1","0","1","1","0","0","0","1","0","1","1","0","1","0","1","5","1","2","2","1","2","1","2","1","1","2","772056166992973826","侯","46","","","","","","","","","","","","","","","","","","","","","","","","","","","","","","","","","","","","","","","","","",""
"1192","<p style=""color:white; font-size: 35px;"">不孝</p>","e","categorize-html","183","263744","0.0-6.0-1.0-8.0-1.37","3","4","4","3","4","3","4","1","4","4","4","5","4","4","5","5","4","4","4","5","1","2","2","2","1","2","1","1","2","1","0","1","1","0","0","0","1","0","1","1","0","1","0","1","5","1","2","2","1","2","1","2","1","1","2","772056166992973826","侯","46","","","","","","","","","","","","","","","","","","","true","14","4","moral","1192","negative","不孝","","","","","","","","","","","","","","","","",""
"null","","null","html-keyboard-response","184","264000","0.0-6.0-1.0-8.0-0.38","3","4","4","3","4","3","4","1","4","4","4","5","4","4","5","5","4","4","4","5","1","2","2","2","1","2","1","1","2","1","0","1","1","0","0","0","1","0","1","1","0","1","0","1","5","1","2","2","1","2","1","2","1","1","2","772056166992973826","侯","46","","","","","","","","","","","","","","","","","","","","","","","","","","","","","","","","","","","","","","","","","",""
"2353","<p style=""color:rgb(150, 250, 100); font-size: 35px;"">本人的</p>","e","categorize-html","185","266377","0.0-6.0-1.0-8.0-1.38","3","4","4","3","4","3","4","1","4","4","4","5","4","4","5","5","4","4","4","5","1","2","2","2","1","2","1","1","2","1","0","1","1","0","0","0","1","0","1","1","0","1","0","1","5","1","2","2","1","2","1","2","1","1","2","772056166992973826","侯","46","","","","","","","","","","","","","","","","","","","true","14","4","moral","2353","self","本人的","","","","","","","","","","","","","","","","",""
"null","","null","html-keyboard-response","186","266637","0.0-6.0-1.0-8.0-0.39","3","4","4","3","4","3","4","1","4","4","4","5","4","4","5","5","4","4","4","5","1","2","2","2","1","2","1","1","2","1","0","1","1","0","0","0","1","0","1","1","0","1","0","1","5","1","2","2","1","2","1","2","1","1","2","772056166992973826","侯","46","","","","","","","","","","","","","","","","","","","","","","","","","","","","","","","","","","","","","","","","","",""
"1045","<p style=""color:white; font-size: 35px;"">君子</p>","i","categorize-html","187","267715","0.0-6.0-1.0-8.0-1.39","3","4","4","3","4","3","4","1","4","4","4","5","4","4","5","5","4","4","4","5","1","2","2","2","1","2","1","1","2","1","0","1","1","0","0","0","1","0","1","1","0","1","0","1","5","1","2","2","1","2","1","2","1","1","2","772056166992973826","侯","46","","","","","","","","","","","","","","","","","","","true","14","4","moral","1045","positive","君子","","","","","","","","","","","","","","","","",""
"null","","null","html-keyboard-response","188","267974","0.0-6.0-1.0-8.0-0.40","3","4","4","3","4","3","4","1","4","4","4","5","4","4","5","5","4","4","4","5","1","2","2","2","1","2","1","1","2","1","0","1","1","0","0","0","1","0","1","1","0","1","0","1","5","1","2","2","1","2","1","2","1","1","2","772056166992973826","侯","46","","","","","","","","","","","","","","","","","","","","","","","","","","","","","","","","","","","","","","","","","",""
"2204","<p style=""color:rgb(150, 250, 100); font-size: 35px;"">本人</p>","e","categorize-html","189","270215","0.0-6.0-1.0-8.0-1.40","3","4","4","3","4","3","4","1","4","4","4","5","4","4","5","5","4","4","4","5","1","2","2","2","1","2","1","1","2","1","0","1","1","0","0","0","1","0","1","1","0","1","0","1","5","1","2","2","1","2","1","2","1","1","2","772056166992973826","侯","46","","","","","","","","","","","","","","","","","","","true","14","4","moral","2204","self","本人","","","","","","","","","","","","","","","","",""
"null","","null","html-keyboard-response","190","270471","0.0-6.0-1.0-8.0-0.41","3","4","4","3","4","3","4","1","4","4","4","5","4","4","5","5","4","4","4","5","1","2","2","2","1","2","1","1","2","1","0","1","1","0","0","0","1","0","1","1","0","1","0","1","5","1","2","2","1","2","1","2","1","1","2","772056166992973826","侯","46","","","","","","","","","","","","","","","","","","","","","","","","","","","","","","","","","","","","","","","","","",""
"863","<p style=""color:white; font-size: 35px;"">不仁</p>","e","categorize-html","191","271352","0.0-6.0-1.0-8.0-1.41","3","4","4","3","4","3","4","1","4","4","4","5","4","4","5","5","4","4","4","5","1","2","2","2","1","2","1","1","2","1","0","1","1","0","0","0","1","0","1","1","0","1","0","1","5","1","2","2","1","2","1","2","1","1","2","772056166992973826","侯","46","","","","","","","","","","","","","","","","","","","true","14","4","moral","863","negative","不仁","","","","","","","","","","","","","","","","",""
"null","","null","html-keyboard-response","192","271610","0.0-6.0-1.0-8.0-0.42","3","4","4","3","4","3","4","1","4","4","4","5","4","4","5","5","4","4","4","5","1","2","2","2","1","2","1","1","2","1","0","1","1","0","0","0","1","0","1","1","0","1","0","1","5","1","2","2","1","2","1","2","1","1","2","772056166992973826","侯","46","","","","","","","","","","","","","","","","","","","","","","","","","","","","","","","","","","","","","","","","","",""
"754","<p style=""color:rgb(150, 250, 100); font-size: 35px;"">他的</p>","i","categorize-html","193","272396","0.0-6.0-1.0-8.0-1.42","3","4","4","3","4","3","4","1","4","4","4","5","4","4","5","5","4","4","4","5","1","2","2","2","1","2","1","1","2","1","0","1","1","0","0","0","1","0","1","1","0","1","0","1","5","1","2","2","1","2","1","2","1","1","2","772056166992973826","侯","46","","","","","","","","","","","","","","","","","","","true","14","4","moral","754","other","他的","","","","","","","","","","","","","","","","",""
