"rt","stimulus","response","trial_type","trial_index","time_elapsed","internal_node_id","ses_1","ses_2","ses_3","ses_4","ses_5","ses_6","ses_7","ses_8","ses_9","ses_10","coreself_1","coreself_2","coreself_3","coreself_4","coreself_5","coreself_6","coreself_7","coreself_8","coreself_9","coreself_10","SGPS_1","SGPS_2","SGPS_3","SGPS_4","SGPS_5","SGPS_6","SGPS_7","SGPS_8","SGPS_9","NPI1","NPI2","NPI3","NPI4","NPI5","NPI6","NPI7","NPI8","NPI9","NPI10","NPI11","NPI12","NPI13","NPI14","NPI15","hsns_1","hsns_2","hsns_3","hsns_4","hsns_5","trap1","hsns_6","hsns_7","hsns_8","hsns_9","hsns_10","subj_idx","friend_name","ParticipantID","value","success","user_agent","responses","item_order","radio_event_ids","radio_event_times","key_event_times","mouse_event_times","straightlining","zigzagging","honeypot","timeout","failed_images","failed_audio","failed_video","version_attrib","version_target","correct","IAT","screen_id","task_id","RT","condition","word","varname","summary","version_attrib2","version_target2","time_stamp","view_history","response_type","key_press","avg_frame_time","center_x","center_y","correct_response","identity","Image","question_order","correct_answer","trap1_item"
"3669","
   <p><div style = ""color: white;font-size:25px;"">您好，欢迎参加本次实验。</div> </p>
   <p><div style = ""color: white;font-size:25px;"">为充分保障您的权利，请确保您已经知晓并同意《参与实验同意书》以及《数据公开知情同意书》。</div></p>
   <p><div style = ""color: white;font-size:25px;"">如果您未见过上述内容，请咨询实验员。</div></p>
   <p><div style = ""color: white;font-size:25px;"">如果您选择继续实验，则表示您已经清楚两份知情同意书的内容并同意。</div></p>
   <p><div style = ""color: pink;font-size:30px;"">请确保您记得day0的实验编号，您将在本次实验输入该编号，若您忘记，请咨询实验员后作答。</div></p>
   <p><div style = ""color: lightblue;font-size:25px;"">请您尽可能认真地作答，我们将依据您在各问卷和按键任务中的作答质量发放报酬。</div></p>
   <p> <div style = ""color: green;font-size:25px;""><按空格键至下页></div> </p>
   "," ","html-keyboard-response","0","3672","0.0-0.0","3","3","4","4","3","3","3","3","3","4","4","2","4","4","3","4","4","2","4","4","4","4","2","4","2","2","2","2","2","0","0","0","0","0","1","1","1","0","0","0","0","0","0","0","4","4","4","3","3","3","4","4","4","3","3","796469037470195714","林","444","","","","","","","","","","","","","","","","","","","","","","","","","","","","","","","","","","","","","","","","","",""
"","","","call-function","1","3673","0.0-1.0-0.0","3","3","4","4","3","3","3","3","3","4","4","2","4","4","3","4","4","2","4","4","4","4","2","4","2","2","2","2","2","0","0","0","0","0","1","1","1","0","0","0","0","0","0","0","4","4","4","3","3","3","4","4","4","3","3","796469037470195714","林","444","","","","","","","","","","","","","","","","","","","","","","","","","","","","","","","","","","","","","","","","","",""
"14379","","{""friend_name"":""林"",""ParticipantID"":""444""}","survey-html-form","2","18052","0.0-1.0-1.0","3","3","4","4","3","3","3","3","3","4","4","2","4","4","3","4","4","2","4","4","4","4","2","4","2","2","2","2","2","0","0","0","0","0","1","1","1","0","0","0","0","0","0","0","4","4","4","3","3","3","4","4","4","3","3","796469037470195714","林","444","","","","","","","","","","","","","","","","","","","","","","","","","","","","","","","","","","","","","","","","","",""
"","","","fullscreen","3","34157","0.0-2.0","3","3","4","4","3","3","3","3","3","4","4","2","4","4","3","4","4","2","4","4","4","4","2","4","2","2","2","2","2","0","0","0","0","0","1","1","1","0","0","0","0","0","0","0","4","4","4","3","3","3","4","4","4","3","3","796469037470195714","林","444","","true","{}","","","","","","","","","","","","","","","","","","","","","","","","","","","","","","","","","","","","","","",""
"27111.19999998808","","{""Q01"":""3"",""Q02"":""3"",""Q03"":""4"",""Q04"":""4"",""Q05"":""3"",""Q06"":""3"",""Q07"":""3"",""Q08"":""3"",""Q09"":""3"",""Q10"":""4""}","survey-template","4","61271","0.0-3.0","3","3","4","4","3","3","3","3","3","4","4","2","4","4","3","4","4","2","4","4","4","4","2","4","2","2","2","2","2","0","0","0","0","0","1","1","1","0","0","0","0","0","0","0","4","4","4","3","3","3","4","4","4","3","3","796469037470195714","林","444","","","","{""Q01"":""3"",""Q02"":""3"",""Q03"":""4"",""Q04"":""4"",""Q05"":""3"",""Q06"":""3"",""Q07"":""3"",""Q08"":""3"",""Q09"":""3"",""Q10"":""4""}","[0,1,2,3,4,5,6,7,8,9]","[""Q01"",""Q02"",""Q03"",""Q04"",""Q05"",""Q06"",""Q07"",""Q08"",""Q09"",""Q08"",""Q10"",""Q10""]","[2425.099999964237,5917.199999988079,7693.599999964237,11246.399999976158,13398.800000011921,15148.5,19540.80000001192,20477.399999976158,23767.19999998808,24292.19999998808,25421.19999998808,26147.399999976158]","[]","[2425.099999964237,4805.300000011921,5917.199999988079,6933,7693.599999964237,9557.899999976158,10694.800000011921,11246.399999976158,12209.300000011921,13398.800000011921,15148.5,19540.80000001192,20145.5,20477.399999976158,22192.399999976158,22752.80000001192,23059,23767.19999998808,24292.19999998808,24914.30000001192,25421.19999998808,26147.399999976158,27110]","0.4","0.4444444444444444","0","","","","","","","","","","","","","","","","","","","","","","","","","","","","","",""
"22472.80000001192","","{""Q01"":""4"",""Q02"":""2"",""Q03"":""4"",""Q04"":""4"",""Q05"":""3"",""Q06"":""4"",""Q07"":""4"",""Q08"":""2"",""Q09"":""4"",""Q10"":""4""}","survey-template","5","83749","0.0-4.0","3","3","4","4","3","3","3","3","3","4","4","2","4","4","3","4","4","2","4","4","4","4","2","4","2","2","2","2","2","0","0","0","0","0","1","1","1","0","0","0","0","0","0","0","4","4","4","3","3","3","4","4","4","3","3","796469037470195714","林","444","","","","{""Q01"":""4"",""Q02"":""2"",""Q03"":""4"",""Q04"":""4"",""Q05"":""3"",""Q06"":""4"",""Q07"":""4"",""Q08"":""2"",""Q09"":""4"",""Q10"":""4""}","[0,1,2,3,4,5,6,7,8,9]","[""Q01"",""Q02"",""Q03"",""Q04"",""Q05"",""Q05"",""Q06"",""Q07"",""Q08"",""Q09"",""Q09"",""Q10""]","[3293.199999988079,5479.400000035763,6171,7369.400000035763,9136.900000035763,10397.199999988079,12462.199999988079,13170.900000035763,14422.100000023842,17020.69999998808,19620,20345.30000001192]","[]","[2347.699999988079,3293.199999988079,3694.5,4254.400000035763,5218.100000023842,5479.400000035763,6171,7369.400000035763,9136.900000035763,10397.199999988079,11237.900000035763,11762.600000023842,12462.199999988079,13170.900000035763,14422.100000023842,17020.69999998808,18158.69999998808,18735.100000023842,19620,20345.30000001192,22471.900000035763]","0.6","0.2222222222222222","0","","","","","","","","","","","","","","","","","","","","","","","","","","","","","",""
"","","","preload","6","84030","0.0-5.0","3","3","4","4","3","3","3","3","3","4","4","2","4","4","3","4","4","2","4","4","4","4","2","4","2","2","2","2","2","0","0","0","0","0","1","1","1","0","0","0","0","0","0","0","4","4","4","3","3","3","4","4","4","3","3","796469037470195714","林","444","","true","","","","","","","","","","","false","[]","[]","[]","","","","","","","","","","","","","","","","","","","","","","","","","",""
"10750","
    <h3>词语分类任务</h3>
    <p>在接下来的任务中，你需要对一系列词语进行分类。</p>
    <p>请先熟悉这些词语，这有利于你完成接下来的任务。</p>
    <table align=""center"" border=1 cellpadding=3 cellspacing=0>
    <tr> <th>类别</th> <th>词语</th> </tr>
    <tr> <td>&emsp;积极&emsp;</td> <td>&emsp;能干、全能、全才、高效、精干、天才&emsp;</td> </tr>
    <tr> <td>&emsp;消极&emsp;</td> <td>&emsp;无能、低能、废物、拙笨、愚钝、蠢笨&emsp;</td> </tr>
    <tr> <td>&emsp;自我&emsp;</td> <td>&emsp;我、我的、自己、自己的、本人、本人的&emsp;</td> </tr>
    <tr> <td>&emsp;他人&emsp;</td> <td>&emsp;他、他的、别人、别人的、他人、他人的&emsp;</td> </tr>
    </table><br/>","0","html-button-response","7","94781","0.0-6.0-0.0-0.0","3","3","4","4","3","3","3","3","3","4","4","2","4","4","3","4","4","2","4","4","4","4","2","4","2","2","2","2","2","0","0","0","0","0","1","1","1","0","0","0","0","0","0","0","4","4","4","3","3","3","4","4","4","3","3","796469037470195714","林","444","","","","","","","","","","","","","","","","","2","1","","","","","","","","","","","","","","","","","","","","","","","",""
"10386","
    <div class=""tag-bottom"">
    <p> —— 任务1：对“自我”词和“他人”词分类 ——<p/>
    不同词语会出现在屏幕中央，类别标签将始终显示在屏幕上方<p/>   
    <span style=""color:#FFD866""><b>请根据上方标签的提示，尽可能正确并且快速地做出按键反应</b></span><p/>
    当按键错误时屏幕中会出现<span style=""color:red""> X </span>，需要按另一个键纠正才能继续<br/><p/>
    请把双手食指分别放在键盘的“E”键和“I”键上<p/>
    按<空格键>开始
    </p></div>"," ","html-keyboard-response","8","105170","0.0-6.0-0.0-1.0","3","3","4","4","3","3","3","3","3","4","4","2","4","4","3","4","4","2","4","4","4","4","2","4","2","2","2","2","2","0","0","0","0","0","1","1","1","0","0","0","0","0","0","0","4","4","4","3","3","3","4","4","4","3","3","796469037470195714","林","444","","","","","","","","","","","","","","","","","","","","","","","","","","","","","","","","","","","","","","","","","",""
"null","","null","html-keyboard-response","9","105422","0.0-6.0-0.0-2.0-0.0","3","3","4","4","3","3","3","3","3","4","4","2","4","4","3","4","4","2","4","4","4","4","2","4","2","2","2","2","2","0","0","0","0","0","1","1","1","0","0","0","0","0","0","0","4","4","4","3","3","3","4","4","4","3","3","796469037470195714","林","444","","","","","","","","","","","","","","","","","","","","","","","","","","","","","","","","","","","","","","","","","",""
"966","<p style=""color:rgb(150, 250, 100); font-size: 35px;"">别人</p>","i","categorize-html","10","106391","0.0-6.0-0.0-2.0-1.0","3","3","4","4","3","3","3","3","3","4","4","2","4","4","3","4","4","2","4","4","4","4","2","4","2","2","2","2","2","0","0","0","0","0","1","1","1","0","0","0","0","0","0","0","4","4","4","3","3","3","4","4","4","3","3","796469037470195714","林","444","","","","","","","","","","","","","","","","","","","true","1","1","ability","966","other","别人","","","","","","","","","","","","","","","","",""
"null","","null","html-keyboard-response","11","106643","0.0-6.0-0.0-2.0-0.1","3","3","4","4","3","3","3","3","3","4","4","2","4","4","3","4","4","2","4","4","4","4","2","4","2","2","2","2","2","0","0","0","0","0","1","1","1","0","0","0","0","0","0","0","4","4","4","3","3","3","4","4","4","3","3","796469037470195714","林","444","","","","","","","","","","","","","","","","","","","","","","","","","","","","","","","","","","","","","","","","","",""
"655","<p style=""color:rgb(150, 250, 100); font-size: 35px;"">他人</p>","i","categorize-html","12","107300","0.0-6.0-0.0-2.0-1.1","3","3","4","4","3","3","3","3","3","4","4","2","4","4","3","4","4","2","4","4","4","4","2","4","2","2","2","2","2","0","0","0","0","0","1","1","1","0","0","0","0","0","0","0","4","4","4","3","3","3","4","4","4","3","3","796469037470195714","林","444","","","","","","","","","","","","","","","","","","","true","1","1","ability","655","other","他人","","","","","","","","","","","","","","","","",""
"null","","null","html-keyboard-response","13","107550","0.0-6.0-0.0-2.0-0.2","3","3","4","4","3","3","3","3","3","4","4","2","4","4","3","4","4","2","4","4","4","4","2","4","2","2","2","2","2","0","0","0","0","0","1","1","1","0","0","0","0","0","0","0","4","4","4","3","3","3","4","4","4","3","3","796469037470195714","林","444","","","","","","","","","","","","","","","","","","","","","","","","","","","","","","","","","","","","","","","","","",""
"1642","<p style=""color:rgb(150, 250, 100); font-size: 35px;"">本人的</p>","e","categorize-html","14","109194","0.0-6.0-0.0-2.0-1.2","3","3","4","4","3","3","3","3","3","4","4","2","4","4","3","4","4","2","4","4","4","4","2","4","2","2","2","2","2","0","0","0","0","0","1","1","1","0","0","0","0","0","0","0","4","4","4","3","3","3","4","4","4","3","3","796469037470195714","林","444","","","","","","","","","","","","","","","","","","","true","1","1","ability","1642","self","本人的","","","","","","","","","","","","","","","","",""
"null","","null","html-keyboard-response","15","109445","0.0-6.0-0.0-2.0-0.3","3","3","4","4","3","3","3","3","3","4","4","2","4","4","3","4","4","2","4","4","4","4","2","4","2","2","2","2","2","0","0","0","0","0","1","1","1","0","0","0","0","0","0","0","4","4","4","3","3","3","4","4","4","3","3","796469037470195714","林","444","","","","","","","","","","","","","","","","","","","","","","","","","","","","","","","","","","","","","","","","","",""
"748","<p style=""color:rgb(150, 250, 100); font-size: 35px;"">本人</p>","e","categorize-html","16","110195","0.0-6.0-0.0-2.0-1.3","3","3","4","4","3","3","3","3","3","4","4","2","4","4","3","4","4","2","4","4","4","4","2","4","2","2","2","2","2","0","0","0","0","0","1","1","1","0","0","0","0","0","0","0","4","4","4","3","3","3","4","4","4","3","3","796469037470195714","林","444","","","","","","","","","","","","","","","","","","","true","1","1","ability","748","self","本人","","","","","","","","","","","","","","","","",""
"null","","null","html-keyboard-response","17","110446","0.0-6.0-0.0-2.0-0.4","3","3","4","4","3","3","3","3","3","4","4","2","4","4","3","4","4","2","4","4","4","4","2","4","2","2","2","2","2","0","0","0","0","0","1","1","1","0","0","0","0","0","0","0","4","4","4","3","3","3","4","4","4","3","3","796469037470195714","林","444","","","","","","","","","","","","","","","","","","","","","","","","","","","","","","","","","","","","","","","","","",""
"944","<p style=""color:rgb(150, 250, 100); font-size: 35px;"">自己</p>","e","categorize-html","18","111392","0.0-6.0-0.0-2.0-1.4","3","3","4","4","3","3","3","3","3","4","4","2","4","4","3","4","4","2","4","4","4","4","2","4","2","2","2","2","2","0","0","0","0","0","1","1","1","0","0","0","0","0","0","0","4","4","4","3","3","3","4","4","4","3","3","796469037470195714","林","444","","","","","","","","","","","","","","","","","","","true","1","1","ability","944","self","自己","","","","","","","","","","","","","","","","",""
"null","","null","html-keyboard-response","19","111644","0.0-6.0-0.0-2.0-0.5","3","3","4","4","3","3","3","3","3","4","4","2","4","4","3","4","4","2","4","4","4","4","2","4","2","2","2","2","2","0","0","0","0","0","1","1","1","0","0","0","0","0","0","0","4","4","4","3","3","3","4","4","4","3","3","796469037470195714","林","444","","","","","","","","","","","","","","","","","","","","","","","","","","","","","","","","","","","","","","","","","",""
"1388","<p style=""color:rgb(150, 250, 100); font-size: 35px;"">他人的</p>","i","categorize-html","20","113034","0.0-6.0-0.0-2.0-1.5","3","3","4","4","3","3","3","3","3","4","4","2","4","4","3","4","4","2","4","4","4","4","2","4","2","2","2","2","2","0","0","0","0","0","1","1","1","0","0","0","0","0","0","0","4","4","4","3","3","3","4","4","4","3","3","796469037470195714","林","444","","","","","","","","","","","","","","","","","","","true","1","1","ability","1388","other","他人的","","","","","","","","","","","","","","","","",""
"null","","null","html-keyboard-response","21","113286","0.0-6.0-0.0-2.0-0.6","3","3","4","4","3","3","3","3","3","4","4","2","4","4","3","4","4","2","4","4","4","4","2","4","2","2","2","2","2","0","0","0","0","0","1","1","1","0","0","0","0","0","0","0","4","4","4","3","3","3","4","4","4","3","3","796469037470195714","林","444","","","","","","","","","","","","","","","","","","","","","","","","","","","","","","","","","","","","","","","","","",""
"1436","<p style=""color:rgb(150, 250, 100); font-size: 35px;"">别人的</p>","i","categorize-html","22","114724","0.0-6.0-0.0-2.0-1.6","3","3","4","4","3","3","3","3","3","4","4","2","4","4","3","4","4","2","4","4","4","4","2","4","2","2","2","2","2","0","0","0","0","0","1","1","1","0","0","0","0","0","0","0","4","4","4","3","3","3","4","4","4","3","3","796469037470195714","林","444","","","","","","","","","","","","","","","","","","","true","1","1","ability","1436","other","别人的","","","","","","","","","","","","","","","","",""
"null","","null","html-keyboard-response","23","114975","0.0-6.0-0.0-2.0-0.7","3","3","4","4","3","3","3","3","3","4","4","2","4","4","3","4","4","2","4","4","4","4","2","4","2","2","2","2","2","0","0","0","0","0","1","1","1","0","0","0","0","0","0","0","4","4","4","3","3","3","4","4","4","3","3","796469037470195714","林","444","","","","","","","","","","","","","","","","","","","","","","","","","","","","","","","","","","","","","","","","","",""
"572","<p style=""color:rgb(150, 250, 100); font-size: 35px;"">我的</p>","e","categorize-html","24","115550","0.0-6.0-0.0-2.0-1.7","3","3","4","4","3","3","3","3","3","4","4","2","4","4","3","4","4","2","4","4","4","4","2","4","2","2","2","2","2","0","0","0","0","0","1","1","1","0","0","0","0","0","0","0","4","4","4","3","3","3","4","4","4","3","3","796469037470195714","林","444","","","","","","","","","","","","","","","","","","","true","1","1","ability","572","self","我的","","","","","","","","","","","","","","","","",""
"null","","null","html-keyboard-response","25","115802","0.0-6.0-0.0-2.0-0.8","3","3","4","4","3","3","3","3","3","4","4","2","4","4","3","4","4","2","4","4","4","4","2","4","2","2","2","2","2","0","0","0","0","0","1","1","1","0","0","0","0","0","0","0","4","4","4","3","3","3","4","4","4","3","3","796469037470195714","林","444","","","","","","","","","","","","","","","","","","","","","","","","","","","","","","","","","","","","","","","","","",""
"699","<p style=""color:rgb(150, 250, 100); font-size: 35px;"">他</p>","i","categorize-html","26","116503","0.0-6.0-0.0-2.0-1.8","3","3","4","4","3","3","3","3","3","4","4","2","4","4","3","4","4","2","4","4","4","4","2","4","2","2","2","2","2","0","0","0","0","0","1","1","1","0","0","0","0","0","0","0","4","4","4","3","3","3","4","4","4","3","3","796469037470195714","林","444","","","","","","","","","","","","","","","","","","","true","1","1","ability","699","other","他","","","","","","","","","","","","","","","","",""
"null","","null","html-keyboard-response","27","116754","0.0-6.0-0.0-2.0-0.9","3","3","4","4","3","3","3","3","3","4","4","2","4","4","3","4","4","2","4","4","4","4","2","4","2","2","2","2","2","0","0","0","0","0","1","1","1","0","0","0","0","0","0","0","4","4","4","3","3","3","4","4","4","3","3","796469037470195714","林","444","","","","","","","","","","","","","","","","","","","","","","","","","","","","","","","","","","","","","","","","","",""
"892","<p style=""color:rgb(150, 250, 100); font-size: 35px;"">他的</p>","i","categorize-html","28","117649","0.0-6.0-0.0-2.0-1.9","3","3","4","4","3","3","3","3","3","4","4","2","4","4","3","4","4","2","4","4","4","4","2","4","2","2","2","2","2","0","0","0","0","0","1","1","1","0","0","0","0","0","0","0","4","4","4","3","3","3","4","4","4","3","3","796469037470195714","林","444","","","","","","","","","","","","","","","","","","","true","1","1","ability","892","other","他的","","","","","","","","","","","","","","","","",""
"null","","null","html-keyboard-response","29","117900","0.0-6.0-0.0-2.0-0.10","3","3","4","4","3","3","3","3","3","4","4","2","4","4","3","4","4","2","4","4","4","4","2","4","2","2","2","2","2","0","0","0","0","0","1","1","1","0","0","0","0","0","0","0","4","4","4","3","3","3","4","4","4","3","3","796469037470195714","林","444","","","","","","","","","","","","","","","","","","","","","","","","","","","","","","","","","","","","","","","","","",""
"1463","<p style=""color:rgb(150, 250, 100); font-size: 35px;"">自己的</p>","e","categorize-html","30","119365","0.0-6.0-0.0-2.0-1.10","3","3","4","4","3","3","3","3","3","4","4","2","4","4","3","4","4","2","4","4","4","4","2","4","2","2","2","2","2","0","0","0","0","0","1","1","1","0","0","0","0","0","0","0","4","4","4","3","3","3","4","4","4","3","3","796469037470195714","林","444","","","","","","","","","","","","","","","","","","","true","1","1","ability","1463","self","自己的","","","","","","","","","","","","","","","","",""
"null","","null","html-keyboard-response","31","119616","0.0-6.0-0.0-2.0-0.11","3","3","4","4","3","3","3","3","3","4","4","2","4","4","3","4","4","2","4","4","4","4","2","4","2","2","2","2","2","0","0","0","0","0","1","1","1","0","0","0","0","0","0","0","4","4","4","3","3","3","4","4","4","3","3","796469037470195714","林","444","","","","","","","","","","","","","","","","","","","","","","","","","","","","","","","","","","","","","","","","","",""
"656","<p style=""color:rgb(150, 250, 100); font-size: 35px;"">我</p>","e","categorize-html","32","120274","0.0-6.0-0.0-2.0-1.11","3","3","4","4","3","3","3","3","3","4","4","2","4","4","3","4","4","2","4","4","4","4","2","4","2","2","2","2","2","0","0","0","0","0","1","1","1","0","0","0","0","0","0","0","4","4","4","3","3","3","4","4","4","3","3","796469037470195714","林","444","","","","","","","","","","","","","","","","","","","true","1","1","ability","656","self","我","","","","","","","","","","","","","","","","",""
"1584","
    <div class=""tag-bottom""><p>
    —— 任务2：对“消极”词和“积极”词分类 ——<p/>   
    <span style=""color:#78DCE8""><b>注意上方，类别标签和需要分类的词语都已经改变</b></span><p/>
    <span style=""color:#FFD866""><b>请根据上方标签的提示，尽可能正确并且快速地做出按键反应</b></span><p/>
    当按键错误时屏幕中会出现<span style=""color:red""> X </span>，需要按另一个键纠正才能继续<br/><p/>
    请把双手食指分别放在键盘的“E”键和“I”键上<p/>
    按<空格键>开始
    </p></div>"," ","html-keyboard-response","33","121859","0.0-6.0-0.0-3.0","3","3","4","4","3","3","3","3","3","4","4","2","4","4","3","4","4","2","4","4","4","4","2","4","2","2","2","2","2","0","0","0","0","0","1","1","1","0","0","0","0","0","0","0","4","4","4","3","3","3","4","4","4","3","3","796469037470195714","林","444","","","","","","","","","","","","","","","","","","","","","","","","","","","","","","","","","","","","","","","","","",""
"null","","null","html-keyboard-response","34","122111","0.0-6.0-0.0-4.0-0.0","3","3","4","4","3","3","3","3","3","4","4","2","4","4","3","4","4","2","4","4","4","4","2","4","2","2","2","2","2","0","0","0","0","0","1","1","1","0","0","0","0","0","0","0","4","4","4","3","3","3","4","4","4","3","3","796469037470195714","林","444","","","","","","","","","","","","","","","","","","","","","","","","","","","","","","","","","","","","","","","","","",""
"832","<p style=""color:white; font-size: 35px;"">低能</p>","i","categorize-html","35","126767","0.0-6.0-0.0-4.0-1.0","3","3","4","4","3","3","3","3","3","4","4","2","4","4","3","4","4","2","4","4","4","4","2","4","2","2","2","2","2","0","0","0","0","0","1","1","1","0","0","0","0","0","0","0","4","4","4","3","3","3","4","4","4","3","3","796469037470195714","林","444","","","","","","","","","","","","","","","","","","","false","2","2","ability","832","negative","低能","","","","","","","","","","","","","","","","",""
"null","","null","html-keyboard-response","36","127019","0.0-6.0-0.0-4.0-0.1","3","3","4","4","3","3","3","3","3","4","4","2","4","4","3","4","4","2","4","4","4","4","2","4","2","2","2","2","2","0","0","0","0","0","1","1","1","0","0","0","0","0","0","0","4","4","4","3","3","3","4","4","4","3","3","796469037470195714","林","444","","","","","","","","","","","","","","","","","","","","","","","","","","","","","","","","","","","","","","","","","",""
"910","<p style=""color:white; font-size: 35px;"">天才</p>","i","categorize-html","37","127932","0.0-6.0-0.0-4.0-1.1","3","3","4","4","3","3","3","3","3","4","4","2","4","4","3","4","4","2","4","4","4","4","2","4","2","2","2","2","2","0","0","0","0","0","1","1","1","0","0","0","0","0","0","0","4","4","4","3","3","3","4","4","4","3","3","796469037470195714","林","444","","","","","","","","","","","","","","","","","","","true","2","2","ability","910","positive","天才","","","","","","","","","","","","","","","","",""
"null","","null","html-keyboard-response","38","128183","0.0-6.0-0.0-4.0-0.2","3","3","4","4","3","3","3","3","3","4","4","2","4","4","3","4","4","2","4","4","4","4","2","4","2","2","2","2","2","0","0","0","0","0","1","1","1","0","0","0","0","0","0","0","4","4","4","3","3","3","4","4","4","3","3","796469037470195714","林","444","","","","","","","","","","","","","","","","","","","","","","","","","","","","","","","","","","","","","","","","","",""
"1248","<p style=""color:white; font-size: 35px;"">愚钝</p>","e","categorize-html","39","129433","0.0-6.0-0.0-4.0-1.2","3","3","4","4","3","3","3","3","3","4","4","2","4","4","3","4","4","2","4","4","4","4","2","4","2","2","2","2","2","0","0","0","0","0","1","1","1","0","0","0","0","0","0","0","4","4","4","3","3","3","4","4","4","3","3","796469037470195714","林","444","","","","","","","","","","","","","","","","","","","true","2","2","ability","1248","negative","愚钝","","","","","","","","","","","","","","","","",""
"null","","null","html-keyboard-response","40","129684","0.0-6.0-0.0-4.0-0.3","3","3","4","4","3","3","3","3","3","4","4","2","4","4","3","4","4","2","4","4","4","4","2","4","2","2","2","2","2","0","0","0","0","0","1","1","1","0","0","0","0","0","0","0","4","4","4","3","3","3","4","4","4","3","3","796469037470195714","林","444","","","","","","","","","","","","","","","","","","","","","","","","","","","","","","","","","","","","","","","","","",""
"684","<p style=""color:white; font-size: 35px;"">蠢笨</p>","e","categorize-html","41","130370","0.0-6.0-0.0-4.0-1.3","3","3","4","4","3","3","3","3","3","4","4","2","4","4","3","4","4","2","4","4","4","4","2","4","2","2","2","2","2","0","0","0","0","0","1","1","1","0","0","0","0","0","0","0","4","4","4","3","3","3","4","4","4","3","3","796469037470195714","林","444","","","","","","","","","","","","","","","","","","","true","2","2","ability","684","negative","蠢笨","","","","","","","","","","","","","","","","",""
"null","","null","html-keyboard-response","42","130622","0.0-6.0-0.0-4.0-0.4","3","3","4","4","3","3","3","3","3","4","4","2","4","4","3","4","4","2","4","4","4","4","2","4","2","2","2","2","2","0","0","0","0","0","1","1","1","0","0","0","0","0","0","0","4","4","4","3","3","3","4","4","4","3","3","796469037470195714","林","444","","","","","","","","","","","","","","","","","","","","","","","","","","","","","","","","","","","","","","","","","",""
"928","<p style=""color:white; font-size: 35px;"">精干</p>","i","categorize-html","43","131552","0.0-6.0-0.0-4.0-1.4","3","3","4","4","3","3","3","3","3","4","4","2","4","4","3","4","4","2","4","4","4","4","2","4","2","2","2","2","2","0","0","0","0","0","1","1","1","0","0","0","0","0","0","0","4","4","4","3","3","3","4","4","4","3","3","796469037470195714","林","444","","","","","","","","","","","","","","","","","","","true","2","2","ability","928","positive","精干","","","","","","","","","","","","","","","","",""
"null","","null","html-keyboard-response","44","131803","0.0-6.0-0.0-4.0-0.5","3","3","4","4","3","3","3","3","3","4","4","2","4","4","3","4","4","2","4","4","4","4","2","4","2","2","2","2","2","0","0","0","0","0","1","1","1","0","0","0","0","0","0","0","4","4","4","3","3","3","4","4","4","3","3","796469037470195714","林","444","","","","","","","","","","","","","","","","","","","","","","","","","","","","","","","","","","","","","","","","","",""
"1082","<p style=""color:white; font-size: 35px;"">无能</p>","e","categorize-html","45","132887","0.0-6.0-0.0-4.0-1.5","3","3","4","4","3","3","3","3","3","4","4","2","4","4","3","4","4","2","4","4","4","4","2","4","2","2","2","2","2","0","0","0","0","0","1","1","1","0","0","0","0","0","0","0","4","4","4","3","3","3","4","4","4","3","3","796469037470195714","林","444","","","","","","","","","","","","","","","","","","","true","2","2","ability","1082","negative","无能","","","","","","","","","","","","","","","","",""
"null","","null","html-keyboard-response","46","133140","0.0-6.0-0.0-4.0-0.6","3","3","4","4","3","3","3","3","3","4","4","2","4","4","3","4","4","2","4","4","4","4","2","4","2","2","2","2","2","0","0","0","0","0","1","1","1","0","0","0","0","0","0","0","4","4","4","3","3","3","4","4","4","3","3","796469037470195714","林","444","","","","","","","","","","","","","","","","","","","","","","","","","","","","","","","","","","","","","","","","","",""
"786","<p style=""color:white; font-size: 35px;"">拙笨</p>","e","categorize-html","47","133928","0.0-6.0-0.0-4.0-1.6","3","3","4","4","3","3","3","3","3","4","4","2","4","4","3","4","4","2","4","4","4","4","2","4","2","2","2","2","2","0","0","0","0","0","1","1","1","0","0","0","0","0","0","0","4","4","4","3","3","3","4","4","4","3","3","796469037470195714","林","444","","","","","","","","","","","","","","","","","","","true","2","2","ability","786","negative","拙笨","","","","","","","","","","","","","","","","",""
"null","","null","html-keyboard-response","48","134178","0.0-6.0-0.0-4.0-0.7","3","3","4","4","3","3","3","3","3","4","4","2","4","4","3","4","4","2","4","4","4","4","2","4","2","2","2","2","2","0","0","0","0","0","1","1","1","0","0","0","0","0","0","0","4","4","4","3","3","3","4","4","4","3","3","796469037470195714","林","444","","","","","","","","","","","","","","","","","","","","","","","","","","","","","","","","","","","","","","","","","",""
"619","<p style=""color:white; font-size: 35px;"">全才</p>","i","categorize-html","49","134800","0.0-6.0-0.0-4.0-1.7","3","3","4","4","3","3","3","3","3","4","4","2","4","4","3","4","4","2","4","4","4","4","2","4","2","2","2","2","2","0","0","0","0","0","1","1","1","0","0","0","0","0","0","0","4","4","4","3","3","3","4","4","4","3","3","796469037470195714","林","444","","","","","","","","","","","","","","","","","","","true","2","2","ability","619","positive","全才","","","","","","","","","","","","","","","","",""
"null","","null","html-keyboard-response","50","135052","0.0-6.0-0.0-4.0-0.8","3","3","4","4","3","3","3","3","3","4","4","2","4","4","3","4","4","2","4","4","4","4","2","4","2","2","2","2","2","0","0","0","0","0","1","1","1","0","0","0","0","0","0","0","4","4","4","3","3","3","4","4","4","3","3","796469037470195714","林","444","","","","","","","","","","","","","","","","","","","","","","","","","","","","","","","","","","","","","","","","","",""
"581","<p style=""color:white; font-size: 35px;"">废物</p>","e","categorize-html","51","135635","0.0-6.0-0.0-4.0-1.8","3","3","4","4","3","3","3","3","3","4","4","2","4","4","3","4","4","2","4","4","4","4","2","4","2","2","2","2","2","0","0","0","0","0","1","1","1","0","0","0","0","0","0","0","4","4","4","3","3","3","4","4","4","3","3","796469037470195714","林","444","","","","","","","","","","","","","","","","","","","true","2","2","ability","581","negative","废物","","","","","","","","","","","","","","","","",""
"null","","null","html-keyboard-response","52","135886","0.0-6.0-0.0-4.0-0.9","3","3","4","4","3","3","3","3","3","4","4","2","4","4","3","4","4","2","4","4","4","4","2","4","2","2","2","2","2","0","0","0","0","0","1","1","1","0","0","0","0","0","0","0","4","4","4","3","3","3","4","4","4","3","3","796469037470195714","林","444","","","","","","","","","","","","","","","","","","","","","","","","","","","","","","","","","","","","","","","","","",""
"814","<p style=""color:white; font-size: 35px;"">全能</p>","i","categorize-html","53","136703","0.0-6.0-0.0-4.0-1.9","3","3","4","4","3","3","3","3","3","4","4","2","4","4","3","4","4","2","4","4","4","4","2","4","2","2","2","2","2","0","0","0","0","0","1","1","1","0","0","0","0","0","0","0","4","4","4","3","3","3","4","4","4","3","3","796469037470195714","林","444","","","","","","","","","","","","","","","","","","","true","2","2","ability","814","positive","全能","","","","","","","","","","","","","","","","",""
"null","","null","html-keyboard-response","54","136954","0.0-6.0-0.0-4.0-0.10","3","3","4","4","3","3","3","3","3","4","4","2","4","4","3","4","4","2","4","4","4","4","2","4","2","2","2","2","2","0","0","0","0","0","1","1","1","0","0","0","0","0","0","0","4","4","4","3","3","3","4","4","4","3","3","796469037470195714","林","444","","","","","","","","","","","","","","","","","","","","","","","","","","","","","","","","","","","","","","","","","",""
"1060","<p style=""color:white; font-size: 35px;"">高效</p>","i","categorize-html","55","138016","0.0-6.0-0.0-4.0-1.10","3","3","4","4","3","3","3","3","3","4","4","2","4","4","3","4","4","2","4","4","4","4","2","4","2","2","2","2","2","0","0","0","0","0","1","1","1","0","0","0","0","0","0","0","4","4","4","3","3","3","4","4","4","3","3","796469037470195714","林","444","","","","","","","","","","","","","","","","","","","true","2","2","ability","1060","positive","高效","","","","","","","","","","","","","","","","",""
"null","","null","html-keyboard-response","56","138267","0.0-6.0-0.0-4.0-0.11","3","3","4","4","3","3","3","3","3","4","4","2","4","4","3","4","4","2","4","4","4","4","2","4","2","2","2","2","2","0","0","0","0","0","1","1","1","0","0","0","0","0","0","0","4","4","4","3","3","3","4","4","4","3","3","796469037470195714","林","444","","","","","","","","","","","","","","","","","","","","","","","","","","","","","","","","","","","","","","","","","",""
"727","<p style=""color:white; font-size: 35px;"">能干</p>","i","categorize-html","57","138997","0.0-6.0-0.0-4.0-1.11","3","3","4","4","3","3","3","3","3","4","4","2","4","4","3","4","4","2","4","4","4","4","2","4","2","2","2","2","2","0","0","0","0","0","1","1","1","0","0","0","0","0","0","0","4","4","4","3","3","3","4","4","4","3","3","796469037470195714","林","444","","","","","","","","","","","","","","","","","","","true","2","2","ability","727","positive","能干","","","","","","","","","","","","","","","","",""
"13219","
    <div class=""tag-bottom""><p>
    —— 任务3：对“自我/消极”词和“他人/积极”词分类 ——<p/>
    <span style=""color:#78DCE8""><b>注意上方，之前的四类词语将混合在一起交替呈现</b></span><p/>
    <span style=""color:#FFD866""><b>请根据上方标签的提示，尽可能正确并且快速地做出按键反应</b></span><p/>
    当按键错误时屏幕中会出现<span style=""color:red""> X </span>，需要按另一个键纠正才能继续<br/><p/>
    请把双手食指分别放在键盘的“E”键和“I”键上<p/>
    按<空格键>开始
    </p></div>"," ","html-keyboard-response","58","152217","0.0-6.0-0.0-5.0","3","3","4","4","3","3","3","3","3","4","4","2","4","4","3","4","4","2","4","4","4","4","2","4","2","2","2","2","2","0","0","0","0","0","1","1","1","0","0","0","0","0","0","0","4","4","4","3","3","3","4","4","4","3","3","796469037470195714","林","444","","","","","","","","","","","","","","","","","","","","","","","","","","","","","","","","","","","","","","","","","",""
"null","","null","html-keyboard-response","59","152468","0.0-6.0-0.0-6.0-0.0","3","3","4","4","3","3","3","3","3","4","4","2","4","4","3","4","4","2","4","4","4","4","2","4","2","2","2","2","2","0","0","0","0","0","1","1","1","0","0","0","0","0","0","0","4","4","4","3","3","3","4","4","4","3","3","796469037470195714","林","444","","","","","","","","","","","","","","","","","","","","","","","","","","","","","","","","","","","","","","","","","",""
"3053","<p style=""color:rgb(150, 250, 100); font-size: 35px;"">自己的</p>","e","categorize-html","60","155524","0.0-6.0-0.0-6.0-1.0","3","3","4","4","3","3","3","3","3","4","4","2","4","4","3","4","4","2","4","4","4","4","2","4","2","2","2","2","2","0","0","0","0","0","1","1","1","0","0","0","0","0","0","0","4","4","4","3","3","3","4","4","4","3","3","796469037470195714","林","444","","","","","","","","","","","","","","","","","","","true","3","3","ability","3053","self","自己的","","","","","","","","","","","","","","","","",""
"null","","null","html-keyboard-response","61","155774","0.0-6.0-0.0-6.0-0.1","3","3","4","4","3","3","3","3","3","4","4","2","4","4","3","4","4","2","4","4","4","4","2","4","2","2","2","2","2","0","0","0","0","0","1","1","1","0","0","0","0","0","0","0","4","4","4","3","3","3","4","4","4","3","3","796469037470195714","林","444","","","","","","","","","","","","","","","","","","","","","","","","","","","","","","","","","","","","","","","","","",""
"2061","<p style=""color:white; font-size: 35px;"">天才</p>","i","categorize-html","62","157838","0.0-6.0-0.0-6.0-1.1","3","3","4","4","3","3","3","3","3","4","4","2","4","4","3","4","4","2","4","4","4","4","2","4","2","2","2","2","2","0","0","0","0","0","1","1","1","0","0","0","0","0","0","0","4","4","4","3","3","3","4","4","4","3","3","796469037470195714","林","444","","","","","","","","","","","","","","","","","","","true","3","3","ability","2061","positive","天才","","","","","","","","","","","","","","","","",""
"null","","null","html-keyboard-response","63","158088","0.0-6.0-0.0-6.0-0.2","3","3","4","4","3","3","3","3","3","4","4","2","4","4","3","4","4","2","4","4","4","4","2","4","2","2","2","2","2","0","0","0","0","0","1","1","1","0","0","0","0","0","0","0","4","4","4","3","3","3","4","4","4","3","3","796469037470195714","林","444","","","","","","","","","","","","","","","","","","","","","","","","","","","","","","","","","","","","","","","","","",""
"1417","<p style=""color:rgb(150, 250, 100); font-size: 35px;"">别人</p>","i","categorize-html","64","159508","0.0-6.0-0.0-6.0-1.2","3","3","4","4","3","3","3","3","3","4","4","2","4","4","3","4","4","2","4","4","4","4","2","4","2","2","2","2","2","0","0","0","0","0","1","1","1","0","0","0","0","0","0","0","4","4","4","3","3","3","4","4","4","3","3","796469037470195714","林","444","","","","","","","","","","","","","","","","","","","true","3","3","ability","1417","other","别人","","","","","","","","","","","","","","","","",""
"null","","null","html-keyboard-response","65","159759","0.0-6.0-0.0-6.0-0.3","3","3","4","4","3","3","3","3","3","4","4","2","4","4","3","4","4","2","4","4","4","4","2","4","2","2","2","2","2","0","0","0","0","0","1","1","1","0","0","0","0","0","0","0","4","4","4","3","3","3","4","4","4","3","3","796469037470195714","林","444","","","","","","","","","","","","","","","","","","","","","","","","","","","","","","","","","","","","","","","","","",""
"1082","<p style=""color:white; font-size: 35px;"">拙笨</p>","e","categorize-html","66","160844","0.0-6.0-0.0-6.0-1.3","3","3","4","4","3","3","3","3","3","4","4","2","4","4","3","4","4","2","4","4","4","4","2","4","2","2","2","2","2","0","0","0","0","0","1","1","1","0","0","0","0","0","0","0","4","4","4","3","3","3","4","4","4","3","3","796469037470195714","林","444","","","","","","","","","","","","","","","","","","","true","3","3","ability","1082","negative","拙笨","","","","","","","","","","","","","","","","",""
"null","","null","html-keyboard-response","67","161096","0.0-6.0-0.0-6.0-0.4","3","3","4","4","3","3","3","3","3","4","4","2","4","4","3","4","4","2","4","4","4","4","2","4","2","2","2","2","2","0","0","0","0","0","1","1","1","0","0","0","0","0","0","0","4","4","4","3","3","3","4","4","4","3","3","796469037470195714","林","444","","","","","","","","","","","","","","","","","","","","","","","","","","","","","","","","","","","","","","","","","",""
"1652","<p style=""color:rgb(150, 250, 100); font-size: 35px;"">他人的</p>","i","categorize-html","68","162751","0.0-6.0-0.0-6.0-1.4","3","3","4","4","3","3","3","3","3","4","4","2","4","4","3","4","4","2","4","4","4","4","2","4","2","2","2","2","2","0","0","0","0","0","1","1","1","0","0","0","0","0","0","0","4","4","4","3","3","3","4","4","4","3","3","796469037470195714","林","444","","","","","","","","","","","","","","","","","","","true","3","3","ability","1652","other","他人的","","","","","","","","","","","","","","","","",""
"null","","null","html-keyboard-response","69","163003","0.0-6.0-0.0-6.0-0.5","3","3","4","4","3","3","3","3","3","4","4","2","4","4","3","4","4","2","4","4","4","4","2","4","2","2","2","2","2","0","0","0","0","0","1","1","1","0","0","0","0","0","0","0","4","4","4","3","3","3","4","4","4","3","3","796469037470195714","林","444","","","","","","","","","","","","","","","","","","","","","","","","","","","","","","","","","","","","","","","","","",""
"1220","<p style=""color:white; font-size: 35px;"">全能</p>","i","categorize-html","70","164226","0.0-6.0-0.0-6.0-1.5","3","3","4","4","3","3","3","3","3","4","4","2","4","4","3","4","4","2","4","4","4","4","2","4","2","2","2","2","2","0","0","0","0","0","1","1","1","0","0","0","0","0","0","0","4","4","4","3","3","3","4","4","4","3","3","796469037470195714","林","444","","","","","","","","","","","","","","","","","","","true","3","3","ability","1220","positive","全能","","","","","","","","","","","","","","","","",""
"null","","null","html-keyboard-response","71","164478","0.0-6.0-0.0-6.0-0.6","3","3","4","4","3","3","3","3","3","4","4","2","4","4","3","4","4","2","4","4","4","4","2","4","2","2","2","2","2","0","0","0","0","0","1","1","1","0","0","0","0","0","0","0","4","4","4","3","3","3","4","4","4","3","3","796469037470195714","林","444","","","","","","","","","","","","","","","","","","","","","","","","","","","","","","","","","","","","","","","","","",""
"849","<p style=""color:rgb(150, 250, 100); font-size: 35px;"">我</p>","e","categorize-html","72","165330","0.0-6.0-0.0-6.0-1.6","3","3","4","4","3","3","3","3","3","4","4","2","4","4","3","4","4","2","4","4","4","4","2","4","2","2","2","2","2","0","0","0","0","0","1","1","1","0","0","0","0","0","0","0","4","4","4","3","3","3","4","4","4","3","3","796469037470195714","林","444","","","","","","","","","","","","","","","","","","","true","3","3","ability","849","self","我","","","","","","","","","","","","","","","","",""
"null","","null","html-keyboard-response","73","165581","0.0-6.0-0.0-6.0-0.7","3","3","4","4","3","3","3","3","3","4","4","2","4","4","3","4","4","2","4","4","4","4","2","4","2","2","2","2","2","0","0","0","0","0","1","1","1","0","0","0","0","0","0","0","4","4","4","3","3","3","4","4","4","3","3","796469037470195714","林","444","","","","","","","","","","","","","","","","","","","","","","","","","","","","","","","","","","","","","","","","","",""
"1190","<p style=""color:white; font-size: 35px;"">低能</p>","e","categorize-html","74","166774","0.0-6.0-0.0-6.0-1.7","3","3","4","4","3","3","3","3","3","4","4","2","4","4","3","4","4","2","4","4","4","4","2","4","2","2","2","2","2","0","0","0","0","0","1","1","1","0","0","0","0","0","0","0","4","4","4","3","3","3","4","4","4","3","3","796469037470195714","林","444","","","","","","","","","","","","","","","","","","","true","3","3","ability","1190","negative","低能","","","","","","","","","","","","","","","","",""
"null","","null","html-keyboard-response","75","167026","0.0-6.0-0.0-6.0-0.8","3","3","4","4","3","3","3","3","3","4","4","2","4","4","3","4","4","2","4","4","4","4","2","4","2","2","2","2","2","0","0","0","0","0","1","1","1","0","0","0","0","0","0","0","4","4","4","3","3","3","4","4","4","3","3","796469037470195714","林","444","","","","","","","","","","","","","","","","","","","","","","","","","","","","","","","","","","","","","","","","","",""
"863","<p style=""color:rgb(150, 250, 100); font-size: 35px;"">他的</p>","i","categorize-html","76","167892","0.0-6.0-0.0-6.0-1.8","3","3","4","4","3","3","3","3","3","4","4","2","4","4","3","4","4","2","4","4","4","4","2","4","2","2","2","2","2","0","0","0","0","0","1","1","1","0","0","0","0","0","0","0","4","4","4","3","3","3","4","4","4","3","3","796469037470195714","林","444","","","","","","","","","","","","","","","","","","","true","3","3","ability","863","other","他的","","","","","","","","","","","","","","","","",""
"null","","null","html-keyboard-response","77","168143","0.0-6.0-0.0-6.0-0.9","3","3","4","4","3","3","3","3","3","4","4","2","4","4","3","4","4","2","4","4","4","4","2","4","2","2","2","2","2","0","0","0","0","0","1","1","1","0","0","0","0","0","0","0","4","4","4","3","3","3","4","4","4","3","3","796469037470195714","林","444","","","","","","","","","","","","","","","","","","","","","","","","","","","","","","","","","","","","","","","","","",""
"966","<p style=""color:white; font-size: 35px;"">高效</p>","i","categorize-html","78","169111","0.0-6.0-0.0-6.0-1.9","3","3","4","4","3","3","3","3","3","4","4","2","4","4","3","4","4","2","4","4","4","4","2","4","2","2","2","2","2","0","0","0","0","0","1","1","1","0","0","0","0","0","0","0","4","4","4","3","3","3","4","4","4","3","3","796469037470195714","林","444","","","","","","","","","","","","","","","","","","","true","3","3","ability","966","positive","高效","","","","","","","","","","","","","","","","",""
"null","","null","html-keyboard-response","79","169362","0.0-6.0-0.0-6.0-0.10","3","3","4","4","3","3","3","3","3","4","4","2","4","4","3","4","4","2","4","4","4","4","2","4","2","2","2","2","2","0","0","0","0","0","1","1","1","0","0","0","0","0","0","0","4","4","4","3","3","3","4","4","4","3","3","796469037470195714","林","444","","","","","","","","","","","","","","","","","","","","","","","","","","","","","","","","","","","","","","","","","",""
"1334","<p style=""color:rgb(150, 250, 100); font-size: 35px;"">本人</p>","e","categorize-html","80","170699","0.0-6.0-0.0-6.0-1.10","3","3","4","4","3","3","3","3","3","4","4","2","4","4","3","4","4","2","4","4","4","4","2","4","2","2","2","2","2","0","0","0","0","0","1","1","1","0","0","0","0","0","0","0","4","4","4","3","3","3","4","4","4","3","3","796469037470195714","林","444","","","","","","","","","","","","","","","","","","","true","3","3","ability","1334","self","本人","","","","","","","","","","","","","","","","",""
"null","","null","html-keyboard-response","81","170951","0.0-6.0-0.0-6.0-0.11","3","3","4","4","3","3","3","3","3","4","4","2","4","4","3","4","4","2","4","4","4","4","2","4","2","2","2","2","2","0","0","0","0","0","1","1","1","0","0","0","0","0","0","0","4","4","4","3","3","3","4","4","4","3","3","796469037470195714","林","444","","","","","","","","","","","","","","","","","","","","","","","","","","","","","","","","","","","","","","","","","",""
"1075","<p style=""color:white; font-size: 35px;"">无能</p>","e","categorize-html","82","172027","0.0-6.0-0.0-6.0-1.11","3","3","4","4","3","3","3","3","3","4","4","2","4","4","3","4","4","2","4","4","4","4","2","4","2","2","2","2","2","0","0","0","0","0","1","1","1","0","0","0","0","0","0","0","4","4","4","3","3","3","4","4","4","3","3","796469037470195714","林","444","","","","","","","","","","","","","","","","","","","true","3","3","ability","1075","negative","无能","","","","","","","","","","","","","","","","",""
"null","","null","html-keyboard-response","83","172279","0.0-6.0-0.0-6.0-0.12","3","3","4","4","3","3","3","3","3","4","4","2","4","4","3","4","4","2","4","4","4","4","2","4","2","2","2","2","2","0","0","0","0","0","1","1","1","0","0","0","0","0","0","0","4","4","4","3","3","3","4","4","4","3","3","796469037470195714","林","444","","","","","","","","","","","","","","","","","","","","","","","","","","","","","","","","","","","","","","","","","",""
"1001","<p style=""color:rgb(150, 250, 100); font-size: 35px;"">我的</p>","e","categorize-html","84","173283","0.0-6.0-0.0-6.0-1.12","3","3","4","4","3","3","3","3","3","4","4","2","4","4","3","4","4","2","4","4","4","4","2","4","2","2","2","2","2","0","0","0","0","0","1","1","1","0","0","0","0","0","0","0","4","4","4","3","3","3","4","4","4","3","3","796469037470195714","林","444","","","","","","","","","","","","","","","","","","","true","3","3","ability","1001","self","我的","","","","","","","","","","","","","","","","",""
"null","","null","html-keyboard-response","85","173533","0.0-6.0-0.0-6.0-0.13","3","3","4","4","3","3","3","3","3","4","4","2","4","4","3","4","4","2","4","4","4","4","2","4","2","2","2","2","2","0","0","0","0","0","1","1","1","0","0","0","0","0","0","0","4","4","4","3","3","3","4","4","4","3","3","796469037470195714","林","444","","","","","","","","","","","","","","","","","","","","","","","","","","","","","","","","","","","","","","","","","",""
"1757","<p style=""color:white; font-size: 35px;"">能干</p>","i","categorize-html","86","175293","0.0-6.0-0.0-6.0-1.13","3","3","4","4","3","3","3","3","3","4","4","2","4","4","3","4","4","2","4","4","4","4","2","4","2","2","2","2","2","0","0","0","0","0","1","1","1","0","0","0","0","0","0","0","4","4","4","3","3","3","4","4","4","3","3","796469037470195714","林","444","","","","","","","","","","","","","","","","","","","true","3","3","ability","1757","positive","能干","","","","","","","","","","","","","","","","",""
"null","","null","html-keyboard-response","87","175544","0.0-6.0-0.0-6.0-0.14","3","3","4","4","3","3","3","3","3","4","4","2","4","4","3","4","4","2","4","4","4","4","2","4","2","2","2","2","2","0","0","0","0","0","1","1","1","0","0","0","0","0","0","0","4","4","4","3","3","3","4","4","4","3","3","796469037470195714","林","444","","","","","","","","","","","","","","","","","","","","","","","","","","","","","","","","","","","","","","","","","",""
"572","<p style=""color:rgb(150, 250, 100); font-size: 35px;"">他</p>","i","categorize-html","88","176119","0.0-6.0-0.0-6.0-1.14","3","3","4","4","3","3","3","3","3","4","4","2","4","4","3","4","4","2","4","4","4","4","2","4","2","2","2","2","2","0","0","0","0","0","1","1","1","0","0","0","0","0","0","0","4","4","4","3","3","3","4","4","4","3","3","796469037470195714","林","444","","","","","","","","","","","","","","","","","","","true","3","3","ability","572","other","他","","","","","","","","","","","","","","","","",""
"null","","null","html-keyboard-response","89","176370","0.0-6.0-0.0-6.0-0.15","3","3","4","4","3","3","3","3","3","4","4","2","4","4","3","4","4","2","4","4","4","4","2","4","2","2","2","2","2","0","0","0","0","0","1","1","1","0","0","0","0","0","0","0","4","4","4","3","3","3","4","4","4","3","3","796469037470195714","林","444","","","","","","","","","","","","","","","","","","","","","","","","","","","","","","","","","","","","","","","","","",""
"567","<p style=""color:white; font-size: 35px;"">废物</p>","e","categorize-html","90","176940","0.0-6.0-0.0-6.0-1.15","3","3","4","4","3","3","3","3","3","4","4","2","4","4","3","4","4","2","4","4","4","4","2","4","2","2","2","2","2","0","0","0","0","0","1","1","1","0","0","0","0","0","0","0","4","4","4","3","3","3","4","4","4","3","3","796469037470195714","林","444","","","","","","","","","","","","","","","","","","","true","3","3","ability","567","negative","废物","","","","","","","","","","","","","","","","",""
"null","","null","html-keyboard-response","91","177191","0.0-6.0-0.0-6.0-0.16","3","3","4","4","3","3","3","3","3","4","4","2","4","4","3","4","4","2","4","4","4","4","2","4","2","2","2","2","2","0","0","0","0","0","1","1","1","0","0","0","0","0","0","0","4","4","4","3","3","3","4","4","4","3","3","796469037470195714","林","444","","","","","","","","","","","","","","","","","","","","","","","","","","","","","","","","","","","","","","","","","",""
"563","<p style=""color:rgb(150, 250, 100); font-size: 35px;"">本人的</p>","e","categorize-html","92","177756","0.0-6.0-0.0-6.0-1.16","3","3","4","4","3","3","3","3","3","4","4","2","4","4","3","4","4","2","4","4","4","4","2","4","2","2","2","2","2","0","0","0","0","0","1","1","1","0","0","0","0","0","0","0","4","4","4","3","3","3","4","4","4","3","3","796469037470195714","林","444","","","","","","","","","","","","","","","","","","","true","3","3","ability","563","self","本人的","","","","","","","","","","","","","","","","",""
"null","","null","html-keyboard-response","93","178007","0.0-6.0-0.0-6.0-0.17","3","3","4","4","3","3","3","3","3","4","4","2","4","4","3","4","4","2","4","4","4","4","2","4","2","2","2","2","2","0","0","0","0","0","1","1","1","0","0","0","0","0","0","0","4","4","4","3","3","3","4","4","4","3","3","796469037470195714","林","444","","","","","","","","","","","","","","","","","","","","","","","","","","","","","","","","","","","","","","","","","",""
"626","<p style=""color:white; font-size: 35px;"">愚钝</p>","e","categorize-html","94","178635","0.0-6.0-0.0-6.0-1.17","3","3","4","4","3","3","3","3","3","4","4","2","4","4","3","4","4","2","4","4","4","4","2","4","2","2","2","2","2","0","0","0","0","0","1","1","1","0","0","0","0","0","0","0","4","4","4","3","3","3","4","4","4","3","3","796469037470195714","林","444","","","","","","","","","","","","","","","","","","","true","3","3","ability","626","negative","愚钝","","","","","","","","","","","","","","","","",""
"null","","null","html-keyboard-response","95","178887","0.0-6.0-0.0-6.0-0.18","3","3","4","4","3","3","3","3","3","4","4","2","4","4","3","4","4","2","4","4","4","4","2","4","2","2","2","2","2","0","0","0","0","0","1","1","1","0","0","0","0","0","0","0","4","4","4","3","3","3","4","4","4","3","3","796469037470195714","林","444","","","","","","","","","","","","","","","","","","","","","","","","","","","","","","","","","","","","","","","","","",""
"950","<p style=""color:rgb(150, 250, 100); font-size: 35px;"">别人的</p>","i","categorize-html","96","179839","0.0-6.0-0.0-6.0-1.18","3","3","4","4","3","3","3","3","3","4","4","2","4","4","3","4","4","2","4","4","4","4","2","4","2","2","2","2","2","0","0","0","0","0","1","1","1","0","0","0","0","0","0","0","4","4","4","3","3","3","4","4","4","3","3","796469037470195714","林","444","","","","","","","","","","","","","","","","","","","true","3","3","ability","950","other","别人的","","","","","","","","","","","","","","","","",""
"null","","null","html-keyboard-response","97","180090","0.0-6.0-0.0-6.0-0.19","3","3","4","4","3","3","3","3","3","4","4","2","4","4","3","4","4","2","4","4","4","4","2","4","2","2","2","2","2","0","0","0","0","0","1","1","1","0","0","0","0","0","0","0","4","4","4","3","3","3","4","4","4","3","3","796469037470195714","林","444","","","","","","","","","","","","","","","","","","","","","","","","","","","","","","","","","","","","","","","","","",""
"634","<p style=""color:white; font-size: 35px;"">全才</p>","i","categorize-html","98","180726","0.0-6.0-0.0-6.0-1.19","3","3","4","4","3","3","3","3","3","4","4","2","4","4","3","4","4","2","4","4","4","4","2","4","2","2","2","2","2","0","0","0","0","0","1","1","1","0","0","0","0","0","0","0","4","4","4","3","3","3","4","4","4","3","3","796469037470195714","林","444","","","","","","","","","","","","","","","","","","","true","3","3","ability","634","positive","全才","","","","","","","","","","","","","","","","",""
"null","","null","html-keyboard-response","99","180977","0.0-6.0-0.0-6.0-0.20","3","3","4","4","3","3","3","3","3","4","4","2","4","4","3","4","4","2","4","4","4","4","2","4","2","2","2","2","2","0","0","0","0","0","1","1","1","0","0","0","0","0","0","0","4","4","4","3","3","3","4","4","4","3","3","796469037470195714","林","444","","","","","","","","","","","","","","","","","","","","","","","","","","","","","","","","","","","","","","","","","",""
"711","<p style=""color:rgb(150, 250, 100); font-size: 35px;"">他人</p>","i","categorize-html","100","181691","0.0-6.0-0.0-6.0-1.20","3","3","4","4","3","3","3","3","3","4","4","2","4","4","3","4","4","2","4","4","4","4","2","4","2","2","2","2","2","0","0","0","0","0","1","1","1","0","0","0","0","0","0","0","4","4","4","3","3","3","4","4","4","3","3","796469037470195714","林","444","","","","","","","","","","","","","","","","","","","true","3","3","ability","711","other","他人","","","","","","","","","","","","","","","","",""
"null","","null","html-keyboard-response","101","181942","0.0-6.0-0.0-6.0-0.21","3","3","4","4","3","3","3","3","3","4","4","2","4","4","3","4","4","2","4","4","4","4","2","4","2","2","2","2","2","0","0","0","0","0","1","1","1","0","0","0","0","0","0","0","4","4","4","3","3","3","4","4","4","3","3","796469037470195714","林","444","","","","","","","","","","","","","","","","","","","","","","","","","","","","","","","","","","","","","","","","","",""
"940","<p style=""color:white; font-size: 35px;"">精干</p>","i","categorize-html","102","182884","0.0-6.0-0.0-6.0-1.21","3","3","4","4","3","3","3","3","3","4","4","2","4","4","3","4","4","2","4","4","4","4","2","4","2","2","2","2","2","0","0","0","0","0","1","1","1","0","0","0","0","0","0","0","4","4","4","3","3","3","4","4","4","3","3","796469037470195714","林","444","","","","","","","","","","","","","","","","","","","true","3","3","ability","940","positive","精干","","","","","","","","","","","","","","","","",""
"null","","null","html-keyboard-response","103","183135","0.0-6.0-0.0-6.0-0.22","3","3","4","4","3","3","3","3","3","4","4","2","4","4","3","4","4","2","4","4","4","4","2","4","2","2","2","2","2","0","0","0","0","0","1","1","1","0","0","0","0","0","0","0","4","4","4","3","3","3","4","4","4","3","3","796469037470195714","林","444","","","","","","","","","","","","","","","","","","","","","","","","","","","","","","","","","","","","","","","","","",""
"863","<p style=""color:rgb(150, 250, 100); font-size: 35px;"">自己</p>","e","categorize-html","104","184001","0.0-6.0-0.0-6.0-1.22","3","3","4","4","3","3","3","3","3","4","4","2","4","4","3","4","4","2","4","4","4","4","2","4","2","2","2","2","2","0","0","0","0","0","1","1","1","0","0","0","0","0","0","0","4","4","4","3","3","3","4","4","4","3","3","796469037470195714","林","444","","","","","","","","","","","","","","","","","","","true","3","3","ability","863","self","自己","","","","","","","","","","","","","","","","",""
"null","","null","html-keyboard-response","105","184252","0.0-6.0-0.0-6.0-0.23","3","3","4","4","3","3","3","3","3","4","4","2","4","4","3","4","4","2","4","4","4","4","2","4","2","2","2","2","2","0","0","0","0","0","1","1","1","0","0","0","0","0","0","0","4","4","4","3","3","3","4","4","4","3","3","796469037470195714","林","444","","","","","","","","","","","","","","","","","","","","","","","","","","","","","","","","","","","","","","","","","",""
"893","<p style=""color:white; font-size: 35px;"">蠢笨</p>","e","categorize-html","106","185147","0.0-6.0-0.0-6.0-1.23","3","3","4","4","3","3","3","3","3","4","4","2","4","4","3","4","4","2","4","4","4","4","2","4","2","2","2","2","2","0","0","0","0","0","1","1","1","0","0","0","0","0","0","0","4","4","4","3","3","3","4","4","4","3","3","796469037470195714","林","444","","","","","","","","","","","","","","","","","","","true","3","3","ability","893","negative","蠢笨","","","","","","","","","","","","","","","","",""
"3527","
    <div class=""tag-bottom""><p>
    —— 任务4：对“自我/消极”词和“他人/积极”词分类 ——<p/>
    <span style=""color:#78DCE8""><b>与刚才的任务完全相同，请再次对这四类词语分类</b></span><p/>
    <span style=""color:#FFD866""><b>请根据上方标签的提示，尽可能正确并且快速地做出按键反应</b></span><p/>
    当按键错误时屏幕中会出现<span style=""color:red""> X </span>，需要按另一个键纠正才能继续<br/><p/>
    请把双手食指分别放在键盘的“E”键和“I”键上<p/>
    按<空格键>开始
    </p></div>"," ","html-keyboard-response","107","188675","0.0-6.0-0.0-7.0","3","3","4","4","3","3","3","3","3","4","4","2","4","4","3","4","4","2","4","4","4","4","2","4","2","2","2","2","2","0","0","0","0","0","1","1","1","0","0","0","0","0","0","0","4","4","4","3","3","3","4","4","4","3","3","796469037470195714","林","444","","","","","","","","","","","","","","","","","","","","","","","","","","","","","","","","","","","","","","","","","",""
"null","","null","html-keyboard-response","108","188926","0.0-6.0-0.0-8.0-0.0","3","3","4","4","3","3","3","3","3","4","4","2","4","4","3","4","4","2","4","4","4","4","2","4","2","2","2","2","2","0","0","0","0","0","1","1","1","0","0","0","0","0","0","0","4","4","4","3","3","3","4","4","4","3","3","796469037470195714","林","444","","","","","","","","","","","","","","","","","","","","","","","","","","","","","","","","","","","","","","","","","",""
"905","<p style=""color:rgb(150, 250, 100); font-size: 35px;"">本人</p>","e","categorize-html","109","189834","0.0-6.0-0.0-8.0-1.0","3","3","4","4","3","3","3","3","3","4","4","2","4","4","3","4","4","2","4","4","4","4","2","4","2","2","2","2","2","0","0","0","0","0","1","1","1","0","0","0","0","0","0","0","4","4","4","3","3","3","4","4","4","3","3","796469037470195714","林","444","","","","","","","","","","","","","","","","","","","true","4","4","ability","905","self","本人","","","","","","","","","","","","","","","","",""
"null","","null","html-keyboard-response","110","190084","0.0-6.0-0.0-8.0-0.1","3","3","4","4","3","3","3","3","3","4","4","2","4","4","3","4","4","2","4","4","4","4","2","4","2","2","2","2","2","0","0","0","0","0","1","1","1","0","0","0","0","0","0","0","4","4","4","3","3","3","4","4","4","3","3","796469037470195714","林","444","","","","","","","","","","","","","","","","","","","","","","","","","","","","","","","","","","","","","","","","","",""
"1494","<p style=""color:white; font-size: 35px;"">天才</p>","i","categorize-html","111","191580","0.0-6.0-0.0-8.0-1.1","3","3","4","4","3","3","3","3","3","4","4","2","4","4","3","4","4","2","4","4","4","4","2","4","2","2","2","2","2","0","0","0","0","0","1","1","1","0","0","0","0","0","0","0","4","4","4","3","3","3","4","4","4","3","3","796469037470195714","林","444","","","","","","","","","","","","","","","","","","","true","4","4","ability","1494","positive","天才","","","","","","","","","","","","","","","","",""
"null","","null","html-keyboard-response","112","191832","0.0-6.0-0.0-8.0-0.2","3","3","4","4","3","3","3","3","3","4","4","2","4","4","3","4","4","2","4","4","4","4","2","4","2","2","2","2","2","0","0","0","0","0","1","1","1","0","0","0","0","0","0","0","4","4","4","3","3","3","4","4","4","3","3","796469037470195714","林","444","","","","","","","","","","","","","","","","","","","","","","","","","","","","","","","","","","","","","","","","","",""
"665","<p style=""color:rgb(150, 250, 100); font-size: 35px;"">他的</p>","i","categorize-html","113","192500","0.0-6.0-0.0-8.0-1.2","3","3","4","4","3","3","3","3","3","4","4","2","4","4","3","4","4","2","4","4","4","4","2","4","2","2","2","2","2","0","0","0","0","0","1","1","1","0","0","0","0","0","0","0","4","4","4","3","3","3","4","4","4","3","3","796469037470195714","林","444","","","","","","","","","","","","","","","","","","","true","4","4","ability","665","other","他的","","","","","","","","","","","","","","","","",""
"null","","null","html-keyboard-response","114","192751","0.0-6.0-0.0-8.0-0.3","3","3","4","4","3","3","3","3","3","4","4","2","4","4","3","4","4","2","4","4","4","4","2","4","2","2","2","2","2","0","0","0","0","0","1","1","1","0","0","0","0","0","0","0","4","4","4","3","3","3","4","4","4","3","3","796469037470195714","林","444","","","","","","","","","","","","","","","","","","","","","","","","","","","","","","","","","","","","","","","","","",""
"689","<p style=""color:white; font-size: 35px;"">无能</p>","e","categorize-html","115","193443","0.0-6.0-0.0-8.0-1.3","3","3","4","4","3","3","3","3","3","4","4","2","4","4","3","4","4","2","4","4","4","4","2","4","2","2","2","2","2","0","0","0","0","0","1","1","1","0","0","0","0","0","0","0","4","4","4","3","3","3","4","4","4","3","3","796469037470195714","林","444","","","","","","","","","","","","","","","","","","","true","4","4","ability","689","negative","无能","","","","","","","","","","","","","","","","",""
"null","","null","html-keyboard-response","116","193693","0.0-6.0-0.0-8.0-0.4","3","3","4","4","3","3","3","3","3","4","4","2","4","4","3","4","4","2","4","4","4","4","2","4","2","2","2","2","2","0","0","0","0","0","1","1","1","0","0","0","0","0","0","0","4","4","4","3","3","3","4","4","4","3","3","796469037470195714","林","444","","","","","","","","","","","","","","","","","","","","","","","","","","","","","","","","","","","","","","","","","",""
"832","<p style=""color:rgb(150, 250, 100); font-size: 35px;"">自己</p>","e","categorize-html","117","194527","0.0-6.0-0.0-8.0-1.4","3","3","4","4","3","3","3","3","3","4","4","2","4","4","3","4","4","2","4","4","4","4","2","4","2","2","2","2","2","0","0","0","0","0","1","1","1","0","0","0","0","0","0","0","4","4","4","3","3","3","4","4","4","3","3","796469037470195714","林","444","","","","","","","","","","","","","","","","","","","true","4","4","ability","832","self","自己","","","","","","","","","","","","","","","","",""
"null","","null","html-keyboard-response","118","194778","0.0-6.0-0.0-8.0-0.5","3","3","4","4","3","3","3","3","3","4","4","2","4","4","3","4","4","2","4","4","4","4","2","4","2","2","2","2","2","0","0","0","0","0","1","1","1","0","0","0","0","0","0","0","4","4","4","3","3","3","4","4","4","3","3","796469037470195714","林","444","","","","","","","","","","","","","","","","","","","","","","","","","","","","","","","","","","","","","","","","","",""
"561","<p style=""color:white; font-size: 35px;"">拙笨</p>","e","categorize-html","119","195342","0.0-6.0-0.0-8.0-1.5","3","3","4","4","3","3","3","3","3","4","4","2","4","4","3","4","4","2","4","4","4","4","2","4","2","2","2","2","2","0","0","0","0","0","1","1","1","0","0","0","0","0","0","0","4","4","4","3","3","3","4","4","4","3","3","796469037470195714","林","444","","","","","","","","","","","","","","","","","","","true","4","4","ability","561","negative","拙笨","","","","","","","","","","","","","","","","",""
"null","","null","html-keyboard-response","120","195592","0.0-6.0-0.0-8.0-0.6","3","3","4","4","3","3","3","3","3","4","4","2","4","4","3","4","4","2","4","4","4","4","2","4","2","2","2","2","2","0","0","0","0","0","1","1","1","0","0","0","0","0","0","0","4","4","4","3","3","3","4","4","4","3","3","796469037470195714","林","444","","","","","","","","","","","","","","","","","","","","","","","","","","","","","","","","","","","","","","","","","",""
"317","<p style=""color:rgb(150, 250, 100); font-size: 35px;"">别人的</p>","e","categorize-html","121","196505","0.0-6.0-0.0-8.0-1.6","3","3","4","4","3","3","3","3","3","4","4","2","4","4","3","4","4","2","4","4","4","4","2","4","2","2","2","2","2","0","0","0","0","0","1","1","1","0","0","0","0","0","0","0","4","4","4","3","3","3","4","4","4","3","3","796469037470195714","林","444","","","","","","","","","","","","","","","","","","","false","4","4","ability","1430.9782608695652","other","别人的","","","","","","","","","","","","","","","","",""
"null","","null","html-keyboard-response","122","196756","0.0-6.0-0.0-8.0-0.7","3","3","4","4","3","3","3","3","3","4","4","2","4","4","3","4","4","2","4","4","4","4","2","4","2","2","2","2","2","0","0","0","0","0","1","1","1","0","0","0","0","0","0","0","4","4","4","3","3","3","4","4","4","3","3","796469037470195714","林","444","","","","","","","","","","","","","","","","","","","","","","","","","","","","","","","","","","","","","","","","","",""
"979","<p style=""color:white; font-size: 35px;"">全能</p>","i","categorize-html","123","197738","0.0-6.0-0.0-8.0-1.7","3","3","4","4","3","3","3","3","3","4","4","2","4","4","3","4","4","2","4","4","4","4","2","4","2","2","2","2","2","0","0","0","0","0","1","1","1","0","0","0","0","0","0","0","4","4","4","3","3","3","4","4","4","3","3","796469037470195714","林","444","","","","","","","","","","","","","","","","","","","true","4","4","ability","979","positive","全能","","","","","","","","","","","","","","","","",""
"null","","null","html-keyboard-response","124","197989","0.0-6.0-0.0-8.0-0.8","3","3","4","4","3","3","3","3","3","4","4","2","4","4","3","4","4","2","4","4","4","4","2","4","2","2","2","2","2","0","0","0","0","0","1","1","1","0","0","0","0","0","0","0","4","4","4","3","3","3","4","4","4","3","3","796469037470195714","林","444","","","","","","","","","","","","","","","","","","","","","","","","","","","","","","","","","","","","","","","","","",""
"715","<p style=""color:rgb(150, 250, 100); font-size: 35px;"">他的</p>","i","categorize-html","125","198706","0.0-6.0-0.0-8.0-1.8","3","3","4","4","3","3","3","3","3","4","4","2","4","4","3","4","4","2","4","4","4","4","2","4","2","2","2","2","2","0","0","0","0","0","1","1","1","0","0","0","0","0","0","0","4","4","4","3","3","3","4","4","4","3","3","796469037470195714","林","444","","","","","","","","","","","","","","","","","","","true","4","4","ability","715","other","他的","","","","","","","","","","","","","","","","",""
"null","","null","html-keyboard-response","126","198958","0.0-6.0-0.0-8.0-0.9","3","3","4","4","3","3","3","3","3","4","4","2","4","4","3","4","4","2","4","4","4","4","2","4","2","2","2","2","2","0","0","0","0","0","1","1","1","0","0","0","0","0","0","0","4","4","4","3","3","3","4","4","4","3","3","796469037470195714","林","444","","","","","","","","","","","","","","","","","","","","","","","","","","","","","","","","","","","","","","","","","",""
"733","<p style=""color:white; font-size: 35px;"">能干</p>","i","categorize-html","127","199693","0.0-6.0-0.0-8.0-1.9","3","3","4","4","3","3","3","3","3","4","4","2","4","4","3","4","4","2","4","4","4","4","2","4","2","2","2","2","2","0","0","0","0","0","1","1","1","0","0","0","0","0","0","0","4","4","4","3","3","3","4","4","4","3","3","796469037470195714","林","444","","","","","","","","","","","","","","","","","","","true","4","4","ability","733","positive","能干","","","","","","","","","","","","","","","","",""
"null","","null","html-keyboard-response","128","199944","0.0-6.0-0.0-8.0-0.10","3","3","4","4","3","3","3","3","3","4","4","2","4","4","3","4","4","2","4","4","4","4","2","4","2","2","2","2","2","0","0","0","0","0","1","1","1","0","0","0","0","0","0","0","4","4","4","3","3","3","4","4","4","3","3","796469037470195714","林","444","","","","","","","","","","","","","","","","","","","","","","","","","","","","","","","","","","","","","","","","","",""
"543","<p style=""color:rgb(150, 250, 100); font-size: 35px;"">我</p>","e","categorize-html","129","200490","0.0-6.0-0.0-8.0-1.10","3","3","4","4","3","3","3","3","3","4","4","2","4","4","3","4","4","2","4","4","4","4","2","4","2","2","2","2","2","0","0","0","0","0","1","1","1","0","0","0","0","0","0","0","4","4","4","3","3","3","4","4","4","3","3","796469037470195714","林","444","","","","","","","","","","","","","","","","","","","true","4","4","ability","543","self","我","","","","","","","","","","","","","","","","",""
"null","","null","html-keyboard-response","130","200741","0.0-6.0-0.0-8.0-0.11","3","3","4","4","3","3","3","3","3","4","4","2","4","4","3","4","4","2","4","4","4","4","2","4","2","2","2","2","2","0","0","0","0","0","1","1","1","0","0","0","0","0","0","0","4","4","4","3","3","3","4","4","4","3","3","796469037470195714","林","444","","","","","","","","","","","","","","","","","","","","","","","","","","","","","","","","","","","","","","","","","",""
"523","<p style=""color:white; font-size: 35px;"">愚钝</p>","e","categorize-html","131","201267","0.0-6.0-0.0-8.0-1.11","3","3","4","4","3","3","3","3","3","4","4","2","4","4","3","4","4","2","4","4","4","4","2","4","2","2","2","2","2","0","0","0","0","0","1","1","1","0","0","0","0","0","0","0","4","4","4","3","3","3","4","4","4","3","3","796469037470195714","林","444","","","","","","","","","","","","","","","","","","","true","4","4","ability","523","negative","愚钝","","","","","","","","","","","","","","","","",""
"null","","null","html-keyboard-response","132","201518","0.0-6.0-0.0-8.0-0.12","3","3","4","4","3","3","3","3","3","4","4","2","4","4","3","4","4","2","4","4","4","4","2","4","2","2","2","2","2","0","0","0","0","0","1","1","1","0","0","0","0","0","0","0","4","4","4","3","3","3","4","4","4","3","3","796469037470195714","林","444","","","","","","","","","","","","","","","","","","","","","","","","","","","","","","","","","","","","","","","","","",""
"806","<p style=""color:rgb(150, 250, 100); font-size: 35px;"">他人</p>","i","categorize-html","133","202326","0.0-6.0-0.0-8.0-1.12","3","3","4","4","3","3","3","3","3","4","4","2","4","4","3","4","4","2","4","4","4","4","2","4","2","2","2","2","2","0","0","0","0","0","1","1","1","0","0","0","0","0","0","0","4","4","4","3","3","3","4","4","4","3","3","796469037470195714","林","444","","","","","","","","","","","","","","","","","","","true","4","4","ability","806","other","他人","","","","","","","","","","","","","","","","",""
"null","","null","html-keyboard-response","134","202578","0.0-6.0-0.0-8.0-0.13","3","3","4","4","3","3","3","3","3","4","4","2","4","4","3","4","4","2","4","4","4","4","2","4","2","2","2","2","2","0","0","0","0","0","1","1","1","0","0","0","0","0","0","0","4","4","4","3","3","3","4","4","4","3","3","796469037470195714","林","444","","","","","","","","","","","","","","","","","","","","","","","","","","","","","","","","","","","","","","","","","",""
"1289","<p style=""color:white; font-size: 35px;"">愚钝</p>","e","categorize-html","135","203869","0.0-6.0-0.0-8.0-1.13","3","3","4","4","3","3","3","3","3","4","4","2","4","4","3","4","4","2","4","4","4","4","2","4","2","2","2","2","2","0","0","0","0","0","1","1","1","0","0","0","0","0","0","0","4","4","4","3","3","3","4","4","4","3","3","796469037470195714","林","444","","","","","","","","","","","","","","","","","","","true","4","4","ability","1289","negative","愚钝","","","","","","","","","","","","","","","","",""
"null","","null","html-keyboard-response","136","204120","0.0-6.0-0.0-8.0-0.14","3","3","4","4","3","3","3","3","3","4","4","2","4","4","3","4","4","2","4","4","4","4","2","4","2","2","2","2","2","0","0","0","0","0","1","1","1","0","0","0","0","0","0","0","4","4","4","3","3","3","4","4","4","3","3","796469037470195714","林","444","","","","","","","","","","","","","","","","","","","","","","","","","","","","","","","","","","","","","","","","","",""
"675","<p style=""color:rgb(150, 250, 100); font-size: 35px;"">我</p>","e","categorize-html","137","204799","0.0-6.0-0.0-8.0-1.14","3","3","4","4","3","3","3","3","3","4","4","2","4","4","3","4","4","2","4","4","4","4","2","4","2","2","2","2","2","0","0","0","0","0","1","1","1","0","0","0","0","0","0","0","4","4","4","3","3","3","4","4","4","3","3","796469037470195714","林","444","","","","","","","","","","","","","","","","","","","true","4","4","ability","675","self","我","","","","","","","","","","","","","","","","",""
"null","","null","html-keyboard-response","138","205050","0.0-6.0-0.0-8.0-0.15","3","3","4","4","3","3","3","3","3","4","4","2","4","4","3","4","4","2","4","4","4","4","2","4","2","2","2","2","2","0","0","0","0","0","1","1","1","0","0","0","0","0","0","0","4","4","4","3","3","3","4","4","4","3","3","796469037470195714","林","444","","","","","","","","","","","","","","","","","","","","","","","","","","","","","","","","","","","","","","","","","",""
"1344","<p style=""color:white; font-size: 35px;"">高效</p>","i","categorize-html","139","206397","0.0-6.0-0.0-8.0-1.15","3","3","4","4","3","3","3","3","3","4","4","2","4","4","3","4","4","2","4","4","4","4","2","4","2","2","2","2","2","0","0","0","0","0","1","1","1","0","0","0","0","0","0","0","4","4","4","3","3","3","4","4","4","3","3","796469037470195714","林","444","","","","","","","","","","","","","","","","","","","true","4","4","ability","1344","positive","高效","","","","","","","","","","","","","","","","",""
"null","","null","html-keyboard-response","140","206649","0.0-6.0-0.0-8.0-0.16","3","3","4","4","3","3","3","3","3","4","4","2","4","4","3","4","4","2","4","4","4","4","2","4","2","2","2","2","2","0","0","0","0","0","1","1","1","0","0","0","0","0","0","0","4","4","4","3","3","3","4","4","4","3","3","796469037470195714","林","444","","","","","","","","","","","","","","","","","","","","","","","","","","","","","","","","","","","","","","","","","",""
"651","<p style=""color:rgb(150, 250, 100); font-size: 35px;"">本人的</p>","e","categorize-html","141","207302","0.0-6.0-0.0-8.0-1.16","3","3","4","4","3","3","3","3","3","4","4","2","4","4","3","4","4","2","4","4","4","4","2","4","2","2","2","2","2","0","0","0","0","0","1","1","1","0","0","0","0","0","0","0","4","4","4","3","3","3","4","4","4","3","3","796469037470195714","林","444","","","","","","","","","","","","","","","","","","","true","4","4","ability","651","self","本人的","","","","","","","","","","","","","","","","",""
"null","","null","html-keyboard-response","142","207554","0.0-6.0-0.0-8.0-0.17","3","3","4","4","3","3","3","3","3","4","4","2","4","4","3","4","4","2","4","4","4","4","2","4","2","2","2","2","2","0","0","0","0","0","1","1","1","0","0","0","0","0","0","0","4","4","4","3","3","3","4","4","4","3","3","796469037470195714","林","444","","","","","","","","","","","","","","","","","","","","","","","","","","","","","","","","","","","","","","","","","",""
"645","<p style=""color:white; font-size: 35px;"">蠢笨</p>","e","categorize-html","143","208201","0.0-6.0-0.0-8.0-1.17","3","3","4","4","3","3","3","3","3","4","4","2","4","4","3","4","4","2","4","4","4","4","2","4","2","2","2","2","2","0","0","0","0","0","1","1","1","0","0","0","0","0","0","0","4","4","4","3","3","3","4","4","4","3","3","796469037470195714","林","444","","","","","","","","","","","","","","","","","","","true","4","4","ability","645","negative","蠢笨","","","","","","","","","","","","","","","","",""
"null","","null","html-keyboard-response","144","208452","0.0-6.0-0.0-8.0-0.18","3","3","4","4","3","3","3","3","3","4","4","2","4","4","3","4","4","2","4","4","4","4","2","4","2","2","2","2","2","0","0","0","0","0","1","1","1","0","0","0","0","0","0","0","4","4","4","3","3","3","4","4","4","3","3","796469037470195714","林","444","","","","","","","","","","","","","","","","","","","","","","","","","","","","","","","","","","","","","","","","","",""
"2328","<p style=""color:rgb(150, 250, 100); font-size: 35px;"">别人的</p>","i","categorize-html","145","210782","0.0-6.0-0.0-8.0-1.18","3","3","4","4","3","3","3","3","3","4","4","2","4","4","3","4","4","2","4","4","4","4","2","4","2","2","2","2","2","0","0","0","0","0","1","1","1","0","0","0","0","0","0","0","4","4","4","3","3","3","4","4","4","3","3","796469037470195714","林","444","","","","","","","","","","","","","","","","","","","true","4","4","ability","2328","other","别人的","","","","","","","","","","","","","","","","",""
"null","","null","html-keyboard-response","146","211034","0.0-6.0-0.0-8.0-0.19","3","3","4","4","3","3","3","3","3","4","4","2","4","4","3","4","4","2","4","4","4","4","2","4","2","2","2","2","2","0","0","0","0","0","1","1","1","0","0","0","0","0","0","0","4","4","4","3","3","3","4","4","4","3","3","796469037470195714","林","444","","","","","","","","","","","","","","","","","","","","","","","","","","","","","","","","","","","","","","","","","",""
"613","<p style=""color:white; font-size: 35px;"">能干</p>","i","categorize-html","147","211650","0.0-6.0-0.0-8.0-1.19","3","3","4","4","3","3","3","3","3","4","4","2","4","4","3","4","4","2","4","4","4","4","2","4","2","2","2","2","2","0","0","0","0","0","1","1","1","0","0","0","0","0","0","0","4","4","4","3","3","3","4","4","4","3","3","796469037470195714","林","444","","","","","","","","","","","","","","","","","","","true","4","4","ability","613","positive","能干","","","","","","","","","","","","","","","","",""
"null","","null","html-keyboard-response","148","211901","0.0-6.0-0.0-8.0-0.20","3","3","4","4","3","3","3","3","3","4","4","2","4","4","3","4","4","2","4","4","4","4","2","4","2","2","2","2","2","0","0","0","0","0","1","1","1","0","0","0","0","0","0","0","4","4","4","3","3","3","4","4","4","3","3","796469037470195714","林","444","","","","","","","","","","","","","","","","","","","","","","","","","","","","","","","","","","","","","","","","","",""
"559","<p style=""color:rgb(150, 250, 100); font-size: 35px;"">别人</p>","i","categorize-html","149","212463","0.0-6.0-0.0-8.0-1.20","3","3","4","4","3","3","3","3","3","4","4","2","4","4","3","4","4","2","4","4","4","4","2","4","2","2","2","2","2","0","0","0","0","0","1","1","1","0","0","0","0","0","0","0","4","4","4","3","3","3","4","4","4","3","3","796469037470195714","林","444","","","","","","","","","","","","","","","","","","","true","4","4","ability","559","other","别人","","","","","","","","","","","","","","","","",""
"null","","null","html-keyboard-response","150","212715","0.0-6.0-0.0-8.0-0.21","3","3","4","4","3","3","3","3","3","4","4","2","4","4","3","4","4","2","4","4","4","4","2","4","2","2","2","2","2","0","0","0","0","0","1","1","1","0","0","0","0","0","0","0","4","4","4","3","3","3","4","4","4","3","3","796469037470195714","林","444","","","","","","","","","","","","","","","","","","","","","","","","","","","","","","","","","","","","","","","","","",""
"658","<p style=""color:white; font-size: 35px;"">全才</p>","i","categorize-html","151","213376","0.0-6.0-0.0-8.0-1.21","3","3","4","4","3","3","3","3","3","4","4","2","4","4","3","4","4","2","4","4","4","4","2","4","2","2","2","2","2","0","0","0","0","0","1","1","1","0","0","0","0","0","0","0","4","4","4","3","3","3","4","4","4","3","3","796469037470195714","林","444","","","","","","","","","","","","","","","","","","","true","4","4","ability","658","positive","全才","","","","","","","","","","","","","","","","",""
"null","","null","html-keyboard-response","152","213627","0.0-6.0-0.0-8.0-0.22","3","3","4","4","3","3","3","3","3","4","4","2","4","4","3","4","4","2","4","4","4","4","2","4","2","2","2","2","2","0","0","0","0","0","1","1","1","0","0","0","0","0","0","0","4","4","4","3","3","3","4","4","4","3","3","796469037470195714","林","444","","","","","","","","","","","","","","","","","","","","","","","","","","","","","","","","","","","","","","","","","",""
"551","<p style=""color:rgb(150, 250, 100); font-size: 35px;"">自己的</p>","e","categorize-html","153","214181","0.0-6.0-0.0-8.0-1.22","3","3","4","4","3","3","3","3","3","4","4","2","4","4","3","4","4","2","4","4","4","4","2","4","2","2","2","2","2","0","0","0","0","0","1","1","1","0","0","0","0","0","0","0","4","4","4","3","3","3","4","4","4","3","3","796469037470195714","林","444","","","","","","","","","","","","","","","","","","","true","4","4","ability","551","self","自己的","","","","","","","","","","","","","","","","",""
"null","","null","html-keyboard-response","154","214432","0.0-6.0-0.0-8.0-0.23","3","3","4","4","3","3","3","3","3","4","4","2","4","4","3","4","4","2","4","4","4","4","2","4","2","2","2","2","2","0","0","0","0","0","1","1","1","0","0","0","0","0","0","0","4","4","4","3","3","3","4","4","4","3","3","796469037470195714","林","444","","","","","","","","","","","","","","","","","","","","","","","","","","","","","","","","","","","","","","","","","",""
"564","<p style=""color:white; font-size: 35px;"">废物</p>","e","categorize-html","155","214997","0.0-6.0-0.0-8.0-1.23","3","3","4","4","3","3","3","3","3","4","4","2","4","4","3","4","4","2","4","4","4","4","2","4","2","2","2","2","2","0","0","0","0","0","1","1","1","0","0","0","0","0","0","0","4","4","4","3","3","3","4","4","4","3","3","796469037470195714","林","444","","","","","","","","","","","","","","","","","","","true","4","4","ability","564","negative","废物","","","","","","","","","","","","","","","","",""
"null","","null","html-keyboard-response","156","215248","0.0-6.0-0.0-8.0-0.24","3","3","4","4","3","3","3","3","3","4","4","2","4","4","3","4","4","2","4","4","4","4","2","4","2","2","2","2","2","0","0","0","0","0","1","1","1","0","0","0","0","0","0","0","4","4","4","3","3","3","4","4","4","3","3","796469037470195714","林","444","","","","","","","","","","","","","","","","","","","","","","","","","","","","","","","","","","","","","","","","","",""
"684","<p style=""color:rgb(150, 250, 100); font-size: 35px;"">他人的</p>","i","categorize-html","157","215934","0.0-6.0-0.0-8.0-1.24","3","3","4","4","3","3","3","3","3","4","4","2","4","4","3","4","4","2","4","4","4","4","2","4","2","2","2","2","2","0","0","0","0","0","1","1","1","0","0","0","0","0","0","0","4","4","4","3","3","3","4","4","4","3","3","796469037470195714","林","444","","","","","","","","","","","","","","","","","","","true","4","4","ability","684","other","他人的","","","","","","","","","","","","","","","","",""
"null","","null","html-keyboard-response","158","216186","0.0-6.0-0.0-8.0-0.25","3","3","4","4","3","3","3","3","3","4","4","2","4","4","3","4","4","2","4","4","4","4","2","4","2","2","2","2","2","0","0","0","0","0","1","1","1","0","0","0","0","0","0","0","4","4","4","3","3","3","4","4","4","3","3","796469037470195714","林","444","","","","","","","","","","","","","","","","","","","","","","","","","","","","","","","","","","","","","","","","","",""
"1552","<p style=""color:white; font-size: 35px;"">蠢笨</p>","e","categorize-html","159","217741","0.0-6.0-0.0-8.0-1.25","3","3","4","4","3","3","3","3","3","4","4","2","4","4","3","4","4","2","4","4","4","4","2","4","2","2","2","2","2","0","0","0","0","0","1","1","1","0","0","0","0","0","0","0","4","4","4","3","3","3","4","4","4","3","3","796469037470195714","林","444","","","","","","","","","","","","","","","","","","","true","4","4","ability","1552","negative","蠢笨","","","","","","","","","","","","","","","","",""
"null","","null","html-keyboard-response","160","217992","0.0-6.0-0.0-8.0-0.26","3","3","4","4","3","3","3","3","3","4","4","2","4","4","3","4","4","2","4","4","4","4","2","4","2","2","2","2","2","0","0","0","0","0","1","1","1","0","0","0","0","0","0","0","4","4","4","3","3","3","4","4","4","3","3","796469037470195714","林","444","","","","","","","","","","","","","","","","","","","","","","","","","","","","","","","","","","","","","","","","","",""
"520","<p style=""color:rgb(150, 250, 100); font-size: 35px;"">自己的</p>","e","categorize-html","161","218514","0.0-6.0-0.0-8.0-1.26","3","3","4","4","3","3","3","3","3","4","4","2","4","4","3","4","4","2","4","4","4","4","2","4","2","2","2","2","2","0","0","0","0","0","1","1","1","0","0","0","0","0","0","0","4","4","4","3","3","3","4","4","4","3","3","796469037470195714","林","444","","","","","","","","","","","","","","","","","","","true","4","4","ability","520","self","自己的","","","","","","","","","","","","","","","","",""
"null","","null","html-keyboard-response","162","218765","0.0-6.0-0.0-8.0-0.27","3","3","4","4","3","3","3","3","3","4","4","2","4","4","3","4","4","2","4","4","4","4","2","4","2","2","2","2","2","0","0","0","0","0","1","1","1","0","0","0","0","0","0","0","4","4","4","3","3","3","4","4","4","3","3","796469037470195714","林","444","","","","","","","","","","","","","","","","","","","","","","","","","","","","","","","","","","","","","","","","","",""
"587","<p style=""color:white; font-size: 35px;"">高效</p>","i","categorize-html","163","219354","0.0-6.0-0.0-8.0-1.27","3","3","4","4","3","3","3","3","3","4","4","2","4","4","3","4","4","2","4","4","4","4","2","4","2","2","2","2","2","0","0","0","0","0","1","1","1","0","0","0","0","0","0","0","4","4","4","3","3","3","4","4","4","3","3","796469037470195714","林","444","","","","","","","","","","","","","","","","","","","true","4","4","ability","587","positive","高效","","","","","","","","","","","","","","","","",""
"null","","null","html-keyboard-response","164","219606","0.0-6.0-0.0-8.0-0.28","3","3","4","4","3","3","3","3","3","4","4","2","4","4","3","4","4","2","4","4","4","4","2","4","2","2","2","2","2","0","0","0","0","0","1","1","1","0","0","0","0","0","0","0","4","4","4","3","3","3","4","4","4","3","3","796469037470195714","林","444","","","","","","","","","","","","","","","","","","","","","","","","","","","","","","","","","","","","","","","","","",""
"498","<p style=""color:rgb(150, 250, 100); font-size: 35px;"">他人的</p>","i","categorize-html","165","220106","0.0-6.0-0.0-8.0-1.28","3","3","4","4","3","3","3","3","3","4","4","2","4","4","3","4","4","2","4","4","4","4","2","4","2","2","2","2","2","0","0","0","0","0","1","1","1","0","0","0","0","0","0","0","4","4","4","3","3","3","4","4","4","3","3","796469037470195714","林","444","","","","","","","","","","","","","","","","","","","true","4","4","ability","498","other","他人的","","","","","","","","","","","","","","","","",""
"null","","null","html-keyboard-response","166","220358","0.0-6.0-0.0-8.0-0.29","3","3","4","4","3","3","3","3","3","4","4","2","4","4","3","4","4","2","4","4","4","4","2","4","2","2","2","2","2","0","0","0","0","0","1","1","1","0","0","0","0","0","0","0","4","4","4","3","3","3","4","4","4","3","3","796469037470195714","林","444","","","","","","","","","","","","","","","","","","","","","","","","","","","","","","","","","","","","","","","","","",""
"642","<p style=""color:white; font-size: 35px;"">低能</p>","e","categorize-html","167","221002","0.0-6.0-0.0-8.0-1.29","3","3","4","4","3","3","3","3","3","4","4","2","4","4","3","4","4","2","4","4","4","4","2","4","2","2","2","2","2","0","0","0","0","0","1","1","1","0","0","0","0","0","0","0","4","4","4","3","3","3","4","4","4","3","3","796469037470195714","林","444","","","","","","","","","","","","","","","","","","","true","4","4","ability","642","negative","低能","","","","","","","","","","","","","","","","",""
"null","","null","html-keyboard-response","168","221255","0.0-6.0-0.0-8.0-0.30","3","3","4","4","3","3","3","3","3","4","4","2","4","4","3","4","4","2","4","4","4","4","2","4","2","2","2","2","2","0","0","0","0","0","1","1","1","0","0","0","0","0","0","0","4","4","4","3","3","3","4","4","4","3","3","796469037470195714","林","444","","","","","","","","","","","","","","","","","","","","","","","","","","","","","","","","","","","","","","","","","",""
"517","<p style=""color:rgb(150, 250, 100); font-size: 35px;"">本人</p>","e","categorize-html","169","221774","0.0-6.0-0.0-8.0-1.30","3","3","4","4","3","3","3","3","3","4","4","2","4","4","3","4","4","2","4","4","4","4","2","4","2","2","2","2","2","0","0","0","0","0","1","1","1","0","0","0","0","0","0","0","4","4","4","3","3","3","4","4","4","3","3","796469037470195714","林","444","","","","","","","","","","","","","","","","","","","true","4","4","ability","517","self","本人","","","","","","","","","","","","","","","","",""
"null","","null","html-keyboard-response","170","222026","0.0-6.0-0.0-8.0-0.31","3","3","4","4","3","3","3","3","3","4","4","2","4","4","3","4","4","2","4","4","4","4","2","4","2","2","2","2","2","0","0","0","0","0","1","1","1","0","0","0","0","0","0","0","4","4","4","3","3","3","4","4","4","3","3","796469037470195714","林","444","","","","","","","","","","","","","","","","","","","","","","","","","","","","","","","","","","","","","","","","","",""
"566","<p style=""color:white; font-size: 35px;"">精干</p>","i","categorize-html","171","222595","0.0-6.0-0.0-8.0-1.31","3","3","4","4","3","3","3","3","3","4","4","2","4","4","3","4","4","2","4","4","4","4","2","4","2","2","2","2","2","0","0","0","0","0","1","1","1","0","0","0","0","0","0","0","4","4","4","3","3","3","4","4","4","3","3","796469037470195714","林","444","","","","","","","","","","","","","","","","","","","true","4","4","ability","566","positive","精干","","","","","","","","","","","","","","","","",""
"null","","null","html-keyboard-response","172","222875","0.0-6.0-0.0-8.0-0.32","3","3","4","4","3","3","3","3","3","4","4","2","4","4","3","4","4","2","4","4","4","4","2","4","2","2","2","2","2","0","0","0","0","0","1","1","1","0","0","0","0","0","0","0","4","4","4","3","3","3","4","4","4","3","3","796469037470195714","林","444","","","","","","","","","","","","","","","","","","","","","","","","","","","","","","","","","","","","","","","","","",""
"601","<p style=""color:rgb(150, 250, 100); font-size: 35px;"">我的</p>","e","categorize-html","173","223479","0.0-6.0-0.0-8.0-1.32","3","3","4","4","3","3","3","3","3","4","4","2","4","4","3","4","4","2","4","4","4","4","2","4","2","2","2","2","2","0","0","0","0","0","1","1","1","0","0","0","0","0","0","0","4","4","4","3","3","3","4","4","4","3","3","796469037470195714","林","444","","","","","","","","","","","","","","","","","","","true","4","4","ability","601","self","我的","","","","","","","","","","","","","","","","",""
"null","","null","html-keyboard-response","174","223730","0.0-6.0-0.0-8.0-0.33","3","3","4","4","3","3","3","3","3","4","4","2","4","4","3","4","4","2","4","4","4","4","2","4","2","2","2","2","2","0","0","0","0","0","1","1","1","0","0","0","0","0","0","0","4","4","4","3","3","3","4","4","4","3","3","796469037470195714","林","444","","","","","","","","","","","","","","","","","","","","","","","","","","","","","","","","","","","","","","","","","",""
"598","<p style=""color:white; font-size: 35px;"">无能</p>","e","categorize-html","175","224331","0.0-6.0-0.0-8.0-1.33","3","3","4","4","3","3","3","3","3","4","4","2","4","4","3","4","4","2","4","4","4","4","2","4","2","2","2","2","2","0","0","0","0","0","1","1","1","0","0","0","0","0","0","0","4","4","4","3","3","3","4","4","4","3","3","796469037470195714","林","444","","","","","","","","","","","","","","","","","","","true","4","4","ability","598","negative","无能","","","","","","","","","","","","","","","","",""
"null","","null","html-keyboard-response","176","224582","0.0-6.0-0.0-8.0-0.34","3","3","4","4","3","3","3","3","3","4","4","2","4","4","3","4","4","2","4","4","4","4","2","4","2","2","2","2","2","0","0","0","0","0","1","1","1","0","0","0","0","0","0","0","4","4","4","3","3","3","4","4","4","3","3","796469037470195714","林","444","","","","","","","","","","","","","","","","","","","","","","","","","","","","","","","","","","","","","","","","","",""
"1290","<p style=""color:rgb(150, 250, 100); font-size: 35px;"">他</p>","i","categorize-html","177","225875","0.0-6.0-0.0-8.0-1.34","3","3","4","4","3","3","3","3","3","4","4","2","4","4","3","4","4","2","4","4","4","4","2","4","2","2","2","2","2","0","0","0","0","0","1","1","1","0","0","0","0","0","0","0","4","4","4","3","3","3","4","4","4","3","3","796469037470195714","林","444","","","","","","","","","","","","","","","","","","","true","4","4","ability","1290","other","他","","","","","","","","","","","","","","","","",""
"null","","null","html-keyboard-response","178","226126","0.0-6.0-0.0-8.0-0.35","3","3","4","4","3","3","3","3","3","4","4","2","4","4","3","4","4","2","4","4","4","4","2","4","2","2","2","2","2","0","0","0","0","0","1","1","1","0","0","0","0","0","0","0","4","4","4","3","3","3","4","4","4","3","3","796469037470195714","林","444","","","","","","","","","","","","","","","","","","","","","","","","","","","","","","","","","","","","","","","","","",""
"3340","<p style=""color:white; font-size: 35px;"">天才</p>","i","categorize-html","179","229469","0.0-6.0-0.0-8.0-1.35","3","3","4","4","3","3","3","3","3","4","4","2","4","4","3","4","4","2","4","4","4","4","2","4","2","2","2","2","2","0","0","0","0","0","1","1","1","0","0","0","0","0","0","0","4","4","4","3","3","3","4","4","4","3","3","796469037470195714","林","444","","","","","","","","","","","","","","","","","","","true","4","4","ability","3340","positive","天才","","","","","","","","","","","","","","","","",""
"null","","null","html-keyboard-response","180","229720","0.0-6.0-0.0-8.0-0.36","3","3","4","4","3","3","3","3","3","4","4","2","4","4","3","4","4","2","4","4","4","4","2","4","2","2","2","2","2","0","0","0","0","0","1","1","1","0","0","0","0","0","0","0","4","4","4","3","3","3","4","4","4","3","3","796469037470195714","林","444","","","","","","","","","","","","","","","","","","","","","","","","","","","","","","","","","","","","","","","","","",""
"598","<p style=""color:rgb(150, 250, 100); font-size: 35px;"">他</p>","i","categorize-html","181","230321","0.0-6.0-0.0-8.0-1.36","3","3","4","4","3","3","3","3","3","4","4","2","4","4","3","4","4","2","4","4","4","4","2","4","2","2","2","2","2","0","0","0","0","0","1","1","1","0","0","0","0","0","0","0","4","4","4","3","3","3","4","4","4","3","3","796469037470195714","林","444","","","","","","","","","","","","","","","","","","","true","4","4","ability","598","other","他","","","","","","","","","","","","","","","","",""
"null","","null","html-keyboard-response","182","230573","0.0-6.0-0.0-8.0-0.37","3","3","4","4","3","3","3","3","3","4","4","2","4","4","3","4","4","2","4","4","4","4","2","4","2","2","2","2","2","0","0","0","0","0","1","1","1","0","0","0","0","0","0","0","4","4","4","3","3","3","4","4","4","3","3","796469037470195714","林","444","","","","","","","","","","","","","","","","","","","","","","","","","","","","","","","","","","","","","","","","","",""
"513","<p style=""color:white; font-size: 35px;"">废物</p>","e","categorize-html","183","231088","0.0-6.0-0.0-8.0-1.37","3","3","4","4","3","3","3","3","3","4","4","2","4","4","3","4","4","2","4","4","4","4","2","4","2","2","2","2","2","0","0","0","0","0","1","1","1","0","0","0","0","0","0","0","4","4","4","3","3","3","4","4","4","3","3","796469037470195714","林","444","","","","","","","","","","","","","","","","","","","true","4","4","ability","513","negative","废物","","","","","","","","","","","","","","","","",""
"null","","null","html-keyboard-response","184","231339","0.0-6.0-0.0-8.0-0.38","3","3","4","4","3","3","3","3","3","4","4","2","4","4","3","4","4","2","4","4","4","4","2","4","2","2","2","2","2","0","0","0","0","0","1","1","1","0","0","0","0","0","0","0","4","4","4","3","3","3","4","4","4","3","3","796469037470195714","林","444","","","","","","","","","","","","","","","","","","","","","","","","","","","","","","","","","","","","","","","","","",""
"613","<p style=""color:rgb(150, 250, 100); font-size: 35px;"">自己</p>","e","categorize-html","185","231955","0.0-6.0-0.0-8.0-1.38","3","3","4","4","3","3","3","3","3","4","4","2","4","4","3","4","4","2","4","4","4","4","2","4","2","2","2","2","2","0","0","0","0","0","1","1","1","0","0","0","0","0","0","0","4","4","4","3","3","3","4","4","4","3","3","796469037470195714","林","444","","","","","","","","","","","","","","","","","","","true","4","4","ability","613","self","自己","","","","","","","","","","","","","","","","",""
"null","","null","html-keyboard-response","186","232206","0.0-6.0-0.0-8.0-0.39","3","3","4","4","3","3","3","3","3","4","4","2","4","4","3","4","4","2","4","4","4","4","2","4","2","2","2","2","2","0","0","0","0","0","1","1","1","0","0","0","0","0","0","0","4","4","4","3","3","3","4","4","4","3","3","796469037470195714","林","444","","","","","","","","","","","","","","","","","","","","","","","","","","","","","","","","","","","","","","","","","",""
"578","<p style=""color:white; font-size: 35px;"">全能</p>","i","categorize-html","187","232787","0.0-6.0-0.0-8.0-1.39","3","3","4","4","3","3","3","3","3","4","4","2","4","4","3","4","4","2","4","4","4","4","2","4","2","2","2","2","2","0","0","0","0","0","1","1","1","0","0","0","0","0","0","0","4","4","4","3","3","3","4","4","4","3","3","796469037470195714","林","444","","","","","","","","","","","","","","","","","","","true","4","4","ability","578","positive","全能","","","","","","","","","","","","","","","","",""
"null","","null","html-keyboard-response","188","233038","0.0-6.0-0.0-8.0-0.40","3","3","4","4","3","3","3","3","3","4","4","2","4","4","3","4","4","2","4","4","4","4","2","4","2","2","2","2","2","0","0","0","0","0","1","1","1","0","0","0","0","0","0","0","4","4","4","3","3","3","4","4","4","3","3","796469037470195714","林","444","","","","","","","","","","","","","","","","","","","","","","","","","","","","","","","","","","","","","","","","","",""
"595","<p style=""color:rgb(150, 250, 100); font-size: 35px;"">别人</p>","i","categorize-html","189","233636","0.0-6.0-0.0-8.0-1.40","3","3","4","4","3","3","3","3","3","4","4","2","4","4","3","4","4","2","4","4","4","4","2","4","2","2","2","2","2","0","0","0","0","0","1","1","1","0","0","0","0","0","0","0","4","4","4","3","3","3","4","4","4","3","3","796469037470195714","林","444","","","","","","","","","","","","","","","","","","","true","4","4","ability","595","other","别人","","","","","","","","","","","","","","","","",""
"null","","null","html-keyboard-response","190","233888","0.0-6.0-0.0-8.0-0.41","3","3","4","4","3","3","3","3","3","4","4","2","4","4","3","4","4","2","4","4","4","4","2","4","2","2","2","2","2","0","0","0","0","0","1","1","1","0","0","0","0","0","0","0","4","4","4","3","3","3","4","4","4","3","3","796469037470195714","林","444","","","","","","","","","","","","","","","","","","","","","","","","","","","","","","","","","","","","","","","","","",""
"529","<p style=""color:white; font-size: 35px;"">低能</p>","e","categorize-html","191","234419","0.0-6.0-0.0-8.0-1.41","3","3","4","4","3","3","3","3","3","4","4","2","4","4","3","4","4","2","4","4","4","4","2","4","2","2","2","2","2","0","0","0","0","0","1","1","1","0","0","0","0","0","0","0","4","4","4","3","3","3","4","4","4","3","3","796469037470195714","林","444","","","","","","","","","","","","","","","","","","","true","4","4","ability","529","negative","低能","","","","","","","","","","","","","","","","",""
"null","","null","html-keyboard-response","192","234671","0.0-6.0-0.0-8.0-0.42","3","3","4","4","3","3","3","3","3","4","4","2","4","4","3","4","4","2","4","4","4","4","2","4","2","2","2","2","2","0","0","0","0","0","1","1","1","0","0","0","0","0","0","0","4","4","4","3","3","3","4","4","4","3","3","796469037470195714","林","444","","","","","","","","","","","","","","","","","","","","","","","","","","","","","","","","","","","","","","","","","",""
