"rt","stimulus","response","trial_type","trial_index","time_elapsed","internal_node_id","ses_1","ses_2","ses_3","ses_4","ses_5","ses_6","ses_7","ses_8","ses_9","ses_10","coreself_1","coreself_2","coreself_3","coreself_4","coreself_5","coreself_6","coreself_7","coreself_8","coreself_9","coreself_10","SGPS_1","SGPS_2","SGPS_3","SGPS_4","SGPS_5","SGPS_6","SGPS_7","SGPS_8","SGPS_9","NPI1","NPI2","NPI3","NPI4","NPI5","NPI6","NPI7","NPI8","NPI9","NPI10","NPI11","NPI12","NPI13","NPI14","NPI15","hsns_1","hsns_2","hsns_3","hsns_4","hsns_5","trap1","hsns_6","hsns_7","hsns_8","hsns_9","hsns_10","subj_idx","friend_name","ParticipantID","value","success","user_agent","responses","item_order","radio_event_ids","radio_event_times","key_event_times","mouse_event_times","straightlining","zigzagging","honeypot","timeout","failed_images","failed_audio","failed_video","version_attrib","version_target","correct","IAT","screen_id","task_id","RT","condition","word","varname","summary","version_attrib2","version_target2","time_stamp","view_history","response_type","key_press","avg_frame_time","center_x","center_y","correct_response","identity","Image","question_order","correct_answer","trap1_item"
"3045","
   <p><div style = ""color: white;font-size:25px;"">您好，欢迎参加本次实验。</div> </p>
   <p><div style = ""color: white;font-size:25px;"">为充分保障您的权利，请确保您已经知晓并同意《参与实验同意书》以及《数据公开知情同意书》。</div></p>
   <p><div style = ""color: white;font-size:25px;"">如果您未见过上述内容，请咨询实验员。</div></p>
   <p><div style = ""color: white;font-size:25px;"">如果您选择继续实验，则表示您已经清楚两份知情同意书的内容并同意。</div></p>
   <p><div style = ""color: pink;font-size:30px;"">请确保您记得day0的实验编号，您将在本次实验输入该编号，若您忘记，请咨询实验员后作答。</div></p>
   <p><div style = ""color: lightblue;font-size:25px;"">请您尽可能认真地作答，我们将依据您在各问卷和按键任务中的作答质量发放报酬。</div></p>
   <p> <div style = ""color: green;font-size:25px;""><按空格键至下页></div> </p>
   "," ","html-keyboard-response","0","3046","0.0-0.0","4","4","4","4","4","4","4","4","4","4","5","5","5","5","5","5","5","5","5","5","1","1","1","1","1","1","1","1","1","1","0","1","1","0","0","0","1","0","1","1","0","1","0","1","5","1","1","2","1","1","1","2","","5","2","633748719031812096","张","193","","","","","","","","","","","","","","","","","","","","","","","","","","","","","","","","","","","","","","","","","",""
"","","","call-function","1","3047","0.0-1.0-0.0","4","4","4","4","4","4","4","4","4","4","5","5","5","5","5","5","5","5","5","5","1","1","1","1","1","1","1","1","1","1","0","1","1","0","0","0","1","0","1","1","0","1","0","1","5","1","1","2","1","1","1","2","","5","2","633748719031812096","张","193","","","","","","","","","","","","","","","","","","","","","","","","","","","","","","","","","","","","","","","","","",""
"11768","","{""friend_name"":""张"",""ParticipantID"":""193""}","survey-html-form","2","14815","0.0-1.0-1.0","4","4","4","4","4","4","4","4","4","4","5","5","5","5","5","5","5","5","5","5","1","1","1","1","1","1","1","1","1","1","0","1","1","0","0","0","1","0","1","1","0","1","0","1","5","1","1","2","1","1","1","2","","5","2","633748719031812096","张","193","","","","","","","","","","","","","","","","","","","","","","","","","","","","","","","","","","","","","","","","","",""
"","","","fullscreen","3","17347","0.0-2.0","4","4","4","4","4","4","4","4","4","4","5","5","5","5","5","5","5","5","5","5","1","1","1","1","1","1","1","1","1","1","0","1","1","0","0","0","1","0","1","1","0","1","0","1","5","1","1","2","1","1","1","2","","5","2","633748719031812096","张","193","","true","{}","","","","","","","","","","","","","","","","","","","","","","","","","","","","","","","","","","","","","","",""
"16762.5","","{""Q01"":""4"",""Q02"":""4"",""Q03"":""4"",""Q04"":""4"",""Q05"":""4"",""Q06"":""4"",""Q07"":""4"",""Q08"":""4"",""Q09"":""4"",""Q10"":""4""}","survey-template","4","34112","0.0-3.0","4","4","4","4","4","4","4","4","4","4","5","5","5","5","5","5","5","5","5","5","1","1","1","1","1","1","1","1","1","1","0","1","1","0","0","0","1","0","1","1","0","1","0","1","5","1","1","2","1","1","1","2","","5","2","633748719031812096","张","193","","","","{""Q01"":""4"",""Q02"":""4"",""Q03"":""4"",""Q04"":""4"",""Q05"":""4"",""Q06"":""4"",""Q07"":""4"",""Q08"":""4"",""Q09"":""4"",""Q10"":""4""}","[0,1,2,3,4,5,6,7,8,9]","[""Q01"",""Q01"",""Q02"",""Q03"",""Q03"",""Q04"",""Q05"",""Q06"",""Q07"",""Q08"",""Q09"",""Q10""]","[1969.8999996185303,3723.3999996185303,4449.5,5089.39999961853,6330.89999961853,8129.5,9554.5,10841.39999961853,11729.39999961853,14049.89999961853,14649.29999923706,15377.79999923706]","[]","[1969.8999996185303,3723.3999996185303,4449.5,5089.39999961853,6330.89999961853,7425.39999961853,8129.5,9554.5,10841.39999961853,11729.39999961853,14049.89999961853,14649.29999923706,15377.79999923706,16761.39999961853]","0.5","0.5555555555555556","0","","","","","","","","","","","","","","","","","","","","","","","","","","","","","",""
"26027.5","","{""Q01"":""5"",""Q02"":""5"",""Q03"":""5"",""Q04"":""5"",""Q05"":""5"",""Q06"":""5"",""Q07"":""5"",""Q08"":""5"",""Q09"":""5"",""Q10"":""5""}","survey-template","5","60143","0.0-4.0","4","4","4","4","4","4","4","4","4","4","5","5","5","5","5","5","5","5","5","5","1","1","1","1","1","1","1","1","1","1","0","1","1","0","0","0","1","0","1","1","0","1","0","1","5","1","1","2","1","1","1","2","","5","2","633748719031812096","张","193","","","","{""Q01"":""5"",""Q02"":""5"",""Q03"":""5"",""Q04"":""5"",""Q05"":""5"",""Q06"":""5"",""Q07"":""5"",""Q08"":""5"",""Q09"":""5"",""Q10"":""5""}","[0,1,2,3,4,5,6,7,8,9]","[""Q01"",""Q02"",""Q03"",""Q04"",""Q05"",""Q06"",""Q07"",""Q08"",""Q09"",""Q10""]","[3290.8999996185303,4842.799999237061,6291.10000038147,7731.199998855591,9210.89999961853,10658.69999885559,11746.79999923706,12914.69999885559,14314.89999961853,16010.89999961853]","[]","[3290.8999996185303,4842.799999237061,6291.10000038147,7731.199998855591,9210.89999961853,10658.69999885559,11746.79999923706,12914.69999885559,14314.89999961853,16010.89999961853,26026.79999923706]","0.6","0.7777777777777778","0","","","","","","","","","","","","","","","","","","","","","","","","","","","","","",""
"","","","preload","6","60459","0.0-5.0","4","4","4","4","4","4","4","4","4","4","5","5","5","5","5","5","5","5","5","5","1","1","1","1","1","1","1","1","1","1","0","1","1","0","0","0","1","0","1","1","0","1","0","1","5","1","1","2","1","1","1","2","","5","2","633748719031812096","张","193","","true","","","","","","","","","","","false","[]","[]","[]","","","","","","","","","","","","","","","","","","","","","","","","","",""
"18314","
    <h3>词语分类任务</h3>
    <p>在接下来的任务中，你需要对一系列词语进行分类。</p>
    <p>请先熟悉这些词语，这有利于你完成接下来的任务。</p>
    <table align=""center"" border=1 cellpadding=3 cellspacing=0>
    <tr> <th>类别</th> <th>词语</th> </tr>
    <tr> <td>&emsp;积极&emsp;</td> <td>&emsp;能干、全能、全才、高效、精干、天才&emsp;</td> </tr>
    <tr> <td>&emsp;消极&emsp;</td> <td>&emsp;无能、低能、废物、拙笨、愚钝、蠢笨&emsp;</td> </tr>
    <tr> <td>&emsp;自我&emsp;</td> <td>&emsp;我、我的、自己、自己的、本人、本人的&emsp;</td> </tr>
    <tr> <td>&emsp;他人&emsp;</td> <td>&emsp;他、他的、别人、别人的、他人、他人的&emsp;</td> </tr>
    </table><br/>","0","html-button-response","7","78774","0.0-6.0-0.0-0.0","4","4","4","4","4","4","4","4","4","4","5","5","5","5","5","5","5","5","5","5","1","1","1","1","1","1","1","1","1","1","0","1","1","0","0","0","1","0","1","1","0","1","0","1","5","1","1","2","1","1","1","2","","5","2","633748719031812096","张","193","","","","","","","","","","","","","","","","","1","1","","","","","","","","","","","","","","","","","","","","","","","",""
"9566","
    <div class=""tag-bottom"">
    <p> —— 任务1：对“自我”词和“他人”词分类 ——<p/>
    不同词语会出现在屏幕中央，类别标签将始终显示在屏幕上方<p/>   
    <span style=""color:#FFD866""><b>请根据上方标签的提示，尽可能正确并且快速地做出按键反应</b></span><p/>
    当按键错误时屏幕中会出现<span style=""color:red""> X </span>，需要按另一个键纠正才能继续<br/><p/>
    请把双手食指分别放在键盘的“E”键和“I”键上<p/>
    按<空格键>开始
    </p></div>"," ","html-keyboard-response","8","88342","0.0-6.0-0.0-1.0","4","4","4","4","4","4","4","4","4","4","5","5","5","5","5","5","5","5","5","5","1","1","1","1","1","1","1","1","1","1","0","1","1","0","0","0","1","0","1","1","0","1","0","1","5","1","1","2","1","1","1","2","","5","2","633748719031812096","张","193","","","","","","","","","","","","","","","","","","","","","","","","","","","","","","","","","","","","","","","","","",""
"null","","null","html-keyboard-response","9","88594","0.0-6.0-0.0-2.0-0.0","4","4","4","4","4","4","4","4","4","4","5","5","5","5","5","5","5","5","5","5","1","1","1","1","1","1","1","1","1","1","0","1","1","0","0","0","1","0","1","1","0","1","0","1","5","1","1","2","1","1","1","2","","5","2","633748719031812096","张","193","","","","","","","","","","","","","","","","","","","","","","","","","","","","","","","","","","","","","","","","","",""
"1331","<p style=""color:rgb(150, 250, 100); font-size: 35px;"">我</p>","e","categorize-html","10","89927","0.0-6.0-0.0-2.0-1.0","4","4","4","4","4","4","4","4","4","4","5","5","5","5","5","5","5","5","5","5","1","1","1","1","1","1","1","1","1","1","0","1","1","0","0","0","1","0","1","1","0","1","0","1","5","1","1","2","1","1","1","2","","5","2","633748719031812096","张","193","","","","","","","","","","","","","","","","","","","true","1","1","ability","1331","self","我","","","","","","","","","","","","","","","","",""
"null","","null","html-keyboard-response","11","90178","0.0-6.0-0.0-2.0-0.1","4","4","4","4","4","4","4","4","4","4","5","5","5","5","5","5","5","5","5","5","1","1","1","1","1","1","1","1","1","1","0","1","1","0","0","0","1","0","1","1","0","1","0","1","5","1","1","2","1","1","1","2","","5","2","633748719031812096","张","193","","","","","","","","","","","","","","","","","","","","","","","","","","","","","","","","","","","","","","","","","",""
"1099","<p style=""color:rgb(150, 250, 100); font-size: 35px;"">本人</p>","e","categorize-html","12","91278","0.0-6.0-0.0-2.0-1.1","4","4","4","4","4","4","4","4","4","4","5","5","5","5","5","5","5","5","5","5","1","1","1","1","1","1","1","1","1","1","0","1","1","0","0","0","1","0","1","1","0","1","0","1","5","1","1","2","1","1","1","2","","5","2","633748719031812096","张","193","","","","","","","","","","","","","","","","","","","true","1","1","ability","1099","self","本人","","","","","","","","","","","","","","","","",""
"null","","null","html-keyboard-response","13","91529","0.0-6.0-0.0-2.0-0.2","4","4","4","4","4","4","4","4","4","4","5","5","5","5","5","5","5","5","5","5","1","1","1","1","1","1","1","1","1","1","0","1","1","0","0","0","1","0","1","1","0","1","0","1","5","1","1","2","1","1","1","2","","5","2","633748719031812096","张","193","","","","","","","","","","","","","","","","","","","","","","","","","","","","","","","","","","","","","","","","","",""
"1228","<p style=""color:rgb(150, 250, 100); font-size: 35px;"">自己</p>","e","categorize-html","14","92758","0.0-6.0-0.0-2.0-1.2","4","4","4","4","4","4","4","4","4","4","5","5","5","5","5","5","5","5","5","5","1","1","1","1","1","1","1","1","1","1","0","1","1","0","0","0","1","0","1","1","0","1","0","1","5","1","1","2","1","1","1","2","","5","2","633748719031812096","张","193","","","","","","","","","","","","","","","","","","","true","1","1","ability","1228","self","自己","","","","","","","","","","","","","","","","",""
"null","","null","html-keyboard-response","15","93009","0.0-6.0-0.0-2.0-0.3","4","4","4","4","4","4","4","4","4","4","5","5","5","5","5","5","5","5","5","5","1","1","1","1","1","1","1","1","1","1","0","1","1","0","0","0","1","0","1","1","0","1","0","1","5","1","1","2","1","1","1","2","","5","2","633748719031812096","张","193","","","","","","","","","","","","","","","","","","","","","","","","","","","","","","","","","","","","","","","","","",""
"676","<p style=""color:rgb(150, 250, 100); font-size: 35px;"">自己的</p>","e","categorize-html","16","93687","0.0-6.0-0.0-2.0-1.3","4","4","4","4","4","4","4","4","4","4","5","5","5","5","5","5","5","5","5","5","1","1","1","1","1","1","1","1","1","1","0","1","1","0","0","0","1","0","1","1","0","1","0","1","5","1","1","2","1","1","1","2","","5","2","633748719031812096","张","193","","","","","","","","","","","","","","","","","","","true","1","1","ability","676","self","自己的","","","","","","","","","","","","","","","","",""
"null","","null","html-keyboard-response","17","93938","0.0-6.0-0.0-2.0-0.4","4","4","4","4","4","4","4","4","4","4","5","5","5","5","5","5","5","5","5","5","1","1","1","1","1","1","1","1","1","1","0","1","1","0","0","0","1","0","1","1","0","1","0","1","5","1","1","2","1","1","1","2","","5","2","633748719031812096","张","193","","","","","","","","","","","","","","","","","","","","","","","","","","","","","","","","","","","","","","","","","",""
"709","<p style=""color:rgb(150, 250, 100); font-size: 35px;"">别人</p>","i","categorize-html","18","94647","0.0-6.0-0.0-2.0-1.4","4","4","4","4","4","4","4","4","4","4","5","5","5","5","5","5","5","5","5","5","1","1","1","1","1","1","1","1","1","1","0","1","1","0","0","0","1","0","1","1","0","1","0","1","5","1","1","2","1","1","1","2","","5","2","633748719031812096","张","193","","","","","","","","","","","","","","","","","","","true","1","1","ability","709","other","别人","","","","","","","","","","","","","","","","",""
"null","","null","html-keyboard-response","19","94899","0.0-6.0-0.0-2.0-0.5","4","4","4","4","4","4","4","4","4","4","5","5","5","5","5","5","5","5","5","5","1","1","1","1","1","1","1","1","1","1","0","1","1","0","0","0","1","0","1","1","0","1","0","1","5","1","1","2","1","1","1","2","","5","2","633748719031812096","张","193","","","","","","","","","","","","","","","","","","","","","","","","","","","","","","","","","","","","","","","","","",""
"571","<p style=""color:rgb(150, 250, 100); font-size: 35px;"">别人的</p>","i","categorize-html","20","95470","0.0-6.0-0.0-2.0-1.5","4","4","4","4","4","4","4","4","4","4","5","5","5","5","5","5","5","5","5","5","1","1","1","1","1","1","1","1","1","1","0","1","1","0","0","0","1","0","1","1","0","1","0","1","5","1","1","2","1","1","1","2","","5","2","633748719031812096","张","193","","","","","","","","","","","","","","","","","","","true","1","1","ability","571","other","别人的","","","","","","","","","","","","","","","","",""
"null","","null","html-keyboard-response","21","95722","0.0-6.0-0.0-2.0-0.6","4","4","4","4","4","4","4","4","4","4","5","5","5","5","5","5","5","5","5","5","1","1","1","1","1","1","1","1","1","1","0","1","1","0","0","0","1","0","1","1","0","1","0","1","5","1","1","2","1","1","1","2","","5","2","633748719031812096","张","193","","","","","","","","","","","","","","","","","","","","","","","","","","","","","","","","","","","","","","","","","",""
"684","<p style=""color:rgb(150, 250, 100); font-size: 35px;"">他人的</p>","i","categorize-html","22","96406","0.0-6.0-0.0-2.0-1.6","4","4","4","4","4","4","4","4","4","4","5","5","5","5","5","5","5","5","5","5","1","1","1","1","1","1","1","1","1","1","0","1","1","0","0","0","1","0","1","1","0","1","0","1","5","1","1","2","1","1","1","2","","5","2","633748719031812096","张","193","","","","","","","","","","","","","","","","","","","true","1","1","ability","684","other","他人的","","","","","","","","","","","","","","","","",""
"null","","null","html-keyboard-response","23","96657","0.0-6.0-0.0-2.0-0.7","4","4","4","4","4","4","4","4","4","4","5","5","5","5","5","5","5","5","5","5","1","1","1","1","1","1","1","1","1","1","0","1","1","0","0","0","1","0","1","1","0","1","0","1","5","1","1","2","1","1","1","2","","5","2","633748719031812096","张","193","","","","","","","","","","","","","","","","","","","","","","","","","","","","","","","","","","","","","","","","","",""
"588","<p style=""color:rgb(150, 250, 100); font-size: 35px;"">我的</p>","e","categorize-html","24","97246","0.0-6.0-0.0-2.0-1.7","4","4","4","4","4","4","4","4","4","4","5","5","5","5","5","5","5","5","5","5","1","1","1","1","1","1","1","1","1","1","0","1","1","0","0","0","1","0","1","1","0","1","0","1","5","1","1","2","1","1","1","2","","5","2","633748719031812096","张","193","","","","","","","","","","","","","","","","","","","true","1","1","ability","588","self","我的","","","","","","","","","","","","","","","","",""
"null","","null","html-keyboard-response","25","97497","0.0-6.0-0.0-2.0-0.8","4","4","4","4","4","4","4","4","4","4","5","5","5","5","5","5","5","5","5","5","1","1","1","1","1","1","1","1","1","1","0","1","1","0","0","0","1","0","1","1","0","1","0","1","5","1","1","2","1","1","1","2","","5","2","633748719031812096","张","193","","","","","","","","","","","","","","","","","","","","","","","","","","","","","","","","","","","","","","","","","",""
"940","<p style=""color:rgb(150, 250, 100); font-size: 35px;"">他</p>","i","categorize-html","26","98438","0.0-6.0-0.0-2.0-1.8","4","4","4","4","4","4","4","4","4","4","5","5","5","5","5","5","5","5","5","5","1","1","1","1","1","1","1","1","1","1","0","1","1","0","0","0","1","0","1","1","0","1","0","1","5","1","1","2","1","1","1","2","","5","2","633748719031812096","张","193","","","","","","","","","","","","","","","","","","","true","1","1","ability","940","other","他","","","","","","","","","","","","","","","","",""
"null","","null","html-keyboard-response","27","98689","0.0-6.0-0.0-2.0-0.9","4","4","4","4","4","4","4","4","4","4","5","5","5","5","5","5","5","5","5","5","1","1","1","1","1","1","1","1","1","1","0","1","1","0","0","0","1","0","1","1","0","1","0","1","5","1","1","2","1","1","1","2","","5","2","633748719031812096","张","193","","","","","","","","","","","","","","","","","","","","","","","","","","","","","","","","","","","","","","","","","",""
"636","<p style=""color:rgb(150, 250, 100); font-size: 35px;"">他的</p>","i","categorize-html","28","99326","0.0-6.0-0.0-2.0-1.9","4","4","4","4","4","4","4","4","4","4","5","5","5","5","5","5","5","5","5","5","1","1","1","1","1","1","1","1","1","1","0","1","1","0","0","0","1","0","1","1","0","1","0","1","5","1","1","2","1","1","1","2","","5","2","633748719031812096","张","193","","","","","","","","","","","","","","","","","","","true","1","1","ability","636","other","他的","","","","","","","","","","","","","","","","",""
"null","","null","html-keyboard-response","29","99577","0.0-6.0-0.0-2.0-0.10","4","4","4","4","4","4","4","4","4","4","5","5","5","5","5","5","5","5","5","5","1","1","1","1","1","1","1","1","1","1","0","1","1","0","0","0","1","0","1","1","0","1","0","1","5","1","1","2","1","1","1","2","","5","2","633748719031812096","张","193","","","","","","","","","","","","","","","","","","","","","","","","","","","","","","","","","","","","","","","","","",""
"629","<p style=""color:rgb(150, 250, 100); font-size: 35px;"">本人的</p>","e","categorize-html","30","100206","0.0-6.0-0.0-2.0-1.10","4","4","4","4","4","4","4","4","4","4","5","5","5","5","5","5","5","5","5","5","1","1","1","1","1","1","1","1","1","1","0","1","1","0","0","0","1","0","1","1","0","1","0","1","5","1","1","2","1","1","1","2","","5","2","633748719031812096","张","193","","","","","","","","","","","","","","","","","","","true","1","1","ability","629","self","本人的","","","","","","","","","","","","","","","","",""
"null","","null","html-keyboard-response","31","100458","0.0-6.0-0.0-2.0-0.11","4","4","4","4","4","4","4","4","4","4","5","5","5","5","5","5","5","5","5","5","1","1","1","1","1","1","1","1","1","1","0","1","1","0","0","0","1","0","1","1","0","1","0","1","5","1","1","2","1","1","1","2","","5","2","633748719031812096","张","193","","","","","","","","","","","","","","","","","","","","","","","","","","","","","","","","","","","","","","","","","",""
"755","<p style=""color:rgb(150, 250, 100); font-size: 35px;"">他人</p>","i","categorize-html","32","101214","0.0-6.0-0.0-2.0-1.11","4","4","4","4","4","4","4","4","4","4","5","5","5","5","5","5","5","5","5","5","1","1","1","1","1","1","1","1","1","1","0","1","1","0","0","0","1","0","1","1","0","1","0","1","5","1","1","2","1","1","1","2","","5","2","633748719031812096","张","193","","","","","","","","","","","","","","","","","","","true","1","1","ability","755","other","他人","","","","","","","","","","","","","","","","",""
"8103","
    <div class=""tag-bottom""><p>
    —— 任务2：对“积极”词和“消极”词分类 ——<p/>   
    <span style=""color:#78DCE8""><b>注意上方，类别标签和需要分类的词语都已经改变</b></span><p/>
    <span style=""color:#FFD866""><b>请根据上方标签的提示，尽可能正确并且快速地做出按键反应</b></span><p/>
    当按键错误时屏幕中会出现<span style=""color:red""> X </span>，需要按另一个键纠正才能继续<br/><p/>
    请把双手食指分别放在键盘的“E”键和“I”键上<p/>
    按<空格键>开始
    </p></div>"," ","html-keyboard-response","33","109317","0.0-6.0-0.0-3.0","4","4","4","4","4","4","4","4","4","4","5","5","5","5","5","5","5","5","5","5","1","1","1","1","1","1","1","1","1","1","0","1","1","0","0","0","1","0","1","1","0","1","0","1","5","1","1","2","1","1","1","2","","5","2","633748719031812096","张","193","","","","","","","","","","","","","","","","","","","","","","","","","","","","","","","","","","","","","","","","","",""
"null","","null","html-keyboard-response","34","109569","0.0-6.0-0.0-4.0-0.0","4","4","4","4","4","4","4","4","4","4","5","5","5","5","5","5","5","5","5","5","1","1","1","1","1","1","1","1","1","1","0","1","1","0","0","0","1","0","1","1","0","1","0","1","5","1","1","2","1","1","1","2","","5","2","633748719031812096","张","193","","","","","","","","","","","","","","","","","","","","","","","","","","","","","","","","","","","","","","","","","",""
"1340","<p style=""color:white; font-size: 35px;"">无能</p>","i","categorize-html","35","110911","0.0-6.0-0.0-4.0-1.0","4","4","4","4","4","4","4","4","4","4","5","5","5","5","5","5","5","5","5","5","1","1","1","1","1","1","1","1","1","1","0","1","1","0","0","0","1","0","1","1","0","1","0","1","5","1","1","2","1","1","1","2","","5","2","633748719031812096","张","193","","","","","","","","","","","","","","","","","","","true","2","2","ability","1340","negative","无能","","","","","","","","","","","","","","","","",""
"null","","null","html-keyboard-response","36","111161","0.0-6.0-0.0-4.0-0.1","4","4","4","4","4","4","4","4","4","4","5","5","5","5","5","5","5","5","5","5","1","1","1","1","1","1","1","1","1","1","0","1","1","0","0","0","1","0","1","1","0","1","0","1","5","1","1","2","1","1","1","2","","5","2","633748719031812096","张","193","","","","","","","","","","","","","","","","","","","","","","","","","","","","","","","","","","","","","","","","","",""
"884","<p style=""color:white; font-size: 35px;"">废物</p>","i","categorize-html","37","112046","0.0-6.0-0.0-4.0-1.1","4","4","4","4","4","4","4","4","4","4","5","5","5","5","5","5","5","5","5","5","1","1","1","1","1","1","1","1","1","1","0","1","1","0","0","0","1","0","1","1","0","1","0","1","5","1","1","2","1","1","1","2","","5","2","633748719031812096","张","193","","","","","","","","","","","","","","","","","","","true","2","2","ability","884","negative","废物","","","","","","","","","","","","","","","","",""
"null","","null","html-keyboard-response","38","112297","0.0-6.0-0.0-4.0-0.2","4","4","4","4","4","4","4","4","4","4","5","5","5","5","5","5","5","5","5","5","1","1","1","1","1","1","1","1","1","1","0","1","1","0","0","0","1","0","1","1","0","1","0","1","5","1","1","2","1","1","1","2","","5","2","633748719031812096","张","193","","","","","","","","","","","","","","","","","","","","","","","","","","","","","","","","","","","","","","","","","",""
"884","<p style=""color:white; font-size: 35px;"">精干</p>","e","categorize-html","39","113182","0.0-6.0-0.0-4.0-1.2","4","4","4","4","4","4","4","4","4","4","5","5","5","5","5","5","5","5","5","5","1","1","1","1","1","1","1","1","1","1","0","1","1","0","0","0","1","0","1","1","0","1","0","1","5","1","1","2","1","1","1","2","","5","2","633748719031812096","张","193","","","","","","","","","","","","","","","","","","","true","2","2","ability","884","positive","精干","","","","","","","","","","","","","","","","",""
"null","","null","html-keyboard-response","40","113433","0.0-6.0-0.0-4.0-0.3","4","4","4","4","4","4","4","4","4","4","5","5","5","5","5","5","5","5","5","5","1","1","1","1","1","1","1","1","1","1","0","1","1","0","0","0","1","0","1","1","0","1","0","1","5","1","1","2","1","1","1","2","","5","2","633748719031812096","张","193","","","","","","","","","","","","","","","","","","","","","","","","","","","","","","","","","","","","","","","","","",""
"708","<p style=""color:white; font-size: 35px;"">能干</p>","e","categorize-html","41","114141","0.0-6.0-0.0-4.0-1.3","4","4","4","4","4","4","4","4","4","4","5","5","5","5","5","5","5","5","5","5","1","1","1","1","1","1","1","1","1","1","0","1","1","0","0","0","1","0","1","1","0","1","0","1","5","1","1","2","1","1","1","2","","5","2","633748719031812096","张","193","","","","","","","","","","","","","","","","","","","true","2","2","ability","708","positive","能干","","","","","","","","","","","","","","","","",""
"null","","null","html-keyboard-response","42","114393","0.0-6.0-0.0-4.0-0.4","4","4","4","4","4","4","4","4","4","4","5","5","5","5","5","5","5","5","5","5","1","1","1","1","1","1","1","1","1","1","0","1","1","0","0","0","1","0","1","1","0","1","0","1","5","1","1","2","1","1","1","2","","5","2","633748719031812096","张","193","","","","","","","","","","","","","","","","","","","","","","","","","","","","","","","","","","","","","","","","","",""
"846","<p style=""color:white; font-size: 35px;"">蠢笨</p>","i","categorize-html","43","115239","0.0-6.0-0.0-4.0-1.4","4","4","4","4","4","4","4","4","4","4","5","5","5","5","5","5","5","5","5","5","1","1","1","1","1","1","1","1","1","1","0","1","1","0","0","0","1","0","1","1","0","1","0","1","5","1","1","2","1","1","1","2","","5","2","633748719031812096","张","193","","","","","","","","","","","","","","","","","","","true","2","2","ability","846","negative","蠢笨","","","","","","","","","","","","","","","","",""
"null","","null","html-keyboard-response","44","115491","0.0-6.0-0.0-4.0-0.5","4","4","4","4","4","4","4","4","4","4","5","5","5","5","5","5","5","5","5","5","1","1","1","1","1","1","1","1","1","1","0","1","1","0","0","0","1","0","1","1","0","1","0","1","5","1","1","2","1","1","1","2","","5","2","633748719031812096","张","193","","","","","","","","","","","","","","","","","","","","","","","","","","","","","","","","","","","","","","","","","",""
"1122","<p style=""color:white; font-size: 35px;"">全能</p>","e","categorize-html","45","116614","0.0-6.0-0.0-4.0-1.5","4","4","4","4","4","4","4","4","4","4","5","5","5","5","5","5","5","5","5","5","1","1","1","1","1","1","1","1","1","1","0","1","1","0","0","0","1","0","1","1","0","1","0","1","5","1","1","2","1","1","1","2","","5","2","633748719031812096","张","193","","","","","","","","","","","","","","","","","","","true","2","2","ability","1122","positive","全能","","","","","","","","","","","","","","","","",""
"null","","null","html-keyboard-response","46","116865","0.0-6.0-0.0-4.0-0.6","4","4","4","4","4","4","4","4","4","4","5","5","5","5","5","5","5","5","5","5","1","1","1","1","1","1","1","1","1","1","0","1","1","0","0","0","1","0","1","1","0","1","0","1","5","1","1","2","1","1","1","2","","5","2","633748719031812096","张","193","","","","","","","","","","","","","","","","","","","","","","","","","","","","","","","","","","","","","","","","","",""
"676","<p style=""color:white; font-size: 35px;"">低能</p>","i","categorize-html","47","117542","0.0-6.0-0.0-4.0-1.6","4","4","4","4","4","4","4","4","4","4","5","5","5","5","5","5","5","5","5","5","1","1","1","1","1","1","1","1","1","1","0","1","1","0","0","0","1","0","1","1","0","1","0","1","5","1","1","2","1","1","1","2","","5","2","633748719031812096","张","193","","","","","","","","","","","","","","","","","","","true","2","2","ability","676","negative","低能","","","","","","","","","","","","","","","","",""
"null","","null","html-keyboard-response","48","117793","0.0-6.0-0.0-4.0-0.7","4","4","4","4","4","4","4","4","4","4","5","5","5","5","5","5","5","5","5","5","1","1","1","1","1","1","1","1","1","1","0","1","1","0","0","0","1","0","1","1","0","1","0","1","5","1","1","2","1","1","1","2","","5","2","633748719031812096","张","193","","","","","","","","","","","","","","","","","","","","","","","","","","","","","","","","","","","","","","","","","",""
"1180","<p style=""color:white; font-size: 35px;"">全才</p>","e","categorize-html","49","118974","0.0-6.0-0.0-4.0-1.7","4","4","4","4","4","4","4","4","4","4","5","5","5","5","5","5","5","5","5","5","1","1","1","1","1","1","1","1","1","1","0","1","1","0","0","0","1","0","1","1","0","1","0","1","5","1","1","2","1","1","1","2","","5","2","633748719031812096","张","193","","","","","","","","","","","","","","","","","","","true","2","2","ability","1180","positive","全才","","","","","","","","","","","","","","","","",""
"null","","null","html-keyboard-response","50","119227","0.0-6.0-0.0-4.0-0.8","4","4","4","4","4","4","4","4","4","4","5","5","5","5","5","5","5","5","5","5","1","1","1","1","1","1","1","1","1","1","0","1","1","0","0","0","1","0","1","1","0","1","0","1","5","1","1","2","1","1","1","2","","5","2","633748719031812096","张","193","","","","","","","","","","","","","","","","","","","","","","","","","","","","","","","","","","","","","","","","","",""
"1314","<p style=""color:white; font-size: 35px;"">天才</p>","e","categorize-html","51","120542","0.0-6.0-0.0-4.0-1.8","4","4","4","4","4","4","4","4","4","4","5","5","5","5","5","5","5","5","5","5","1","1","1","1","1","1","1","1","1","1","0","1","1","0","0","0","1","0","1","1","0","1","0","1","5","1","1","2","1","1","1","2","","5","2","633748719031812096","张","193","","","","","","","","","","","","","","","","","","","true","2","2","ability","1314","positive","天才","","","","","","","","","","","","","","","","",""
"null","","null","html-keyboard-response","52","120794","0.0-6.0-0.0-4.0-0.9","4","4","4","4","4","4","4","4","4","4","5","5","5","5","5","5","5","5","5","5","1","1","1","1","1","1","1","1","1","1","0","1","1","0","0","0","1","0","1","1","0","1","0","1","5","1","1","2","1","1","1","2","","5","2","633748719031812096","张","193","","","","","","","","","","","","","","","","","","","","","","","","","","","","","","","","","","","","","","","","","",""
"2228","<p style=""color:white; font-size: 35px;"">拙笨</p>","i","categorize-html","53","123022","0.0-6.0-0.0-4.0-1.9","4","4","4","4","4","4","4","4","4","4","5","5","5","5","5","5","5","5","5","5","1","1","1","1","1","1","1","1","1","1","0","1","1","0","0","0","1","0","1","1","0","1","0","1","5","1","1","2","1","1","1","2","","5","2","633748719031812096","张","193","","","","","","","","","","","","","","","","","","","true","2","2","ability","2228","negative","拙笨","","","","","","","","","","","","","","","","",""
"null","","null","html-keyboard-response","54","123272","0.0-6.0-0.0-4.0-0.10","4","4","4","4","4","4","4","4","4","4","5","5","5","5","5","5","5","5","5","5","1","1","1","1","1","1","1","1","1","1","0","1","1","0","0","0","1","0","1","1","0","1","0","1","5","1","1","2","1","1","1","2","","5","2","633748719031812096","张","193","","","","","","","","","","","","","","","","","","","","","","","","","","","","","","","","","","","","","","","","","",""
"1061","<p style=""color:white; font-size: 35px;"">愚钝</p>","i","categorize-html","55","124334","0.0-6.0-0.0-4.0-1.10","4","4","4","4","4","4","4","4","4","4","5","5","5","5","5","5","5","5","5","5","1","1","1","1","1","1","1","1","1","1","0","1","1","0","0","0","1","0","1","1","0","1","0","1","5","1","1","2","1","1","1","2","","5","2","633748719031812096","张","193","","","","","","","","","","","","","","","","","","","true","2","2","ability","1061","negative","愚钝","","","","","","","","","","","","","","","","",""
"null","","null","html-keyboard-response","56","124585","0.0-6.0-0.0-4.0-0.11","4","4","4","4","4","4","4","4","4","4","5","5","5","5","5","5","5","5","5","5","1","1","1","1","1","1","1","1","1","1","0","1","1","0","0","0","1","0","1","1","0","1","0","1","5","1","1","2","1","1","1","2","","5","2","633748719031812096","张","193","","","","","","","","","","","","","","","","","","","","","","","","","","","","","","","","","","","","","","","","","",""
"621","<p style=""color:white; font-size: 35px;"">高效</p>","e","categorize-html","57","125206","0.0-6.0-0.0-4.0-1.11","4","4","4","4","4","4","4","4","4","4","5","5","5","5","5","5","5","5","5","5","1","1","1","1","1","1","1","1","1","1","0","1","1","0","0","0","1","0","1","1","0","1","0","1","5","1","1","2","1","1","1","2","","5","2","633748719031812096","张","193","","","","","","","","","","","","","","","","","","","true","2","2","ability","621","positive","高效","","","","","","","","","","","","","","","","",""
"9192","
    <div class=""tag-bottom""><p>
    —— 任务3：对“自我/积极”词和“他人/消极”词分类 ——<p/>
    <span style=""color:#78DCE8""><b>注意上方，之前的四类词语将混合在一起交替呈现</b></span><p/>
    <span style=""color:#FFD866""><b>请根据上方标签的提示，尽可能正确并且快速地做出按键反应</b></span><p/>
    当按键错误时屏幕中会出现<span style=""color:red""> X </span>，需要按另一个键纠正才能继续<br/><p/>
    请把双手食指分别放在键盘的“E”键和“I”键上<p/>
    按<空格键>开始
    </p></div>"," ","html-keyboard-response","58","134398","0.0-6.0-0.0-5.0","4","4","4","4","4","4","4","4","4","4","5","5","5","5","5","5","5","5","5","5","1","1","1","1","1","1","1","1","1","1","0","1","1","0","0","0","1","0","1","1","0","1","0","1","5","1","1","2","1","1","1","2","","5","2","633748719031812096","张","193","","","","","","","","","","","","","","","","","","","","","","","","","","","","","","","","","","","","","","","","","",""
"null","","null","html-keyboard-response","59","134650","0.0-6.0-0.0-6.0-0.0","4","4","4","4","4","4","4","4","4","4","5","5","5","5","5","5","5","5","5","5","1","1","1","1","1","1","1","1","1","1","0","1","1","0","0","0","1","0","1","1","0","1","0","1","5","1","1","2","1","1","1","2","","5","2","633748719031812096","张","193","","","","","","","","","","","","","","","","","","","","","","","","","","","","","","","","","","","","","","","","","",""
"1035","<p style=""color:rgb(150, 250, 100); font-size: 35px;"">自己的</p>","e","categorize-html","60","135686","0.0-6.0-0.0-6.0-1.0","4","4","4","4","4","4","4","4","4","4","5","5","5","5","5","5","5","5","5","5","1","1","1","1","1","1","1","1","1","1","0","1","1","0","0","0","1","0","1","1","0","1","0","1","5","1","1","2","1","1","1","2","","5","2","633748719031812096","张","193","","","","","","","","","","","","","","","","","","","true","3","3","ability","1035","self","自己的","","","","","","","","","","","","","","","","",""
"null","","null","html-keyboard-response","61","135937","0.0-6.0-0.0-6.0-0.1","4","4","4","4","4","4","4","4","4","4","5","5","5","5","5","5","5","5","5","5","1","1","1","1","1","1","1","1","1","1","0","1","1","0","0","0","1","0","1","1","0","1","0","1","5","1","1","2","1","1","1","2","","5","2","633748719031812096","张","193","","","","","","","","","","","","","","","","","","","","","","","","","","","","","","","","","","","","","","","","","",""
"844","<p style=""color:white; font-size: 35px;"">天才</p>","e","categorize-html","62","136782","0.0-6.0-0.0-6.0-1.1","4","4","4","4","4","4","4","4","4","4","5","5","5","5","5","5","5","5","5","5","1","1","1","1","1","1","1","1","1","1","0","1","1","0","0","0","1","0","1","1","0","1","0","1","5","1","1","2","1","1","1","2","","5","2","633748719031812096","张","193","","","","","","","","","","","","","","","","","","","true","3","3","ability","844","positive","天才","","","","","","","","","","","","","","","","",""
"null","","null","html-keyboard-response","63","137033","0.0-6.0-0.0-6.0-0.2","4","4","4","4","4","4","4","4","4","4","5","5","5","5","5","5","5","5","5","5","1","1","1","1","1","1","1","1","1","1","0","1","1","0","0","0","1","0","1","1","0","1","0","1","5","1","1","2","1","1","1","2","","5","2","633748719031812096","张","193","","","","","","","","","","","","","","","","","","","","","","","","","","","","","","","","","","","","","","","","","",""
"1100","<p style=""color:rgb(150, 250, 100); font-size: 35px;"">他的</p>","i","categorize-html","64","138135","0.0-6.0-0.0-6.0-1.2","4","4","4","4","4","4","4","4","4","4","5","5","5","5","5","5","5","5","5","5","1","1","1","1","1","1","1","1","1","1","0","1","1","0","0","0","1","0","1","1","0","1","0","1","5","1","1","2","1","1","1","2","","5","2","633748719031812096","张","193","","","","","","","","","","","","","","","","","","","true","3","3","ability","1100","other","他的","","","","","","","","","","","","","","","","",""
"null","","null","html-keyboard-response","65","138385","0.0-6.0-0.0-6.0-0.3","4","4","4","4","4","4","4","4","4","4","5","5","5","5","5","5","5","5","5","5","1","1","1","1","1","1","1","1","1","1","0","1","1","0","0","0","1","0","1","1","0","1","0","1","5","1","1","2","1","1","1","2","","5","2","633748719031812096","张","193","","","","","","","","","","","","","","","","","","","","","","","","","","","","","","","","","","","","","","","","","",""
"956","<p style=""color:white; font-size: 35px;"">无能</p>","i","categorize-html","66","139342","0.0-6.0-0.0-6.0-1.3","4","4","4","4","4","4","4","4","4","4","5","5","5","5","5","5","5","5","5","5","1","1","1","1","1","1","1","1","1","1","0","1","1","0","0","0","1","0","1","1","0","1","0","1","5","1","1","2","1","1","1","2","","5","2","633748719031812096","张","193","","","","","","","","","","","","","","","","","","","true","3","3","ability","956","negative","无能","","","","","","","","","","","","","","","","",""
"null","","null","html-keyboard-response","67","139594","0.0-6.0-0.0-6.0-0.4","4","4","4","4","4","4","4","4","4","4","5","5","5","5","5","5","5","5","5","5","1","1","1","1","1","1","1","1","1","1","0","1","1","0","0","0","1","0","1","1","0","1","0","1","5","1","1","2","1","1","1","2","","5","2","633748719031812096","张","193","","","","","","","","","","","","","","","","","","","","","","","","","","","","","","","","","","","","","","","","","",""
"1107","<p style=""color:rgb(150, 250, 100); font-size: 35px;"">他</p>","i","categorize-html","68","140702","0.0-6.0-0.0-6.0-1.4","4","4","4","4","4","4","4","4","4","4","5","5","5","5","5","5","5","5","5","5","1","1","1","1","1","1","1","1","1","1","0","1","1","0","0","0","1","0","1","1","0","1","0","1","5","1","1","2","1","1","1","2","","5","2","633748719031812096","张","193","","","","","","","","","","","","","","","","","","","true","3","3","ability","1107","other","他","","","","","","","","","","","","","","","","",""
"null","","null","html-keyboard-response","69","140953","0.0-6.0-0.0-6.0-0.5","4","4","4","4","4","4","4","4","4","4","5","5","5","5","5","5","5","5","5","5","1","1","1","1","1","1","1","1","1","1","0","1","1","0","0","0","1","0","1","1","0","1","0","1","5","1","1","2","1","1","1","2","","5","2","633748719031812096","张","193","","","","","","","","","","","","","","","","","","","","","","","","","","","","","","","","","","","","","","","","","",""
"989","<p style=""color:white; font-size: 35px;"">愚钝</p>","i","categorize-html","70","141944","0.0-6.0-0.0-6.0-1.5","4","4","4","4","4","4","4","4","4","4","5","5","5","5","5","5","5","5","5","5","1","1","1","1","1","1","1","1","1","1","0","1","1","0","0","0","1","0","1","1","0","1","0","1","5","1","1","2","1","1","1","2","","5","2","633748719031812096","张","193","","","","","","","","","","","","","","","","","","","true","3","3","ability","989","negative","愚钝","","","","","","","","","","","","","","","","",""
"null","","null","html-keyboard-response","71","142195","0.0-6.0-0.0-6.0-0.6","4","4","4","4","4","4","4","4","4","4","5","5","5","5","5","5","5","5","5","5","1","1","1","1","1","1","1","1","1","1","0","1","1","0","0","0","1","0","1","1","0","1","0","1","5","1","1","2","1","1","1","2","","5","2","633748719031812096","张","193","","","","","","","","","","","","","","","","","","","","","","","","","","","","","","","","","","","","","","","","","",""
"874","<p style=""color:rgb(150, 250, 100); font-size: 35px;"">本人</p>","e","categorize-html","72","143071","0.0-6.0-0.0-6.0-1.6","4","4","4","4","4","4","4","4","4","4","5","5","5","5","5","5","5","5","5","5","1","1","1","1","1","1","1","1","1","1","0","1","1","0","0","0","1","0","1","1","0","1","0","1","5","1","1","2","1","1","1","2","","5","2","633748719031812096","张","193","","","","","","","","","","","","","","","","","","","true","3","3","ability","874","self","本人","","","","","","","","","","","","","","","","",""
"null","","null","html-keyboard-response","73","143322","0.0-6.0-0.0-6.0-0.7","4","4","4","4","4","4","4","4","4","4","5","5","5","5","5","5","5","5","5","5","1","1","1","1","1","1","1","1","1","1","0","1","1","0","0","0","1","0","1","1","0","1","0","1","5","1","1","2","1","1","1","2","","5","2","633748719031812096","张","193","","","","","","","","","","","","","","","","","","","","","","","","","","","","","","","","","","","","","","","","","",""
"884","<p style=""color:white; font-size: 35px;"">高效</p>","e","categorize-html","74","144208","0.0-6.0-0.0-6.0-1.7","4","4","4","4","4","4","4","4","4","4","5","5","5","5","5","5","5","5","5","5","1","1","1","1","1","1","1","1","1","1","0","1","1","0","0","0","1","0","1","1","0","1","0","1","5","1","1","2","1","1","1","2","","5","2","633748719031812096","张","193","","","","","","","","","","","","","","","","","","","true","3","3","ability","884","positive","高效","","","","","","","","","","","","","","","","",""
"null","","null","html-keyboard-response","75","144459","0.0-6.0-0.0-6.0-0.8","4","4","4","4","4","4","4","4","4","4","5","5","5","5","5","5","5","5","5","5","1","1","1","1","1","1","1","1","1","1","0","1","1","0","0","0","1","0","1","1","0","1","0","1","5","1","1","2","1","1","1","2","","5","2","633748719031812096","张","193","","","","","","","","","","","","","","","","","","","","","","","","","","","","","","","","","","","","","","","","","",""
"834","<p style=""color:rgb(150, 250, 100); font-size: 35px;"">我</p>","e","categorize-html","76","145294","0.0-6.0-0.0-6.0-1.8","4","4","4","4","4","4","4","4","4","4","5","5","5","5","5","5","5","5","5","5","1","1","1","1","1","1","1","1","1","1","0","1","1","0","0","0","1","0","1","1","0","1","0","1","5","1","1","2","1","1","1","2","","5","2","633748719031812096","张","193","","","","","","","","","","","","","","","","","","","true","3","3","ability","834","self","我","","","","","","","","","","","","","","","","",""
"null","","null","html-keyboard-response","77","145545","0.0-6.0-0.0-6.0-0.9","4","4","4","4","4","4","4","4","4","4","5","5","5","5","5","5","5","5","5","5","1","1","1","1","1","1","1","1","1","1","0","1","1","0","0","0","1","0","1","1","0","1","0","1","5","1","1","2","1","1","1","2","","5","2","633748719031812096","张","193","","","","","","","","","","","","","","","","","","","","","","","","","","","","","","","","","","","","","","","","","",""
"853","<p style=""color:white; font-size: 35px;"">蠢笨</p>","i","categorize-html","78","146398","0.0-6.0-0.0-6.0-1.9","4","4","4","4","4","4","4","4","4","4","5","5","5","5","5","5","5","5","5","5","1","1","1","1","1","1","1","1","1","1","0","1","1","0","0","0","1","0","1","1","0","1","0","1","5","1","1","2","1","1","1","2","","5","2","633748719031812096","张","193","","","","","","","","","","","","","","","","","","","true","3","3","ability","853","negative","蠢笨","","","","","","","","","","","","","","","","",""
"null","","null","html-keyboard-response","79","146649","0.0-6.0-0.0-6.0-0.10","4","4","4","4","4","4","4","4","4","4","5","5","5","5","5","5","5","5","5","5","1","1","1","1","1","1","1","1","1","1","0","1","1","0","0","0","1","0","1","1","0","1","0","1","5","1","1","2","1","1","1","2","","5","2","633748719031812096","张","193","","","","","","","","","","","","","","","","","","","","","","","","","","","","","","","","","","","","","","","","","",""
"885","<p style=""color:rgb(150, 250, 100); font-size: 35px;"">别人</p>","i","categorize-html","80","147535","0.0-6.0-0.0-6.0-1.10","4","4","4","4","4","4","4","4","4","4","5","5","5","5","5","5","5","5","5","5","1","1","1","1","1","1","1","1","1","1","0","1","1","0","0","0","1","0","1","1","0","1","0","1","5","1","1","2","1","1","1","2","","5","2","633748719031812096","张","193","","","","","","","","","","","","","","","","","","","true","3","3","ability","885","other","别人","","","","","","","","","","","","","","","","",""
"null","","null","html-keyboard-response","81","147786","0.0-6.0-0.0-6.0-0.11","4","4","4","4","4","4","4","4","4","4","5","5","5","5","5","5","5","5","5","5","1","1","1","1","1","1","1","1","1","1","0","1","1","0","0","0","1","0","1","1","0","1","0","1","5","1","1","2","1","1","1","2","","5","2","633748719031812096","张","193","","","","","","","","","","","","","","","","","","","","","","","","","","","","","","","","","","","","","","","","","",""
"1027","<p style=""color:white; font-size: 35px;"">精干</p>","e","categorize-html","82","148815","0.0-6.0-0.0-6.0-1.11","4","4","4","4","4","4","4","4","4","4","5","5","5","5","5","5","5","5","5","5","1","1","1","1","1","1","1","1","1","1","0","1","1","0","0","0","1","0","1","1","0","1","0","1","5","1","1","2","1","1","1","2","","5","2","633748719031812096","张","193","","","","","","","","","","","","","","","","","","","true","3","3","ability","1027","positive","精干","","","","","","","","","","","","","","","","",""
"null","","null","html-keyboard-response","83","149066","0.0-6.0-0.0-6.0-0.12","4","4","4","4","4","4","4","4","4","4","5","5","5","5","5","5","5","5","5","5","1","1","1","1","1","1","1","1","1","1","0","1","1","0","0","0","1","0","1","1","0","1","0","1","5","1","1","2","1","1","1","2","","5","2","633748719031812096","张","193","","","","","","","","","","","","","","","","","","","","","","","","","","","","","","","","","","","","","","","","","",""
"860","<p style=""color:rgb(150, 250, 100); font-size: 35px;"">别人的</p>","i","categorize-html","84","149927","0.0-6.0-0.0-6.0-1.12","4","4","4","4","4","4","4","4","4","4","5","5","5","5","5","5","5","5","5","5","1","1","1","1","1","1","1","1","1","1","0","1","1","0","0","0","1","0","1","1","0","1","0","1","5","1","1","2","1","1","1","2","","5","2","633748719031812096","张","193","","","","","","","","","","","","","","","","","","","true","3","3","ability","860","other","别人的","","","","","","","","","","","","","","","","",""
"null","","null","html-keyboard-response","85","150179","0.0-6.0-0.0-6.0-0.13","4","4","4","4","4","4","4","4","4","4","5","5","5","5","5","5","5","5","5","5","1","1","1","1","1","1","1","1","1","1","0","1","1","0","0","0","1","0","1","1","0","1","0","1","5","1","1","2","1","1","1","2","","5","2","633748719031812096","张","193","","","","","","","","","","","","","","","","","","","","","","","","","","","","","","","","","","","","","","","","","",""
"1011","<p style=""color:white; font-size: 35px;"">全能</p>","e","categorize-html","86","151190","0.0-6.0-0.0-6.0-1.13","4","4","4","4","4","4","4","4","4","4","5","5","5","5","5","5","5","5","5","5","1","1","1","1","1","1","1","1","1","1","0","1","1","0","0","0","1","0","1","1","0","1","0","1","5","1","1","2","1","1","1","2","","5","2","633748719031812096","张","193","","","","","","","","","","","","","","","","","","","true","3","3","ability","1011","positive","全能","","","","","","","","","","","","","","","","",""
"null","","null","html-keyboard-response","87","151442","0.0-6.0-0.0-6.0-0.14","4","4","4","4","4","4","4","4","4","4","5","5","5","5","5","5","5","5","5","5","1","1","1","1","1","1","1","1","1","1","0","1","1","0","0","0","1","0","1","1","0","1","0","1","5","1","1","2","1","1","1","2","","5","2","633748719031812096","张","193","","","","","","","","","","","","","","","","","","","","","","","","","","","","","","","","","","","","","","","","","",""
"1003","<p style=""color:rgb(150, 250, 100); font-size: 35px;"">本人的</p>","e","categorize-html","88","152446","0.0-6.0-0.0-6.0-1.14","4","4","4","4","4","4","4","4","4","4","5","5","5","5","5","5","5","5","5","5","1","1","1","1","1","1","1","1","1","1","0","1","1","0","0","0","1","0","1","1","0","1","0","1","5","1","1","2","1","1","1","2","","5","2","633748719031812096","张","193","","","","","","","","","","","","","","","","","","","true","3","3","ability","1003","self","本人的","","","","","","","","","","","","","","","","",""
"null","","null","html-keyboard-response","89","152697","0.0-6.0-0.0-6.0-0.15","4","4","4","4","4","4","4","4","4","4","5","5","5","5","5","5","5","5","5","5","1","1","1","1","1","1","1","1","1","1","0","1","1","0","0","0","1","0","1","1","0","1","0","1","5","1","1","2","1","1","1","2","","5","2","633748719031812096","张","193","","","","","","","","","","","","","","","","","","","","","","","","","","","","","","","","","","","","","","","","","",""
"1005","<p style=""color:white; font-size: 35px;"">低能</p>","i","categorize-html","90","153703","0.0-6.0-0.0-6.0-1.15","4","4","4","4","4","4","4","4","4","4","5","5","5","5","5","5","5","5","5","5","1","1","1","1","1","1","1","1","1","1","0","1","1","0","0","0","1","0","1","1","0","1","0","1","5","1","1","2","1","1","1","2","","5","2","633748719031812096","张","193","","","","","","","","","","","","","","","","","","","true","3","3","ability","1005","negative","低能","","","","","","","","","","","","","","","","",""
"null","","null","html-keyboard-response","91","153954","0.0-6.0-0.0-6.0-0.16","4","4","4","4","4","4","4","4","4","4","5","5","5","5","5","5","5","5","5","5","1","1","1","1","1","1","1","1","1","1","0","1","1","0","0","0","1","0","1","1","0","1","0","1","5","1","1","2","1","1","1","2","","5","2","633748719031812096","张","193","","","","","","","","","","","","","","","","","","","","","","","","","","","","","","","","","","","","","","","","","",""
"804","<p style=""color:rgb(150, 250, 100); font-size: 35px;"">我的</p>","e","categorize-html","92","154759","0.0-6.0-0.0-6.0-1.16","4","4","4","4","4","4","4","4","4","4","5","5","5","5","5","5","5","5","5","5","1","1","1","1","1","1","1","1","1","1","0","1","1","0","0","0","1","0","1","1","0","1","0","1","5","1","1","2","1","1","1","2","","5","2","633748719031812096","张","193","","","","","","","","","","","","","","","","","","","true","3","3","ability","804","self","我的","","","","","","","","","","","","","","","","",""
"null","","null","html-keyboard-response","93","155011","0.0-6.0-0.0-6.0-0.17","4","4","4","4","4","4","4","4","4","4","5","5","5","5","5","5","5","5","5","5","1","1","1","1","1","1","1","1","1","1","0","1","1","0","0","0","1","0","1","1","0","1","0","1","5","1","1","2","1","1","1","2","","5","2","633748719031812096","张","193","","","","","","","","","","","","","","","","","","","","","","","","","","","","","","","","","","","","","","","","","",""
"915","<p style=""color:white; font-size: 35px;"">拙笨</p>","i","categorize-html","94","155926","0.0-6.0-0.0-6.0-1.17","4","4","4","4","4","4","4","4","4","4","5","5","5","5","5","5","5","5","5","5","1","1","1","1","1","1","1","1","1","1","0","1","1","0","0","0","1","0","1","1","0","1","0","1","5","1","1","2","1","1","1","2","","5","2","633748719031812096","张","193","","","","","","","","","","","","","","","","","","","true","3","3","ability","915","negative","拙笨","","","","","","","","","","","","","","","","",""
"null","","null","html-keyboard-response","95","156177","0.0-6.0-0.0-6.0-0.18","4","4","4","4","4","4","4","4","4","4","5","5","5","5","5","5","5","5","5","5","1","1","1","1","1","1","1","1","1","1","0","1","1","0","0","0","1","0","1","1","0","1","0","1","5","1","1","2","1","1","1","2","","5","2","633748719031812096","张","193","","","","","","","","","","","","","","","","","","","","","","","","","","","","","","","","","","","","","","","","","",""
"940","<p style=""color:rgb(150, 250, 100); font-size: 35px;"">他人的</p>","i","categorize-html","96","157118","0.0-6.0-0.0-6.0-1.18","4","4","4","4","4","4","4","4","4","4","5","5","5","5","5","5","5","5","5","5","1","1","1","1","1","1","1","1","1","1","0","1","1","0","0","0","1","0","1","1","0","1","0","1","5","1","1","2","1","1","1","2","","5","2","633748719031812096","张","193","","","","","","","","","","","","","","","","","","","true","3","3","ability","940","other","他人的","","","","","","","","","","","","","","","","",""
"null","","null","html-keyboard-response","97","157370","0.0-6.0-0.0-6.0-0.19","4","4","4","4","4","4","4","4","4","4","5","5","5","5","5","5","5","5","5","5","1","1","1","1","1","1","1","1","1","1","0","1","1","0","0","0","1","0","1","1","0","1","0","1","5","1","1","2","1","1","1","2","","5","2","633748719031812096","张","193","","","","","","","","","","","","","","","","","","","","","","","","","","","","","","","","","","","","","","","","","",""
"884","<p style=""color:white; font-size: 35px;"">全才</p>","e","categorize-html","98","158254","0.0-6.0-0.0-6.0-1.19","4","4","4","4","4","4","4","4","4","4","5","5","5","5","5","5","5","5","5","5","1","1","1","1","1","1","1","1","1","1","0","1","1","0","0","0","1","0","1","1","0","1","0","1","5","1","1","2","1","1","1","2","","5","2","633748719031812096","张","193","","","","","","","","","","","","","","","","","","","true","3","3","ability","884","positive","全才","","","","","","","","","","","","","","","","",""
"null","","null","html-keyboard-response","99","158505","0.0-6.0-0.0-6.0-0.20","4","4","4","4","4","4","4","4","4","4","5","5","5","5","5","5","5","5","5","5","1","1","1","1","1","1","1","1","1","1","0","1","1","0","0","0","1","0","1","1","0","1","0","1","5","1","1","2","1","1","1","2","","5","2","633748719031812096","张","193","","","","","","","","","","","","","","","","","","","","","","","","","","","","","","","","","","","","","","","","","",""
"845","<p style=""color:rgb(150, 250, 100); font-size: 35px;"">他人</p>","i","categorize-html","100","159350","0.0-6.0-0.0-6.0-1.20","4","4","4","4","4","4","4","4","4","4","5","5","5","5","5","5","5","5","5","5","1","1","1","1","1","1","1","1","1","1","0","1","1","0","0","0","1","0","1","1","0","1","0","1","5","1","1","2","1","1","1","2","","5","2","633748719031812096","张","193","","","","","","","","","","","","","","","","","","","true","3","3","ability","845","other","他人","","","","","","","","","","","","","","","","",""
"null","","null","html-keyboard-response","101","159602","0.0-6.0-0.0-6.0-0.21","4","4","4","4","4","4","4","4","4","4","5","5","5","5","5","5","5","5","5","5","1","1","1","1","1","1","1","1","1","1","0","1","1","0","0","0","1","0","1","1","0","1","0","1","5","1","1","2","1","1","1","2","","5","2","633748719031812096","张","193","","","","","","","","","","","","","","","","","","","","","","","","","","","","","","","","","","","","","","","","","",""
"1388","<p style=""color:white; font-size: 35px;"">能干</p>","e","categorize-html","102","160991","0.0-6.0-0.0-6.0-1.21","4","4","4","4","4","4","4","4","4","4","5","5","5","5","5","5","5","5","5","5","1","1","1","1","1","1","1","1","1","1","0","1","1","0","0","0","1","0","1","1","0","1","0","1","5","1","1","2","1","1","1","2","","5","2","633748719031812096","张","193","","","","","","","","","","","","","","","","","","","true","3","3","ability","1388","positive","能干","","","","","","","","","","","","","","","","",""
"null","","null","html-keyboard-response","103","161242","0.0-6.0-0.0-6.0-0.22","4","4","4","4","4","4","4","4","4","4","5","5","5","5","5","5","5","5","5","5","1","1","1","1","1","1","1","1","1","1","0","1","1","0","0","0","1","0","1","1","0","1","0","1","5","1","1","2","1","1","1","2","","5","2","633748719031812096","张","193","","","","","","","","","","","","","","","","","","","","","","","","","","","","","","","","","","","","","","","","","",""
"787","<p style=""color:rgb(150, 250, 100); font-size: 35px;"">自己</p>","e","categorize-html","104","162031","0.0-6.0-0.0-6.0-1.22","4","4","4","4","4","4","4","4","4","4","5","5","5","5","5","5","5","5","5","5","1","1","1","1","1","1","1","1","1","1","0","1","1","0","0","0","1","0","1","1","0","1","0","1","5","1","1","2","1","1","1","2","","5","2","633748719031812096","张","193","","","","","","","","","","","","","","","","","","","true","3","3","ability","787","self","自己","","","","","","","","","","","","","","","","",""
"null","","null","html-keyboard-response","105","162282","0.0-6.0-0.0-6.0-0.23","4","4","4","4","4","4","4","4","4","4","5","5","5","5","5","5","5","5","5","5","1","1","1","1","1","1","1","1","1","1","0","1","1","0","0","0","1","0","1","1","0","1","0","1","5","1","1","2","1","1","1","2","","5","2","633748719031812096","张","193","","","","","","","","","","","","","","","","","","","","","","","","","","","","","","","","","","","","","","","","","",""
"779","<p style=""color:white; font-size: 35px;"">废物</p>","i","categorize-html","106","163062","0.0-6.0-0.0-6.0-1.23","4","4","4","4","4","4","4","4","4","4","5","5","5","5","5","5","5","5","5","5","1","1","1","1","1","1","1","1","1","1","0","1","1","0","0","0","1","0","1","1","0","1","0","1","5","1","1","2","1","1","1","2","","5","2","633748719031812096","张","193","","","","","","","","","","","","","","","","","","","true","3","3","ability","779","negative","废物","","","","","","","","","","","","","","","","",""
"5720","
    <div class=""tag-bottom""><p>
    —— 任务4：对“自我/积极”词和“他人/消极”词分类 ——<p/>
    <span style=""color:#78DCE8""><b>与刚才的任务完全相同，请再次对这四类词语分类</b></span><p/>
    <span style=""color:#FFD866""><b>请根据上方标签的提示，尽可能正确并且快速地做出按键反应</b></span><p/>
    当按键错误时屏幕中会出现<span style=""color:red""> X </span>，需要按另一个键纠正才能继续<br/><p/>
    请把双手食指分别放在键盘的“E”键和“I”键上<p/>
    按<空格键>开始
    </p></div>"," ","html-keyboard-response","107","168782","0.0-6.0-0.0-7.0","4","4","4","4","4","4","4","4","4","4","5","5","5","5","5","5","5","5","5","5","1","1","1","1","1","1","1","1","1","1","0","1","1","0","0","0","1","0","1","1","0","1","0","1","5","1","1","2","1","1","1","2","","5","2","633748719031812096","张","193","","","","","","","","","","","","","","","","","","","","","","","","","","","","","","","","","","","","","","","","","",""
"null","","null","html-keyboard-response","108","169033","0.0-6.0-0.0-8.0-0.0","4","4","4","4","4","4","4","4","4","4","5","5","5","5","5","5","5","5","5","5","1","1","1","1","1","1","1","1","1","1","0","1","1","0","0","0","1","0","1","1","0","1","0","1","5","1","1","2","1","1","1","2","","5","2","633748719031812096","张","193","","","","","","","","","","","","","","","","","","","","","","","","","","","","","","","","","","","","","","","","","",""
"1948","<p style=""color:rgb(150, 250, 100); font-size: 35px;"">我的</p>","e","categorize-html","109","170982","0.0-6.0-0.0-8.0-1.0","4","4","4","4","4","4","4","4","4","4","5","5","5","5","5","5","5","5","5","5","1","1","1","1","1","1","1","1","1","1","0","1","1","0","0","0","1","0","1","1","0","1","0","1","5","1","1","2","1","1","1","2","","5","2","633748719031812096","张","193","","","","","","","","","","","","","","","","","","","true","4","4","ability","1948","self","我的","","","","","","","","","","","","","","","","",""
"null","","null","html-keyboard-response","110","171234","0.0-6.0-0.0-8.0-0.1","4","4","4","4","4","4","4","4","4","4","5","5","5","5","5","5","5","5","5","5","1","1","1","1","1","1","1","1","1","1","0","1","1","0","0","0","1","0","1","1","0","1","0","1","5","1","1","2","1","1","1","2","","5","2","633748719031812096","张","193","","","","","","","","","","","","","","","","","","","","","","","","","","","","","","","","","","","","","","","","","",""
"787","<p style=""color:white; font-size: 35px;"">蠢笨</p>","i","categorize-html","111","172022","0.0-6.0-0.0-8.0-1.1","4","4","4","4","4","4","4","4","4","4","5","5","5","5","5","5","5","5","5","5","1","1","1","1","1","1","1","1","1","1","0","1","1","0","0","0","1","0","1","1","0","1","0","1","5","1","1","2","1","1","1","2","","5","2","633748719031812096","张","193","","","","","","","","","","","","","","","","","","","true","4","4","ability","787","negative","蠢笨","","","","","","","","","","","","","","","","",""
"null","","null","html-keyboard-response","112","172273","0.0-6.0-0.0-8.0-0.2","4","4","4","4","4","4","4","4","4","4","5","5","5","5","5","5","5","5","5","5","1","1","1","1","1","1","1","1","1","1","0","1","1","0","0","0","1","0","1","1","0","1","0","1","5","1","1","2","1","1","1","2","","5","2","633748719031812096","张","193","","","","","","","","","","","","","","","","","","","","","","","","","","","","","","","","","","","","","","","","","",""
"1052","<p style=""color:rgb(150, 250, 100); font-size: 35px;"">他的</p>","i","categorize-html","113","173327","0.0-6.0-0.0-8.0-1.2","4","4","4","4","4","4","4","4","4","4","5","5","5","5","5","5","5","5","5","5","1","1","1","1","1","1","1","1","1","1","0","1","1","0","0","0","1","0","1","1","0","1","0","1","5","1","1","2","1","1","1","2","","5","2","633748719031812096","张","193","","","","","","","","","","","","","","","","","","","true","4","4","ability","1052","other","他的","","","","","","","","","","","","","","","","",""
"null","","null","html-keyboard-response","114","173578","0.0-6.0-0.0-8.0-0.3","4","4","4","4","4","4","4","4","4","4","5","5","5","5","5","5","5","5","5","5","1","1","1","1","1","1","1","1","1","1","0","1","1","0","0","0","1","0","1","1","0","1","0","1","5","1","1","2","1","1","1","2","","5","2","633748719031812096","张","193","","","","","","","","","","","","","","","","","","","","","","","","","","","","","","","","","","","","","","","","","",""
"1812","<p style=""color:white; font-size: 35px;"">天才</p>","e","categorize-html","115","175390","0.0-6.0-0.0-8.0-1.3","4","4","4","4","4","4","4","4","4","4","5","5","5","5","5","5","5","5","5","5","1","1","1","1","1","1","1","1","1","1","0","1","1","0","0","0","1","0","1","1","0","1","0","1","5","1","1","2","1","1","1","2","","5","2","633748719031812096","张","193","","","","","","","","","","","","","","","","","","","true","4","4","ability","1812","positive","天才","","","","","","","","","","","","","","","","",""
"null","","null","html-keyboard-response","116","175641","0.0-6.0-0.0-8.0-0.4","4","4","4","4","4","4","4","4","4","4","5","5","5","5","5","5","5","5","5","5","1","1","1","1","1","1","1","1","1","1","0","1","1","0","0","0","1","0","1","1","0","1","0","1","5","1","1","2","1","1","1","2","","5","2","633748719031812096","张","193","","","","","","","","","","","","","","","","","","","","","","","","","","","","","","","","","","","","","","","","","",""
"781","<p style=""color:rgb(150, 250, 100); font-size: 35px;"">他的</p>","i","categorize-html","117","176423","0.0-6.0-0.0-8.0-1.4","4","4","4","4","4","4","4","4","4","4","5","5","5","5","5","5","5","5","5","5","1","1","1","1","1","1","1","1","1","1","0","1","1","0","0","0","1","0","1","1","0","1","0","1","5","1","1","2","1","1","1","2","","5","2","633748719031812096","张","193","","","","","","","","","","","","","","","","","","","true","4","4","ability","781","other","他的","","","","","","","","","","","","","","","","",""
"null","","null","html-keyboard-response","118","176674","0.0-6.0-0.0-8.0-0.5","4","4","4","4","4","4","4","4","4","4","5","5","5","5","5","5","5","5","5","5","1","1","1","1","1","1","1","1","1","1","0","1","1","0","0","0","1","0","1","1","0","1","0","1","5","1","1","2","1","1","1","2","","5","2","633748719031812096","张","193","","","","","","","","","","","","","","","","","","","","","","","","","","","","","","","","","","","","","","","","","",""
"771","<p style=""color:white; font-size: 35px;"">废物</p>","i","categorize-html","119","177447","0.0-6.0-0.0-8.0-1.5","4","4","4","4","4","4","4","4","4","4","5","5","5","5","5","5","5","5","5","5","1","1","1","1","1","1","1","1","1","1","0","1","1","0","0","0","1","0","1","1","0","1","0","1","5","1","1","2","1","1","1","2","","5","2","633748719031812096","张","193","","","","","","","","","","","","","","","","","","","true","4","4","ability","771","negative","废物","","","","","","","","","","","","","","","","",""
"null","","null","html-keyboard-response","120","177698","0.0-6.0-0.0-8.0-0.6","4","4","4","4","4","4","4","4","4","4","5","5","5","5","5","5","5","5","5","5","1","1","1","1","1","1","1","1","1","1","0","1","1","0","0","0","1","0","1","1","0","1","0","1","5","1","1","2","1","1","1","2","","5","2","633748719031812096","张","193","","","","","","","","","","","","","","","","","","","","","","","","","","","","","","","","","","","","","","","","","",""
"755","<p style=""color:rgb(150, 250, 100); font-size: 35px;"">本人</p>","e","categorize-html","121","178454","0.0-6.0-0.0-8.0-1.6","4","4","4","4","4","4","4","4","4","4","5","5","5","5","5","5","5","5","5","5","1","1","1","1","1","1","1","1","1","1","0","1","1","0","0","0","1","0","1","1","0","1","0","1","5","1","1","2","1","1","1","2","","5","2","633748719031812096","张","193","","","","","","","","","","","","","","","","","","","true","4","4","ability","755","self","本人","","","","","","","","","","","","","","","","",""
"null","","null","html-keyboard-response","122","178705","0.0-6.0-0.0-8.0-0.7","4","4","4","4","4","4","4","4","4","4","5","5","5","5","5","5","5","5","5","5","1","1","1","1","1","1","1","1","1","1","0","1","1","0","0","0","1","0","1","1","0","1","0","1","5","1","1","2","1","1","1","2","","5","2","633748719031812096","张","193","","","","","","","","","","","","","","","","","","","","","","","","","","","","","","","","","","","","","","","","","",""
"733","<p style=""color:white; font-size: 35px;"">能干</p>","e","categorize-html","123","179438","0.0-6.0-0.0-8.0-1.7","4","4","4","4","4","4","4","4","4","4","5","5","5","5","5","5","5","5","5","5","1","1","1","1","1","1","1","1","1","1","0","1","1","0","0","0","1","0","1","1","0","1","0","1","5","1","1","2","1","1","1","2","","5","2","633748719031812096","张","193","","","","","","","","","","","","","","","","","","","true","4","4","ability","733","positive","能干","","","","","","","","","","","","","","","","",""
"null","","null","html-keyboard-response","124","179689","0.0-6.0-0.0-8.0-0.8","4","4","4","4","4","4","4","4","4","4","5","5","5","5","5","5","5","5","5","5","1","1","1","1","1","1","1","1","1","1","0","1","1","0","0","0","1","0","1","1","0","1","0","1","5","1","1","2","1","1","1","2","","5","2","633748719031812096","张","193","","","","","","","","","","","","","","","","","","","","","","","","","","","","","","","","","","","","","","","","","",""
"884","<p style=""color:rgb(150, 250, 100); font-size: 35px;"">自己</p>","e","categorize-html","125","180574","0.0-6.0-0.0-8.0-1.8","4","4","4","4","4","4","4","4","4","4","5","5","5","5","5","5","5","5","5","5","1","1","1","1","1","1","1","1","1","1","0","1","1","0","0","0","1","0","1","1","0","1","0","1","5","1","1","2","1","1","1","2","","5","2","633748719031812096","张","193","","","","","","","","","","","","","","","","","","","true","4","4","ability","884","self","自己","","","","","","","","","","","","","","","","",""
"null","","null","html-keyboard-response","126","180827","0.0-6.0-0.0-8.0-0.9","4","4","4","4","4","4","4","4","4","4","5","5","5","5","5","5","5","5","5","5","1","1","1","1","1","1","1","1","1","1","0","1","1","0","0","0","1","0","1","1","0","1","0","1","5","1","1","2","1","1","1","2","","5","2","633748719031812096","张","193","","","","","","","","","","","","","","","","","","","","","","","","","","","","","","","","","","","","","","","","","",""
"923","<p style=""color:white; font-size: 35px;"">精干</p>","e","categorize-html","127","181751","0.0-6.0-0.0-8.0-1.9","4","4","4","4","4","4","4","4","4","4","5","5","5","5","5","5","5","5","5","5","1","1","1","1","1","1","1","1","1","1","0","1","1","0","0","0","1","0","1","1","0","1","0","1","5","1","1","2","1","1","1","2","","5","2","633748719031812096","张","193","","","","","","","","","","","","","","","","","","","true","4","4","ability","923","positive","精干","","","","","","","","","","","","","","","","",""
"null","","null","html-keyboard-response","128","182002","0.0-6.0-0.0-8.0-0.10","4","4","4","4","4","4","4","4","4","4","5","5","5","5","5","5","5","5","5","5","1","1","1","1","1","1","1","1","1","1","0","1","1","0","0","0","1","0","1","1","0","1","0","1","5","1","1","2","1","1","1","2","","5","2","633748719031812096","张","193","","","","","","","","","","","","","","","","","","","","","","","","","","","","","","","","","","","","","","","","","",""
"1029","<p style=""color:rgb(150, 250, 100); font-size: 35px;"">他人</p>","i","categorize-html","129","183031","0.0-6.0-0.0-8.0-1.10","4","4","4","4","4","4","4","4","4","4","5","5","5","5","5","5","5","5","5","5","1","1","1","1","1","1","1","1","1","1","0","1","1","0","0","0","1","0","1","1","0","1","0","1","5","1","1","2","1","1","1","2","","5","2","633748719031812096","张","193","","","","","","","","","","","","","","","","","","","true","4","4","ability","1029","other","他人","","","","","","","","","","","","","","","","",""
"null","","null","html-keyboard-response","130","183282","0.0-6.0-0.0-8.0-0.11","4","4","4","4","4","4","4","4","4","4","5","5","5","5","5","5","5","5","5","5","1","1","1","1","1","1","1","1","1","1","0","1","1","0","0","0","1","0","1","1","0","1","0","1","5","1","1","2","1","1","1","2","","5","2","633748719031812096","张","193","","","","","","","","","","","","","","","","","","","","","","","","","","","","","","","","","","","","","","","","","",""
"667","<p style=""color:white; font-size: 35px;"">愚钝</p>","i","categorize-html","131","183951","0.0-6.0-0.0-8.0-1.11","4","4","4","4","4","4","4","4","4","4","5","5","5","5","5","5","5","5","5","5","1","1","1","1","1","1","1","1","1","1","0","1","1","0","0","0","1","0","1","1","0","1","0","1","5","1","1","2","1","1","1","2","","5","2","633748719031812096","张","193","","","","","","","","","","","","","","","","","","","true","4","4","ability","667","negative","愚钝","","","","","","","","","","","","","","","","",""
"null","","null","html-keyboard-response","132","184203","0.0-6.0-0.0-8.0-0.12","4","4","4","4","4","4","4","4","4","4","5","5","5","5","5","5","5","5","5","5","1","1","1","1","1","1","1","1","1","1","0","1","1","0","0","0","1","0","1","1","0","1","0","1","5","1","1","2","1","1","1","2","","5","2","633748719031812096","张","193","","","","","","","","","","","","","","","","","","","","","","","","","","","","","","","","","","","","","","","","","",""
"747","<p style=""color:rgb(150, 250, 100); font-size: 35px;"">别人</p>","i","categorize-html","133","184950","0.0-6.0-0.0-8.0-1.12","4","4","4","4","4","4","4","4","4","4","5","5","5","5","5","5","5","5","5","5","1","1","1","1","1","1","1","1","1","1","0","1","1","0","0","0","1","0","1","1","0","1","0","1","5","1","1","2","1","1","1","2","","5","2","633748719031812096","张","193","","","","","","","","","","","","","","","","","","","true","4","4","ability","747","other","别人","","","","","","","","","","","","","","","","",""
"null","","null","html-keyboard-response","134","185201","0.0-6.0-0.0-8.0-0.13","4","4","4","4","4","4","4","4","4","4","5","5","5","5","5","5","5","5","5","5","1","1","1","1","1","1","1","1","1","1","0","1","1","0","0","0","1","0","1","1","0","1","0","1","5","1","1","2","1","1","1","2","","5","2","633748719031812096","张","193","","","","","","","","","","","","","","","","","","","","","","","","","","","","","","","","","","","","","","","","","",""
"700","<p style=""color:white; font-size: 35px;"">拙笨</p>","i","categorize-html","135","185902","0.0-6.0-0.0-8.0-1.13","4","4","4","4","4","4","4","4","4","4","5","5","5","5","5","5","5","5","5","5","1","1","1","1","1","1","1","1","1","1","0","1","1","0","0","0","1","0","1","1","0","1","0","1","5","1","1","2","1","1","1","2","","5","2","633748719031812096","张","193","","","","","","","","","","","","","","","","","","","true","4","4","ability","700","negative","拙笨","","","","","","","","","","","","","","","","",""
"null","","null","html-keyboard-response","136","186153","0.0-6.0-0.0-8.0-0.14","4","4","4","4","4","4","4","4","4","4","5","5","5","5","5","5","5","5","5","5","1","1","1","1","1","1","1","1","1","1","0","1","1","0","0","0","1","0","1","1","0","1","0","1","5","1","1","2","1","1","1","2","","5","2","633748719031812096","张","193","","","","","","","","","","","","","","","","","","","","","","","","","","","","","","","","","","","","","","","","","",""
"661","<p style=""color:rgb(150, 250, 100); font-size: 35px;"">自己的</p>","e","categorize-html","137","186815","0.0-6.0-0.0-8.0-1.14","4","4","4","4","4","4","4","4","4","4","5","5","5","5","5","5","5","5","5","5","1","1","1","1","1","1","1","1","1","1","0","1","1","0","0","0","1","0","1","1","0","1","0","1","5","1","1","2","1","1","1","2","","5","2","633748719031812096","张","193","","","","","","","","","","","","","","","","","","","true","4","4","ability","661","self","自己的","","","","","","","","","","","","","","","","",""
"null","","null","html-keyboard-response","138","187066","0.0-6.0-0.0-8.0-0.15","4","4","4","4","4","4","4","4","4","4","5","5","5","5","5","5","5","5","5","5","1","1","1","1","1","1","1","1","1","1","0","1","1","0","0","0","1","0","1","1","0","1","0","1","5","1","1","2","1","1","1","2","","5","2","633748719031812096","张","193","","","","","","","","","","","","","","","","","","","","","","","","","","","","","","","","","","","","","","","","","",""
"708","<p style=""color:white; font-size: 35px;"">高效</p>","e","categorize-html","139","187774","0.0-6.0-0.0-8.0-1.15","4","4","4","4","4","4","4","4","4","4","5","5","5","5","5","5","5","5","5","5","1","1","1","1","1","1","1","1","1","1","0","1","1","0","0","0","1","0","1","1","0","1","0","1","5","1","1","2","1","1","1","2","","5","2","633748719031812096","张","193","","","","","","","","","","","","","","","","","","","true","4","4","ability","708","positive","高效","","","","","","","","","","","","","","","","",""
"null","","null","html-keyboard-response","140","188026","0.0-6.0-0.0-8.0-0.16","4","4","4","4","4","4","4","4","4","4","5","5","5","5","5","5","5","5","5","5","1","1","1","1","1","1","1","1","1","1","0","1","1","0","0","0","1","0","1","1","0","1","0","1","5","1","1","2","1","1","1","2","","5","2","633748719031812096","张","193","","","","","","","","","","","","","","","","","","","","","","","","","","","","","","","","","","","","","","","","","",""
"836","<p style=""color:rgb(150, 250, 100); font-size: 35px;"">本人</p>","e","categorize-html","141","188862","0.0-6.0-0.0-8.0-1.16","4","4","4","4","4","4","4","4","4","4","5","5","5","5","5","5","5","5","5","5","1","1","1","1","1","1","1","1","1","1","0","1","1","0","0","0","1","0","1","1","0","1","0","1","5","1","1","2","1","1","1","2","","5","2","633748719031812096","张","193","","","","","","","","","","","","","","","","","","","true","4","4","ability","836","self","本人","","","","","","","","","","","","","","","","",""
"null","","null","html-keyboard-response","142","189112","0.0-6.0-0.0-8.0-0.17","4","4","4","4","4","4","4","4","4","4","5","5","5","5","5","5","5","5","5","5","1","1","1","1","1","1","1","1","1","1","0","1","1","0","0","0","1","0","1","1","0","1","0","1","5","1","1","2","1","1","1","2","","5","2","633748719031812096","张","193","","","","","","","","","","","","","","","","","","","","","","","","","","","","","","","","","","","","","","","","","",""
"813","<p style=""color:white; font-size: 35px;"">全能</p>","e","categorize-html","143","189926","0.0-6.0-0.0-8.0-1.17","4","4","4","4","4","4","4","4","4","4","5","5","5","5","5","5","5","5","5","5","1","1","1","1","1","1","1","1","1","1","0","1","1","0","0","0","1","0","1","1","0","1","0","1","5","1","1","2","1","1","1","2","","5","2","633748719031812096","张","193","","","","","","","","","","","","","","","","","","","true","4","4","ability","813","positive","全能","","","","","","","","","","","","","","","","",""
"null","","null","html-keyboard-response","144","190177","0.0-6.0-0.0-8.0-0.18","4","4","4","4","4","4","4","4","4","4","5","5","5","5","5","5","5","5","5","5","1","1","1","1","1","1","1","1","1","1","0","1","1","0","0","0","1","0","1","1","0","1","0","1","5","1","1","2","1","1","1","2","","5","2","633748719031812096","张","193","","","","","","","","","","","","","","","","","","","","","","","","","","","","","","","","","","","","","","","","","",""
"653","<p style=""color:rgb(150, 250, 100); font-size: 35px;"">他人的</p>","i","categorize-html","145","190831","0.0-6.0-0.0-8.0-1.18","4","4","4","4","4","4","4","4","4","4","5","5","5","5","5","5","5","5","5","5","1","1","1","1","1","1","1","1","1","1","0","1","1","0","0","0","1","0","1","1","0","1","0","1","5","1","1","2","1","1","1","2","","5","2","633748719031812096","张","193","","","","","","","","","","","","","","","","","","","true","4","4","ability","653","other","他人的","","","","","","","","","","","","","","","","",""
"null","","null","html-keyboard-response","146","191082","0.0-6.0-0.0-8.0-0.19","4","4","4","4","4","4","4","4","4","4","5","5","5","5","5","5","5","5","5","5","1","1","1","1","1","1","1","1","1","1","0","1","1","0","0","0","1","0","1","1","0","1","0","1","5","1","1","2","1","1","1","2","","5","2","633748719031812096","张","193","","","","","","","","","","","","","","","","","","","","","","","","","","","","","","","","","","","","","","","","","",""
"580","<p style=""color:white; font-size: 35px;"">拙笨</p>","i","categorize-html","147","191662","0.0-6.0-0.0-8.0-1.19","4","4","4","4","4","4","4","4","4","4","5","5","5","5","5","5","5","5","5","5","1","1","1","1","1","1","1","1","1","1","0","1","1","0","0","0","1","0","1","1","0","1","0","1","5","1","1","2","1","1","1","2","","5","2","633748719031812096","张","193","","","","","","","","","","","","","","","","","","","true","4","4","ability","580","negative","拙笨","","","","","","","","","","","","","","","","",""
"null","","null","html-keyboard-response","148","191915","0.0-6.0-0.0-8.0-0.20","4","4","4","4","4","4","4","4","4","4","5","5","5","5","5","5","5","5","5","5","1","1","1","1","1","1","1","1","1","1","0","1","1","0","0","0","1","0","1","1","0","1","0","1","5","1","1","2","1","1","1","2","","5","2","633748719031812096","张","193","","","","","","","","","","","","","","","","","","","","","","","","","","","","","","","","","","","","","","","","","",""
"597","<p style=""color:rgb(150, 250, 100); font-size: 35px;"">我</p>","e","categorize-html","149","192513","0.0-6.0-0.0-8.0-1.20","4","4","4","4","4","4","4","4","4","4","5","5","5","5","5","5","5","5","5","5","1","1","1","1","1","1","1","1","1","1","0","1","1","0","0","0","1","0","1","1","0","1","0","1","5","1","1","2","1","1","1","2","","5","2","633748719031812096","张","193","","","","","","","","","","","","","","","","","","","true","4","4","ability","597","self","我","","","","","","","","","","","","","","","","",""
"null","","null","html-keyboard-response","150","192764","0.0-6.0-0.0-8.0-0.21","4","4","4","4","4","4","4","4","4","4","5","5","5","5","5","5","5","5","5","5","1","1","1","1","1","1","1","1","1","1","0","1","1","0","0","0","1","0","1","1","0","1","0","1","5","1","1","2","1","1","1","2","","5","2","633748719031812096","张","193","","","","","","","","","","","","","","","","","","","","","","","","","","","","","","","","","","","","","","","","","",""
"1193","<p style=""color:white; font-size: 35px;"">低能</p>","i","categorize-html","151","193958","0.0-6.0-0.0-8.0-1.21","4","4","4","4","4","4","4","4","4","4","5","5","5","5","5","5","5","5","5","5","1","1","1","1","1","1","1","1","1","1","0","1","1","0","0","0","1","0","1","1","0","1","0","1","5","1","1","2","1","1","1","2","","5","2","633748719031812096","张","193","","","","","","","","","","","","","","","","","","","true","4","4","ability","1193","negative","低能","","","","","","","","","","","","","","","","",""
"null","","null","html-keyboard-response","152","194209","0.0-6.0-0.0-8.0-0.22","4","4","4","4","4","4","4","4","4","4","5","5","5","5","5","5","5","5","5","5","1","1","1","1","1","1","1","1","1","1","0","1","1","0","0","0","1","0","1","1","0","1","0","1","5","1","1","2","1","1","1","2","","5","2","633748719031812096","张","193","","","","","","","","","","","","","","","","","","","","","","","","","","","","","","","","","","","","","","","","","",""
"709","<p style=""color:rgb(150, 250, 100); font-size: 35px;"">别人</p>","i","categorize-html","153","194919","0.0-6.0-0.0-8.0-1.22","4","4","4","4","4","4","4","4","4","4","5","5","5","5","5","5","5","5","5","5","1","1","1","1","1","1","1","1","1","1","0","1","1","0","0","0","1","0","1","1","0","1","0","1","5","1","1","2","1","1","1","2","","5","2","633748719031812096","张","193","","","","","","","","","","","","","","","","","","","true","4","4","ability","709","other","别人","","","","","","","","","","","","","","","","",""
"null","","null","html-keyboard-response","154","195170","0.0-6.0-0.0-8.0-0.23","4","4","4","4","4","4","4","4","4","4","5","5","5","5","5","5","5","5","5","5","1","1","1","1","1","1","1","1","1","1","0","1","1","0","0","0","1","0","1","1","0","1","0","1","5","1","1","2","1","1","1","2","","5","2","633748719031812096","张","193","","","","","","","","","","","","","","","","","","","","","","","","","","","","","","","","","","","","","","","","","",""
"684","<p style=""color:white; font-size: 35px;"">高效</p>","e","categorize-html","155","195855","0.0-6.0-0.0-8.0-1.23","4","4","4","4","4","4","4","4","4","4","5","5","5","5","5","5","5","5","5","5","1","1","1","1","1","1","1","1","1","1","0","1","1","0","0","0","1","0","1","1","0","1","0","1","5","1","1","2","1","1","1","2","","5","2","633748719031812096","张","193","","","","","","","","","","","","","","","","","","","true","4","4","ability","684","positive","高效","","","","","","","","","","","","","","","","",""
"null","","null","html-keyboard-response","156","196106","0.0-6.0-0.0-8.0-0.24","4","4","4","4","4","4","4","4","4","4","5","5","5","5","5","5","5","5","5","5","1","1","1","1","1","1","1","1","1","1","0","1","1","0","0","0","1","0","1","1","0","1","0","1","5","1","1","2","1","1","1","2","","5","2","633748719031812096","张","193","","","","","","","","","","","","","","","","","","","","","","","","","","","","","","","","","","","","","","","","","",""
"668","<p style=""color:rgb(150, 250, 100); font-size: 35px;"">本人的</p>","e","categorize-html","157","196775","0.0-6.0-0.0-8.0-1.24","4","4","4","4","4","4","4","4","4","4","5","5","5","5","5","5","5","5","5","5","1","1","1","1","1","1","1","1","1","1","0","1","1","0","0","0","1","0","1","1","0","1","0","1","5","1","1","2","1","1","1","2","","5","2","633748719031812096","张","193","","","","","","","","","","","","","","","","","","","true","4","4","ability","668","self","本人的","","","","","","","","","","","","","","","","",""
"null","","null","html-keyboard-response","158","197027","0.0-6.0-0.0-8.0-0.25","4","4","4","4","4","4","4","4","4","4","5","5","5","5","5","5","5","5","5","5","1","1","1","1","1","1","1","1","1","1","0","1","1","0","0","0","1","0","1","1","0","1","0","1","5","1","1","2","1","1","1","2","","5","2","633748719031812096","张","193","","","","","","","","","","","","","","","","","","","","","","","","","","","","","","","","","","","","","","","","","",""
"899","<p style=""color:white; font-size: 35px;"">全能</p>","e","categorize-html","159","197926","0.0-6.0-0.0-8.0-1.25","4","4","4","4","4","4","4","4","4","4","5","5","5","5","5","5","5","5","5","5","1","1","1","1","1","1","1","1","1","1","0","1","1","0","0","0","1","0","1","1","0","1","0","1","5","1","1","2","1","1","1","2","","5","2","633748719031812096","张","193","","","","","","","","","","","","","","","","","","","true","4","4","ability","899","positive","全能","","","","","","","","","","","","","","","","",""
"null","","null","html-keyboard-response","160","198177","0.0-6.0-0.0-8.0-0.26","4","4","4","4","4","4","4","4","4","4","5","5","5","5","5","5","5","5","5","5","1","1","1","1","1","1","1","1","1","1","0","1","1","0","0","0","1","0","1","1","0","1","0","1","5","1","1","2","1","1","1","2","","5","2","633748719031812096","张","193","","","","","","","","","","","","","","","","","","","","","","","","","","","","","","","","","","","","","","","","","",""
"732","<p style=""color:rgb(150, 250, 100); font-size: 35px;"">他人的</p>","i","categorize-html","161","198910","0.0-6.0-0.0-8.0-1.26","4","4","4","4","4","4","4","4","4","4","5","5","5","5","5","5","5","5","5","5","1","1","1","1","1","1","1","1","1","1","0","1","1","0","0","0","1","0","1","1","0","1","0","1","5","1","1","2","1","1","1","2","","5","2","633748719031812096","张","193","","","","","","","","","","","","","","","","","","","true","4","4","ability","732","other","他人的","","","","","","","","","","","","","","","","",""
"null","","null","html-keyboard-response","162","199161","0.0-6.0-0.0-8.0-0.27","4","4","4","4","4","4","4","4","4","4","5","5","5","5","5","5","5","5","5","5","1","1","1","1","1","1","1","1","1","1","0","1","1","0","0","0","1","0","1","1","0","1","0","1","5","1","1","2","1","1","1","2","","5","2","633748719031812096","张","193","","","","","","","","","","","","","","","","","","","","","","","","","","","","","","","","","","","","","","","","","",""
"708","<p style=""color:white; font-size: 35px;"">愚钝</p>","i","categorize-html","163","199870","0.0-6.0-0.0-8.0-1.27","4","4","4","4","4","4","4","4","4","4","5","5","5","5","5","5","5","5","5","5","1","1","1","1","1","1","1","1","1","1","0","1","1","0","0","0","1","0","1","1","0","1","0","1","5","1","1","2","1","1","1","2","","5","2","633748719031812096","张","193","","","","","","","","","","","","","","","","","","","true","4","4","ability","708","negative","愚钝","","","","","","","","","","","","","","","","",""
"null","","null","html-keyboard-response","164","200122","0.0-6.0-0.0-8.0-0.28","4","4","4","4","4","4","4","4","4","4","5","5","5","5","5","5","5","5","5","5","1","1","1","1","1","1","1","1","1","1","0","1","1","0","0","0","1","0","1","1","0","1","0","1","5","1","1","2","1","1","1","2","","5","2","633748719031812096","张","193","","","","","","","","","","","","","","","","","","","","","","","","","","","","","","","","","","","","","","","","","",""
"820","<p style=""color:rgb(150, 250, 100); font-size: 35px;"">别人的</p>","i","categorize-html","165","200942","0.0-6.0-0.0-8.0-1.28","4","4","4","4","4","4","4","4","4","4","5","5","5","5","5","5","5","5","5","5","1","1","1","1","1","1","1","1","1","1","0","1","1","0","0","0","1","0","1","1","0","1","0","1","5","1","1","2","1","1","1","2","","5","2","633748719031812096","张","193","","","","","","","","","","","","","","","","","","","true","4","4","ability","820","other","别人的","","","","","","","","","","","","","","","","",""
"null","","null","html-keyboard-response","166","201193","0.0-6.0-0.0-8.0-0.29","4","4","4","4","4","4","4","4","4","4","5","5","5","5","5","5","5","5","5","5","1","1","1","1","1","1","1","1","1","1","0","1","1","0","0","0","1","0","1","1","0","1","0","1","5","1","1","2","1","1","1","2","","5","2","633748719031812096","张","193","","","","","","","","","","","","","","","","","","","","","","","","","","","","","","","","","","","","","","","","","",""
"1164","<p style=""color:white; font-size: 35px;"">能干</p>","e","categorize-html","167","202358","0.0-6.0-0.0-8.0-1.29","4","4","4","4","4","4","4","4","4","4","5","5","5","5","5","5","5","5","5","5","1","1","1","1","1","1","1","1","1","1","0","1","1","0","0","0","1","0","1","1","0","1","0","1","5","1","1","2","1","1","1","2","","5","2","633748719031812096","张","193","","","","","","","","","","","","","","","","","","","true","4","4","ability","1164","positive","能干","","","","","","","","","","","","","","","","",""
"null","","null","html-keyboard-response","168","202609","0.0-6.0-0.0-8.0-0.30","4","4","4","4","4","4","4","4","4","4","5","5","5","5","5","5","5","5","5","5","1","1","1","1","1","1","1","1","1","1","0","1","1","0","0","0","1","0","1","1","0","1","0","1","5","1","1","2","1","1","1","2","","5","2","633748719031812096","张","193","","","","","","","","","","","","","","","","","","","","","","","","","","","","","","","","","","","","","","","","","",""
"1325","<p style=""color:rgb(150, 250, 100); font-size: 35px;"">本人的</p>","e","categorize-html","169","203934","0.0-6.0-0.0-8.0-1.30","4","4","4","4","4","4","4","4","4","4","5","5","5","5","5","5","5","5","5","5","1","1","1","1","1","1","1","1","1","1","0","1","1","0","0","0","1","0","1","1","0","1","0","1","5","1","1","2","1","1","1","2","","5","2","633748719031812096","张","193","","","","","","","","","","","","","","","","","","","true","4","4","ability","1325","self","本人的","","","","","","","","","","","","","","","","",""
"null","","null","html-keyboard-response","170","204185","0.0-6.0-0.0-8.0-0.31","4","4","4","4","4","4","4","4","4","4","5","5","5","5","5","5","5","5","5","5","1","1","1","1","1","1","1","1","1","1","0","1","1","0","0","0","1","0","1","1","0","1","0","1","5","1","1","2","1","1","1","2","","5","2","633748719031812096","张","193","","","","","","","","","","","","","","","","","","","","","","","","","","","","","","","","","","","","","","","","","",""
"733","<p style=""color:white; font-size: 35px;"">废物</p>","i","categorize-html","171","204919","0.0-6.0-0.0-8.0-1.31","4","4","4","4","4","4","4","4","4","4","5","5","5","5","5","5","5","5","5","5","1","1","1","1","1","1","1","1","1","1","0","1","1","0","0","0","1","0","1","1","0","1","0","1","5","1","1","2","1","1","1","2","","5","2","633748719031812096","张","193","","","","","","","","","","","","","","","","","","","true","4","4","ability","733","negative","废物","","","","","","","","","","","","","","","","",""
"null","","null","html-keyboard-response","172","205170","0.0-6.0-0.0-8.0-0.32","4","4","4","4","4","4","4","4","4","4","5","5","5","5","5","5","5","5","5","5","1","1","1","1","1","1","1","1","1","1","0","1","1","0","0","0","1","0","1","1","0","1","0","1","5","1","1","2","1","1","1","2","","5","2","633748719031812096","张","193","","","","","","","","","","","","","","","","","","","","","","","","","","","","","","","","","","","","","","","","","",""
"1611","<p style=""color:rgb(150, 250, 100); font-size: 35px;"">自己的</p>","e","categorize-html","173","206783","0.0-6.0-0.0-8.0-1.32","4","4","4","4","4","4","4","4","4","4","5","5","5","5","5","5","5","5","5","5","1","1","1","1","1","1","1","1","1","1","0","1","1","0","0","0","1","0","1","1","0","1","0","1","5","1","1","2","1","1","1","2","","5","2","633748719031812096","张","193","","","","","","","","","","","","","","","","","","","true","4","4","ability","1611","self","自己的","","","","","","","","","","","","","","","","",""
"null","","null","html-keyboard-response","174","207033","0.0-6.0-0.0-8.0-0.33","4","4","4","4","4","4","4","4","4","4","5","5","5","5","5","5","5","5","5","5","1","1","1","1","1","1","1","1","1","1","0","1","1","0","0","0","1","0","1","1","0","1","0","1","5","1","1","2","1","1","1","2","","5","2","633748719031812096","张","193","","","","","","","","","","","","","","","","","","","","","","","","","","","","","","","","","","","","","","","","","",""
"748","<p style=""color:white; font-size: 35px;"">蠢笨</p>","i","categorize-html","175","207783","0.0-6.0-0.0-8.0-1.33","4","4","4","4","4","4","4","4","4","4","5","5","5","5","5","5","5","5","5","5","1","1","1","1","1","1","1","1","1","1","0","1","1","0","0","0","1","0","1","1","0","1","0","1","5","1","1","2","1","1","1","2","","5","2","633748719031812096","张","193","","","","","","","","","","","","","","","","","","","true","4","4","ability","748","negative","蠢笨","","","","","","","","","","","","","","","","",""
"null","","null","html-keyboard-response","176","208034","0.0-6.0-0.0-8.0-0.34","4","4","4","4","4","4","4","4","4","4","5","5","5","5","5","5","5","5","5","5","1","1","1","1","1","1","1","1","1","1","0","1","1","0","0","0","1","0","1","1","0","1","0","1","5","1","1","2","1","1","1","2","","5","2","633748719031812096","张","193","","","","","","","","","","","","","","","","","","","","","","","","","","","","","","","","","","","","","","","","","",""
"1443","<p style=""color:rgb(150, 250, 100); font-size: 35px;"">他人</p>","i","categorize-html","177","209479","0.0-6.0-0.0-8.0-1.34","4","4","4","4","4","4","4","4","4","4","5","5","5","5","5","5","5","5","5","5","1","1","1","1","1","1","1","1","1","1","0","1","1","0","0","0","1","0","1","1","0","1","0","1","5","1","1","2","1","1","1","2","","5","2","633748719031812096","张","193","","","","","","","","","","","","","","","","","","","true","4","4","ability","1443","other","他人","","","","","","","","","","","","","","","","",""
"null","","null","html-keyboard-response","178","209730","0.0-6.0-0.0-8.0-0.35","4","4","4","4","4","4","4","4","4","4","5","5","5","5","5","5","5","5","5","5","1","1","1","1","1","1","1","1","1","1","0","1","1","0","0","0","1","0","1","1","0","1","0","1","5","1","1","2","1","1","1","2","","5","2","633748719031812096","张","193","","","","","","","","","","","","","","","","","","","","","","","","","","","","","","","","","","","","","","","","","",""
"756","<p style=""color:white; font-size: 35px;"">全才</p>","e","categorize-html","179","210486","0.0-6.0-0.0-8.0-1.35","4","4","4","4","4","4","4","4","4","4","5","5","5","5","5","5","5","5","5","5","1","1","1","1","1","1","1","1","1","1","0","1","1","0","0","0","1","0","1","1","0","1","0","1","5","1","1","2","1","1","1","2","","5","2","633748719031812096","张","193","","","","","","","","","","","","","","","","","","","true","4","4","ability","756","positive","全才","","","","","","","","","","","","","","","","",""
"null","","null","html-keyboard-response","180","210738","0.0-6.0-0.0-8.0-0.36","4","4","4","4","4","4","4","4","4","4","5","5","5","5","5","5","5","5","5","5","1","1","1","1","1","1","1","1","1","1","0","1","1","0","0","0","1","0","1","1","0","1","0","1","5","1","1","2","1","1","1","2","","5","2","633748719031812096","张","193","","","","","","","","","","","","","","","","","","","","","","","","","","","","","","","","","","","","","","","","","",""
"812","<p style=""color:rgb(150, 250, 100); font-size: 35px;"">他</p>","i","categorize-html","181","211551","0.0-6.0-0.0-8.0-1.36","4","4","4","4","4","4","4","4","4","4","5","5","5","5","5","5","5","5","5","5","1","1","1","1","1","1","1","1","1","1","0","1","1","0","0","0","1","0","1","1","0","1","0","1","5","1","1","2","1","1","1","2","","5","2","633748719031812096","张","193","","","","","","","","","","","","","","","","","","","true","4","4","ability","812","other","他","","","","","","","","","","","","","","","","",""
"null","","null","html-keyboard-response","182","211803","0.0-6.0-0.0-8.0-0.37","4","4","4","4","4","4","4","4","4","4","5","5","5","5","5","5","5","5","5","5","1","1","1","1","1","1","1","1","1","1","0","1","1","0","0","0","1","0","1","1","0","1","0","1","5","1","1","2","1","1","1","2","","5","2","633748719031812096","张","193","","","","","","","","","","","","","","","","","","","","","","","","","","","","","","","","","","","","","","","","","",""
"1363","<p style=""color:white; font-size: 35px;"">精干</p>","e","categorize-html","183","213167","0.0-6.0-0.0-8.0-1.37","4","4","4","4","4","4","4","4","4","4","5","5","5","5","5","5","5","5","5","5","1","1","1","1","1","1","1","1","1","1","0","1","1","0","0","0","1","0","1","1","0","1","0","1","5","1","1","2","1","1","1","2","","5","2","633748719031812096","张","193","","","","","","","","","","","","","","","","","","","true","4","4","ability","1363","positive","精干","","","","","","","","","","","","","","","","",""
"null","","null","html-keyboard-response","184","213419","0.0-6.0-0.0-8.0-0.38","4","4","4","4","4","4","4","4","4","4","5","5","5","5","5","5","5","5","5","5","1","1","1","1","1","1","1","1","1","1","0","1","1","0","0","0","1","0","1","1","0","1","0","1","5","1","1","2","1","1","1","2","","5","2","633748719031812096","张","193","","","","","","","","","","","","","","","","","","","","","","","","","","","","","","","","","","","","","","","","","",""
"1059","<p style=""color:rgb(150, 250, 100); font-size: 35px;"">自己</p>","e","categorize-html","185","214479","0.0-6.0-0.0-8.0-1.38","4","4","4","4","4","4","4","4","4","4","5","5","5","5","5","5","5","5","5","5","1","1","1","1","1","1","1","1","1","1","0","1","1","0","0","0","1","0","1","1","0","1","0","1","5","1","1","2","1","1","1","2","","5","2","633748719031812096","张","193","","","","","","","","","","","","","","","","","","","true","4","4","ability","1059","self","自己","","","","","","","","","","","","","","","","",""
"null","","null","html-keyboard-response","186","214730","0.0-6.0-0.0-8.0-0.39","4","4","4","4","4","4","4","4","4","4","5","5","5","5","5","5","5","5","5","5","1","1","1","1","1","1","1","1","1","1","0","1","1","0","0","0","1","0","1","1","0","1","0","1","5","1","1","2","1","1","1","2","","5","2","633748719031812096","张","193","","","","","","","","","","","","","","","","","","","","","","","","","","","","","","","","","","","","","","","","","",""
"701","<p style=""color:white; font-size: 35px;"">无能</p>","i","categorize-html","187","215431","0.0-6.0-0.0-8.0-1.39","4","4","4","4","4","4","4","4","4","4","5","5","5","5","5","5","5","5","5","5","1","1","1","1","1","1","1","1","1","1","0","1","1","0","0","0","1","0","1","1","0","1","0","1","5","1","1","2","1","1","1","2","","5","2","633748719031812096","张","193","","","","","","","","","","","","","","","","","","","true","4","4","ability","701","negative","无能","","","","","","","","","","","","","","","","",""
"null","","null","html-keyboard-response","188","215682","0.0-6.0-0.0-8.0-0.40","4","4","4","4","4","4","4","4","4","4","5","5","5","5","5","5","5","5","5","5","1","1","1","1","1","1","1","1","1","1","0","1","1","0","0","0","1","0","1","1","0","1","0","1","5","1","1","2","1","1","1","2","","5","2","633748719031812096","张","193","","","","","","","","","","","","","","","","","","","","","","","","","","","","","","","","","","","","","","","","","",""
"644","<p style=""color:rgb(150, 250, 100); font-size: 35px;"">我的</p>","e","categorize-html","189","216327","0.0-6.0-0.0-8.0-1.40","4","4","4","4","4","4","4","4","4","4","5","5","5","5","5","5","5","5","5","5","1","1","1","1","1","1","1","1","1","1","0","1","1","0","0","0","1","0","1","1","0","1","0","1","5","1","1","2","1","1","1","2","","5","2","633748719031812096","张","193","","","","","","","","","","","","","","","","","","","true","4","4","ability","644","self","我的","","","","","","","","","","","","","","","","",""
"null","","null","html-keyboard-response","190","216578","0.0-6.0-0.0-8.0-0.41","4","4","4","4","4","4","4","4","4","4","5","5","5","5","5","5","5","5","5","5","1","1","1","1","1","1","1","1","1","1","0","1","1","0","0","0","1","0","1","1","0","1","0","1","5","1","1","2","1","1","1","2","","5","2","633748719031812096","张","193","","","","","","","","","","","","","","","","","","","","","","","","","","","","","","","","","","","","","","","","","",""
"732","<p style=""color:white; font-size: 35px;"">无能</p>","i","categorize-html","191","217312","0.0-6.0-0.0-8.0-1.41","4","4","4","4","4","4","4","4","4","4","5","5","5","5","5","5","5","5","5","5","1","1","1","1","1","1","1","1","1","1","0","1","1","0","0","0","1","0","1","1","0","1","0","1","5","1","1","2","1","1","1","2","","5","2","633748719031812096","张","193","","","","","","","","","","","","","","","","","","","true","4","4","ability","732","negative","无能","","","","","","","","","","","","","","","","",""
"null","","null","html-keyboard-response","192","217563","0.0-6.0-0.0-8.0-0.42","4","4","4","4","4","4","4","4","4","4","5","5","5","5","5","5","5","5","5","5","1","1","1","1","1","1","1","1","1","1","0","1","1","0","0","0","1","0","1","1","0","1","0","1","5","1","1","2","1","1","1","2","","5","2","633748719031812096","张","193","","","","","","","","","","","","","","","","","","","","","","","","","","","","","","","","","","","","","","","","","",""
"701","<p style=""color:rgb(150, 250, 100); font-size: 35px;"">别人的</p>","i","categorize-html","193","218265","0.0-6.0-0.0-8.0-1.42","4","4","4","4","4","4","4","4","4","4","5","5","5","5","5","5","5","5","5","5","1","1","1","1","1","1","1","1","1","1","0","1","1","0","0","0","1","0","1","1","0","1","0","1","5","1","1","2","1","1","1","2","","5","2","633748719031812096","张","193","","","","","","","","","","","","","","","","","","","true","4","4","ability","701","other","别人的","","","","","","","","","","","","","","","","",""
