"rt","stimulus","response","trial_type","trial_index","time_elapsed","internal_node_id","ses_1","ses_2","ses_3","ses_4","ses_5","ses_6","ses_7","ses_8","ses_9","ses_10","coreself_1","coreself_2","coreself_3","coreself_4","coreself_5","coreself_6","coreself_7","coreself_8","coreself_9","coreself_10","SGPS_1","SGPS_2","SGPS_3","SGPS_4","SGPS_5","SGPS_6","SGPS_7","SGPS_8","SGPS_9","NPI1","NPI2","NPI3","NPI4","NPI5","NPI6","NPI7","NPI8","NPI9","NPI10","NPI11","NPI12","NPI13","NPI14","NPI15","hsns_1","hsns_2","hsns_3","hsns_4","hsns_5","trap1","hsns_6","hsns_7","hsns_8","hsns_9","hsns_10","subj_idx","friend_name","ParticipantID","value","success","user_agent","responses","item_order","radio_event_ids","radio_event_times","key_event_times","mouse_event_times","straightlining","zigzagging","honeypot","timeout","failed_images","failed_audio","failed_video","version_attrib2","version_target2","correct","IAT","screen_id","task_id","RT","condition","word","varname","summary","version_attrib","version_target","time_stamp","view_history","response_type","key_press","avg_frame_time","center_x","center_y","correct_response","identity","Image","question_order","correct_answer","trap1_item"
"2334","
   <p><div style = ""color: white;font-size:25px;"">您好，欢迎参加本次实验。</div> </p>
   <p><div style = ""color: white;font-size:25px;"">为充分保障您的权利，请确保您已经知晓并同意《参与实验同意书》以及《数据公开知情同意书》。</div></p>
   <p><div style = ""color: white;font-size:25px;"">如果您未见过上述内容，请咨询实验员。</div></p>
   <p><div style = ""color: white;font-size:25px;"">如果您选择继续实验，则表示您已经清楚两份知情同意书的内容并同意。</div></p>
   <p><div style = ""color: pink;font-size:30px;"">请确保您记得day0的实验编号，您将在本次实验输入该编号，若您忘记，请咨询实验员后作答。</div></p>
   <p><div style = ""color: lightblue;font-size:25px;"">请您尽可能认真地作答，我们将依据您在各问卷和按键任务中的作答质量发放报酬。</div></p>
   <p> <div style = ""color: green;font-size:25px;""><按空格键至下页></div> </p>
   "," ","html-keyboard-response","0","2336","0.0-0.0","3","4","4","4","4","3","4","1","4","4","4","5","4","5","5","4","5","5","5","5","2","1","2","1","5","1","2","5","1","0","1","0","1","0","0","0","1","0","0","0","0","1","0","0","5","4","5","1","2","1","4","5","4","2","2","634477074911854592","李","308","","","","","","","","","","","","","","","","","","","","","","","","","","","","","","","","","","","","","","","","","",""
"","","","call-function","1","2337","0.0-1.0-0.0","3","4","4","4","4","3","4","1","4","4","4","5","4","5","5","4","5","5","5","5","2","1","2","1","5","1","2","5","1","0","1","0","1","0","0","0","1","0","0","0","0","1","0","0","5","4","5","1","2","1","4","5","4","2","2","634477074911854592","李","308","","","","","","","","","","","","","","","","","","","","","","","","","","","","","","","","","","","","","","","","","",""
"56521","","{""friend_name"":""李"",""ParticipantID"":""308""}","survey-html-form","2","58861","0.0-1.0-1.0","3","4","4","4","4","3","4","1","4","4","4","5","4","5","5","4","5","5","5","5","2","1","2","1","5","1","2","5","1","0","1","0","1","0","0","0","1","0","0","0","0","1","0","0","5","4","5","1","2","1","4","5","4","2","2","634477074911854592","李","308","","","","","","","","","","","","","","","","","","","","","","","","","","","","","","","","","","","","","","","","","",""
"","","","fullscreen","3","60151","0.0-2.0","3","4","4","4","4","3","4","1","4","4","4","5","4","5","5","4","5","5","5","5","2","1","2","1","5","1","2","5","1","0","1","0","1","0","0","0","1","0","0","0","0","1","0","0","5","4","5","1","2","1","4","5","4","2","2","634477074911854592","李","308","","true","{}","","","","","","","","","","","","","","","","","","","","","","","","","","","","","","","","","","","","","","",""
"19178.300000000745","","{""Q01"":""3"",""Q02"":""4"",""Q03"":""4"",""Q04"":""4"",""Q05"":""4"",""Q06"":""3"",""Q07"":""4"",""Q08"":""1"",""Q09"":""4"",""Q10"":""4""}","survey-template","4","79335","0.0-3.0","3","4","4","4","4","3","4","1","4","4","4","5","4","5","5","4","5","5","5","5","2","1","2","1","5","1","2","5","1","0","1","0","1","0","0","0","1","0","0","0","0","1","0","0","5","4","5","1","2","1","4","5","4","2","2","634477074911854592","李","308","","","","{""Q01"":""3"",""Q02"":""4"",""Q03"":""4"",""Q04"":""4"",""Q05"":""4"",""Q06"":""3"",""Q07"":""4"",""Q08"":""1"",""Q09"":""4"",""Q10"":""4""}","[0,1,2,3,4,5,6,7,8,9]","[""Q01"",""Q02"",""Q03"",""Q04"",""Q05"",""Q06"",""Q07"",""Q08"",""Q09"",""Q10""]","[3543.699999999255,4778.10000000149,6858.300000000745,8244,10065.800000000745,11633.89999999851,13909.699999999255,15805.60000000149,16879.60000000149,18071.5]","[]","[958.3999999985099,3543.699999999255,4778.10000000149,6858.300000000745,8244,10065.800000000745,11633.89999999851,13909.699999999255,14666.5,15805.60000000149,16879.60000000149,18071.5,19177.300000000745]","0.4","0.6666666666666666","0","","","","","","","","","","","","","","","","","","","","","","","","","","","","","",""
"53725.800000000745","","{""Q01"":""4"",""Q02"":""5"",""Q03"":""4"",""Q04"":""5"",""Q05"":""5"",""Q06"":""4"",""Q07"":""5"",""Q08"":""5"",""Q09"":""5"",""Q10"":""5""}","survey-template","5","133070","0.0-4.0","3","4","4","4","4","3","4","1","4","4","4","5","4","5","5","4","5","5","5","5","2","1","2","1","5","1","2","5","1","0","1","0","1","0","0","0","1","0","0","0","0","1","0","0","5","4","5","1","2","1","4","5","4","2","2","634477074911854592","李","308","","","","{""Q01"":""4"",""Q02"":""5"",""Q03"":""4"",""Q04"":""5"",""Q05"":""5"",""Q06"":""4"",""Q07"":""5"",""Q08"":""5"",""Q09"":""5"",""Q10"":""5""}","[0,1,2,3,4,5,6,7,8,9]","[""Q01"",""Q02"",""Q04"",""Q03"",""Q05"",""Q06"",""Q07"",""Q08"",""Q09"",""Q10"",""Q08"",""Q09""]","[2071,3407.300000000745,7261.300000000745,8715.5,11161,12553,14043.10000000149,16259.5,18270.89999999851,20660.5,23565.39999999851,47221.5]","[]","[715.8999999985099,2071,3407.300000000745,5418,7261.300000000745,8715.5,11161,12553,14043.10000000149,14963.199999999255,16259.5,18270.89999999851,18946.699999999255,20660.5,21186.699999999255,23565.39999999851,24070.5,25132.39999999851,27664.300000000745,31767.800000000745,36655.60000000149,39725.300000000745,43045.5,47221.5,49910.699999999255,53724.699999999255]","0.5","0.4444444444444444","0","","","","","","","","","","","","","","","","","","","","","","","","","","","","","",""
"","","","preload","6","133303","0.0-5.0","3","4","4","4","4","3","4","1","4","4","4","5","4","5","5","4","5","5","5","5","2","1","2","1","5","1","2","5","1","0","1","0","1","0","0","0","1","0","0","0","0","1","0","0","5","4","5","1","2","1","4","5","4","2","2","634477074911854592","李","308","","true","","","","","","","","","","","false","[]","[]","[]","","","","","","","","","","","","","","","","","","","","","","","","","",""
"12940","
    <h3>词语分类任务</h3>
    <p>在接下来的任务中，你需要对一系列词语进行分类。<p/>
    请先熟悉这些词语，这有利于你完成接下来的任务。</p>
    <table align=""center"" border=1 cellpadding=3 cellspacing=0>
    <tr> <th>类别</th> <th>词语</th> </tr>
    <tr> <td>&emsp;积极&emsp;</td> <td>&emsp;高尚、诚信、善良、君子、廉正、正直&emsp;</td> </tr>
    <tr> <td>&emsp;消极&emsp;</td> <td>&emsp;缺德、卑鄙、不孝、不仁、小人、黑心&emsp;</td> </tr>
    <tr> <td>&emsp;自我&emsp;</td> <td>&emsp;我、我的、自己、自己的、本人、本人的&emsp;</td> </tr>
    <tr> <td>&emsp;他人&emsp;</td> <td>&emsp;他、他的、别人、别人的、他人、他人的&emsp;</td> </tr>
    </table><br/>","0","html-button-response","7","146244","0.0-6.0-1.0-0.0","3","4","4","4","4","3","4","1","4","4","4","5","4","5","5","4","5","5","5","5","2","1","2","1","5","1","2","5","1","0","1","0","1","0","0","0","1","0","0","0","0","1","0","0","5","4","5","1","2","1","4","5","4","2","2","634477074911854592","李","308","","","","","","","","","","","","","","","","","1","1","","","","","","","","","","","","","","","","","","","","","","","",""
"7563","
    <div class=""tag-bottom""><p>
    —— 任务1：对“自我”词和“他人”词分类 ——<p/>
    不同词语会出现在屏幕中央，类别标签将始终显示在屏幕上方<p/>   
    <span style=""color:#FFD866""><b>请根据上方标签的提示，尽可能正确并且快速地做出按键反应</b></span><p/>
    当按键错误时屏幕中会出现<span style=""color:red""> X </span>，需要按另一个键纠正才能继续<br/><p/>
    请把双手食指分别放在键盘的“E”键和“I”键上<p/>
    按<空格键>开始
    </p></div>"," ","html-keyboard-response","8","153809","0.0-6.0-1.0-1.0","3","4","4","4","4","3","4","1","4","4","4","5","4","5","5","4","5","5","5","5","2","1","2","1","5","1","2","5","1","0","1","0","1","0","0","0","1","0","0","0","0","1","0","0","5","4","5","1","2","1","4","5","4","2","2","634477074911854592","李","308","","","","","","","","","","","","","","","","","","","","","","","","","","","","","","","","","","","","","","","","","",""
"null","","null","html-keyboard-response","9","154060","0.0-6.0-1.0-2.0-0.0","3","4","4","4","4","3","4","1","4","4","4","5","4","5","5","4","5","5","5","5","2","1","2","1","5","1","2","5","1","0","1","0","1","0","0","0","1","0","0","0","0","1","0","0","5","4","5","1","2","1","4","5","4","2","2","634477074911854592","李","308","","","","","","","","","","","","","","","","","","","","","","","","","","","","","","","","","","","","","","","","","",""
"1101","<p style=""color:rgb(150, 250, 100); font-size: 35px;"">别人</p>","i","categorize-html","10","155163","0.0-6.0-1.0-2.0-1.0","3","4","4","4","4","3","4","1","4","4","4","5","4","5","5","4","5","5","5","5","2","1","2","1","5","1","2","5","1","0","1","0","1","0","0","0","1","0","0","0","0","1","0","0","5","4","5","1","2","1","4","5","4","2","2","634477074911854592","李","308","","","","","","","","","","","","","","","","","","","true","11","1","moral","1101","other","别人","","","","","","","","","","","","","","","","",""
"null","","null","html-keyboard-response","11","155414","0.0-6.0-1.0-2.0-0.1","3","4","4","4","4","3","4","1","4","4","4","5","4","5","5","4","5","5","5","5","2","1","2","1","5","1","2","5","1","0","1","0","1","0","0","0","1","0","0","0","0","1","0","0","5","4","5","1","2","1","4","5","4","2","2","634477074911854592","李","308","","","","","","","","","","","","","","","","","","","","","","","","","","","","","","","","","","","","","","","","","",""
"578","<p style=""color:rgb(150, 250, 100); font-size: 35px;"">我</p>","e","categorize-html","12","155993","0.0-6.0-1.0-2.0-1.1","3","4","4","4","4","3","4","1","4","4","4","5","4","5","5","4","5","5","5","5","2","1","2","1","5","1","2","5","1","0","1","0","1","0","0","0","1","0","0","0","0","1","0","0","5","4","5","1","2","1","4","5","4","2","2","634477074911854592","李","308","","","","","","","","","","","","","","","","","","","true","11","1","moral","578","self","我","","","","","","","","","","","","","","","","",""
"null","","null","html-keyboard-response","13","156244","0.0-6.0-1.0-2.0-0.2","3","4","4","4","4","3","4","1","4","4","4","5","4","5","5","4","5","5","5","5","2","1","2","1","5","1","2","5","1","0","1","0","1","0","0","0","1","0","0","0","0","1","0","0","5","4","5","1","2","1","4","5","4","2","2","634477074911854592","李","308","","","","","","","","","","","","","","","","","","","","","","","","","","","","","","","","","","","","","","","","","",""
"508","<p style=""color:rgb(150, 250, 100); font-size: 35px;"">他人的</p>","i","categorize-html","14","156754","0.0-6.0-1.0-2.0-1.2","3","4","4","4","4","3","4","1","4","4","4","5","4","5","5","4","5","5","5","5","2","1","2","1","5","1","2","5","1","0","1","0","1","0","0","0","1","0","0","0","0","1","0","0","5","4","5","1","2","1","4","5","4","2","2","634477074911854592","李","308","","","","","","","","","","","","","","","","","","","true","11","1","moral","508","other","他人的","","","","","","","","","","","","","","","","",""
"null","","null","html-keyboard-response","15","157004","0.0-6.0-1.0-2.0-0.3","3","4","4","4","4","3","4","1","4","4","4","5","4","5","5","4","5","5","5","5","2","1","2","1","5","1","2","5","1","0","1","0","1","0","0","0","1","0","0","0","0","1","0","0","5","4","5","1","2","1","4","5","4","2","2","634477074911854592","李","308","","","","","","","","","","","","","","","","","","","","","","","","","","","","","","","","","","","","","","","","","",""
"637","<p style=""color:rgb(150, 250, 100); font-size: 35px;"">他</p>","e","categorize-html","16","158105","0.0-6.0-1.0-2.0-1.3","3","4","4","4","4","3","4","1","4","4","4","5","4","5","5","4","5","5","5","5","2","1","2","1","5","1","2","5","1","0","1","0","1","0","0","0","1","0","0","0","0","1","0","0","5","4","5","1","2","1","4","5","4","2","2","634477074911854592","李","308","","","","","","","","","","","","","","","","","","","false","11","1","moral","637","other","他","","","","","","","","","","","","","","","","",""
"null","","null","html-keyboard-response","17","158355","0.0-6.0-1.0-2.0-0.4","3","4","4","4","4","3","4","1","4","4","4","5","4","5","5","4","5","5","5","5","2","1","2","1","5","1","2","5","1","0","1","0","1","0","0","0","1","0","0","0","0","1","0","0","5","4","5","1","2","1","4","5","4","2","2","634477074911854592","李","308","","","","","","","","","","","","","","","","","","","","","","","","","","","","","","","","","","","","","","","","","",""
"1486","<p style=""color:rgb(150, 250, 100); font-size: 35px;"">本人</p>","e","categorize-html","18","159842","0.0-6.0-1.0-2.0-1.4","3","4","4","4","4","3","4","1","4","4","4","5","4","5","5","4","5","5","5","5","2","1","2","1","5","1","2","5","1","0","1","0","1","0","0","0","1","0","0","0","0","1","0","0","5","4","5","1","2","1","4","5","4","2","2","634477074911854592","李","308","","","","","","","","","","","","","","","","","","","true","11","1","moral","1486","self","本人","","","","","","","","","","","","","","","","",""
"null","","null","html-keyboard-response","19","160093","0.0-6.0-1.0-2.0-0.5","3","4","4","4","4","3","4","1","4","4","4","5","4","5","5","4","5","5","5","5","2","1","2","1","5","1","2","5","1","0","1","0","1","0","0","0","1","0","0","0","0","1","0","0","5","4","5","1","2","1","4","5","4","2","2","634477074911854592","李","308","","","","","","","","","","","","","","","","","","","","","","","","","","","","","","","","","","","","","","","","","",""
"619","<p style=""color:rgb(150, 250, 100); font-size: 35px;"">他的</p>","i","categorize-html","20","160713","0.0-6.0-1.0-2.0-1.5","3","4","4","4","4","3","4","1","4","4","4","5","4","5","5","4","5","5","5","5","2","1","2","1","5","1","2","5","1","0","1","0","1","0","0","0","1","0","0","0","0","1","0","0","5","4","5","1","2","1","4","5","4","2","2","634477074911854592","李","308","","","","","","","","","","","","","","","","","","","true","11","1","moral","619","other","他的","","","","","","","","","","","","","","","","",""
"null","","null","html-keyboard-response","21","160964","0.0-6.0-1.0-2.0-0.6","3","4","4","4","4","3","4","1","4","4","4","5","4","5","5","4","5","5","5","5","2","1","2","1","5","1","2","5","1","0","1","0","1","0","0","0","1","0","0","0","0","1","0","0","5","4","5","1","2","1","4","5","4","2","2","634477074911854592","李","308","","","","","","","","","","","","","","","","","","","","","","","","","","","","","","","","","","","","","","","","","",""
"476","<p style=""color:rgb(150, 250, 100); font-size: 35px;"">他人</p>","i","categorize-html","22","161441","0.0-6.0-1.0-2.0-1.6","3","4","4","4","4","3","4","1","4","4","4","5","4","5","5","4","5","5","5","5","2","1","2","1","5","1","2","5","1","0","1","0","1","0","0","0","1","0","0","0","0","1","0","0","5","4","5","1","2","1","4","5","4","2","2","634477074911854592","李","308","","","","","","","","","","","","","","","","","","","true","11","1","moral","476","other","他人","","","","","","","","","","","","","","","","",""
"null","","null","html-keyboard-response","23","161692","0.0-6.0-1.0-2.0-0.7","3","4","4","4","4","3","4","1","4","4","4","5","4","5","5","4","5","5","5","5","2","1","2","1","5","1","2","5","1","0","1","0","1","0","0","0","1","0","0","0","0","1","0","0","5","4","5","1","2","1","4","5","4","2","2","634477074911854592","李","308","","","","","","","","","","","","","","","","","","","","","","","","","","","","","","","","","","","","","","","","","",""
"660","<p style=""color:rgb(150, 250, 100); font-size: 35px;"">自己的</p>","e","categorize-html","24","162353","0.0-6.0-1.0-2.0-1.7","3","4","4","4","4","3","4","1","4","4","4","5","4","5","5","4","5","5","5","5","2","1","2","1","5","1","2","5","1","0","1","0","1","0","0","0","1","0","0","0","0","1","0","0","5","4","5","1","2","1","4","5","4","2","2","634477074911854592","李","308","","","","","","","","","","","","","","","","","","","true","11","1","moral","660","self","自己的","","","","","","","","","","","","","","","","",""
"null","","null","html-keyboard-response","25","162604","0.0-6.0-1.0-2.0-0.8","3","4","4","4","4","3","4","1","4","4","4","5","4","5","5","4","5","5","5","5","2","1","2","1","5","1","2","5","1","0","1","0","1","0","0","0","1","0","0","0","0","1","0","0","5","4","5","1","2","1","4","5","4","2","2","634477074911854592","李","308","","","","","","","","","","","","","","","","","","","","","","","","","","","","","","","","","","","","","","","","","",""
"477","<p style=""color:rgb(150, 250, 100); font-size: 35px;"">自己</p>","e","categorize-html","26","163081","0.0-6.0-1.0-2.0-1.8","3","4","4","4","4","3","4","1","4","4","4","5","4","5","5","4","5","5","5","5","2","1","2","1","5","1","2","5","1","0","1","0","1","0","0","0","1","0","0","0","0","1","0","0","5","4","5","1","2","1","4","5","4","2","2","634477074911854592","李","308","","","","","","","","","","","","","","","","","","","true","11","1","moral","477","self","自己","","","","","","","","","","","","","","","","",""
"null","","null","html-keyboard-response","27","163332","0.0-6.0-1.0-2.0-0.9","3","4","4","4","4","3","4","1","4","4","4","5","4","5","5","4","5","5","5","5","2","1","2","1","5","1","2","5","1","0","1","0","1","0","0","0","1","0","0","0","0","1","0","0","5","4","5","1","2","1","4","5","4","2","2","634477074911854592","李","308","","","","","","","","","","","","","","","","","","","","","","","","","","","","","","","","","","","","","","","","","",""
"500","<p style=""color:rgb(150, 250, 100); font-size: 35px;"">别人的</p>","i","categorize-html","28","163833","0.0-6.0-1.0-2.0-1.9","3","4","4","4","4","3","4","1","4","4","4","5","4","5","5","4","5","5","5","5","2","1","2","1","5","1","2","5","1","0","1","0","1","0","0","0","1","0","0","0","0","1","0","0","5","4","5","1","2","1","4","5","4","2","2","634477074911854592","李","308","","","","","","","","","","","","","","","","","","","true","11","1","moral","500","other","别人的","","","","","","","","","","","","","","","","",""
"null","","null","html-keyboard-response","29","164084","0.0-6.0-1.0-2.0-0.10","3","4","4","4","4","3","4","1","4","4","4","5","4","5","5","4","5","5","5","5","2","1","2","1","5","1","2","5","1","0","1","0","1","0","0","0","1","0","0","0","0","1","0","0","5","4","5","1","2","1","4","5","4","2","2","634477074911854592","李","308","","","","","","","","","","","","","","","","","","","","","","","","","","","","","","","","","","","","","","","","","",""
"436","<p style=""color:rgb(150, 250, 100); font-size: 35px;"">本人的</p>","i","categorize-html","30","164904","0.0-6.0-1.0-2.0-1.10","3","4","4","4","4","3","4","1","4","4","4","5","4","5","5","4","5","5","5","5","2","1","2","1","5","1","2","5","1","0","1","0","1","0","0","0","1","0","0","0","0","1","0","0","5","4","5","1","2","1","4","5","4","2","2","634477074911854592","李","308","","","","","","","","","","","","","","","","","","","false","11","1","moral","436","self","本人的","","","","","","","","","","","","","","","","",""
"null","","null","html-keyboard-response","31","165155","0.0-6.0-1.0-2.0-0.11","3","4","4","4","4","3","4","1","4","4","4","5","4","5","5","4","5","5","5","5","2","1","2","1","5","1","2","5","1","0","1","0","1","0","0","0","1","0","0","0","0","1","0","0","5","4","5","1","2","1","4","5","4","2","2","634477074911854592","李","308","","","","","","","","","","","","","","","","","","","","","","","","","","","","","","","","","","","","","","","","","",""
"813","<p style=""color:rgb(150, 250, 100); font-size: 35px;"">我的</p>","e","categorize-html","32","165968","0.0-6.0-1.0-2.0-1.11","3","4","4","4","4","3","4","1","4","4","4","5","4","5","5","4","5","5","5","5","2","1","2","1","5","1","2","5","1","0","1","0","1","0","0","0","1","0","0","0","0","1","0","0","5","4","5","1","2","1","4","5","4","2","2","634477074911854592","李","308","","","","","","","","","","","","","","","","","","","true","11","1","moral","813","self","我的","","","","","","","","","","","","","","","","",""
"1416","
    <div class=""tag-bottom""><p>
    —— 任务2：对“积极”词和“消极”词分类 ——<p/>   
    <span style=""color:#78DCE8""><b>注意上方，类别标签和需要分类的词语都已经改变</b></span><p/>
    <span style=""color:#FFD866""><b>请根据上方标签的提示，尽可能正确并且快速地做出按键反应</b></span><p/>
    当按键错误时屏幕中会出现<span style=""color:red""> X </span>，需要按另一个键纠正才能继续<br/><p/>
    请把双手食指分别放在键盘的“E”键和“I”键上<p/>
    按<空格键>开始
    </p></div>"," ","html-keyboard-response","33","167384","0.0-6.0-1.0-3.0","3","4","4","4","4","3","4","1","4","4","4","5","4","5","5","4","5","5","5","5","2","1","2","1","5","1","2","5","1","0","1","0","1","0","0","0","1","0","0","0","0","1","0","0","5","4","5","1","2","1","4","5","4","2","2","634477074911854592","李","308","","","","","","","","","","","","","","","","","","","","","","","","","","","","","","","","","","","","","","","","","",""
"null","","null","html-keyboard-response","34","167636","0.0-6.0-1.0-4.0-0.0","3","4","4","4","4","3","4","1","4","4","4","5","4","5","5","4","5","5","5","5","2","1","2","1","5","1","2","5","1","0","1","0","1","0","0","0","1","0","0","0","0","1","0","0","5","4","5","1","2","1","4","5","4","2","2","634477074911854592","李","308","","","","","","","","","","","","","","","","","","","","","","","","","","","","","","","","","","","","","","","","","",""
"868","<p style=""color:white; font-size: 35px;"">廉正</p>","e","categorize-html","35","168504","0.0-6.0-1.0-4.0-1.0","3","4","4","4","4","3","4","1","4","4","4","5","4","5","5","4","5","5","5","5","2","1","2","1","5","1","2","5","1","0","1","0","1","0","0","0","1","0","0","0","0","1","0","0","5","4","5","1","2","1","4","5","4","2","2","634477074911854592","李","308","","","","","","","","","","","","","","","","","","","true","12","2","moral","868","positive","廉正","","","","","","","","","","","","","","","","",""
"null","","null","html-keyboard-response","36","168755","0.0-6.0-1.0-4.0-0.1","3","4","4","4","4","3","4","1","4","4","4","5","4","5","5","4","5","5","5","5","2","1","2","1","5","1","2","5","1","0","1","0","1","0","0","0","1","0","0","0","0","1","0","0","5","4","5","1","2","1","4","5","4","2","2","634477074911854592","李","308","","","","","","","","","","","","","","","","","","","","","","","","","","","","","","","","","","","","","","","","","",""
"828","<p style=""color:white; font-size: 35px;"">卑鄙</p>","i","categorize-html","37","169584","0.0-6.0-1.0-4.0-1.1","3","4","4","4","4","3","4","1","4","4","4","5","4","5","5","4","5","5","5","5","2","1","2","1","5","1","2","5","1","0","1","0","1","0","0","0","1","0","0","0","0","1","0","0","5","4","5","1","2","1","4","5","4","2","2","634477074911854592","李","308","","","","","","","","","","","","","","","","","","","true","12","2","moral","828","negative","卑鄙","","","","","","","","","","","","","","","","",""
"null","","null","html-keyboard-response","38","169835","0.0-6.0-1.0-4.0-0.2","3","4","4","4","4","3","4","1","4","4","4","5","4","5","5","4","5","5","5","5","2","1","2","1","5","1","2","5","1","0","1","0","1","0","0","0","1","0","0","0","0","1","0","0","5","4","5","1","2","1","4","5","4","2","2","634477074911854592","李","308","","","","","","","","","","","","","","","","","","","","","","","","","","","","","","","","","","","","","","","","","",""
"660","<p style=""color:white; font-size: 35px;"">善良</p>","e","categorize-html","39","170497","0.0-6.0-1.0-4.0-1.2","3","4","4","4","4","3","4","1","4","4","4","5","4","5","5","4","5","5","5","5","2","1","2","1","5","1","2","5","1","0","1","0","1","0","0","0","1","0","0","0","0","1","0","0","5","4","5","1","2","1","4","5","4","2","2","634477074911854592","李","308","","","","","","","","","","","","","","","","","","","true","12","2","moral","660","positive","善良","","","","","","","","","","","","","","","","",""
"null","","null","html-keyboard-response","40","170747","0.0-6.0-1.0-4.0-0.3","3","4","4","4","4","3","4","1","4","4","4","5","4","5","5","4","5","5","5","5","2","1","2","1","5","1","2","5","1","0","1","0","1","0","0","0","1","0","0","0","0","1","0","0","5","4","5","1","2","1","4","5","4","2","2","634477074911854592","李","308","","","","","","","","","","","","","","","","","","","","","","","","","","","","","","","","","","","","","","","","","",""
"685","<p style=""color:white; font-size: 35px;"">不仁</p>","i","categorize-html","41","171433","0.0-6.0-1.0-4.0-1.3","3","4","4","4","4","3","4","1","4","4","4","5","4","5","5","4","5","5","5","5","2","1","2","1","5","1","2","5","1","0","1","0","1","0","0","0","1","0","0","0","0","1","0","0","5","4","5","1","2","1","4","5","4","2","2","634477074911854592","李","308","","","","","","","","","","","","","","","","","","","true","12","2","moral","685","negative","不仁","","","","","","","","","","","","","","","","",""
"null","","null","html-keyboard-response","42","171684","0.0-6.0-1.0-4.0-0.4","3","4","4","4","4","3","4","1","4","4","4","5","4","5","5","4","5","5","5","5","2","1","2","1","5","1","2","5","1","0","1","0","1","0","0","0","1","0","0","0","0","1","0","0","5","4","5","1","2","1","4","5","4","2","2","634477074911854592","李","308","","","","","","","","","","","","","","","","","","","","","","","","","","","","","","","","","","","","","","","","","",""
"627","<p style=""color:white; font-size: 35px;"">正直</p>","e","categorize-html","43","172312","0.0-6.0-1.0-4.0-1.4","3","4","4","4","4","3","4","1","4","4","4","5","4","5","5","4","5","5","5","5","2","1","2","1","5","1","2","5","1","0","1","0","1","0","0","0","1","0","0","0","0","1","0","0","5","4","5","1","2","1","4","5","4","2","2","634477074911854592","李","308","","","","","","","","","","","","","","","","","","","true","12","2","moral","627","positive","正直","","","","","","","","","","","","","","","","",""
"null","","null","html-keyboard-response","44","172563","0.0-6.0-1.0-4.0-0.5","3","4","4","4","4","3","4","1","4","4","4","5","4","5","5","4","5","5","5","5","2","1","2","1","5","1","2","5","1","0","1","0","1","0","0","0","1","0","0","0","0","1","0","0","5","4","5","1","2","1","4","5","4","2","2","634477074911854592","李","308","","","","","","","","","","","","","","","","","","","","","","","","","","","","","","","","","","","","","","","","","",""
"2420","<p style=""color:white; font-size: 35px;"">君子</p>","e","categorize-html","45","174984","0.0-6.0-1.0-4.0-1.5","3","4","4","4","4","3","4","1","4","4","4","5","4","5","5","4","5","5","5","5","2","1","2","1","5","1","2","5","1","0","1","0","1","0","0","0","1","0","0","0","0","1","0","0","5","4","5","1","2","1","4","5","4","2","2","634477074911854592","李","308","","","","","","","","","","","","","","","","","","","true","12","2","moral","2420","positive","君子","","","","","","","","","","","","","","","","",""
"null","","null","html-keyboard-response","46","175235","0.0-6.0-1.0-4.0-0.6","3","4","4","4","4","3","4","1","4","4","4","5","4","5","5","4","5","5","5","5","2","1","2","1","5","1","2","5","1","0","1","0","1","0","0","0","1","0","0","0","0","1","0","0","5","4","5","1","2","1","4","5","4","2","2","634477074911854592","李","308","","","","","","","","","","","","","","","","","","","","","","","","","","","","","","","","","","","","","","","","","",""
"764","<p style=""color:white; font-size: 35px;"">缺德</p>","i","categorize-html","47","176000","0.0-6.0-1.0-4.0-1.6","3","4","4","4","4","3","4","1","4","4","4","5","4","5","5","4","5","5","5","5","2","1","2","1","5","1","2","5","1","0","1","0","1","0","0","0","1","0","0","0","0","1","0","0","5","4","5","1","2","1","4","5","4","2","2","634477074911854592","李","308","","","","","","","","","","","","","","","","","","","true","12","2","moral","764","negative","缺德","","","","","","","","","","","","","","","","",""
"null","","null","html-keyboard-response","48","176251","0.0-6.0-1.0-4.0-0.7","3","4","4","4","4","3","4","1","4","4","4","5","4","5","5","4","5","5","5","5","2","1","2","1","5","1","2","5","1","0","1","0","1","0","0","0","1","0","0","0","0","1","0","0","5","4","5","1","2","1","4","5","4","2","2","634477074911854592","李","308","","","","","","","","","","","","","","","","","","","","","","","","","","","","","","","","","","","","","","","","","",""
"588","<p style=""color:white; font-size: 35px;"">高尚</p>","e","categorize-html","49","176840","0.0-6.0-1.0-4.0-1.7","3","4","4","4","4","3","4","1","4","4","4","5","4","5","5","4","5","5","5","5","2","1","2","1","5","1","2","5","1","0","1","0","1","0","0","0","1","0","0","0","0","1","0","0","5","4","5","1","2","1","4","5","4","2","2","634477074911854592","李","308","","","","","","","","","","","","","","","","","","","true","12","2","moral","588","positive","高尚","","","","","","","","","","","","","","","","",""
"null","","null","html-keyboard-response","50","177090","0.0-6.0-1.0-4.0-0.8","3","4","4","4","4","3","4","1","4","4","4","5","4","5","5","4","5","5","5","5","2","1","2","1","5","1","2","5","1","0","1","0","1","0","0","0","1","0","0","0","0","1","0","0","5","4","5","1","2","1","4","5","4","2","2","634477074911854592","李","308","","","","","","","","","","","","","","","","","","","","","","","","","","","","","","","","","","","","","","","","","",""
"1357","<p style=""color:white; font-size: 35px;"">小人</p>","i","categorize-html","51","178448","0.0-6.0-1.0-4.0-1.8","3","4","4","4","4","3","4","1","4","4","4","5","4","5","5","4","5","5","5","5","2","1","2","1","5","1","2","5","1","0","1","0","1","0","0","0","1","0","0","0","0","1","0","0","5","4","5","1","2","1","4","5","4","2","2","634477074911854592","李","308","","","","","","","","","","","","","","","","","","","true","12","2","moral","1357","negative","小人","","","","","","","","","","","","","","","","",""
"null","","null","html-keyboard-response","52","178699","0.0-6.0-1.0-4.0-0.9","3","4","4","4","4","3","4","1","4","4","4","5","4","5","5","4","5","5","5","5","2","1","2","1","5","1","2","5","1","0","1","0","1","0","0","0","1","0","0","0","0","1","0","0","5","4","5","1","2","1","4","5","4","2","2","634477074911854592","李","308","","","","","","","","","","","","","","","","","","","","","","","","","","","","","","","","","","","","","","","","","",""
"492","<p style=""color:white; font-size: 35px;"">黑心</p>","i","categorize-html","53","179192","0.0-6.0-1.0-4.0-1.9","3","4","4","4","4","3","4","1","4","4","4","5","4","5","5","4","5","5","5","5","2","1","2","1","5","1","2","5","1","0","1","0","1","0","0","0","1","0","0","0","0","1","0","0","5","4","5","1","2","1","4","5","4","2","2","634477074911854592","李","308","","","","","","","","","","","","","","","","","","","true","12","2","moral","492","negative","黑心","","","","","","","","","","","","","","","","",""
"null","","null","html-keyboard-response","54","179443","0.0-6.0-1.0-4.0-0.10","3","4","4","4","4","3","4","1","4","4","4","5","4","5","5","4","5","5","5","5","2","1","2","1","5","1","2","5","1","0","1","0","1","0","0","0","1","0","0","0","0","1","0","0","5","4","5","1","2","1","4","5","4","2","2","634477074911854592","李","308","","","","","","","","","","","","","","","","","","","","","","","","","","","","","","","","","","","","","","","","","",""
"564","<p style=""color:white; font-size: 35px;"">诚信</p>","e","categorize-html","55","180008","0.0-6.0-1.0-4.0-1.10","3","4","4","4","4","3","4","1","4","4","4","5","4","5","5","4","5","5","5","5","2","1","2","1","5","1","2","5","1","0","1","0","1","0","0","0","1","0","0","0","0","1","0","0","5","4","5","1","2","1","4","5","4","2","2","634477074911854592","李","308","","","","","","","","","","","","","","","","","","","true","12","2","moral","564","positive","诚信","","","","","","","","","","","","","","","","",""
"null","","null","html-keyboard-response","56","180259","0.0-6.0-1.0-4.0-0.11","3","4","4","4","4","3","4","1","4","4","4","5","4","5","5","4","5","5","5","5","2","1","2","1","5","1","2","5","1","0","1","0","1","0","0","0","1","0","0","0","0","1","0","0","5","4","5","1","2","1","4","5","4","2","2","634477074911854592","李","308","","","","","","","","","","","","","","","","","","","","","","","","","","","","","","","","","","","","","","","","","",""
"740","<p style=""color:white; font-size: 35px;"">不孝</p>","i","categorize-html","57","181000","0.0-6.0-1.0-4.0-1.11","3","4","4","4","4","3","4","1","4","4","4","5","4","5","5","4","5","5","5","5","2","1","2","1","5","1","2","5","1","0","1","0","1","0","0","0","1","0","0","0","0","1","0","0","5","4","5","1","2","1","4","5","4","2","2","634477074911854592","李","308","","","","","","","","","","","","","","","","","","","true","12","2","moral","740","negative","不孝","","","","","","","","","","","","","","","","",""
"1617","
    <div class=""tag-bottom""><p>
    —— 任务3：对“自我/积极”词和“他人/消极”词分类 ——<p/>
    <span style=""color:#78DCE8""><b>注意上方，之前的四类词语将混合在一起交替呈现</b></span><p/>
    <span style=""color:#FFD866""><b>请根据上方标签的提示，尽可能正确并且快速地做出按键反应</b></span><p/>
    当按键错误时屏幕中会出现<span style=""color:red""> X </span>，需要按另一个键纠正才能继续<br/><p/>
    请把双手食指分别放在键盘的“E”键和“I”键上<p/>
    按<空格键>开始
    </p></div>"," ","html-keyboard-response","58","182616","0.0-6.0-1.0-5.0","3","4","4","4","4","3","4","1","4","4","4","5","4","5","5","4","5","5","5","5","2","1","2","1","5","1","2","5","1","0","1","0","1","0","0","0","1","0","0","0","0","1","0","0","5","4","5","1","2","1","4","5","4","2","2","634477074911854592","李","308","","","","","","","","","","","","","","","","","","","","","","","","","","","","","","","","","","","","","","","","","",""
"null","","null","html-keyboard-response","59","182867","0.0-6.0-1.0-6.0-0.0","3","4","4","4","4","3","4","1","4","4","4","5","4","5","5","4","5","5","5","5","2","1","2","1","5","1","2","5","1","0","1","0","1","0","0","0","1","0","0","0","0","1","0","0","5","4","5","1","2","1","4","5","4","2","2","634477074911854592","李","308","","","","","","","","","","","","","","","","","","","","","","","","","","","","","","","","","","","","","","","","","",""
"1171","<p style=""color:rgb(150, 250, 100); font-size: 35px;"">他人的</p>","i","categorize-html","60","184039","0.0-6.0-1.0-6.0-1.0","3","4","4","4","4","3","4","1","4","4","4","5","4","5","5","4","5","5","5","5","2","1","2","1","5","1","2","5","1","0","1","0","1","0","0","0","1","0","0","0","0","1","0","0","5","4","5","1","2","1","4","5","4","2","2","634477074911854592","李","308","","","","","","","","","","","","","","","","","","","true","13","3","moral","1171","other","他人的","","","","","","","","","","","","","","","","",""
"null","","null","html-keyboard-response","61","184289","0.0-6.0-1.0-6.0-0.1","3","4","4","4","4","3","4","1","4","4","4","5","4","5","5","4","5","5","5","5","2","1","2","1","5","1","2","5","1","0","1","0","1","0","0","0","1","0","0","0","0","1","0","0","5","4","5","1","2","1","4","5","4","2","2","634477074911854592","李","308","","","","","","","","","","","","","","","","","","","","","","","","","","","","","","","","","","","","","","","","","",""
"2853","<p style=""color:white; font-size: 35px;"">不仁</p>","i","categorize-html","62","187143","0.0-6.0-1.0-6.0-1.1","3","4","4","4","4","3","4","1","4","4","4","5","4","5","5","4","5","5","5","5","2","1","2","1","5","1","2","5","1","0","1","0","1","0","0","0","1","0","0","0","0","1","0","0","5","4","5","1","2","1","4","5","4","2","2","634477074911854592","李","308","","","","","","","","","","","","","","","","","","","true","13","3","moral","2853","negative","不仁","","","","","","","","","","","","","","","","",""
"null","","null","html-keyboard-response","63","187398","0.0-6.0-1.0-6.0-0.2","3","4","4","4","4","3","4","1","4","4","4","5","4","5","5","4","5","5","5","5","2","1","2","1","5","1","2","5","1","0","1","0","1","0","0","0","1","0","0","0","0","1","0","0","5","4","5","1","2","1","4","5","4","2","2","634477074911854592","李","308","","","","","","","","","","","","","","","","","","","","","","","","","","","","","","","","","","","","","","","","","",""
"741","<p style=""color:rgb(150, 250, 100); font-size: 35px;"">自己的</p>","e","categorize-html","64","188139","0.0-6.0-1.0-6.0-1.2","3","4","4","4","4","3","4","1","4","4","4","5","4","5","5","4","5","5","5","5","2","1","2","1","5","1","2","5","1","0","1","0","1","0","0","0","1","0","0","0","0","1","0","0","5","4","5","1","2","1","4","5","4","2","2","634477074911854592","李","308","","","","","","","","","","","","","","","","","","","true","13","3","moral","741","self","自己的","","","","","","","","","","","","","","","","",""
"null","","null","html-keyboard-response","65","188391","0.0-6.0-1.0-6.0-0.3","3","4","4","4","4","3","4","1","4","4","4","5","4","5","5","4","5","5","5","5","2","1","2","1","5","1","2","5","1","0","1","0","1","0","0","0","1","0","0","0","0","1","0","0","5","4","5","1","2","1","4","5","4","2","2","634477074911854592","李","308","","","","","","","","","","","","","","","","","","","","","","","","","","","","","","","","","","","","","","","","","",""
"1173","<p style=""color:white; font-size: 35px;"">善良</p>","e","categorize-html","66","189564","0.0-6.0-1.0-6.0-1.3","3","4","4","4","4","3","4","1","4","4","4","5","4","5","5","4","5","5","5","5","2","1","2","1","5","1","2","5","1","0","1","0","1","0","0","0","1","0","0","0","0","1","0","0","5","4","5","1","2","1","4","5","4","2","2","634477074911854592","李","308","","","","","","","","","","","","","","","","","","","true","13","3","moral","1173","positive","善良","","","","","","","","","","","","","","","","",""
"null","","null","html-keyboard-response","67","189815","0.0-6.0-1.0-6.0-0.4","3","4","4","4","4","3","4","1","4","4","4","5","4","5","5","4","5","5","5","5","2","1","2","1","5","1","2","5","1","0","1","0","1","0","0","0","1","0","0","0","0","1","0","0","5","4","5","1","2","1","4","5","4","2","2","634477074911854592","李","308","","","","","","","","","","","","","","","","","","","","","","","","","","","","","","","","","","","","","","","","","",""
"603","<p style=""color:rgb(150, 250, 100); font-size: 35px;"">他</p>","i","categorize-html","68","190419","0.0-6.0-1.0-6.0-1.4","3","4","4","4","4","3","4","1","4","4","4","5","4","5","5","4","5","5","5","5","2","1","2","1","5","1","2","5","1","0","1","0","1","0","0","0","1","0","0","0","0","1","0","0","5","4","5","1","2","1","4","5","4","2","2","634477074911854592","李","308","","","","","","","","","","","","","","","","","","","true","13","3","moral","603","other","他","","","","","","","","","","","","","","","","",""
"null","","null","html-keyboard-response","69","190670","0.0-6.0-1.0-6.0-0.5","3","4","4","4","4","3","4","1","4","4","4","5","4","5","5","4","5","5","5","5","2","1","2","1","5","1","2","5","1","0","1","0","1","0","0","0","1","0","0","0","0","1","0","0","5","4","5","1","2","1","4","5","4","2","2","634477074911854592","李","308","","","","","","","","","","","","","","","","","","","","","","","","","","","","","","","","","","","","","","","","","",""
"764","<p style=""color:white; font-size: 35px;"">廉正</p>","e","categorize-html","70","191436","0.0-6.0-1.0-6.0-1.5","3","4","4","4","4","3","4","1","4","4","4","5","4","5","5","4","5","5","5","5","2","1","2","1","5","1","2","5","1","0","1","0","1","0","0","0","1","0","0","0","0","1","0","0","5","4","5","1","2","1","4","5","4","2","2","634477074911854592","李","308","","","","","","","","","","","","","","","","","","","true","13","3","moral","764","positive","廉正","","","","","","","","","","","","","","","","",""
"null","","null","html-keyboard-response","71","191686","0.0-6.0-1.0-6.0-0.6","3","4","4","4","4","3","4","1","4","4","4","5","4","5","5","4","5","5","5","5","2","1","2","1","5","1","2","5","1","0","1","0","1","0","0","0","1","0","0","0","0","1","0","0","5","4","5","1","2","1","4","5","4","2","2","634477074911854592","李","308","","","","","","","","","","","","","","","","","","","","","","","","","","","","","","","","","","","","","","","","","",""
"1980","<p style=""color:rgb(150, 250, 100); font-size: 35px;"">本人的</p>","e","categorize-html","72","193667","0.0-6.0-1.0-6.0-1.6","3","4","4","4","4","3","4","1","4","4","4","5","4","5","5","4","5","5","5","5","2","1","2","1","5","1","2","5","1","0","1","0","1","0","0","0","1","0","0","0","0","1","0","0","5","4","5","1","2","1","4","5","4","2","2","634477074911854592","李","308","","","","","","","","","","","","","","","","","","","true","13","3","moral","1980","self","本人的","","","","","","","","","","","","","","","","",""
"null","","null","html-keyboard-response","73","193918","0.0-6.0-1.0-6.0-0.7","3","4","4","4","4","3","4","1","4","4","4","5","4","5","5","4","5","5","5","5","2","1","2","1","5","1","2","5","1","0","1","0","1","0","0","0","1","0","0","0","0","1","0","0","5","4","5","1","2","1","4","5","4","2","2","634477074911854592","李","308","","","","","","","","","","","","","","","","","","","","","","","","","","","","","","","","","","","","","","","","","",""
"1188","<p style=""color:white; font-size: 35px;"">不孝</p>","i","categorize-html","74","195107","0.0-6.0-1.0-6.0-1.7","3","4","4","4","4","3","4","1","4","4","4","5","4","5","5","4","5","5","5","5","2","1","2","1","5","1","2","5","1","0","1","0","1","0","0","0","1","0","0","0","0","1","0","0","5","4","5","1","2","1","4","5","4","2","2","634477074911854592","李","308","","","","","","","","","","","","","","","","","","","true","13","3","moral","1188","negative","不孝","","","","","","","","","","","","","","","","",""
"null","","null","html-keyboard-response","75","195358","0.0-6.0-1.0-6.0-0.8","3","4","4","4","4","3","4","1","4","4","4","5","4","5","5","4","5","5","5","5","2","1","2","1","5","1","2","5","1","0","1","0","1","0","0","0","1","0","0","0","0","1","0","0","5","4","5","1","2","1","4","5","4","2","2","634477074911854592","李","308","","","","","","","","","","","","","","","","","","","","","","","","","","","","","","","","","","","","","","","","","",""
"948","<p style=""color:rgb(150, 250, 100); font-size: 35px;"">别人的</p>","i","categorize-html","76","196307","0.0-6.0-1.0-6.0-1.8","3","4","4","4","4","3","4","1","4","4","4","5","4","5","5","4","5","5","5","5","2","1","2","1","5","1","2","5","1","0","1","0","1","0","0","0","1","0","0","0","0","1","0","0","5","4","5","1","2","1","4","5","4","2","2","634477074911854592","李","308","","","","","","","","","","","","","","","","","","","true","13","3","moral","948","other","别人的","","","","","","","","","","","","","","","","",""
"null","","null","html-keyboard-response","77","196558","0.0-6.0-1.0-6.0-0.9","3","4","4","4","4","3","4","1","4","4","4","5","4","5","5","4","5","5","5","5","2","1","2","1","5","1","2","5","1","0","1","0","1","0","0","0","1","0","0","0","0","1","0","0","5","4","5","1","2","1","4","5","4","2","2","634477074911854592","李","308","","","","","","","","","","","","","","","","","","","","","","","","","","","","","","","","","","","","","","","","","",""
"620","<p style=""color:white; font-size: 35px;"">君子</p>","e","categorize-html","78","197179","0.0-6.0-1.0-6.0-1.9","3","4","4","4","4","3","4","1","4","4","4","5","4","5","5","4","5","5","5","5","2","1","2","1","5","1","2","5","1","0","1","0","1","0","0","0","1","0","0","0","0","1","0","0","5","4","5","1","2","1","4","5","4","2","2","634477074911854592","李","308","","","","","","","","","","","","","","","","","","","true","13","3","moral","620","positive","君子","","","","","","","","","","","","","","","","",""
"null","","null","html-keyboard-response","79","197430","0.0-6.0-1.0-6.0-0.10","3","4","4","4","4","3","4","1","4","4","4","5","4","5","5","4","5","5","5","5","2","1","2","1","5","1","2","5","1","0","1","0","1","0","0","0","1","0","0","0","0","1","0","0","5","4","5","1","2","1","4","5","4","2","2","634477074911854592","李","308","","","","","","","","","","","","","","","","","","","","","","","","","","","","","","","","","","","","","","","","","",""
"574","<p style=""color:rgb(150, 250, 100); font-size: 35px;"">我</p>","e","categorize-html","80","198005","0.0-6.0-1.0-6.0-1.10","3","4","4","4","4","3","4","1","4","4","4","5","4","5","5","4","5","5","5","5","2","1","2","1","5","1","2","5","1","0","1","0","1","0","0","0","1","0","0","0","0","1","0","0","5","4","5","1","2","1","4","5","4","2","2","634477074911854592","李","308","","","","","","","","","","","","","","","","","","","true","13","3","moral","574","self","我","","","","","","","","","","","","","","","","",""
"null","","null","html-keyboard-response","81","198256","0.0-6.0-1.0-6.0-0.11","3","4","4","4","4","3","4","1","4","4","4","5","4","5","5","4","5","5","5","5","2","1","2","1","5","1","2","5","1","0","1","0","1","0","0","0","1","0","0","0","0","1","0","0","5","4","5","1","2","1","4","5","4","2","2","634477074911854592","李","308","","","","","","","","","","","","","","","","","","","","","","","","","","","","","","","","","","","","","","","","","",""
"1042","<p style=""color:white; font-size: 35px;"">小人</p>","i","categorize-html","82","199299","0.0-6.0-1.0-6.0-1.11","3","4","4","4","4","3","4","1","4","4","4","5","4","5","5","4","5","5","5","5","2","1","2","1","5","1","2","5","1","0","1","0","1","0","0","0","1","0","0","0","0","1","0","0","5","4","5","1","2","1","4","5","4","2","2","634477074911854592","李","308","","","","","","","","","","","","","","","","","","","true","13","3","moral","1042","negative","小人","","","","","","","","","","","","","","","","",""
"null","","null","html-keyboard-response","83","199550","0.0-6.0-1.0-6.0-0.12","3","4","4","4","4","3","4","1","4","4","4","5","4","5","5","4","5","5","5","5","2","1","2","1","5","1","2","5","1","0","1","0","1","0","0","0","1","0","0","0","0","1","0","0","5","4","5","1","2","1","4","5","4","2","2","634477074911854592","李","308","","","","","","","","","","","","","","","","","","","","","","","","","","","","","","","","","","","","","","","","","",""
"684","<p style=""color:rgb(150, 250, 100); font-size: 35px;"">自己</p>","e","categorize-html","84","200235","0.0-6.0-1.0-6.0-1.12","3","4","4","4","4","3","4","1","4","4","4","5","4","5","5","4","5","5","5","5","2","1","2","1","5","1","2","5","1","0","1","0","1","0","0","0","1","0","0","0","0","1","0","0","5","4","5","1","2","1","4","5","4","2","2","634477074911854592","李","308","","","","","","","","","","","","","","","","","","","true","13","3","moral","684","self","自己","","","","","","","","","","","","","","","","",""
"null","","null","html-keyboard-response","85","200486","0.0-6.0-1.0-6.0-0.13","3","4","4","4","4","3","4","1","4","4","4","5","4","5","5","4","5","5","5","5","2","1","2","1","5","1","2","5","1","0","1","0","1","0","0","0","1","0","0","0","0","1","0","0","5","4","5","1","2","1","4","5","4","2","2","634477074911854592","李","308","","","","","","","","","","","","","","","","","","","","","","","","","","","","","","","","","","","","","","","","","",""
"924","<p style=""color:white; font-size: 35px;"">高尚</p>","e","categorize-html","86","201410","0.0-6.0-1.0-6.0-1.13","3","4","4","4","4","3","4","1","4","4","4","5","4","5","5","4","5","5","5","5","2","1","2","1","5","1","2","5","1","0","1","0","1","0","0","0","1","0","0","0","0","1","0","0","5","4","5","1","2","1","4","5","4","2","2","634477074911854592","李","308","","","","","","","","","","","","","","","","","","","true","13","3","moral","924","positive","高尚","","","","","","","","","","","","","","","","",""
"null","","null","html-keyboard-response","87","201662","0.0-6.0-1.0-6.0-0.14","3","4","4","4","4","3","4","1","4","4","4","5","4","5","5","4","5","5","5","5","2","1","2","1","5","1","2","5","1","0","1","0","1","0","0","0","1","0","0","0","0","1","0","0","5","4","5","1","2","1","4","5","4","2","2","634477074911854592","李","308","","","","","","","","","","","","","","","","","","","","","","","","","","","","","","","","","","","","","","","","","",""
"1196","<p style=""color:rgb(150, 250, 100); font-size: 35px;"">他人</p>","e","categorize-html","88","203290","0.0-6.0-1.0-6.0-1.14","3","4","4","4","4","3","4","1","4","4","4","5","4","5","5","4","5","5","5","5","2","1","2","1","5","1","2","5","1","0","1","0","1","0","0","0","1","0","0","0","0","1","0","0","5","4","5","1","2","1","4","5","4","2","2","634477074911854592","李","308","","","","","","","","","","","","","","","","","","","false","13","3","moral","1564.8695652173913","other","他人","","","","","","","","","","","","","","","","",""
"null","","null","html-keyboard-response","89","203541","0.0-6.0-1.0-6.0-0.15","3","4","4","4","4","3","4","1","4","4","4","5","4","5","5","4","5","5","5","5","2","1","2","1","5","1","2","5","1","0","1","0","1","0","0","0","1","0","0","0","0","1","0","0","5","4","5","1","2","1","4","5","4","2","2","634477074911854592","李","308","","","","","","","","","","","","","","","","","","","","","","","","","","","","","","","","","","","","","","","","","",""
"637","<p style=""color:white; font-size: 35px;"">卑鄙</p>","i","categorize-html","90","204180","0.0-6.0-1.0-6.0-1.15","3","4","4","4","4","3","4","1","4","4","4","5","4","5","5","4","5","5","5","5","2","1","2","1","5","1","2","5","1","0","1","0","1","0","0","0","1","0","0","0","0","1","0","0","5","4","5","1","2","1","4","5","4","2","2","634477074911854592","李","308","","","","","","","","","","","","","","","","","","","true","13","3","moral","637","negative","卑鄙","","","","","","","","","","","","","","","","",""
"null","","null","html-keyboard-response","91","204430","0.0-6.0-1.0-6.0-0.16","3","4","4","4","4","3","4","1","4","4","4","5","4","5","5","4","5","5","5","5","2","1","2","1","5","1","2","5","1","0","1","0","1","0","0","0","1","0","0","0","0","1","0","0","5","4","5","1","2","1","4","5","4","2","2","634477074911854592","李","308","","","","","","","","","","","","","","","","","","","","","","","","","","","","","","","","","","","","","","","","","",""
"635","<p style=""color:rgb(150, 250, 100); font-size: 35px;"">别人</p>","i","categorize-html","92","205066","0.0-6.0-1.0-6.0-1.16","3","4","4","4","4","3","4","1","4","4","4","5","4","5","5","4","5","5","5","5","2","1","2","1","5","1","2","5","1","0","1","0","1","0","0","0","1","0","0","0","0","1","0","0","5","4","5","1","2","1","4","5","4","2","2","634477074911854592","李","308","","","","","","","","","","","","","","","","","","","true","13","3","moral","635","other","别人","","","","","","","","","","","","","","","","",""
"null","","null","html-keyboard-response","93","205317","0.0-6.0-1.0-6.0-0.17","3","4","4","4","4","3","4","1","4","4","4","5","4","5","5","4","5","5","5","5","2","1","2","1","5","1","2","5","1","0","1","0","1","0","0","0","1","0","0","0","0","1","0","0","5","4","5","1","2","1","4","5","4","2","2","634477074911854592","李","308","","","","","","","","","","","","","","","","","","","","","","","","","","","","","","","","","","","","","","","","","",""
"773","<p style=""color:white; font-size: 35px;"">正直</p>","e","categorize-html","94","206091","0.0-6.0-1.0-6.0-1.17","3","4","4","4","4","3","4","1","4","4","4","5","4","5","5","4","5","5","5","5","2","1","2","1","5","1","2","5","1","0","1","0","1","0","0","0","1","0","0","0","0","1","0","0","5","4","5","1","2","1","4","5","4","2","2","634477074911854592","李","308","","","","","","","","","","","","","","","","","","","true","13","3","moral","773","positive","正直","","","","","","","","","","","","","","","","",""
"null","","null","html-keyboard-response","95","206341","0.0-6.0-1.0-6.0-0.18","3","4","4","4","4","3","4","1","4","4","4","5","4","5","5","4","5","5","5","5","2","1","2","1","5","1","2","5","1","0","1","0","1","0","0","0","1","0","0","0","0","1","0","0","5","4","5","1","2","1","4","5","4","2","2","634477074911854592","李","308","","","","","","","","","","","","","","","","","","","","","","","","","","","","","","","","","","","","","","","","","",""
"412","<p style=""color:rgb(150, 250, 100); font-size: 35px;"">我的</p>","e","categorize-html","96","206754","0.0-6.0-1.0-6.0-1.18","3","4","4","4","4","3","4","1","4","4","4","5","4","5","5","4","5","5","5","5","2","1","2","1","5","1","2","5","1","0","1","0","1","0","0","0","1","0","0","0","0","1","0","0","5","4","5","1","2","1","4","5","4","2","2","634477074911854592","李","308","","","","","","","","","","","","","","","","","","","true","13","3","moral","412","self","我的","","","","","","","","","","","","","","","","",""
"null","","null","html-keyboard-response","97","207005","0.0-6.0-1.0-6.0-0.19","3","4","4","4","4","3","4","1","4","4","4","5","4","5","5","4","5","5","5","5","2","1","2","1","5","1","2","5","1","0","1","0","1","0","0","0","1","0","0","0","0","1","0","0","5","4","5","1","2","1","4","5","4","2","2","634477074911854592","李","308","","","","","","","","","","","","","","","","","","","","","","","","","","","","","","","","","","","","","","","","","",""
"860","<p style=""color:white; font-size: 35px;"">缺德</p>","i","categorize-html","98","207866","0.0-6.0-1.0-6.0-1.19","3","4","4","4","4","3","4","1","4","4","4","5","4","5","5","4","5","5","5","5","2","1","2","1","5","1","2","5","1","0","1","0","1","0","0","0","1","0","0","0","0","1","0","0","5","4","5","1","2","1","4","5","4","2","2","634477074911854592","李","308","","","","","","","","","","","","","","","","","","","true","13","3","moral","860","negative","缺德","","","","","","","","","","","","","","","","",""
"null","","null","html-keyboard-response","99","208116","0.0-6.0-1.0-6.0-0.20","3","4","4","4","4","3","4","1","4","4","4","5","4","5","5","4","5","5","5","5","2","1","2","1","5","1","2","5","1","0","1","0","1","0","0","0","1","0","0","0","0","1","0","0","5","4","5","1","2","1","4","5","4","2","2","634477074911854592","李","308","","","","","","","","","","","","","","","","","","","","","","","","","","","","","","","","","","","","","","","","","",""
"1701","<p style=""color:rgb(150, 250, 100); font-size: 35px;"">本人</p>","e","categorize-html","100","209818","0.0-6.0-1.0-6.0-1.20","3","4","4","4","4","3","4","1","4","4","4","5","4","5","5","4","5","5","5","5","2","1","2","1","5","1","2","5","1","0","1","0","1","0","0","0","1","0","0","0","0","1","0","0","5","4","5","1","2","1","4","5","4","2","2","634477074911854592","李","308","","","","","","","","","","","","","","","","","","","true","13","3","moral","1701","self","本人","","","","","","","","","","","","","","","","",""
"null","","null","html-keyboard-response","101","210069","0.0-6.0-1.0-6.0-0.21","3","4","4","4","4","3","4","1","4","4","4","5","4","5","5","4","5","5","5","5","2","1","2","1","5","1","2","5","1","0","1","0","1","0","0","0","1","0","0","0","0","1","0","0","5","4","5","1","2","1","4","5","4","2","2","634477074911854592","李","308","","","","","","","","","","","","","","","","","","","","","","","","","","","","","","","","","","","","","","","","","",""
"796","<p style=""color:white; font-size: 35px;"">诚信</p>","e","categorize-html","102","210866","0.0-6.0-1.0-6.0-1.21","3","4","4","4","4","3","4","1","4","4","4","5","4","5","5","4","5","5","5","5","2","1","2","1","5","1","2","5","1","0","1","0","1","0","0","0","1","0","0","0","0","1","0","0","5","4","5","1","2","1","4","5","4","2","2","634477074911854592","李","308","","","","","","","","","","","","","","","","","","","true","13","3","moral","796","positive","诚信","","","","","","","","","","","","","","","","",""
"null","","null","html-keyboard-response","103","211117","0.0-6.0-1.0-6.0-0.22","3","4","4","4","4","3","4","1","4","4","4","5","4","5","5","4","5","5","5","5","2","1","2","1","5","1","2","5","1","0","1","0","1","0","0","0","1","0","0","0","0","1","0","0","5","4","5","1","2","1","4","5","4","2","2","634477074911854592","李","308","","","","","","","","","","","","","","","","","","","","","","","","","","","","","","","","","","","","","","","","","",""
"533","<p style=""color:rgb(150, 250, 100); font-size: 35px;"">他的</p>","i","categorize-html","104","211652","0.0-6.0-1.0-6.0-1.22","3","4","4","4","4","3","4","1","4","4","4","5","4","5","5","4","5","5","5","5","2","1","2","1","5","1","2","5","1","0","1","0","1","0","0","0","1","0","0","0","0","1","0","0","5","4","5","1","2","1","4","5","4","2","2","634477074911854592","李","308","","","","","","","","","","","","","","","","","","","true","13","3","moral","533","other","他的","","","","","","","","","","","","","","","","",""
"null","","null","html-keyboard-response","105","211902","0.0-6.0-1.0-6.0-0.23","3","4","4","4","4","3","4","1","4","4","4","5","4","5","5","4","5","5","5","5","2","1","2","1","5","1","2","5","1","0","1","0","1","0","0","0","1","0","0","0","0","1","0","0","5","4","5","1","2","1","4","5","4","2","2","634477074911854592","李","308","","","","","","","","","","","","","","","","","","","","","","","","","","","","","","","","","","","","","","","","","",""
"580","<p style=""color:white; font-size: 35px;"">黑心</p>","i","categorize-html","106","212483","0.0-6.0-1.0-6.0-1.23","3","4","4","4","4","3","4","1","4","4","4","5","4","5","5","4","5","5","5","5","2","1","2","1","5","1","2","5","1","0","1","0","1","0","0","0","1","0","0","0","0","1","0","0","5","4","5","1","2","1","4","5","4","2","2","634477074911854592","李","308","","","","","","","","","","","","","","","","","","","true","13","3","moral","580","negative","黑心","","","","","","","","","","","","","","","","",""
"950","
    <div class=""tag-bottom""><p>
    —— 任务4：对“自我/积极”词和“他人/消极”词分类 ——<p/>
    <span style=""color:#78DCE8""><b>与刚才的任务完全相同，请再次对这四类词语分类</b></span><p/>
    <span style=""color:#FFD866""><b>请根据上方标签的提示，尽可能正确并且快速地做出按键反应</b></span><p/>
    当按键错误时屏幕中会出现<span style=""color:red""> X </span>，需要按另一个键纠正才能继续<br/><p/>
    请把双手食指分别放在键盘的“E”键和“I”键上<p/>
    按<空格键>开始
    </p></div>"," ","html-keyboard-response","107","213433","0.0-6.0-1.0-7.0","3","4","4","4","4","3","4","1","4","4","4","5","4","5","5","4","5","5","5","5","2","1","2","1","5","1","2","5","1","0","1","0","1","0","0","0","1","0","0","0","0","1","0","0","5","4","5","1","2","1","4","5","4","2","2","634477074911854592","李","308","","","","","","","","","","","","","","","","","","","","","","","","","","","","","","","","","","","","","","","","","",""
"null","","null","html-keyboard-response","108","213684","0.0-6.0-1.0-8.0-0.0","3","4","4","4","4","3","4","1","4","4","4","5","4","5","5","4","5","5","5","5","2","1","2","1","5","1","2","5","1","0","1","0","1","0","0","0","1","0","0","0","0","1","0","0","5","4","5","1","2","1","4","5","4","2","2","634477074911854592","李","308","","","","","","","","","","","","","","","","","","","","","","","","","","","","","","","","","","","","","","","","","",""
"709","<p style=""color:rgb(150, 250, 100); font-size: 35px;"">他</p>","i","categorize-html","109","214394","0.0-6.0-1.0-8.0-1.0","3","4","4","4","4","3","4","1","4","4","4","5","4","5","5","4","5","5","5","5","2","1","2","1","5","1","2","5","1","0","1","0","1","0","0","0","1","0","0","0","0","1","0","0","5","4","5","1","2","1","4","5","4","2","2","634477074911854592","李","308","","","","","","","","","","","","","","","","","","","true","14","4","moral","709","other","他","","","","","","","","","","","","","","","","",""
"null","","null","html-keyboard-response","110","214645","0.0-6.0-1.0-8.0-0.1","3","4","4","4","4","3","4","1","4","4","4","5","4","5","5","4","5","5","5","5","2","1","2","1","5","1","2","5","1","0","1","0","1","0","0","0","1","0","0","0","0","1","0","0","5","4","5","1","2","1","4","5","4","2","2","634477074911854592","李","308","","","","","","","","","","","","","","","","","","","","","","","","","","","","","","","","","","","","","","","","","",""
"1077","<p style=""color:white; font-size: 35px;"">黑心</p>","i","categorize-html","111","215723","0.0-6.0-1.0-8.0-1.1","3","4","4","4","4","3","4","1","4","4","4","5","4","5","5","4","5","5","5","5","2","1","2","1","5","1","2","5","1","0","1","0","1","0","0","0","1","0","0","0","0","1","0","0","5","4","5","1","2","1","4","5","4","2","2","634477074911854592","李","308","","","","","","","","","","","","","","","","","","","true","14","4","moral","1077","negative","黑心","","","","","","","","","","","","","","","","",""
"null","","null","html-keyboard-response","112","215974","0.0-6.0-1.0-8.0-0.2","3","4","4","4","4","3","4","1","4","4","4","5","4","5","5","4","5","5","5","5","2","1","2","1","5","1","2","5","1","0","1","0","1","0","0","0","1","0","0","0","0","1","0","0","5","4","5","1","2","1","4","5","4","2","2","634477074911854592","李","308","","","","","","","","","","","","","","","","","","","","","","","","","","","","","","","","","","","","","","","","","",""
"867","<p style=""color:rgb(150, 250, 100); font-size: 35px;"">自己</p>","e","categorize-html","113","216841","0.0-6.0-1.0-8.0-1.2","3","4","4","4","4","3","4","1","4","4","4","5","4","5","5","4","5","5","5","5","2","1","2","1","5","1","2","5","1","0","1","0","1","0","0","0","1","0","0","0","0","1","0","0","5","4","5","1","2","1","4","5","4","2","2","634477074911854592","李","308","","","","","","","","","","","","","","","","","","","true","14","4","moral","867","self","自己","","","","","","","","","","","","","","","","",""
"null","","null","html-keyboard-response","114","217092","0.0-6.0-1.0-8.0-0.3","3","4","4","4","4","3","4","1","4","4","4","5","4","5","5","4","5","5","5","5","2","1","2","1","5","1","2","5","1","0","1","0","1","0","0","0","1","0","0","0","0","1","0","0","5","4","5","1","2","1","4","5","4","2","2","634477074911854592","李","308","","","","","","","","","","","","","","","","","","","","","","","","","","","","","","","","","","","","","","","","","",""
"733","<p style=""color:white; font-size: 35px;"">善良</p>","e","categorize-html","115","217825","0.0-6.0-1.0-8.0-1.3","3","4","4","4","4","3","4","1","4","4","4","5","4","5","5","4","5","5","5","5","2","1","2","1","5","1","2","5","1","0","1","0","1","0","0","0","1","0","0","0","0","1","0","0","5","4","5","1","2","1","4","5","4","2","2","634477074911854592","李","308","","","","","","","","","","","","","","","","","","","true","14","4","moral","733","positive","善良","","","","","","","","","","","","","","","","",""
"null","","null","html-keyboard-response","116","218077","0.0-6.0-1.0-8.0-0.4","3","4","4","4","4","3","4","1","4","4","4","5","4","5","5","4","5","5","5","5","2","1","2","1","5","1","2","5","1","0","1","0","1","0","0","0","1","0","0","0","0","1","0","0","5","4","5","1","2","1","4","5","4","2","2","634477074911854592","李","308","","","","","","","","","","","","","","","","","","","","","","","","","","","","","","","","","","","","","","","","","",""
"1540","<p style=""color:rgb(150, 250, 100); font-size: 35px;"">别人的</p>","i","categorize-html","117","219617","0.0-6.0-1.0-8.0-1.4","3","4","4","4","4","3","4","1","4","4","4","5","4","5","5","4","5","5","5","5","2","1","2","1","5","1","2","5","1","0","1","0","1","0","0","0","1","0","0","0","0","1","0","0","5","4","5","1","2","1","4","5","4","2","2","634477074911854592","李","308","","","","","","","","","","","","","","","","","","","true","14","4","moral","1540","other","别人的","","","","","","","","","","","","","","","","",""
"null","","null","html-keyboard-response","118","219869","0.0-6.0-1.0-8.0-0.5","3","4","4","4","4","3","4","1","4","4","4","5","4","5","5","4","5","5","5","5","2","1","2","1","5","1","2","5","1","0","1","0","1","0","0","0","1","0","0","0","0","1","0","0","5","4","5","1","2","1","4","5","4","2","2","634477074911854592","李","308","","","","","","","","","","","","","","","","","","","","","","","","","","","","","","","","","","","","","","","","","",""
"692","<p style=""color:white; font-size: 35px;"">廉正</p>","e","categorize-html","119","220561","0.0-6.0-1.0-8.0-1.5","3","4","4","4","4","3","4","1","4","4","4","5","4","5","5","4","5","5","5","5","2","1","2","1","5","1","2","5","1","0","1","0","1","0","0","0","1","0","0","0","0","1","0","0","5","4","5","1","2","1","4","5","4","2","2","634477074911854592","李","308","","","","","","","","","","","","","","","","","","","true","14","4","moral","692","positive","廉正","","","","","","","","","","","","","","","","",""
"null","","null","html-keyboard-response","120","220811","0.0-6.0-1.0-8.0-0.6","3","4","4","4","4","3","4","1","4","4","4","5","4","5","5","4","5","5","5","5","2","1","2","1","5","1","2","5","1","0","1","0","1","0","0","0","1","0","0","0","0","1","0","0","5","4","5","1","2","1","4","5","4","2","2","634477074911854592","李","308","","","","","","","","","","","","","","","","","","","","","","","","","","","","","","","","","","","","","","","","","",""
"495","<p style=""color:rgb(150, 250, 100); font-size: 35px;"">我</p>","e","categorize-html","121","221308","0.0-6.0-1.0-8.0-1.6","3","4","4","4","4","3","4","1","4","4","4","5","4","5","5","4","5","5","5","5","2","1","2","1","5","1","2","5","1","0","1","0","1","0","0","0","1","0","0","0","0","1","0","0","5","4","5","1","2","1","4","5","4","2","2","634477074911854592","李","308","","","","","","","","","","","","","","","","","","","true","14","4","moral","495","self","我","","","","","","","","","","","","","","","","",""
"null","","null","html-keyboard-response","122","221558","0.0-6.0-1.0-8.0-0.7","3","4","4","4","4","3","4","1","4","4","4","5","4","5","5","4","5","5","5","5","2","1","2","1","5","1","2","5","1","0","1","0","1","0","0","0","1","0","0","0","0","1","0","0","5","4","5","1","2","1","4","5","4","2","2","634477074911854592","李","308","","","","","","","","","","","","","","","","","","","","","","","","","","","","","","","","","","","","","","","","","",""
"642","<p style=""color:white; font-size: 35px;"">不仁</p>","i","categorize-html","123","222201","0.0-6.0-1.0-8.0-1.7","3","4","4","4","4","3","4","1","4","4","4","5","4","5","5","4","5","5","5","5","2","1","2","1","5","1","2","5","1","0","1","0","1","0","0","0","1","0","0","0","0","1","0","0","5","4","5","1","2","1","4","5","4","2","2","634477074911854592","李","308","","","","","","","","","","","","","","","","","","","true","14","4","moral","642","negative","不仁","","","","","","","","","","","","","","","","",""
"null","","null","html-keyboard-response","124","222452","0.0-6.0-1.0-8.0-0.8","3","4","4","4","4","3","4","1","4","4","4","5","4","5","5","4","5","5","5","5","2","1","2","1","5","1","2","5","1","0","1","0","1","0","0","0","1","0","0","0","0","1","0","0","5","4","5","1","2","1","4","5","4","2","2","634477074911854592","李","308","","","","","","","","","","","","","","","","","","","","","","","","","","","","","","","","","","","","","","","","","",""
"1412","<p style=""color:rgb(150, 250, 100); font-size: 35px;"">本人的</p>","e","categorize-html","125","223865","0.0-6.0-1.0-8.0-1.8","3","4","4","4","4","3","4","1","4","4","4","5","4","5","5","4","5","5","5","5","2","1","2","1","5","1","2","5","1","0","1","0","1","0","0","0","1","0","0","0","0","1","0","0","5","4","5","1","2","1","4","5","4","2","2","634477074911854592","李","308","","","","","","","","","","","","","","","","","","","true","14","4","moral","1412","self","本人的","","","","","","","","","","","","","","","","",""
"null","","null","html-keyboard-response","126","224116","0.0-6.0-1.0-8.0-0.9","3","4","4","4","4","3","4","1","4","4","4","5","4","5","5","4","5","5","5","5","2","1","2","1","5","1","2","5","1","0","1","0","1","0","0","0","1","0","0","0","0","1","0","0","5","4","5","1","2","1","4","5","4","2","2","634477074911854592","李","308","","","","","","","","","","","","","","","","","","","","","","","","","","","","","","","","","","","","","","","","","",""
"916","<p style=""color:white; font-size: 35px;"">不孝</p>","i","categorize-html","127","225033","0.0-6.0-1.0-8.0-1.9","3","4","4","4","4","3","4","1","4","4","4","5","4","5","5","4","5","5","5","5","2","1","2","1","5","1","2","5","1","0","1","0","1","0","0","0","1","0","0","0","0","1","0","0","5","4","5","1","2","1","4","5","4","2","2","634477074911854592","李","308","","","","","","","","","","","","","","","","","","","true","14","4","moral","916","negative","不孝","","","","","","","","","","","","","","","","",""
"null","","null","html-keyboard-response","128","225284","0.0-6.0-1.0-8.0-0.10","3","4","4","4","4","3","4","1","4","4","4","5","4","5","5","4","5","5","5","5","2","1","2","1","5","1","2","5","1","0","1","0","1","0","0","0","1","0","0","0","0","1","0","0","5","4","5","1","2","1","4","5","4","2","2","634477074911854592","李","308","","","","","","","","","","","","","","","","","","","","","","","","","","","","","","","","","","","","","","","","","",""
"3332","<p style=""color:rgb(150, 250, 100); font-size: 35px;"">别人</p>","i","categorize-html","129","228618","0.0-6.0-1.0-8.0-1.10","3","4","4","4","4","3","4","1","4","4","4","5","4","5","5","4","5","5","5","5","2","1","2","1","5","1","2","5","1","0","1","0","1","0","0","0","1","0","0","0","0","1","0","0","5","4","5","1","2","1","4","5","4","2","2","634477074911854592","李","308","","","","","","","","","","","","","","","","","","","true","14","4","moral","3332","other","别人","","","","","","","","","","","","","","","","",""
"null","","null","html-keyboard-response","130","228868","0.0-6.0-1.0-8.0-0.11","3","4","4","4","4","3","4","1","4","4","4","5","4","5","5","4","5","5","5","5","2","1","2","1","5","1","2","5","1","0","1","0","1","0","0","0","1","0","0","0","0","1","0","0","5","4","5","1","2","1","4","5","4","2","2","634477074911854592","李","308","","","","","","","","","","","","","","","","","","","","","","","","","","","","","","","","","","","","","","","","","",""
"844","<p style=""color:white; font-size: 35px;"">高尚</p>","e","categorize-html","131","229713","0.0-6.0-1.0-8.0-1.11","3","4","4","4","4","3","4","1","4","4","4","5","4","5","5","4","5","5","5","5","2","1","2","1","5","1","2","5","1","0","1","0","1","0","0","0","1","0","0","0","0","1","0","0","5","4","5","1","2","1","4","5","4","2","2","634477074911854592","李","308","","","","","","","","","","","","","","","","","","","true","14","4","moral","844","positive","高尚","","","","","","","","","","","","","","","","",""
"null","","null","html-keyboard-response","132","229964","0.0-6.0-1.0-8.0-0.12","3","4","4","4","4","3","4","1","4","4","4","5","4","5","5","4","5","5","5","5","2","1","2","1","5","1","2","5","1","0","1","0","1","0","0","0","1","0","0","0","0","1","0","0","5","4","5","1","2","1","4","5","4","2","2","634477074911854592","李","308","","","","","","","","","","","","","","","","","","","","","","","","","","","","","","","","","","","","","","","","","",""
"588","<p style=""color:rgb(150, 250, 100); font-size: 35px;"">他人的</p>","i","categorize-html","133","230553","0.0-6.0-1.0-8.0-1.12","3","4","4","4","4","3","4","1","4","4","4","5","4","5","5","4","5","5","5","5","2","1","2","1","5","1","2","5","1","0","1","0","1","0","0","0","1","0","0","0","0","1","0","0","5","4","5","1","2","1","4","5","4","2","2","634477074911854592","李","308","","","","","","","","","","","","","","","","","","","true","14","4","moral","588","other","他人的","","","","","","","","","","","","","","","","",""
"null","","null","html-keyboard-response","134","230804","0.0-6.0-1.0-8.0-0.13","3","4","4","4","4","3","4","1","4","4","4","5","4","5","5","4","5","5","5","5","2","1","2","1","5","1","2","5","1","0","1","0","1","0","0","0","1","0","0","0","0","1","0","0","5","4","5","1","2","1","4","5","4","2","2","634477074911854592","李","308","","","","","","","","","","","","","","","","","","","","","","","","","","","","","","","","","","","","","","","","","",""
"700","<p style=""color:white; font-size: 35px;"">不仁</p>","i","categorize-html","135","231505","0.0-6.0-1.0-8.0-1.13","3","4","4","4","4","3","4","1","4","4","4","5","4","5","5","4","5","5","5","5","2","1","2","1","5","1","2","5","1","0","1","0","1","0","0","0","1","0","0","0","0","1","0","0","5","4","5","1","2","1","4","5","4","2","2","634477074911854592","李","308","","","","","","","","","","","","","","","","","","","true","14","4","moral","700","negative","不仁","","","","","","","","","","","","","","","","",""
"null","","null","html-keyboard-response","136","231756","0.0-6.0-1.0-8.0-0.14","3","4","4","4","4","3","4","1","4","4","4","5","4","5","5","4","5","5","5","5","2","1","2","1","5","1","2","5","1","0","1","0","1","0","0","0","1","0","0","0","0","1","0","0","5","4","5","1","2","1","4","5","4","2","2","634477074911854592","李","308","","","","","","","","","","","","","","","","","","","","","","","","","","","","","","","","","","","","","","","","","",""
"532","<p style=""color:rgb(150, 250, 100); font-size: 35px;"">我的</p>","e","categorize-html","137","232289","0.0-6.0-1.0-8.0-1.14","3","4","4","4","4","3","4","1","4","4","4","5","4","5","5","4","5","5","5","5","2","1","2","1","5","1","2","5","1","0","1","0","1","0","0","0","1","0","0","0","0","1","0","0","5","4","5","1","2","1","4","5","4","2","2","634477074911854592","李","308","","","","","","","","","","","","","","","","","","","true","14","4","moral","532","self","我的","","","","","","","","","","","","","","","","",""
"null","","null","html-keyboard-response","138","232540","0.0-6.0-1.0-8.0-0.15","3","4","4","4","4","3","4","1","4","4","4","5","4","5","5","4","5","5","5","5","2","1","2","1","5","1","2","5","1","0","1","0","1","0","0","0","1","0","0","0","0","1","0","0","5","4","5","1","2","1","4","5","4","2","2","634477074911854592","李","308","","","","","","","","","","","","","","","","","","","","","","","","","","","","","","","","","","","","","","","","","",""
"572","<p style=""color:white; font-size: 35px;"">诚信</p>","e","categorize-html","139","233112","0.0-6.0-1.0-8.0-1.15","3","4","4","4","4","3","4","1","4","4","4","5","4","5","5","4","5","5","5","5","2","1","2","1","5","1","2","5","1","0","1","0","1","0","0","0","1","0","0","0","0","1","0","0","5","4","5","1","2","1","4","5","4","2","2","634477074911854592","李","308","","","","","","","","","","","","","","","","","","","true","14","4","moral","572","positive","诚信","","","","","","","","","","","","","","","","",""
"null","","null","html-keyboard-response","140","233364","0.0-6.0-1.0-8.0-0.16","3","4","4","4","4","3","4","1","4","4","4","5","4","5","5","4","5","5","5","5","2","1","2","1","5","1","2","5","1","0","1","0","1","0","0","0","1","0","0","0","0","1","0","0","5","4","5","1","2","1","4","5","4","2","2","634477074911854592","李","308","","","","","","","","","","","","","","","","","","","","","","","","","","","","","","","","","","","","","","","","","",""
"532","<p style=""color:rgb(150, 250, 100); font-size: 35px;"">本人的</p>","e","categorize-html","141","233897","0.0-6.0-1.0-8.0-1.16","3","4","4","4","4","3","4","1","4","4","4","5","4","5","5","4","5","5","5","5","2","1","2","1","5","1","2","5","1","0","1","0","1","0","0","0","1","0","0","0","0","1","0","0","5","4","5","1","2","1","4","5","4","2","2","634477074911854592","李","308","","","","","","","","","","","","","","","","","","","true","14","4","moral","532","self","本人的","","","","","","","","","","","","","","","","",""
"null","","null","html-keyboard-response","142","234148","0.0-6.0-1.0-8.0-0.17","3","4","4","4","4","3","4","1","4","4","4","5","4","5","5","4","5","5","5","5","2","1","2","1","5","1","2","5","1","0","1","0","1","0","0","0","1","0","0","0","0","1","0","0","5","4","5","1","2","1","4","5","4","2","2","634477074911854592","李","308","","","","","","","","","","","","","","","","","","","","","","","","","","","","","","","","","","","","","","","","","",""
"516","<p style=""color:white; font-size: 35px;"">正直</p>","e","categorize-html","143","234664","0.0-6.0-1.0-8.0-1.17","3","4","4","4","4","3","4","1","4","4","4","5","4","5","5","4","5","5","5","5","2","1","2","1","5","1","2","5","1","0","1","0","1","0","0","0","1","0","0","0","0","1","0","0","5","4","5","1","2","1","4","5","4","2","2","634477074911854592","李","308","","","","","","","","","","","","","","","","","","","true","14","4","moral","516","positive","正直","","","","","","","","","","","","","","","","",""
"null","","null","html-keyboard-response","144","234914","0.0-6.0-1.0-8.0-0.18","3","4","4","4","4","3","4","1","4","4","4","5","4","5","5","4","5","5","5","5","2","1","2","1","5","1","2","5","1","0","1","0","1","0","0","0","1","0","0","0","0","1","0","0","5","4","5","1","2","1","4","5","4","2","2","634477074911854592","李","308","","","","","","","","","","","","","","","","","","","","","","","","","","","","","","","","","","","","","","","","","",""
"957","<p style=""color:rgb(150, 250, 100); font-size: 35px;"">他人</p>","i","categorize-html","145","235872","0.0-6.0-1.0-8.0-1.18","3","4","4","4","4","3","4","1","4","4","4","5","4","5","5","4","5","5","5","5","2","1","2","1","5","1","2","5","1","0","1","0","1","0","0","0","1","0","0","0","0","1","0","0","5","4","5","1","2","1","4","5","4","2","2","634477074911854592","李","308","","","","","","","","","","","","","","","","","","","true","14","4","moral","957","other","他人","","","","","","","","","","","","","","","","",""
"null","","null","html-keyboard-response","146","236122","0.0-6.0-1.0-8.0-0.19","3","4","4","4","4","3","4","1","4","4","4","5","4","5","5","4","5","5","5","5","2","1","2","1","5","1","2","5","1","0","1","0","1","0","0","0","1","0","0","0","0","1","0","0","5","4","5","1","2","1","4","5","4","2","2","634477074911854592","李","308","","","","","","","","","","","","","","","","","","","","","","","","","","","","","","","","","","","","","","","","","",""
"677","<p style=""color:white; font-size: 35px;"">小人</p>","i","categorize-html","147","236800","0.0-6.0-1.0-8.0-1.19","3","4","4","4","4","3","4","1","4","4","4","5","4","5","5","4","5","5","5","5","2","1","2","1","5","1","2","5","1","0","1","0","1","0","0","0","1","0","0","0","0","1","0","0","5","4","5","1","2","1","4","5","4","2","2","634477074911854592","李","308","","","","","","","","","","","","","","","","","","","true","14","4","moral","677","negative","小人","","","","","","","","","","","","","","","","",""
"null","","null","html-keyboard-response","148","237050","0.0-6.0-1.0-8.0-0.20","3","4","4","4","4","3","4","1","4","4","4","5","4","5","5","4","5","5","5","5","2","1","2","1","5","1","2","5","1","0","1","0","1","0","0","0","1","0","0","0","0","1","0","0","5","4","5","1","2","1","4","5","4","2","2","634477074911854592","李","308","","","","","","","","","","","","","","","","","","","","","","","","","","","","","","","","","","","","","","","","","",""
"1277","<p style=""color:rgb(150, 250, 100); font-size: 35px;"">他</p>","i","categorize-html","149","238329","0.0-6.0-1.0-8.0-1.20","3","4","4","4","4","3","4","1","4","4","4","5","4","5","5","4","5","5","5","5","2","1","2","1","5","1","2","5","1","0","1","0","1","0","0","0","1","0","0","0","0","1","0","0","5","4","5","1","2","1","4","5","4","2","2","634477074911854592","李","308","","","","","","","","","","","","","","","","","","","true","14","4","moral","1277","other","他","","","","","","","","","","","","","","","","",""
"null","","null","html-keyboard-response","150","238579","0.0-6.0-1.0-8.0-0.21","3","4","4","4","4","3","4","1","4","4","4","5","4","5","5","4","5","5","5","5","2","1","2","1","5","1","2","5","1","0","1","0","1","0","0","0","1","0","0","0","0","1","0","0","5","4","5","1","2","1","4","5","4","2","2","634477074911854592","李","308","","","","","","","","","","","","","","","","","","","","","","","","","","","","","","","","","","","","","","","","","",""
"629","<p style=""color:white; font-size: 35px;"">善良</p>","e","categorize-html","151","239208","0.0-6.0-1.0-8.0-1.21","3","4","4","4","4","3","4","1","4","4","4","5","4","5","5","4","5","5","5","5","2","1","2","1","5","1","2","5","1","0","1","0","1","0","0","0","1","0","0","0","0","1","0","0","5","4","5","1","2","1","4","5","4","2","2","634477074911854592","李","308","","","","","","","","","","","","","","","","","","","true","14","4","moral","629","positive","善良","","","","","","","","","","","","","","","","",""
"null","","null","html-keyboard-response","152","239459","0.0-6.0-1.0-8.0-0.22","3","4","4","4","4","3","4","1","4","4","4","5","4","5","5","4","5","5","5","5","2","1","2","1","5","1","2","5","1","0","1","0","1","0","0","0","1","0","0","0","0","1","0","0","5","4","5","1","2","1","4","5","4","2","2","634477074911854592","李","308","","","","","","","","","","","","","","","","","","","","","","","","","","","","","","","","","","","","","","","","","",""
"2540","<p style=""color:rgb(150, 250, 100); font-size: 35px;"">本人</p>","e","categorize-html","153","242000","0.0-6.0-1.0-8.0-1.22","3","4","4","4","4","3","4","1","4","4","4","5","4","5","5","4","5","5","5","5","2","1","2","1","5","1","2","5","1","0","1","0","1","0","0","0","1","0","0","0","0","1","0","0","5","4","5","1","2","1","4","5","4","2","2","634477074911854592","李","308","","","","","","","","","","","","","","","","","","","true","14","4","moral","2540","self","本人","","","","","","","","","","","","","","","","",""
"null","","null","html-keyboard-response","154","242251","0.0-6.0-1.0-8.0-0.23","3","4","4","4","4","3","4","1","4","4","4","5","4","5","5","4","5","5","5","5","2","1","2","1","5","1","2","5","1","0","1","0","1","0","0","0","1","0","0","0","0","1","0","0","5","4","5","1","2","1","4","5","4","2","2","634477074911854592","李","308","","","","","","","","","","","","","","","","","","","","","","","","","","","","","","","","","","","","","","","","","",""
"708","<p style=""color:white; font-size: 35px;"">黑心</p>","i","categorize-html","155","242960","0.0-6.0-1.0-8.0-1.23","3","4","4","4","4","3","4","1","4","4","4","5","4","5","5","4","5","5","5","5","2","1","2","1","5","1","2","5","1","0","1","0","1","0","0","0","1","0","0","0","0","1","0","0","5","4","5","1","2","1","4","5","4","2","2","634477074911854592","李","308","","","","","","","","","","","","","","","","","","","true","14","4","moral","708","negative","黑心","","","","","","","","","","","","","","","","",""
"null","","null","html-keyboard-response","156","243211","0.0-6.0-1.0-8.0-0.24","3","4","4","4","4","3","4","1","4","4","4","5","4","5","5","4","5","5","5","5","2","1","2","1","5","1","2","5","1","0","1","0","1","0","0","0","1","0","0","0","0","1","0","0","5","4","5","1","2","1","4","5","4","2","2","634477074911854592","李","308","","","","","","","","","","","","","","","","","","","","","","","","","","","","","","","","","","","","","","","","","",""
"949","<p style=""color:rgb(150, 250, 100); font-size: 35px;"">自己的</p>","e","categorize-html","157","244161","0.0-6.0-1.0-8.0-1.24","3","4","4","4","4","3","4","1","4","4","4","5","4","5","5","4","5","5","5","5","2","1","2","1","5","1","2","5","1","0","1","0","1","0","0","0","1","0","0","0","0","1","0","0","5","4","5","1","2","1","4","5","4","2","2","634477074911854592","李","308","","","","","","","","","","","","","","","","","","","true","14","4","moral","949","self","自己的","","","","","","","","","","","","","","","","",""
"null","","null","html-keyboard-response","158","244412","0.0-6.0-1.0-8.0-0.25","3","4","4","4","4","3","4","1","4","4","4","5","4","5","5","4","5","5","5","5","2","1","2","1","5","1","2","5","1","0","1","0","1","0","0","0","1","0","0","0","0","1","0","0","5","4","5","1","2","1","4","5","4","2","2","634477074911854592","李","308","","","","","","","","","","","","","","","","","","","","","","","","","","","","","","","","","","","","","","","","","",""
"675","<p style=""color:white; font-size: 35px;"">高尚</p>","e","categorize-html","159","245088","0.0-6.0-1.0-8.0-1.25","3","4","4","4","4","3","4","1","4","4","4","5","4","5","5","4","5","5","5","5","2","1","2","1","5","1","2","5","1","0","1","0","1","0","0","0","1","0","0","0","0","1","0","0","5","4","5","1","2","1","4","5","4","2","2","634477074911854592","李","308","","","","","","","","","","","","","","","","","","","true","14","4","moral","675","positive","高尚","","","","","","","","","","","","","","","","",""
"null","","null","html-keyboard-response","160","245339","0.0-6.0-1.0-8.0-0.26","3","4","4","4","4","3","4","1","4","4","4","5","4","5","5","4","5","5","5","5","2","1","2","1","5","1","2","5","1","0","1","0","1","0","0","0","1","0","0","0","0","1","0","0","5","4","5","1","2","1","4","5","4","2","2","634477074911854592","李","308","","","","","","","","","","","","","","","","","","","","","","","","","","","","","","","","","","","","","","","","","",""
"676","<p style=""color:rgb(150, 250, 100); font-size: 35px;"">他人</p>","i","categorize-html","161","246017","0.0-6.0-1.0-8.0-1.26","3","4","4","4","4","3","4","1","4","4","4","5","4","5","5","4","5","5","5","5","2","1","2","1","5","1","2","5","1","0","1","0","1","0","0","0","1","0","0","0","0","1","0","0","5","4","5","1","2","1","4","5","4","2","2","634477074911854592","李","308","","","","","","","","","","","","","","","","","","","true","14","4","moral","676","other","他人","","","","","","","","","","","","","","","","",""
"null","","null","html-keyboard-response","162","246268","0.0-6.0-1.0-8.0-0.27","3","4","4","4","4","3","4","1","4","4","4","5","4","5","5","4","5","5","5","5","2","1","2","1","5","1","2","5","1","0","1","0","1","0","0","0","1","0","0","0","0","1","0","0","5","4","5","1","2","1","4","5","4","2","2","634477074911854592","李","308","","","","","","","","","","","","","","","","","","","","","","","","","","","","","","","","","","","","","","","","","",""
"819","<p style=""color:white; font-size: 35px;"">缺德</p>","i","categorize-html","163","247087","0.0-6.0-1.0-8.0-1.27","3","4","4","4","4","3","4","1","4","4","4","5","4","5","5","4","5","5","5","5","2","1","2","1","5","1","2","5","1","0","1","0","1","0","0","0","1","0","0","0","0","1","0","0","5","4","5","1","2","1","4","5","4","2","2","634477074911854592","李","308","","","","","","","","","","","","","","","","","","","true","14","4","moral","819","negative","缺德","","","","","","","","","","","","","","","","",""
"null","","null","html-keyboard-response","164","247338","0.0-6.0-1.0-8.0-0.28","3","4","4","4","4","3","4","1","4","4","4","5","4","5","5","4","5","5","5","5","2","1","2","1","5","1","2","5","1","0","1","0","1","0","0","0","1","0","0","0","0","1","0","0","5","4","5","1","2","1","4","5","4","2","2","634477074911854592","李","308","","","","","","","","","","","","","","","","","","","","","","","","","","","","","","","","","","","","","","","","","",""
"629","<p style=""color:rgb(150, 250, 100); font-size: 35px;"">他的</p>","i","categorize-html","165","247972","0.0-6.0-1.0-8.0-1.28","3","4","4","4","4","3","4","1","4","4","4","5","4","5","5","4","5","5","5","5","2","1","2","1","5","1","2","5","1","0","1","0","1","0","0","0","1","0","0","0","0","1","0","0","5","4","5","1","2","1","4","5","4","2","2","634477074911854592","李","308","","","","","","","","","","","","","","","","","","","true","14","4","moral","629","other","他的","","","","","","","","","","","","","","","","",""
"null","","null","html-keyboard-response","166","248222","0.0-6.0-1.0-8.0-0.29","3","4","4","4","4","3","4","1","4","4","4","5","4","5","5","4","5","5","5","5","2","1","2","1","5","1","2","5","1","0","1","0","1","0","0","0","1","0","0","0","0","1","0","0","5","4","5","1","2","1","4","5","4","2","2","634477074911854592","李","308","","","","","","","","","","","","","","","","","","","","","","","","","","","","","","","","","","","","","","","","","",""
"558","<p style=""color:white; font-size: 35px;"">小人</p>","i","categorize-html","167","248782","0.0-6.0-1.0-8.0-1.29","3","4","4","4","4","3","4","1","4","4","4","5","4","5","5","4","5","5","5","5","2","1","2","1","5","1","2","5","1","0","1","0","1","0","0","0","1","0","0","0","0","1","0","0","5","4","5","1","2","1","4","5","4","2","2","634477074911854592","李","308","","","","","","","","","","","","","","","","","","","true","14","4","moral","558","negative","小人","","","","","","","","","","","","","","","","",""
"null","","null","html-keyboard-response","168","249032","0.0-6.0-1.0-8.0-0.30","3","4","4","4","4","3","4","1","4","4","4","5","4","5","5","4","5","5","5","5","2","1","2","1","5","1","2","5","1","0","1","0","1","0","0","0","1","0","0","0","0","1","0","0","5","4","5","1","2","1","4","5","4","2","2","634477074911854592","李","308","","","","","","","","","","","","","","","","","","","","","","","","","","","","","","","","","","","","","","","","","",""
"962","<p style=""color:rgb(150, 250, 100); font-size: 35px;"">本人</p>","e","categorize-html","169","249996","0.0-6.0-1.0-8.0-1.30","3","4","4","4","4","3","4","1","4","4","4","5","4","5","5","4","5","5","5","5","2","1","2","1","5","1","2","5","1","0","1","0","1","0","0","0","1","0","0","0","0","1","0","0","5","4","5","1","2","1","4","5","4","2","2","634477074911854592","李","308","","","","","","","","","","","","","","","","","","","true","14","4","moral","962","self","本人","","","","","","","","","","","","","","","","",""
"null","","null","html-keyboard-response","170","250246","0.0-6.0-1.0-8.0-0.31","3","4","4","4","4","3","4","1","4","4","4","5","4","5","5","4","5","5","5","5","2","1","2","1","5","1","2","5","1","0","1","0","1","0","0","0","1","0","0","0","0","1","0","0","5","4","5","1","2","1","4","5","4","2","2","634477074911854592","李","308","","","","","","","","","","","","","","","","","","","","","","","","","","","","","","","","","","","","","","","","","",""
"724","<p style=""color:white; font-size: 35px;"">诚信</p>","e","categorize-html","171","250971","0.0-6.0-1.0-8.0-1.31","3","4","4","4","4","3","4","1","4","4","4","5","4","5","5","4","5","5","5","5","2","1","2","1","5","1","2","5","1","0","1","0","1","0","0","0","1","0","0","0","0","1","0","0","5","4","5","1","2","1","4","5","4","2","2","634477074911854592","李","308","","","","","","","","","","","","","","","","","","","true","14","4","moral","724","positive","诚信","","","","","","","","","","","","","","","","",""
"null","","null","html-keyboard-response","172","251222","0.0-6.0-1.0-8.0-0.32","3","4","4","4","4","3","4","1","4","4","4","5","4","5","5","4","5","5","5","5","2","1","2","1","5","1","2","5","1","0","1","0","1","0","0","0","1","0","0","0","0","1","0","0","5","4","5","1","2","1","4","5","4","2","2","634477074911854592","李","308","","","","","","","","","","","","","","","","","","","","","","","","","","","","","","","","","","","","","","","","","",""
"612","<p style=""color:rgb(150, 250, 100); font-size: 35px;"">他的</p>","i","categorize-html","173","251835","0.0-6.0-1.0-8.0-1.32","3","4","4","4","4","3","4","1","4","4","4","5","4","5","5","4","5","5","5","5","2","1","2","1","5","1","2","5","1","0","1","0","1","0","0","0","1","0","0","0","0","1","0","0","5","4","5","1","2","1","4","5","4","2","2","634477074911854592","李","308","","","","","","","","","","","","","","","","","","","true","14","4","moral","612","other","他的","","","","","","","","","","","","","","","","",""
"null","","null","html-keyboard-response","174","252086","0.0-6.0-1.0-8.0-0.33","3","4","4","4","4","3","4","1","4","4","4","5","4","5","5","4","5","5","5","5","2","1","2","1","5","1","2","5","1","0","1","0","1","0","0","0","1","0","0","0","0","1","0","0","5","4","5","1","2","1","4","5","4","2","2","634477074911854592","李","308","","","","","","","","","","","","","","","","","","","","","","","","","","","","","","","","","","","","","","","","","",""
"765","<p style=""color:white; font-size: 35px;"">君子</p>","e","categorize-html","175","252853","0.0-6.0-1.0-8.0-1.33","3","4","4","4","4","3","4","1","4","4","4","5","4","5","5","4","5","5","5","5","2","1","2","1","5","1","2","5","1","0","1","0","1","0","0","0","1","0","0","0","0","1","0","0","5","4","5","1","2","1","4","5","4","2","2","634477074911854592","李","308","","","","","","","","","","","","","","","","","","","true","14","4","moral","765","positive","君子","","","","","","","","","","","","","","","","",""
"null","","null","html-keyboard-response","176","253103","0.0-6.0-1.0-8.0-0.34","3","4","4","4","4","3","4","1","4","4","4","5","4","5","5","4","5","5","5","5","2","1","2","1","5","1","2","5","1","0","1","0","1","0","0","0","1","0","0","0","0","1","0","0","5","4","5","1","2","1","4","5","4","2","2","634477074911854592","李","308","","","","","","","","","","","","","","","","","","","","","","","","","","","","","","","","","","","","","","","","","",""
"715","<p style=""color:rgb(150, 250, 100); font-size: 35px;"">自己</p>","e","categorize-html","177","253819","0.0-6.0-1.0-8.0-1.34","3","4","4","4","4","3","4","1","4","4","4","5","4","5","5","4","5","5","5","5","2","1","2","1","5","1","2","5","1","0","1","0","1","0","0","0","1","0","0","0","0","1","0","0","5","4","5","1","2","1","4","5","4","2","2","634477074911854592","李","308","","","","","","","","","","","","","","","","","","","true","14","4","moral","715","self","自己","","","","","","","","","","","","","","","","",""
"null","","null","html-keyboard-response","178","254070","0.0-6.0-1.0-8.0-0.35","3","4","4","4","4","3","4","1","4","4","4","5","4","5","5","4","5","5","5","5","2","1","2","1","5","1","2","5","1","0","1","0","1","0","0","0","1","0","0","0","0","1","0","0","5","4","5","1","2","1","4","5","4","2","2","634477074911854592","李","308","","","","","","","","","","","","","","","","","","","","","","","","","","","","","","","","","","","","","","","","","",""
"596","<p style=""color:white; font-size: 35px;"">不孝</p>","i","categorize-html","179","254667","0.0-6.0-1.0-8.0-1.35","3","4","4","4","4","3","4","1","4","4","4","5","4","5","5","4","5","5","5","5","2","1","2","1","5","1","2","5","1","0","1","0","1","0","0","0","1","0","0","0","0","1","0","0","5","4","5","1","2","1","4","5","4","2","2","634477074911854592","李","308","","","","","","","","","","","","","","","","","","","true","14","4","moral","596","negative","不孝","","","","","","","","","","","","","","","","",""
"null","","null","html-keyboard-response","180","254917","0.0-6.0-1.0-8.0-0.36","3","4","4","4","4","3","4","1","4","4","4","5","4","5","5","4","5","5","5","5","2","1","2","1","5","1","2","5","1","0","1","0","1","0","0","0","1","0","0","0","0","1","0","0","5","4","5","1","2","1","4","5","4","2","2","634477074911854592","李","308","","","","","","","","","","","","","","","","","","","","","","","","","","","","","","","","","","","","","","","","","",""
"541","<p style=""color:rgb(150, 250, 100); font-size: 35px;"">我</p>","e","categorize-html","181","255459","0.0-6.0-1.0-8.0-1.36","3","4","4","4","4","3","4","1","4","4","4","5","4","5","5","4","5","5","5","5","2","1","2","1","5","1","2","5","1","0","1","0","1","0","0","0","1","0","0","0","0","1","0","0","5","4","5","1","2","1","4","5","4","2","2","634477074911854592","李","308","","","","","","","","","","","","","","","","","","","true","14","4","moral","541","self","我","","","","","","","","","","","","","","","","",""
"null","","null","html-keyboard-response","182","255710","0.0-6.0-1.0-8.0-0.37","3","4","4","4","4","3","4","1","4","4","4","5","4","5","5","4","5","5","5","5","2","1","2","1","5","1","2","5","1","0","1","0","1","0","0","0","1","0","0","0","0","1","0","0","5","4","5","1","2","1","4","5","4","2","2","634477074911854592","李","308","","","","","","","","","","","","","","","","","","","","","","","","","","","","","","","","","","","","","","","","","",""
"1301","<p style=""color:white; font-size: 35px;"">君子</p>","e","categorize-html","183","257011","0.0-6.0-1.0-8.0-1.37","3","4","4","4","4","3","4","1","4","4","4","5","4","5","5","4","5","5","5","5","2","1","2","1","5","1","2","5","1","0","1","0","1","0","0","0","1","0","0","0","0","1","0","0","5","4","5","1","2","1","4","5","4","2","2","634477074911854592","李","308","","","","","","","","","","","","","","","","","","","true","14","4","moral","1301","positive","君子","","","","","","","","","","","","","","","","",""
"null","","null","html-keyboard-response","184","257262","0.0-6.0-1.0-8.0-0.38","3","4","4","4","4","3","4","1","4","4","4","5","4","5","5","4","5","5","5","5","2","1","2","1","5","1","2","5","1","0","1","0","1","0","0","0","1","0","0","0","0","1","0","0","5","4","5","1","2","1","4","5","4","2","2","634477074911854592","李","308","","","","","","","","","","","","","","","","","","","","","","","","","","","","","","","","","","","","","","","","","",""
"566","<p style=""color:rgb(150, 250, 100); font-size: 35px;"">别人</p>","i","categorize-html","185","257829","0.0-6.0-1.0-8.0-1.38","3","4","4","4","4","3","4","1","4","4","4","5","4","5","5","4","5","5","5","5","2","1","2","1","5","1","2","5","1","0","1","0","1","0","0","0","1","0","0","0","0","1","0","0","5","4","5","1","2","1","4","5","4","2","2","634477074911854592","李","308","","","","","","","","","","","","","","","","","","","true","14","4","moral","566","other","别人","","","","","","","","","","","","","","","","",""
"null","","null","html-keyboard-response","186","258080","0.0-6.0-1.0-8.0-0.39","3","4","4","4","4","3","4","1","4","4","4","5","4","5","5","4","5","5","5","5","2","1","2","1","5","1","2","5","1","0","1","0","1","0","0","0","1","0","0","0","0","1","0","0","5","4","5","1","2","1","4","5","4","2","2","634477074911854592","李","308","","","","","","","","","","","","","","","","","","","","","","","","","","","","","","","","","","","","","","","","","",""
"1522","<p style=""color:white; font-size: 35px;"">缺德</p>","i","categorize-html","187","259603","0.0-6.0-1.0-8.0-1.39","3","4","4","4","4","3","4","1","4","4","4","5","4","5","5","4","5","5","5","5","2","1","2","1","5","1","2","5","1","0","1","0","1","0","0","0","1","0","0","0","0","1","0","0","5","4","5","1","2","1","4","5","4","2","2","634477074911854592","李","308","","","","","","","","","","","","","","","","","","","true","14","4","moral","1522","negative","缺德","","","","","","","","","","","","","","","","",""
"null","","null","html-keyboard-response","188","259854","0.0-6.0-1.0-8.0-0.40","3","4","4","4","4","3","4","1","4","4","4","5","4","5","5","4","5","5","5","5","2","1","2","1","5","1","2","5","1","0","1","0","1","0","0","0","1","0","0","0","0","1","0","0","5","4","5","1","2","1","4","5","4","2","2","634477074911854592","李","308","","","","","","","","","","","","","","","","","","","","","","","","","","","","","","","","","","","","","","","","","",""
"628","<p style=""color:rgb(150, 250, 100); font-size: 35px;"">别人的</p>","i","categorize-html","189","260483","0.0-6.0-1.0-8.0-1.40","3","4","4","4","4","3","4","1","4","4","4","5","4","5","5","4","5","5","5","5","2","1","2","1","5","1","2","5","1","0","1","0","1","0","0","0","1","0","0","0","0","1","0","0","5","4","5","1","2","1","4","5","4","2","2","634477074911854592","李","308","","","","","","","","","","","","","","","","","","","true","14","4","moral","628","other","别人的","","","","","","","","","","","","","","","","",""
"null","","null","html-keyboard-response","190","260733","0.0-6.0-1.0-8.0-0.41","3","4","4","4","4","3","4","1","4","4","4","5","4","5","5","4","5","5","5","5","2","1","2","1","5","1","2","5","1","0","1","0","1","0","0","0","1","0","0","0","0","1","0","0","5","4","5","1","2","1","4","5","4","2","2","634477074911854592","李","308","","","","","","","","","","","","","","","","","","","","","","","","","","","","","","","","","","","","","","","","","",""
"1812","<p style=""color:white; font-size: 35px;"">正直</p>","e","categorize-html","191","262546","0.0-6.0-1.0-8.0-1.41","3","4","4","4","4","3","4","1","4","4","4","5","4","5","5","4","5","5","5","5","2","1","2","1","5","1","2","5","1","0","1","0","1","0","0","0","1","0","0","0","0","1","0","0","5","4","5","1","2","1","4","5","4","2","2","634477074911854592","李","308","","","","","","","","","","","","","","","","","","","true","14","4","moral","1812","positive","正直","","","","","","","","","","","","","","","","",""
"null","","null","html-keyboard-response","192","262798","0.0-6.0-1.0-8.0-0.42","3","4","4","4","4","3","4","1","4","4","4","5","4","5","5","4","5","5","5","5","2","1","2","1","5","1","2","5","1","0","1","0","1","0","0","0","1","0","0","0","0","1","0","0","5","4","5","1","2","1","4","5","4","2","2","634477074911854592","李","308","","","","","","","","","","","","","","","","","","","","","","","","","","","","","","","","","","","","","","","","","",""
