"rt","stimulus","response","trial_type","trial_index","time_elapsed","internal_node_id","ses_1","ses_2","ses_3","ses_4","ses_5","ses_6","ses_7","ses_8","ses_9","ses_10","coreself_1","coreself_2","coreself_3","coreself_4","coreself_5","coreself_6","coreself_7","coreself_8","coreself_9","coreself_10","SGPS_1","SGPS_2","SGPS_3","SGPS_4","SGPS_5","SGPS_6","SGPS_7","SGPS_8","SGPS_9","NPI1","NPI2","NPI3","NPI4","NPI5","NPI6","NPI7","NPI8","NPI9","NPI10","NPI11","NPI12","NPI13","NPI14","NPI15","hsns_1","hsns_2","hsns_3","hsns_4","hsns_5","trap1","hsns_6","hsns_7","hsns_8","hsns_9","hsns_10","subj_idx","friend_name","ParticipantID","value","success","user_agent","responses","item_order","radio_event_ids","radio_event_times","key_event_times","mouse_event_times","straightlining","zigzagging","honeypot","timeout","failed_images","failed_audio","failed_video","version_attrib","version_target","correct","IAT","screen_id","task_id","RT","condition","word","varname","summary","version_attrib2","version_target2","time_stamp","view_history","response_type","key_press","avg_frame_time","center_x","center_y","correct_response","identity","Image","question_order","correct_answer","trap1_item"
"49753","
   <p><div style = ""color: white;font-size:25px;"">您好，欢迎参加本次实验。</div> </p>
   <p><div style = ""color: white;font-size:25px;"">为充分保障您的权利，请确保您已经知晓并同意《参与实验同意书》以及《数据公开知情同意书》。</div></p>
   <p><div style = ""color: white;font-size:25px;"">如果您未见过上述内容，请咨询实验员。</div></p>
   <p><div style = ""color: white;font-size:25px;"">如果您选择继续实验，则表示您已经清楚两份知情同意书的内容并同意。</div></p>
   <p><div style = ""color: pink;font-size:30px;"">请确保您记得day0的实验编号，您将在本次实验输入该编号，若您忘记，请咨询实验员后作答。</div></p>
   <p><div style = ""color: lightblue;font-size:25px;"">请您尽可能认真地作答，我们将依据您在各问卷和按键任务中的作答质量发放报酬。</div></p>
   <p> <div style = ""color: green;font-size:25px;""><按空格键至下页></div> </p>
   "," ","html-keyboard-response","0","49764","0.0-0.0","2","3","3","3","2","3","3","3","3","3","3","3","3","4","2","3","4","3","4","4","1","3","3","2","2","2","2","2","1","1","0","1","1","0","0","0","1","0","1","1","0","1","0","1","5","4","4","3","4","1","2","4","4","3","3","794290486587301890","王","649","","","","","","","","","","","","","","","","","","","","","","","","","","","","","","","","","","","","","","","","","",""
"","","","call-function","1","49770","0.0-1.0-0.0","2","3","3","3","2","3","3","3","3","3","3","3","3","4","2","3","4","3","4","4","1","3","3","2","2","2","2","2","1","1","0","1","1","0","0","0","1","0","1","1","0","1","0","1","5","4","4","3","4","1","2","4","4","3","3","794290486587301890","王","649","","","","","","","","","","","","","","","","","","","","","","","","","","","","","","","","","","","","","","","","","",""
"35604","","{""friend_name"":""王"",""ParticipantID"":""649""}","survey-html-form","2","85375","0.0-1.0-1.0","2","3","3","3","2","3","3","3","3","3","3","3","3","4","2","3","4","3","4","4","1","3","3","2","2","2","2","2","1","1","0","1","1","0","0","0","1","0","1","1","0","1","0","1","5","4","4","3","4","1","2","4","4","3","3","794290486587301890","王","649","","","","","","","","","","","","","","","","","","","","","","","","","","","","","","","","","","","","","","","","","",""
"","","","fullscreen","3","91893","0.0-2.0","2","3","3","3","2","3","3","3","3","3","3","3","3","4","2","3","4","3","4","4","1","3","3","2","2","2","2","2","1","1","0","1","1","0","0","0","1","0","1","1","0","1","0","1","5","4","4","3","4","1","2","4","4","3","3","794290486587301890","王","649","","true","{}","","","","","","","","","","","","","","","","","","","","","","","","","","","","","","","","","","","","","","",""
"35282.5","","{""Q01"":""2"",""Q02"":""3"",""Q03"":""3"",""Q04"":""3"",""Q05"":""2"",""Q06"":""3"",""Q07"":""3"",""Q08"":""3"",""Q09"":""3"",""Q10"":""3""}","survey-template","4","127184","0.0-3.0","2","3","3","3","2","3","3","3","3","3","3","3","3","4","2","3","4","3","4","4","1","3","3","2","2","2","2","2","1","1","0","1","1","0","0","0","1","0","1","1","0","1","0","1","5","4","4","3","4","1","2","4","4","3","3","794290486587301890","王","649","","","","{""Q01"":""2"",""Q02"":""3"",""Q03"":""3"",""Q04"":""3"",""Q05"":""2"",""Q06"":""3"",""Q07"":""3"",""Q08"":""3"",""Q09"":""3"",""Q10"":""3""}","[0,1,2,3,4,5,6,7,8,9]","[""Q01"",""Q02"",""Q03"",""Q04"",""Q05"",""Q06"",""Q07"",""Q08"",""Q07"",""Q09"",""Q10""]","[4267.200000017881,9521.5,12307.40000000596,13921.200000017881,15754.600000023842,17963.90000000596,20569.100000023842,23122.100000023842,27889.40000000596,30178.5,31107.30000001192]","[]","[4267.200000017881,9521.5,12307.40000000596,13921.200000017881,15754.600000023842,17963.90000000596,20569.100000023842,23122.100000023842,27889.40000000596,30178.5,31107.30000001192,35281]","0.5","0.4444444444444444","0","","","","","","","","","","","","","","","","","","","","","","","","","","","","","",""
"52033.09999999404","","{""Q01"":""3"",""Q02"":""3"",""Q03"":""3"",""Q04"":""4"",""Q05"":""2"",""Q06"":""3"",""Q07"":""4"",""Q08"":""3"",""Q09"":""4"",""Q10"":""4""}","survey-template","5","179224","0.0-4.0","2","3","3","3","2","3","3","3","3","3","3","3","3","4","2","3","4","3","4","4","1","3","3","2","2","2","2","2","1","1","0","1","1","0","0","0","1","0","1","1","0","1","0","1","5","4","4","3","4","1","2","4","4","3","3","794290486587301890","王","649","","","","{""Q01"":""3"",""Q02"":""3"",""Q03"":""3"",""Q04"":""4"",""Q05"":""2"",""Q06"":""3"",""Q07"":""4"",""Q08"":""3"",""Q09"":""4"",""Q10"":""4""}","[0,1,2,3,4,5,6,7,8,9]","[""Q01"",""Q03"",""Q02"",""Q04"",""Q05"",""Q06"",""Q07"",""Q08"",""Q09"",""Q10""]","[3888.4000000059605,19993.09999999404,24418.79999998212,28576.19999998808,29728,32313.29999998212,36048,41744.59999999404,43865.69999998808,50576.19999998808]","[]","[3888.4000000059605,19993.09999999404,24418.79999998212,28576.19999998808,29728,32313.29999998212,36048,41744.59999999404,43865.69999998808,50576.19999998808,52031.90000000596]","0.5","0.5555555555555556","0","","","","","","","","","","","","","","","","","","","","","","","","","","","","","",""
"","","","preload","6","179580","0.0-5.0","2","3","3","3","2","3","3","3","3","3","3","3","3","4","2","3","4","3","4","4","1","3","3","2","2","2","2","2","1","1","0","1","1","0","0","0","1","0","1","1","0","1","0","1","5","4","4","3","4","1","2","4","4","3","3","794290486587301890","王","649","","true","","","","","","","","","","","false","[]","[]","[]","","","","","","","","","","","","","","","","","","","","","","","","","",""
"10683","
    <h3>词语分类任务</h3>
    <p>在接下来的任务中，你需要对一系列词语进行分类。</p>
    <p>请先熟悉这些词语，这有利于你完成接下来的任务。</p>
    <table align=""center"" border=1 cellpadding=3 cellspacing=0>
    <tr> <th>类别</th> <th>词语</th> </tr>
    <tr> <td>&emsp;积极&emsp;</td> <td>&emsp;能干、全能、全才、高效、精干、天才&emsp;</td> </tr>
    <tr> <td>&emsp;消极&emsp;</td> <td>&emsp;无能、低能、废物、拙笨、愚钝、蠢笨&emsp;</td> </tr>
    <tr> <td>&emsp;自我&emsp;</td> <td>&emsp;我、我的、自己、自己的、本人、本人的&emsp;</td> </tr>
    <tr> <td>&emsp;他人&emsp;</td> <td>&emsp;他、他的、别人、别人的、他人、他人的&emsp;</td> </tr>
    </table><br/>","0","html-button-response","7","190264","0.0-6.0-0.0-0.0","2","3","3","3","2","3","3","3","3","3","3","3","3","4","2","3","4","3","4","4","1","3","3","2","2","2","2","2","1","1","0","1","1","0","0","0","1","0","1","1","0","1","0","1","5","4","4","3","4","1","2","4","4","3","3","794290486587301890","王","649","","","","","","","","","","","","","","","","","2","1","","","","","","","","","","","","","","","","","","","","","","","",""
"14622","
    <div class=""tag-bottom"">
    <p> —— 任务1：对“自我”词和“他人”词分类 ——<p/>
    不同词语会出现在屏幕中央，类别标签将始终显示在屏幕上方<p/>   
    <span style=""color:#FFD866""><b>请根据上方标签的提示，尽可能正确并且快速地做出按键反应</b></span><p/>
    当按键错误时屏幕中会出现<span style=""color:red""> X </span>，需要按另一个键纠正才能继续<br/><p/>
    请把双手食指分别放在键盘的“E”键和“I”键上<p/>
    按<空格键>开始
    </p></div>"," ","html-keyboard-response","8","204888","0.0-6.0-0.0-1.0","2","3","3","3","2","3","3","3","3","3","3","3","3","4","2","3","4","3","4","4","1","3","3","2","2","2","2","2","1","1","0","1","1","0","0","0","1","0","1","1","0","1","0","1","5","4","4","3","4","1","2","4","4","3","3","794290486587301890","王","649","","","","","","","","","","","","","","","","","","","","","","","","","","","","","","","","","","","","","","","","","",""
"null","","null","html-keyboard-response","9","205141","0.0-6.0-0.0-2.0-0.0","2","3","3","3","2","3","3","3","3","3","3","3","3","4","2","3","4","3","4","4","1","3","3","2","2","2","2","2","1","1","0","1","1","0","0","0","1","0","1","1","0","1","0","1","5","4","4","3","4","1","2","4","4","3","3","794290486587301890","王","649","","","","","","","","","","","","","","","","","","","","","","","","","","","","","","","","","","","","","","","","","",""
"1304","<p style=""color:rgb(150, 250, 100); font-size: 35px;"">他人</p>","i","categorize-html","10","206448","0.0-6.0-0.0-2.0-1.0","2","3","3","3","2","3","3","3","3","3","3","3","3","4","2","3","4","3","4","4","1","3","3","2","2","2","2","2","1","1","0","1","1","0","0","0","1","0","1","1","0","1","0","1","5","4","4","3","4","1","2","4","4","3","3","794290486587301890","王","649","","","","","","","","","","","","","","","","","","","true","1","1","ability","1304","other","他人","","","","","","","","","","","","","","","","",""
"null","","null","html-keyboard-response","11","206699","0.0-6.0-0.0-2.0-0.1","2","3","3","3","2","3","3","3","3","3","3","3","3","4","2","3","4","3","4","4","1","3","3","2","2","2","2","2","1","1","0","1","1","0","0","0","1","0","1","1","0","1","0","1","5","4","4","3","4","1","2","4","4","3","3","794290486587301890","王","649","","","","","","","","","","","","","","","","","","","","","","","","","","","","","","","","","","","","","","","","","",""
"1180","<p style=""color:rgb(150, 250, 100); font-size: 35px;"">别人</p>","i","categorize-html","12","207881","0.0-6.0-0.0-2.0-1.1","2","3","3","3","2","3","3","3","3","3","3","3","3","4","2","3","4","3","4","4","1","3","3","2","2","2","2","2","1","1","0","1","1","0","0","0","1","0","1","1","0","1","0","1","5","4","4","3","4","1","2","4","4","3","3","794290486587301890","王","649","","","","","","","","","","","","","","","","","","","true","1","1","ability","1180","other","别人","","","","","","","","","","","","","","","","",""
"null","","null","html-keyboard-response","13","208133","0.0-6.0-0.0-2.0-0.2","2","3","3","3","2","3","3","3","3","3","3","3","3","4","2","3","4","3","4","4","1","3","3","2","2","2","2","2","1","1","0","1","1","0","0","0","1","0","1","1","0","1","0","1","5","4","4","3","4","1","2","4","4","3","3","794290486587301890","王","649","","","","","","","","","","","","","","","","","","","","","","","","","","","","","","","","","","","","","","","","","",""
"670","<p style=""color:rgb(150, 250, 100); font-size: 35px;"">他人的</p>","i","categorize-html","14","208808","0.0-6.0-0.0-2.0-1.2","2","3","3","3","2","3","3","3","3","3","3","3","3","4","2","3","4","3","4","4","1","3","3","2","2","2","2","2","1","1","0","1","1","0","0","0","1","0","1","1","0","1","0","1","5","4","4","3","4","1","2","4","4","3","3","794290486587301890","王","649","","","","","","","","","","","","","","","","","","","true","1","1","ability","670","other","他人的","","","","","","","","","","","","","","","","",""
"null","","null","html-keyboard-response","15","209060","0.0-6.0-0.0-2.0-0.3","2","3","3","3","2","3","3","3","3","3","3","3","3","4","2","3","4","3","4","4","1","3","3","2","2","2","2","2","1","1","0","1","1","0","0","0","1","0","1","1","0","1","0","1","5","4","4","3","4","1","2","4","4","3","3","794290486587301890","王","649","","","","","","","","","","","","","","","","","","","","","","","","","","","","","","","","","","","","","","","","","",""
"614","<p style=""color:rgb(150, 250, 100); font-size: 35px;"">别人的</p>","i","categorize-html","16","209676","0.0-6.0-0.0-2.0-1.3","2","3","3","3","2","3","3","3","3","3","3","3","3","4","2","3","4","3","4","4","1","3","3","2","2","2","2","2","1","1","0","1","1","0","0","0","1","0","1","1","0","1","0","1","5","4","4","3","4","1","2","4","4","3","3","794290486587301890","王","649","","","","","","","","","","","","","","","","","","","true","1","1","ability","614","other","别人的","","","","","","","","","","","","","","","","",""
"null","","null","html-keyboard-response","17","209927","0.0-6.0-0.0-2.0-0.4","2","3","3","3","2","3","3","3","3","3","3","3","3","4","2","3","4","3","4","4","1","3","3","2","2","2","2","2","1","1","0","1","1","0","0","0","1","0","1","1","0","1","0","1","5","4","4","3","4","1","2","4","4","3","3","794290486587301890","王","649","","","","","","","","","","","","","","","","","","","","","","","","","","","","","","","","","","","","","","","","","",""
"689","<p style=""color:rgb(150, 250, 100); font-size: 35px;"">本人的</p>","e","categorize-html","18","210618","0.0-6.0-0.0-2.0-1.4","2","3","3","3","2","3","3","3","3","3","3","3","3","4","2","3","4","3","4","4","1","3","3","2","2","2","2","2","1","1","0","1","1","0","0","0","1","0","1","1","0","1","0","1","5","4","4","3","4","1","2","4","4","3","3","794290486587301890","王","649","","","","","","","","","","","","","","","","","","","true","1","1","ability","689","self","本人的","","","","","","","","","","","","","","","","",""
"null","","null","html-keyboard-response","19","210869","0.0-6.0-0.0-2.0-0.5","2","3","3","3","2","3","3","3","3","3","3","3","3","4","2","3","4","3","4","4","1","3","3","2","2","2","2","2","1","1","0","1","1","0","0","0","1","0","1","1","0","1","0","1","5","4","4","3","4","1","2","4","4","3","3","794290486587301890","王","649","","","","","","","","","","","","","","","","","","","","","","","","","","","","","","","","","","","","","","","","","",""
"535","<p style=""color:rgb(150, 250, 100); font-size: 35px;"">本人</p>","e","categorize-html","20","211409","0.0-6.0-0.0-2.0-1.5","2","3","3","3","2","3","3","3","3","3","3","3","3","4","2","3","4","3","4","4","1","3","3","2","2","2","2","2","1","1","0","1","1","0","0","0","1","0","1","1","0","1","0","1","5","4","4","3","4","1","2","4","4","3","3","794290486587301890","王","649","","","","","","","","","","","","","","","","","","","true","1","1","ability","535","self","本人","","","","","","","","","","","","","","","","",""
"null","","null","html-keyboard-response","21","211661","0.0-6.0-0.0-2.0-0.6","2","3","3","3","2","3","3","3","3","3","3","3","3","4","2","3","4","3","4","4","1","3","3","2","2","2","2","2","1","1","0","1","1","0","0","0","1","0","1","1","0","1","0","1","5","4","4","3","4","1","2","4","4","3","3","794290486587301890","王","649","","","","","","","","","","","","","","","","","","","","","","","","","","","","","","","","","","","","","","","","","",""
"524","<p style=""color:rgb(150, 250, 100); font-size: 35px;"">自己</p>","e","categorize-html","22","212188","0.0-6.0-0.0-2.0-1.6","2","3","3","3","2","3","3","3","3","3","3","3","3","4","2","3","4","3","4","4","1","3","3","2","2","2","2","2","1","1","0","1","1","0","0","0","1","0","1","1","0","1","0","1","5","4","4","3","4","1","2","4","4","3","3","794290486587301890","王","649","","","","","","","","","","","","","","","","","","","true","1","1","ability","524","self","自己","","","","","","","","","","","","","","","","",""
"null","","null","html-keyboard-response","23","212440","0.0-6.0-0.0-2.0-0.7","2","3","3","3","2","3","3","3","3","3","3","3","3","4","2","3","4","3","4","4","1","3","3","2","2","2","2","2","1","1","0","1","1","0","0","0","1","0","1","1","0","1","0","1","5","4","4","3","4","1","2","4","4","3","3","794290486587301890","王","649","","","","","","","","","","","","","","","","","","","","","","","","","","","","","","","","","","","","","","","","","",""
"464","<p style=""color:rgb(150, 250, 100); font-size: 35px;"">自己的</p>","e","categorize-html","24","212909","0.0-6.0-0.0-2.0-1.7","2","3","3","3","2","3","3","3","3","3","3","3","3","4","2","3","4","3","4","4","1","3","3","2","2","2","2","2","1","1","0","1","1","0","0","0","1","0","1","1","0","1","0","1","5","4","4","3","4","1","2","4","4","3","3","794290486587301890","王","649","","","","","","","","","","","","","","","","","","","true","1","1","ability","464","self","自己的","","","","","","","","","","","","","","","","",""
"null","","null","html-keyboard-response","25","213162","0.0-6.0-0.0-2.0-0.8","2","3","3","3","2","3","3","3","3","3","3","3","3","4","2","3","4","3","4","4","1","3","3","2","2","2","2","2","1","1","0","1","1","0","0","0","1","0","1","1","0","1","0","1","5","4","4","3","4","1","2","4","4","3","3","794290486587301890","王","649","","","","","","","","","","","","","","","","","","","","","","","","","","","","","","","","","","","","","","","","","",""
"552","<p style=""color:rgb(150, 250, 100); font-size: 35px;"">我</p>","e","categorize-html","26","213717","0.0-6.0-0.0-2.0-1.8","2","3","3","3","2","3","3","3","3","3","3","3","3","4","2","3","4","3","4","4","1","3","3","2","2","2","2","2","1","1","0","1","1","0","0","0","1","0","1","1","0","1","0","1","5","4","4","3","4","1","2","4","4","3","3","794290486587301890","王","649","","","","","","","","","","","","","","","","","","","true","1","1","ability","552","self","我","","","","","","","","","","","","","","","","",""
"null","","null","html-keyboard-response","27","213968","0.0-6.0-0.0-2.0-0.9","2","3","3","3","2","3","3","3","3","3","3","3","3","4","2","3","4","3","4","4","1","3","3","2","2","2","2","2","1","1","0","1","1","0","0","0","1","0","1","1","0","1","0","1","5","4","4","3","4","1","2","4","4","3","3","794290486587301890","王","649","","","","","","","","","","","","","","","","","","","","","","","","","","","","","","","","","","","","","","","","","",""
"684","<p style=""color:rgb(150, 250, 100); font-size: 35px;"">他的</p>","i","categorize-html","28","214657","0.0-6.0-0.0-2.0-1.9","2","3","3","3","2","3","3","3","3","3","3","3","3","4","2","3","4","3","4","4","1","3","3","2","2","2","2","2","1","1","0","1","1","0","0","0","1","0","1","1","0","1","0","1","5","4","4","3","4","1","2","4","4","3","3","794290486587301890","王","649","","","","","","","","","","","","","","","","","","","true","1","1","ability","684","other","他的","","","","","","","","","","","","","","","","",""
"null","","null","html-keyboard-response","29","214914","0.0-6.0-0.0-2.0-0.10","2","3","3","3","2","3","3","3","3","3","3","3","3","4","2","3","4","3","4","4","1","3","3","2","2","2","2","2","1","1","0","1","1","0","0","0","1","0","1","1","0","1","0","1","5","4","4","3","4","1","2","4","4","3","3","794290486587301890","王","649","","","","","","","","","","","","","","","","","","","","","","","","","","","","","","","","","","","","","","","","","",""
"568","<p style=""color:rgb(150, 250, 100); font-size: 35px;"">我的</p>","e","categorize-html","30","215484","0.0-6.0-0.0-2.0-1.10","2","3","3","3","2","3","3","3","3","3","3","3","3","4","2","3","4","3","4","4","1","3","3","2","2","2","2","2","1","1","0","1","1","0","0","0","1","0","1","1","0","1","0","1","5","4","4","3","4","1","2","4","4","3","3","794290486587301890","王","649","","","","","","","","","","","","","","","","","","","true","1","1","ability","568","self","我的","","","","","","","","","","","","","","","","",""
"null","","null","html-keyboard-response","31","215735","0.0-6.0-0.0-2.0-0.11","2","3","3","3","2","3","3","3","3","3","3","3","3","4","2","3","4","3","4","4","1","3","3","2","2","2","2","2","1","1","0","1","1","0","0","0","1","0","1","1","0","1","0","1","5","4","4","3","4","1","2","4","4","3","3","794290486587301890","王","649","","","","","","","","","","","","","","","","","","","","","","","","","","","","","","","","","","","","","","","","","",""
"1268","<p style=""color:rgb(150, 250, 100); font-size: 35px;"">他</p>","i","categorize-html","32","217009","0.0-6.0-0.0-2.0-1.11","2","3","3","3","2","3","3","3","3","3","3","3","3","4","2","3","4","3","4","4","1","3","3","2","2","2","2","2","1","1","0","1","1","0","0","0","1","0","1","1","0","1","0","1","5","4","4","3","4","1","2","4","4","3","3","794290486587301890","王","649","","","","","","","","","","","","","","","","","","","true","1","1","ability","1268","other","他","","","","","","","","","","","","","","","","",""
"12998","
    <div class=""tag-bottom""><p>
    —— 任务2：对“消极”词和“积极”词分类 ——<p/>   
    <span style=""color:#78DCE8""><b>注意上方，类别标签和需要分类的词语都已经改变</b></span><p/>
    <span style=""color:#FFD866""><b>请根据上方标签的提示，尽可能正确并且快速地做出按键反应</b></span><p/>
    当按键错误时屏幕中会出现<span style=""color:red""> X </span>，需要按另一个键纠正才能继续<br/><p/>
    请把双手食指分别放在键盘的“E”键和“I”键上<p/>
    按<空格键>开始
    </p></div>"," ","html-keyboard-response","33","230008","0.0-6.0-0.0-3.0","2","3","3","3","2","3","3","3","3","3","3","3","3","4","2","3","4","3","4","4","1","3","3","2","2","2","2","2","1","1","0","1","1","0","0","0","1","0","1","1","0","1","0","1","5","4","4","3","4","1","2","4","4","3","3","794290486587301890","王","649","","","","","","","","","","","","","","","","","","","","","","","","","","","","","","","","","","","","","","","","","",""
"null","","null","html-keyboard-response","34","230259","0.0-6.0-0.0-4.0-0.0","2","3","3","3","2","3","3","3","3","3","3","3","3","4","2","3","4","3","4","4","1","3","3","2","2","2","2","2","1","1","0","1","1","0","0","0","1","0","1","1","0","1","0","1","5","4","4","3","4","1","2","4","4","3","3","794290486587301890","王","649","","","","","","","","","","","","","","","","","","","","","","","","","","","","","","","","","","","","","","","","","",""
"1138","<p style=""color:white; font-size: 35px;"">废物</p>","e","categorize-html","35","231404","0.0-6.0-0.0-4.0-1.0","2","3","3","3","2","3","3","3","3","3","3","3","3","4","2","3","4","3","4","4","1","3","3","2","2","2","2","2","1","1","0","1","1","0","0","0","1","0","1","1","0","1","0","1","5","4","4","3","4","1","2","4","4","3","3","794290486587301890","王","649","","","","","","","","","","","","","","","","","","","true","2","2","ability","1138","negative","废物","","","","","","","","","","","","","","","","",""
"null","","null","html-keyboard-response","36","231655","0.0-6.0-0.0-4.0-0.1","2","3","3","3","2","3","3","3","3","3","3","3","3","4","2","3","4","3","4","4","1","3","3","2","2","2","2","2","1","1","0","1","1","0","0","0","1","0","1","1","0","1","0","1","5","4","4","3","4","1","2","4","4","3","3","794290486587301890","王","649","","","","","","","","","","","","","","","","","","","","","","","","","","","","","","","","","","","","","","","","","",""
"1195","<p style=""color:white; font-size: 35px;"">无能</p>","e","categorize-html","37","232852","0.0-6.0-0.0-4.0-1.1","2","3","3","3","2","3","3","3","3","3","3","3","3","4","2","3","4","3","4","4","1","3","3","2","2","2","2","2","1","1","0","1","1","0","0","0","1","0","1","1","0","1","0","1","5","4","4","3","4","1","2","4","4","3","3","794290486587301890","王","649","","","","","","","","","","","","","","","","","","","true","2","2","ability","1195","negative","无能","","","","","","","","","","","","","","","","",""
"null","","null","html-keyboard-response","38","233104","0.0-6.0-0.0-4.0-0.2","2","3","3","3","2","3","3","3","3","3","3","3","3","4","2","3","4","3","4","4","1","3","3","2","2","2","2","2","1","1","0","1","1","0","0","0","1","0","1","1","0","1","0","1","5","4","4","3","4","1","2","4","4","3","3","794290486587301890","王","649","","","","","","","","","","","","","","","","","","","","","","","","","","","","","","","","","","","","","","","","","",""
"1178","<p style=""color:white; font-size: 35px;"">天才</p>","i","categorize-html","39","234285","0.0-6.0-0.0-4.0-1.2","2","3","3","3","2","3","3","3","3","3","3","3","3","4","2","3","4","3","4","4","1","3","3","2","2","2","2","2","1","1","0","1","1","0","0","0","1","0","1","1","0","1","0","1","5","4","4","3","4","1","2","4","4","3","3","794290486587301890","王","649","","","","","","","","","","","","","","","","","","","true","2","2","ability","1178","positive","天才","","","","","","","","","","","","","","","","",""
"null","","null","html-keyboard-response","40","234536","0.0-6.0-0.0-4.0-0.3","2","3","3","3","2","3","3","3","3","3","3","3","3","4","2","3","4","3","4","4","1","3","3","2","2","2","2","2","1","1","0","1","1","0","0","0","1","0","1","1","0","1","0","1","5","4","4","3","4","1","2","4","4","3","3","794290486587301890","王","649","","","","","","","","","","","","","","","","","","","","","","","","","","","","","","","","","","","","","","","","","",""
"751","<p style=""color:white; font-size: 35px;"">全才</p>","i","categorize-html","41","235290","0.0-6.0-0.0-4.0-1.3","2","3","3","3","2","3","3","3","3","3","3","3","3","4","2","3","4","3","4","4","1","3","3","2","2","2","2","2","1","1","0","1","1","0","0","0","1","0","1","1","0","1","0","1","5","4","4","3","4","1","2","4","4","3","3","794290486587301890","王","649","","","","","","","","","","","","","","","","","","","true","2","2","ability","751","positive","全才","","","","","","","","","","","","","","","","",""
"null","","null","html-keyboard-response","42","235540","0.0-6.0-0.0-4.0-0.4","2","3","3","3","2","3","3","3","3","3","3","3","3","4","2","3","4","3","4","4","1","3","3","2","2","2","2","2","1","1","0","1","1","0","0","0","1","0","1","1","0","1","0","1","5","4","4","3","4","1","2","4","4","3","3","794290486587301890","王","649","","","","","","","","","","","","","","","","","","","","","","","","","","","","","","","","","","","","","","","","","",""
"942","<p style=""color:white; font-size: 35px;"">全能</p>","i","categorize-html","43","236484","0.0-6.0-0.0-4.0-1.4","2","3","3","3","2","3","3","3","3","3","3","3","3","4","2","3","4","3","4","4","1","3","3","2","2","2","2","2","1","1","0","1","1","0","0","0","1","0","1","1","0","1","0","1","5","4","4","3","4","1","2","4","4","3","3","794290486587301890","王","649","","","","","","","","","","","","","","","","","","","true","2","2","ability","942","positive","全能","","","","","","","","","","","","","","","","",""
"null","","null","html-keyboard-response","44","236735","0.0-6.0-0.0-4.0-0.5","2","3","3","3","2","3","3","3","3","3","3","3","3","4","2","3","4","3","4","4","1","3","3","2","2","2","2","2","1","1","0","1","1","0","0","0","1","0","1","1","0","1","0","1","5","4","4","3","4","1","2","4","4","3","3","794290486587301890","王","649","","","","","","","","","","","","","","","","","","","","","","","","","","","","","","","","","","","","","","","","","",""
"771","<p style=""color:white; font-size: 35px;"">拙笨</p>","e","categorize-html","45","237510","0.0-6.0-0.0-4.0-1.5","2","3","3","3","2","3","3","3","3","3","3","3","3","4","2","3","4","3","4","4","1","3","3","2","2","2","2","2","1","1","0","1","1","0","0","0","1","0","1","1","0","1","0","1","5","4","4","3","4","1","2","4","4","3","3","794290486587301890","王","649","","","","","","","","","","","","","","","","","","","true","2","2","ability","771","negative","拙笨","","","","","","","","","","","","","","","","",""
"null","","null","html-keyboard-response","46","237762","0.0-6.0-0.0-4.0-0.6","2","3","3","3","2","3","3","3","3","3","3","3","3","4","2","3","4","3","4","4","1","3","3","2","2","2","2","2","1","1","0","1","1","0","0","0","1","0","1","1","0","1","0","1","5","4","4","3","4","1","2","4","4","3","3","794290486587301890","王","649","","","","","","","","","","","","","","","","","","","","","","","","","","","","","","","","","","","","","","","","","",""
"698","<p style=""color:white; font-size: 35px;"">蠢笨</p>","e","categorize-html","47","238463","0.0-6.0-0.0-4.0-1.6","2","3","3","3","2","3","3","3","3","3","3","3","3","4","2","3","4","3","4","4","1","3","3","2","2","2","2","2","1","1","0","1","1","0","0","0","1","0","1","1","0","1","0","1","5","4","4","3","4","1","2","4","4","3","3","794290486587301890","王","649","","","","","","","","","","","","","","","","","","","true","2","2","ability","698","negative","蠢笨","","","","","","","","","","","","","","","","",""
"null","","null","html-keyboard-response","48","238715","0.0-6.0-0.0-4.0-0.7","2","3","3","3","2","3","3","3","3","3","3","3","3","4","2","3","4","3","4","4","1","3","3","2","2","2","2","2","1","1","0","1","1","0","0","0","1","0","1","1","0","1","0","1","5","4","4","3","4","1","2","4","4","3","3","794290486587301890","王","649","","","","","","","","","","","","","","","","","","","","","","","","","","","","","","","","","","","","","","","","","",""
"664","<p style=""color:white; font-size: 35px;"">高效</p>","i","categorize-html","49","239380","0.0-6.0-0.0-4.0-1.7","2","3","3","3","2","3","3","3","3","3","3","3","3","4","2","3","4","3","4","4","1","3","3","2","2","2","2","2","1","1","0","1","1","0","0","0","1","0","1","1","0","1","0","1","5","4","4","3","4","1","2","4","4","3","3","794290486587301890","王","649","","","","","","","","","","","","","","","","","","","true","2","2","ability","664","positive","高效","","","","","","","","","","","","","","","","",""
"null","","null","html-keyboard-response","50","239631","0.0-6.0-0.0-4.0-0.8","2","3","3","3","2","3","3","3","3","3","3","3","3","4","2","3","4","3","4","4","1","3","3","2","2","2","2","2","1","1","0","1","1","0","0","0","1","0","1","1","0","1","0","1","5","4","4","3","4","1","2","4","4","3","3","794290486587301890","王","649","","","","","","","","","","","","","","","","","","","","","","","","","","","","","","","","","","","","","","","","","",""
"610","<p style=""color:white; font-size: 35px;"">低能</p>","e","categorize-html","51","240243","0.0-6.0-0.0-4.0-1.8","2","3","3","3","2","3","3","3","3","3","3","3","3","4","2","3","4","3","4","4","1","3","3","2","2","2","2","2","1","1","0","1","1","0","0","0","1","0","1","1","0","1","0","1","5","4","4","3","4","1","2","4","4","3","3","794290486587301890","王","649","","","","","","","","","","","","","","","","","","","true","2","2","ability","610","negative","低能","","","","","","","","","","","","","","","","",""
"null","","null","html-keyboard-response","52","240495","0.0-6.0-0.0-4.0-0.9","2","3","3","3","2","3","3","3","3","3","3","3","3","4","2","3","4","3","4","4","1","3","3","2","2","2","2","2","1","1","0","1","1","0","0","0","1","0","1","1","0","1","0","1","5","4","4","3","4","1","2","4","4","3","3","794290486587301890","王","649","","","","","","","","","","","","","","","","","","","","","","","","","","","","","","","","","","","","","","","","","",""
"798","<p style=""color:white; font-size: 35px;"">愚钝</p>","e","categorize-html","53","241295","0.0-6.0-0.0-4.0-1.9","2","3","3","3","2","3","3","3","3","3","3","3","3","4","2","3","4","3","4","4","1","3","3","2","2","2","2","2","1","1","0","1","1","0","0","0","1","0","1","1","0","1","0","1","5","4","4","3","4","1","2","4","4","3","3","794290486587301890","王","649","","","","","","","","","","","","","","","","","","","true","2","2","ability","798","negative","愚钝","","","","","","","","","","","","","","","","",""
"null","","null","html-keyboard-response","54","241547","0.0-6.0-0.0-4.0-0.10","2","3","3","3","2","3","3","3","3","3","3","3","3","4","2","3","4","3","4","4","1","3","3","2","2","2","2","2","1","1","0","1","1","0","0","0","1","0","1","1","0","1","0","1","5","4","4","3","4","1","2","4","4","3","3","794290486587301890","王","649","","","","","","","","","","","","","","","","","","","","","","","","","","","","","","","","","","","","","","","","","",""
"724","<p style=""color:white; font-size: 35px;"">精干</p>","i","categorize-html","55","242273","0.0-6.0-0.0-4.0-1.10","2","3","3","3","2","3","3","3","3","3","3","3","3","4","2","3","4","3","4","4","1","3","3","2","2","2","2","2","1","1","0","1","1","0","0","0","1","0","1","1","0","1","0","1","5","4","4","3","4","1","2","4","4","3","3","794290486587301890","王","649","","","","","","","","","","","","","","","","","","","true","2","2","ability","724","positive","精干","","","","","","","","","","","","","","","","",""
"null","","null","html-keyboard-response","56","242525","0.0-6.0-0.0-4.0-0.11","2","3","3","3","2","3","3","3","3","3","3","3","3","4","2","3","4","3","4","4","1","3","3","2","2","2","2","2","1","1","0","1","1","0","0","0","1","0","1","1","0","1","0","1","5","4","4","3","4","1","2","4","4","3","3","794290486587301890","王","649","","","","","","","","","","","","","","","","","","","","","","","","","","","","","","","","","","","","","","","","","",""
"583","<p style=""color:white; font-size: 35px;"">能干</p>","i","categorize-html","57","243110","0.0-6.0-0.0-4.0-1.11","2","3","3","3","2","3","3","3","3","3","3","3","3","4","2","3","4","3","4","4","1","3","3","2","2","2","2","2","1","1","0","1","1","0","0","0","1","0","1","1","0","1","0","1","5","4","4","3","4","1","2","4","4","3","3","794290486587301890","王","649","","","","","","","","","","","","","","","","","","","true","2","2","ability","583","positive","能干","","","","","","","","","","","","","","","","",""
"3992","
    <div class=""tag-bottom""><p>
    —— 任务3：对“自我/消极”词和“他人/积极”词分类 ——<p/>
    <span style=""color:#78DCE8""><b>注意上方，之前的四类词语将混合在一起交替呈现</b></span><p/>
    <span style=""color:#FFD866""><b>请根据上方标签的提示，尽可能正确并且快速地做出按键反应</b></span><p/>
    当按键错误时屏幕中会出现<span style=""color:red""> X </span>，需要按另一个键纠正才能继续<br/><p/>
    请把双手食指分别放在键盘的“E”键和“I”键上<p/>
    按<空格键>开始
    </p></div>"," ","html-keyboard-response","58","247104","0.0-6.0-0.0-5.0","2","3","3","3","2","3","3","3","3","3","3","3","3","4","2","3","4","3","4","4","1","3","3","2","2","2","2","2","1","1","0","1","1","0","0","0","1","0","1","1","0","1","0","1","5","4","4","3","4","1","2","4","4","3","3","794290486587301890","王","649","","","","","","","","","","","","","","","","","","","","","","","","","","","","","","","","","","","","","","","","","",""
"null","","null","html-keyboard-response","59","247357","0.0-6.0-0.0-6.0-0.0","2","3","3","3","2","3","3","3","3","3","3","3","3","4","2","3","4","3","4","4","1","3","3","2","2","2","2","2","1","1","0","1","1","0","0","0","1","0","1","1","0","1","0","1","5","4","4","3","4","1","2","4","4","3","3","794290486587301890","王","649","","","","","","","","","","","","","","","","","","","","","","","","","","","","","","","","","","","","","","","","","",""
"831","<p style=""color:rgb(150, 250, 100); font-size: 35px;"">他</p>","i","categorize-html","60","248193","0.0-6.0-0.0-6.0-1.0","2","3","3","3","2","3","3","3","3","3","3","3","3","4","2","3","4","3","4","4","1","3","3","2","2","2","2","2","1","1","0","1","1","0","0","0","1","0","1","1","0","1","0","1","5","4","4","3","4","1","2","4","4","3","3","794290486587301890","王","649","","","","","","","","","","","","","","","","","","","true","3","3","ability","831","other","他","","","","","","","","","","","","","","","","",""
"null","","null","html-keyboard-response","61","248445","0.0-6.0-0.0-6.0-0.1","2","3","3","3","2","3","3","3","3","3","3","3","3","4","2","3","4","3","4","4","1","3","3","2","2","2","2","2","1","1","0","1","1","0","0","0","1","0","1","1","0","1","0","1","5","4","4","3","4","1","2","4","4","3","3","794290486587301890","王","649","","","","","","","","","","","","","","","","","","","","","","","","","","","","","","","","","","","","","","","","","",""
"938","<p style=""color:white; font-size: 35px;"">无能</p>","e","categorize-html","62","249384","0.0-6.0-0.0-6.0-1.1","2","3","3","3","2","3","3","3","3","3","3","3","3","4","2","3","4","3","4","4","1","3","3","2","2","2","2","2","1","1","0","1","1","0","0","0","1","0","1","1","0","1","0","1","5","4","4","3","4","1","2","4","4","3","3","794290486587301890","王","649","","","","","","","","","","","","","","","","","","","true","3","3","ability","938","negative","无能","","","","","","","","","","","","","","","","",""
"null","","null","html-keyboard-response","63","249634","0.0-6.0-0.0-6.0-0.2","2","3","3","3","2","3","3","3","3","3","3","3","3","4","2","3","4","3","4","4","1","3","3","2","2","2","2","2","1","1","0","1","1","0","0","0","1","0","1","1","0","1","0","1","5","4","4","3","4","1","2","4","4","3","3","794290486587301890","王","649","","","","","","","","","","","","","","","","","","","","","","","","","","","","","","","","","","","","","","","","","",""
"1049","<p style=""color:rgb(150, 250, 100); font-size: 35px;"">本人</p>","e","categorize-html","64","250686","0.0-6.0-0.0-6.0-1.2","2","3","3","3","2","3","3","3","3","3","3","3","3","4","2","3","4","3","4","4","1","3","3","2","2","2","2","2","1","1","0","1","1","0","0","0","1","0","1","1","0","1","0","1","5","4","4","3","4","1","2","4","4","3","3","794290486587301890","王","649","","","","","","","","","","","","","","","","","","","true","3","3","ability","1049","self","本人","","","","","","","","","","","","","","","","",""
"null","","null","html-keyboard-response","65","250936","0.0-6.0-0.0-6.0-0.3","2","3","3","3","2","3","3","3","3","3","3","3","3","4","2","3","4","3","4","4","1","3","3","2","2","2","2","2","1","1","0","1","1","0","0","0","1","0","1","1","0","1","0","1","5","4","4","3","4","1","2","4","4","3","3","794290486587301890","王","649","","","","","","","","","","","","","","","","","","","","","","","","","","","","","","","","","","","","","","","","","",""
"1032","<p style=""color:white; font-size: 35px;"">精干</p>","i","categorize-html","66","251970","0.0-6.0-0.0-6.0-1.3","2","3","3","3","2","3","3","3","3","3","3","3","3","4","2","3","4","3","4","4","1","3","3","2","2","2","2","2","1","1","0","1","1","0","0","0","1","0","1","1","0","1","0","1","5","4","4","3","4","1","2","4","4","3","3","794290486587301890","王","649","","","","","","","","","","","","","","","","","","","true","3","3","ability","1032","positive","精干","","","","","","","","","","","","","","","","",""
"null","","null","html-keyboard-response","67","252221","0.0-6.0-0.0-6.0-0.4","2","3","3","3","2","3","3","3","3","3","3","3","3","4","2","3","4","3","4","4","1","3","3","2","2","2","2","2","1","1","0","1","1","0","0","0","1","0","1","1","0","1","0","1","5","4","4","3","4","1","2","4","4","3","3","794290486587301890","王","649","","","","","","","","","","","","","","","","","","","","","","","","","","","","","","","","","","","","","","","","","",""
"1308","<p style=""color:rgb(150, 250, 100); font-size: 35px;"">自己的</p>","e","categorize-html","68","253531","0.0-6.0-0.0-6.0-1.4","2","3","3","3","2","3","3","3","3","3","3","3","3","4","2","3","4","3","4","4","1","3","3","2","2","2","2","2","1","1","0","1","1","0","0","0","1","0","1","1","0","1","0","1","5","4","4","3","4","1","2","4","4","3","3","794290486587301890","王","649","","","","","","","","","","","","","","","","","","","true","3","3","ability","1308","self","自己的","","","","","","","","","","","","","","","","",""
"null","","null","html-keyboard-response","69","253782","0.0-6.0-0.0-6.0-0.5","2","3","3","3","2","3","3","3","3","3","3","3","3","4","2","3","4","3","4","4","1","3","3","2","2","2","2","2","1","1","0","1","1","0","0","0","1","0","1","1","0","1","0","1","5","4","4","3","4","1","2","4","4","3","3","794290486587301890","王","649","","","","","","","","","","","","","","","","","","","","","","","","","","","","","","","","","","","","","","","","","",""
"1764","<p style=""color:white; font-size: 35px;"">废物</p>","e","categorize-html","70","255547","0.0-6.0-0.0-6.0-1.5","2","3","3","3","2","3","3","3","3","3","3","3","3","4","2","3","4","3","4","4","1","3","3","2","2","2","2","2","1","1","0","1","1","0","0","0","1","0","1","1","0","1","0","1","5","4","4","3","4","1","2","4","4","3","3","794290486587301890","王","649","","","","","","","","","","","","","","","","","","","true","3","3","ability","1764","negative","废物","","","","","","","","","","","","","","","","",""
"null","","null","html-keyboard-response","71","255799","0.0-6.0-0.0-6.0-0.6","2","3","3","3","2","3","3","3","3","3","3","3","3","4","2","3","4","3","4","4","1","3","3","2","2","2","2","2","1","1","0","1","1","0","0","0","1","0","1","1","0","1","0","1","5","4","4","3","4","1","2","4","4","3","3","794290486587301890","王","649","","","","","","","","","","","","","","","","","","","","","","","","","","","","","","","","","","","","","","","","","",""
"734","<p style=""color:rgb(150, 250, 100); font-size: 35px;"">他的</p>","i","categorize-html","72","256535","0.0-6.0-0.0-6.0-1.6","2","3","3","3","2","3","3","3","3","3","3","3","3","4","2","3","4","3","4","4","1","3","3","2","2","2","2","2","1","1","0","1","1","0","0","0","1","0","1","1","0","1","0","1","5","4","4","3","4","1","2","4","4","3","3","794290486587301890","王","649","","","","","","","","","","","","","","","","","","","true","3","3","ability","734","other","他的","","","","","","","","","","","","","","","","",""
"null","","null","html-keyboard-response","73","256786","0.0-6.0-0.0-6.0-0.7","2","3","3","3","2","3","3","3","3","3","3","3","3","4","2","3","4","3","4","4","1","3","3","2","2","2","2","2","1","1","0","1","1","0","0","0","1","0","1","1","0","1","0","1","5","4","4","3","4","1","2","4","4","3","3","794290486587301890","王","649","","","","","","","","","","","","","","","","","","","","","","","","","","","","","","","","","","","","","","","","","",""
"686","<p style=""color:white; font-size: 35px;"">全能</p>","i","categorize-html","74","257475","0.0-6.0-0.0-6.0-1.7","2","3","3","3","2","3","3","3","3","3","3","3","3","4","2","3","4","3","4","4","1","3","3","2","2","2","2","2","1","1","0","1","1","0","0","0","1","0","1","1","0","1","0","1","5","4","4","3","4","1","2","4","4","3","3","794290486587301890","王","649","","","","","","","","","","","","","","","","","","","true","3","3","ability","686","positive","全能","","","","","","","","","","","","","","","","",""
"null","","null","html-keyboard-response","75","257726","0.0-6.0-0.0-6.0-0.8","2","3","3","3","2","3","3","3","3","3","3","3","3","4","2","3","4","3","4","4","1","3","3","2","2","2","2","2","1","1","0","1","1","0","0","0","1","0","1","1","0","1","0","1","5","4","4","3","4","1","2","4","4","3","3","794290486587301890","王","649","","","","","","","","","","","","","","","","","","","","","","","","","","","","","","","","","","","","","","","","","",""
"789","<p style=""color:rgb(150, 250, 100); font-size: 35px;"">别人</p>","i","categorize-html","76","258516","0.0-6.0-0.0-6.0-1.8","2","3","3","3","2","3","3","3","3","3","3","3","3","4","2","3","4","3","4","4","1","3","3","2","2","2","2","2","1","1","0","1","1","0","0","0","1","0","1","1","0","1","0","1","5","4","4","3","4","1","2","4","4","3","3","794290486587301890","王","649","","","","","","","","","","","","","","","","","","","true","3","3","ability","789","other","别人","","","","","","","","","","","","","","","","",""
"null","","null","html-keyboard-response","77","258768","0.0-6.0-0.0-6.0-0.9","2","3","3","3","2","3","3","3","3","3","3","3","3","4","2","3","4","3","4","4","1","3","3","2","2","2","2","2","1","1","0","1","1","0","0","0","1","0","1","1","0","1","0","1","5","4","4","3","4","1","2","4","4","3","3","794290486587301890","王","649","","","","","","","","","","","","","","","","","","","","","","","","","","","","","","","","","","","","","","","","","",""
"581","<p style=""color:white; font-size: 35px;"">高效</p>","i","categorize-html","78","259354","0.0-6.0-0.0-6.0-1.9","2","3","3","3","2","3","3","3","3","3","3","3","3","4","2","3","4","3","4","4","1","3","3","2","2","2","2","2","1","1","0","1","1","0","0","0","1","0","1","1","0","1","0","1","5","4","4","3","4","1","2","4","4","3","3","794290486587301890","王","649","","","","","","","","","","","","","","","","","","","true","3","3","ability","581","positive","高效","","","","","","","","","","","","","","","","",""
"null","","null","html-keyboard-response","79","259606","0.0-6.0-0.0-6.0-0.10","2","3","3","3","2","3","3","3","3","3","3","3","3","4","2","3","4","3","4","4","1","3","3","2","2","2","2","2","1","1","0","1","1","0","0","0","1","0","1","1","0","1","0","1","5","4","4","3","4","1","2","4","4","3","3","794290486587301890","王","649","","","","","","","","","","","","","","","","","","","","","","","","","","","","","","","","","","","","","","","","","",""
"498","<p style=""color:rgb(150, 250, 100); font-size: 35px;"">自己</p>","i","categorize-html","80","260950","0.0-6.0-0.0-6.0-1.10","2","3","3","3","2","3","3","3","3","3","3","3","3","4","2","3","4","3","4","4","1","3","3","2","2","2","2","2","1","1","0","1","1","0","0","0","1","0","1","1","0","1","0","1","5","4","4","3","4","1","2","4","4","3","3","794290486587301890","王","649","","","","","","","","","","","","","","","","","","","false","3","3","ability","1587.9565217391305","self","自己","","","","","","","","","","","","","","","","",""
"null","","null","html-keyboard-response","81","261203","0.0-6.0-0.0-6.0-0.11","2","3","3","3","2","3","3","3","3","3","3","3","3","4","2","3","4","3","4","4","1","3","3","2","2","2","2","2","1","1","0","1","1","0","0","0","1","0","1","1","0","1","0","1","5","4","4","3","4","1","2","4","4","3","3","794290486587301890","王","649","","","","","","","","","","","","","","","","","","","","","","","","","","","","","","","","","","","","","","","","","",""
"1392","<p style=""color:white; font-size: 35px;"">愚钝</p>","e","categorize-html","82","262602","0.0-6.0-0.0-6.0-1.11","2","3","3","3","2","3","3","3","3","3","3","3","3","4","2","3","4","3","4","4","1","3","3","2","2","2","2","2","1","1","0","1","1","0","0","0","1","0","1","1","0","1","0","1","5","4","4","3","4","1","2","4","4","3","3","794290486587301890","王","649","","","","","","","","","","","","","","","","","","","true","3","3","ability","1392","negative","愚钝","","","","","","","","","","","","","","","","",""
"null","","null","html-keyboard-response","83","262855","0.0-6.0-0.0-6.0-0.12","2","3","3","3","2","3","3","3","3","3","3","3","3","4","2","3","4","3","4","4","1","3","3","2","2","2","2","2","1","1","0","1","1","0","0","0","1","0","1","1","0","1","0","1","5","4","4","3","4","1","2","4","4","3","3","794290486587301890","王","649","","","","","","","","","","","","","","","","","","","","","","","","","","","","","","","","","","","","","","","","","",""
"564","<p style=""color:rgb(150, 250, 100); font-size: 35px;"">我的</p>","e","categorize-html","84","263422","0.0-6.0-0.0-6.0-1.12","2","3","3","3","2","3","3","3","3","3","3","3","3","4","2","3","4","3","4","4","1","3","3","2","2","2","2","2","1","1","0","1","1","0","0","0","1","0","1","1","0","1","0","1","5","4","4","3","4","1","2","4","4","3","3","794290486587301890","王","649","","","","","","","","","","","","","","","","","","","true","3","3","ability","564","self","我的","","","","","","","","","","","","","","","","",""
"null","","null","html-keyboard-response","85","263673","0.0-6.0-0.0-6.0-0.13","2","3","3","3","2","3","3","3","3","3","3","3","3","4","2","3","4","3","4","4","1","3","3","2","2","2","2","2","1","1","0","1","1","0","0","0","1","0","1","1","0","1","0","1","5","4","4","3","4","1","2","4","4","3","3","794290486587301890","王","649","","","","","","","","","","","","","","","","","","","","","","","","","","","","","","","","","","","","","","","","","",""
"698","<p style=""color:white; font-size: 35px;"">低能</p>","e","categorize-html","86","264374","0.0-6.0-0.0-6.0-1.13","2","3","3","3","2","3","3","3","3","3","3","3","3","4","2","3","4","3","4","4","1","3","3","2","2","2","2","2","1","1","0","1","1","0","0","0","1","0","1","1","0","1","0","1","5","4","4","3","4","1","2","4","4","3","3","794290486587301890","王","649","","","","","","","","","","","","","","","","","","","true","3","3","ability","698","negative","低能","","","","","","","","","","","","","","","","",""
"null","","null","html-keyboard-response","87","264626","0.0-6.0-0.0-6.0-0.14","2","3","3","3","2","3","3","3","3","3","3","3","3","4","2","3","4","3","4","4","1","3","3","2","2","2","2","2","1","1","0","1","1","0","0","0","1","0","1","1","0","1","0","1","5","4","4","3","4","1","2","4","4","3","3","794290486587301890","王","649","","","","","","","","","","","","","","","","","","","","","","","","","","","","","","","","","","","","","","","","","",""
"704","<p style=""color:rgb(150, 250, 100); font-size: 35px;"">他人</p>","i","categorize-html","88","265331","0.0-6.0-0.0-6.0-1.14","2","3","3","3","2","3","3","3","3","3","3","3","3","4","2","3","4","3","4","4","1","3","3","2","2","2","2","2","1","1","0","1","1","0","0","0","1","0","1","1","0","1","0","1","5","4","4","3","4","1","2","4","4","3","3","794290486587301890","王","649","","","","","","","","","","","","","","","","","","","true","3","3","ability","704","other","他人","","","","","","","","","","","","","","","","",""
"null","","null","html-keyboard-response","89","265582","0.0-6.0-0.0-6.0-0.15","2","3","3","3","2","3","3","3","3","3","3","3","3","4","2","3","4","3","4","4","1","3","3","2","2","2","2","2","1","1","0","1","1","0","0","0","1","0","1","1","0","1","0","1","5","4","4","3","4","1","2","4","4","3","3","794290486587301890","王","649","","","","","","","","","","","","","","","","","","","","","","","","","","","","","","","","","","","","","","","","","",""
"581","<p style=""color:white; font-size: 35px;"">能干</p>","i","categorize-html","90","266166","0.0-6.0-0.0-6.0-1.15","2","3","3","3","2","3","3","3","3","3","3","3","3","4","2","3","4","3","4","4","1","3","3","2","2","2","2","2","1","1","0","1","1","0","0","0","1","0","1","1","0","1","0","1","5","4","4","3","4","1","2","4","4","3","3","794290486587301890","王","649","","","","","","","","","","","","","","","","","","","true","3","3","ability","581","positive","能干","","","","","","","","","","","","","","","","",""
"null","","null","html-keyboard-response","91","266417","0.0-6.0-0.0-6.0-0.16","2","3","3","3","2","3","3","3","3","3","3","3","3","4","2","3","4","3","4","4","1","3","3","2","2","2","2","2","1","1","0","1","1","0","0","0","1","0","1","1","0","1","0","1","5","4","4","3","4","1","2","4","4","3","3","794290486587301890","王","649","","","","","","","","","","","","","","","","","","","","","","","","","","","","","","","","","","","","","","","","","",""
"758","<p style=""color:rgb(150, 250, 100); font-size: 35px;"">本人的</p>","e","categorize-html","92","267176","0.0-6.0-0.0-6.0-1.16","2","3","3","3","2","3","3","3","3","3","3","3","3","4","2","3","4","3","4","4","1","3","3","2","2","2","2","2","1","1","0","1","1","0","0","0","1","0","1","1","0","1","0","1","5","4","4","3","4","1","2","4","4","3","3","794290486587301890","王","649","","","","","","","","","","","","","","","","","","","true","3","3","ability","758","self","本人的","","","","","","","","","","","","","","","","",""
"null","","null","html-keyboard-response","93","267427","0.0-6.0-0.0-6.0-0.17","2","3","3","3","2","3","3","3","3","3","3","3","3","4","2","3","4","3","4","4","1","3","3","2","2","2","2","2","1","1","0","1","1","0","0","0","1","0","1","1","0","1","0","1","5","4","4","3","4","1","2","4","4","3","3","794290486587301890","王","649","","","","","","","","","","","","","","","","","","","","","","","","","","","","","","","","","","","","","","","","","",""
"812","<p style=""color:white; font-size: 35px;"">天才</p>","i","categorize-html","94","268241","0.0-6.0-0.0-6.0-1.17","2","3","3","3","2","3","3","3","3","3","3","3","3","4","2","3","4","3","4","4","1","3","3","2","2","2","2","2","1","1","0","1","1","0","0","0","1","0","1","1","0","1","0","1","5","4","4","3","4","1","2","4","4","3","3","794290486587301890","王","649","","","","","","","","","","","","","","","","","","","true","3","3","ability","812","positive","天才","","","","","","","","","","","","","","","","",""
"null","","null","html-keyboard-response","95","268493","0.0-6.0-0.0-6.0-0.18","2","3","3","3","2","3","3","3","3","3","3","3","3","4","2","3","4","3","4","4","1","3","3","2","2","2","2","2","1","1","0","1","1","0","0","0","1","0","1","1","0","1","0","1","5","4","4","3","4","1","2","4","4","3","3","794290486587301890","王","649","","","","","","","","","","","","","","","","","","","","","","","","","","","","","","","","","","","","","","","","","",""
"1329","<p style=""color:rgb(150, 250, 100); font-size: 35px;"">别人的</p>","i","categorize-html","96","269824","0.0-6.0-0.0-6.0-1.18","2","3","3","3","2","3","3","3","3","3","3","3","3","4","2","3","4","3","4","4","1","3","3","2","2","2","2","2","1","1","0","1","1","0","0","0","1","0","1","1","0","1","0","1","5","4","4","3","4","1","2","4","4","3","3","794290486587301890","王","649","","","","","","","","","","","","","","","","","","","true","3","3","ability","1329","other","别人的","","","","","","","","","","","","","","","","",""
"null","","null","html-keyboard-response","97","270075","0.0-6.0-0.0-6.0-0.19","2","3","3","3","2","3","3","3","3","3","3","3","3","4","2","3","4","3","4","4","1","3","3","2","2","2","2","2","1","1","0","1","1","0","0","0","1","0","1","1","0","1","0","1","5","4","4","3","4","1","2","4","4","3","3","794290486587301890","王","649","","","","","","","","","","","","","","","","","","","","","","","","","","","","","","","","","","","","","","","","","",""
"792","<p style=""color:white; font-size: 35px;"">拙笨</p>","e","categorize-html","98","270869","0.0-6.0-0.0-6.0-1.19","2","3","3","3","2","3","3","3","3","3","3","3","3","4","2","3","4","3","4","4","1","3","3","2","2","2","2","2","1","1","0","1","1","0","0","0","1","0","1","1","0","1","0","1","5","4","4","3","4","1","2","4","4","3","3","794290486587301890","王","649","","","","","","","","","","","","","","","","","","","true","3","3","ability","792","negative","拙笨","","","","","","","","","","","","","","","","",""
"null","","null","html-keyboard-response","99","271120","0.0-6.0-0.0-6.0-0.20","2","3","3","3","2","3","3","3","3","3","3","3","3","4","2","3","4","3","4","4","1","3","3","2","2","2","2","2","1","1","0","1","1","0","0","0","1","0","1","1","0","1","0","1","5","4","4","3","4","1","2","4","4","3","3","794290486587301890","王","649","","","","","","","","","","","","","","","","","","","","","","","","","","","","","","","","","","","","","","","","","",""
"1907","<p style=""color:rgb(150, 250, 100); font-size: 35px;"">我</p>","e","categorize-html","100","273028","0.0-6.0-0.0-6.0-1.20","2","3","3","3","2","3","3","3","3","3","3","3","3","4","2","3","4","3","4","4","1","3","3","2","2","2","2","2","1","1","0","1","1","0","0","0","1","0","1","1","0","1","0","1","5","4","4","3","4","1","2","4","4","3","3","794290486587301890","王","649","","","","","","","","","","","","","","","","","","","true","3","3","ability","1907","self","我","","","","","","","","","","","","","","","","",""
"null","","null","html-keyboard-response","101","273279","0.0-6.0-0.0-6.0-0.21","2","3","3","3","2","3","3","3","3","3","3","3","3","4","2","3","4","3","4","4","1","3","3","2","2","2","2","2","1","1","0","1","1","0","0","0","1","0","1","1","0","1","0","1","5","4","4","3","4","1","2","4","4","3","3","794290486587301890","王","649","","","","","","","","","","","","","","","","","","","","","","","","","","","","","","","","","","","","","","","","","",""
"783","<p style=""color:white; font-size: 35px;"">全才</p>","i","categorize-html","102","274065","0.0-6.0-0.0-6.0-1.21","2","3","3","3","2","3","3","3","3","3","3","3","3","4","2","3","4","3","4","4","1","3","3","2","2","2","2","2","1","1","0","1","1","0","0","0","1","0","1","1","0","1","0","1","5","4","4","3","4","1","2","4","4","3","3","794290486587301890","王","649","","","","","","","","","","","","","","","","","","","true","3","3","ability","783","positive","全才","","","","","","","","","","","","","","","","",""
"null","","null","html-keyboard-response","103","274316","0.0-6.0-0.0-6.0-0.22","2","3","3","3","2","3","3","3","3","3","3","3","3","4","2","3","4","3","4","4","1","3","3","2","2","2","2","2","1","1","0","1","1","0","0","0","1","0","1","1","0","1","0","1","5","4","4","3","4","1","2","4","4","3","3","794290486587301890","王","649","","","","","","","","","","","","","","","","","","","","","","","","","","","","","","","","","","","","","","","","","",""
"1318","<p style=""color:rgb(150, 250, 100); font-size: 35px;"">他人的</p>","i","categorize-html","104","275636","0.0-6.0-0.0-6.0-1.22","2","3","3","3","2","3","3","3","3","3","3","3","3","4","2","3","4","3","4","4","1","3","3","2","2","2","2","2","1","1","0","1","1","0","0","0","1","0","1","1","0","1","0","1","5","4","4","3","4","1","2","4","4","3","3","794290486587301890","王","649","","","","","","","","","","","","","","","","","","","true","3","3","ability","1318","other","他人的","","","","","","","","","","","","","","","","",""
"null","","null","html-keyboard-response","105","275887","0.0-6.0-0.0-6.0-0.23","2","3","3","3","2","3","3","3","3","3","3","3","3","4","2","3","4","3","4","4","1","3","3","2","2","2","2","2","1","1","0","1","1","0","0","0","1","0","1","1","0","1","0","1","5","4","4","3","4","1","2","4","4","3","3","794290486587301890","王","649","","","","","","","","","","","","","","","","","","","","","","","","","","","","","","","","","","","","","","","","","",""
"1373","<p style=""color:white; font-size: 35px;"">蠢笨</p>","e","categorize-html","106","277265","0.0-6.0-0.0-6.0-1.23","2","3","3","3","2","3","3","3","3","3","3","3","3","4","2","3","4","3","4","4","1","3","3","2","2","2","2","2","1","1","0","1","1","0","0","0","1","0","1","1","0","1","0","1","5","4","4","3","4","1","2","4","4","3","3","794290486587301890","王","649","","","","","","","","","","","","","","","","","","","true","3","3","ability","1373","negative","蠢笨","","","","","","","","","","","","","","","","",""
"3601","
    <div class=""tag-bottom""><p>
    —— 任务4：对“自我/消极”词和“他人/积极”词分类 ——<p/>
    <span style=""color:#78DCE8""><b>与刚才的任务完全相同，请再次对这四类词语分类</b></span><p/>
    <span style=""color:#FFD866""><b>请根据上方标签的提示，尽可能正确并且快速地做出按键反应</b></span><p/>
    当按键错误时屏幕中会出现<span style=""color:red""> X </span>，需要按另一个键纠正才能继续<br/><p/>
    请把双手食指分别放在键盘的“E”键和“I”键上<p/>
    按<空格键>开始
    </p></div>"," ","html-keyboard-response","107","280867","0.0-6.0-0.0-7.0","2","3","3","3","2","3","3","3","3","3","3","3","3","4","2","3","4","3","4","4","1","3","3","2","2","2","2","2","1","1","0","1","1","0","0","0","1","0","1","1","0","1","0","1","5","4","4","3","4","1","2","4","4","3","3","794290486587301890","王","649","","","","","","","","","","","","","","","","","","","","","","","","","","","","","","","","","","","","","","","","","",""
"null","","null","html-keyboard-response","108","281118","0.0-6.0-0.0-8.0-0.0","2","3","3","3","2","3","3","3","3","3","3","3","3","4","2","3","4","3","4","4","1","3","3","2","2","2","2","2","1","1","0","1","1","0","0","0","1","0","1","1","0","1","0","1","5","4","4","3","4","1","2","4","4","3","3","794290486587301890","王","649","","","","","","","","","","","","","","","","","","","","","","","","","","","","","","","","","","","","","","","","","",""
"1385","<p style=""color:rgb(150, 250, 100); font-size: 35px;"">他</p>","i","categorize-html","109","282509","0.0-6.0-0.0-8.0-1.0","2","3","3","3","2","3","3","3","3","3","3","3","3","4","2","3","4","3","4","4","1","3","3","2","2","2","2","2","1","1","0","1","1","0","0","0","1","0","1","1","0","1","0","1","5","4","4","3","4","1","2","4","4","3","3","794290486587301890","王","649","","","","","","","","","","","","","","","","","","","true","4","4","ability","1385","other","他","","","","","","","","","","","","","","","","",""
"null","","null","html-keyboard-response","110","282761","0.0-6.0-0.0-8.0-0.1","2","3","3","3","2","3","3","3","3","3","3","3","3","4","2","3","4","3","4","4","1","3","3","2","2","2","2","2","1","1","0","1","1","0","0","0","1","0","1","1","0","1","0","1","5","4","4","3","4","1","2","4","4","3","3","794290486587301890","王","649","","","","","","","","","","","","","","","","","","","","","","","","","","","","","","","","","","","","","","","","","",""
"699","<p style=""color:white; font-size: 35px;"">全才</p>","i","categorize-html","111","283465","0.0-6.0-0.0-8.0-1.1","2","3","3","3","2","3","3","3","3","3","3","3","3","4","2","3","4","3","4","4","1","3","3","2","2","2","2","2","1","1","0","1","1","0","0","0","1","0","1","1","0","1","0","1","5","4","4","3","4","1","2","4","4","3","3","794290486587301890","王","649","","","","","","","","","","","","","","","","","","","true","4","4","ability","699","positive","全才","","","","","","","","","","","","","","","","",""
"null","","null","html-keyboard-response","112","283717","0.0-6.0-0.0-8.0-0.2","2","3","3","3","2","3","3","3","3","3","3","3","3","4","2","3","4","3","4","4","1","3","3","2","2","2","2","2","1","1","0","1","1","0","0","0","1","0","1","1","0","1","0","1","5","4","4","3","4","1","2","4","4","3","3","794290486587301890","王","649","","","","","","","","","","","","","","","","","","","","","","","","","","","","","","","","","","","","","","","","","",""
"713","<p style=""color:rgb(150, 250, 100); font-size: 35px;"">本人的</p>","e","categorize-html","113","284432","0.0-6.0-0.0-8.0-1.2","2","3","3","3","2","3","3","3","3","3","3","3","3","4","2","3","4","3","4","4","1","3","3","2","2","2","2","2","1","1","0","1","1","0","0","0","1","0","1","1","0","1","0","1","5","4","4","3","4","1","2","4","4","3","3","794290486587301890","王","649","","","","","","","","","","","","","","","","","","","true","4","4","ability","713","self","本人的","","","","","","","","","","","","","","","","",""
"null","","null","html-keyboard-response","114","284683","0.0-6.0-0.0-8.0-0.3","2","3","3","3","2","3","3","3","3","3","3","3","3","4","2","3","4","3","4","4","1","3","3","2","2","2","2","2","1","1","0","1","1","0","0","0","1","0","1","1","0","1","0","1","5","4","4","3","4","1","2","4","4","3","3","794290486587301890","王","649","","","","","","","","","","","","","","","","","","","","","","","","","","","","","","","","","","","","","","","","","",""
"1075","<p style=""color:white; font-size: 35px;"">无能</p>","e","categorize-html","115","285762","0.0-6.0-0.0-8.0-1.3","2","3","3","3","2","3","3","3","3","3","3","3","3","4","2","3","4","3","4","4","1","3","3","2","2","2","2","2","1","1","0","1","1","0","0","0","1","0","1","1","0","1","0","1","5","4","4","3","4","1","2","4","4","3","3","794290486587301890","王","649","","","","","","","","","","","","","","","","","","","true","4","4","ability","1075","negative","无能","","","","","","","","","","","","","","","","",""
"null","","null","html-keyboard-response","116","286013","0.0-6.0-0.0-8.0-0.4","2","3","3","3","2","3","3","3","3","3","3","3","3","4","2","3","4","3","4","4","1","3","3","2","2","2","2","2","1","1","0","1","1","0","0","0","1","0","1","1","0","1","0","1","5","4","4","3","4","1","2","4","4","3","3","794290486587301890","王","649","","","","","","","","","","","","","","","","","","","","","","","","","","","","","","","","","","","","","","","","","",""
"534","<p style=""color:rgb(150, 250, 100); font-size: 35px;"">我</p>","e","categorize-html","117","286554","0.0-6.0-0.0-8.0-1.4","2","3","3","3","2","3","3","3","3","3","3","3","3","4","2","3","4","3","4","4","1","3","3","2","2","2","2","2","1","1","0","1","1","0","0","0","1","0","1","1","0","1","0","1","5","4","4","3","4","1","2","4","4","3","3","794290486587301890","王","649","","","","","","","","","","","","","","","","","","","true","4","4","ability","534","self","我","","","","","","","","","","","","","","","","",""
"null","","null","html-keyboard-response","118","286807","0.0-6.0-0.0-8.0-0.5","2","3","3","3","2","3","3","3","3","3","3","3","3","4","2","3","4","3","4","4","1","3","3","2","2","2","2","2","1","1","0","1","1","0","0","0","1","0","1","1","0","1","0","1","5","4","4","3","4","1","2","4","4","3","3","794290486587301890","王","649","","","","","","","","","","","","","","","","","","","","","","","","","","","","","","","","","","","","","","","","","",""
"1301","<p style=""color:white; font-size: 35px;"">高效</p>","i","categorize-html","119","288114","0.0-6.0-0.0-8.0-1.5","2","3","3","3","2","3","3","3","3","3","3","3","3","4","2","3","4","3","4","4","1","3","3","2","2","2","2","2","1","1","0","1","1","0","0","0","1","0","1","1","0","1","0","1","5","4","4","3","4","1","2","4","4","3","3","794290486587301890","王","649","","","","","","","","","","","","","","","","","","","true","4","4","ability","1301","positive","高效","","","","","","","","","","","","","","","","",""
"null","","null","html-keyboard-response","120","288365","0.0-6.0-0.0-8.0-0.6","2","3","3","3","2","3","3","3","3","3","3","3","3","4","2","3","4","3","4","4","1","3","3","2","2","2","2","2","1","1","0","1","1","0","0","0","1","0","1","1","0","1","0","1","5","4","4","3","4","1","2","4","4","3","3","794290486587301890","王","649","","","","","","","","","","","","","","","","","","","","","","","","","","","","","","","","","","","","","","","","","",""
"857","<p style=""color:rgb(150, 250, 100); font-size: 35px;"">他人的</p>","i","categorize-html","121","289224","0.0-6.0-0.0-8.0-1.6","2","3","3","3","2","3","3","3","3","3","3","3","3","4","2","3","4","3","4","4","1","3","3","2","2","2","2","2","1","1","0","1","1","0","0","0","1","0","1","1","0","1","0","1","5","4","4","3","4","1","2","4","4","3","3","794290486587301890","王","649","","","","","","","","","","","","","","","","","","","true","4","4","ability","857","other","他人的","","","","","","","","","","","","","","","","",""
"null","","null","html-keyboard-response","122","289476","0.0-6.0-0.0-8.0-0.7","2","3","3","3","2","3","3","3","3","3","3","3","3","4","2","3","4","3","4","4","1","3","3","2","2","2","2","2","1","1","0","1","1","0","0","0","1","0","1","1","0","1","0","1","5","4","4","3","4","1","2","4","4","3","3","794290486587301890","王","649","","","","","","","","","","","","","","","","","","","","","","","","","","","","","","","","","","","","","","","","","",""
"794","<p style=""color:white; font-size: 35px;"">低能</p>","e","categorize-html","123","290272","0.0-6.0-0.0-8.0-1.7","2","3","3","3","2","3","3","3","3","3","3","3","3","4","2","3","4","3","4","4","1","3","3","2","2","2","2","2","1","1","0","1","1","0","0","0","1","0","1","1","0","1","0","1","5","4","4","3","4","1","2","4","4","3","3","794290486587301890","王","649","","","","","","","","","","","","","","","","","","","true","4","4","ability","794","negative","低能","","","","","","","","","","","","","","","","",""
"null","","null","html-keyboard-response","124","290523","0.0-6.0-0.0-8.0-0.8","2","3","3","3","2","3","3","3","3","3","3","3","3","4","2","3","4","3","4","4","1","3","3","2","2","2","2","2","1","1","0","1","1","0","0","0","1","0","1","1","0","1","0","1","5","4","4","3","4","1","2","4","4","3","3","794290486587301890","王","649","","","","","","","","","","","","","","","","","","","","","","","","","","","","","","","","","","","","","","","","","",""
"625","<p style=""color:rgb(150, 250, 100); font-size: 35px;"">自己的</p>","e","categorize-html","125","291153","0.0-6.0-0.0-8.0-1.8","2","3","3","3","2","3","3","3","3","3","3","3","3","4","2","3","4","3","4","4","1","3","3","2","2","2","2","2","1","1","0","1","1","0","0","0","1","0","1","1","0","1","0","1","5","4","4","3","4","1","2","4","4","3","3","794290486587301890","王","649","","","","","","","","","","","","","","","","","","","true","4","4","ability","625","self","自己的","","","","","","","","","","","","","","","","",""
"null","","null","html-keyboard-response","126","291406","0.0-6.0-0.0-8.0-0.9","2","3","3","3","2","3","3","3","3","3","3","3","3","4","2","3","4","3","4","4","1","3","3","2","2","2","2","2","1","1","0","1","1","0","0","0","1","0","1","1","0","1","0","1","5","4","4","3","4","1","2","4","4","3","3","794290486587301890","王","649","","","","","","","","","","","","","","","","","","","","","","","","","","","","","","","","","","","","","","","","","",""
"528","<p style=""color:white; font-size: 35px;"">拙笨</p>","e","categorize-html","127","291936","0.0-6.0-0.0-8.0-1.9","2","3","3","3","2","3","3","3","3","3","3","3","3","4","2","3","4","3","4","4","1","3","3","2","2","2","2","2","1","1","0","1","1","0","0","0","1","0","1","1","0","1","0","1","5","4","4","3","4","1","2","4","4","3","3","794290486587301890","王","649","","","","","","","","","","","","","","","","","","","true","4","4","ability","528","negative","拙笨","","","","","","","","","","","","","","","","",""
"null","","null","html-keyboard-response","128","292189","0.0-6.0-0.0-8.0-0.10","2","3","3","3","2","3","3","3","3","3","3","3","3","4","2","3","4","3","4","4","1","3","3","2","2","2","2","2","1","1","0","1","1","0","0","0","1","0","1","1","0","1","0","1","5","4","4","3","4","1","2","4","4","3","3","794290486587301890","王","649","","","","","","","","","","","","","","","","","","","","","","","","","","","","","","","","","","","","","","","","","",""
"936","<p style=""color:rgb(150, 250, 100); font-size: 35px;"">他的</p>","i","categorize-html","129","293126","0.0-6.0-0.0-8.0-1.10","2","3","3","3","2","3","3","3","3","3","3","3","3","4","2","3","4","3","4","4","1","3","3","2","2","2","2","2","1","1","0","1","1","0","0","0","1","0","1","1","0","1","0","1","5","4","4","3","4","1","2","4","4","3","3","794290486587301890","王","649","","","","","","","","","","","","","","","","","","","true","4","4","ability","936","other","他的","","","","","","","","","","","","","","","","",""
"null","","null","html-keyboard-response","130","293379","0.0-6.0-0.0-8.0-0.11","2","3","3","3","2","3","3","3","3","3","3","3","3","4","2","3","4","3","4","4","1","3","3","2","2","2","2","2","1","1","0","1","1","0","0","0","1","0","1","1","0","1","0","1","5","4","4","3","4","1","2","4","4","3","3","794290486587301890","王","649","","","","","","","","","","","","","","","","","","","","","","","","","","","","","","","","","","","","","","","","","",""
"681","<p style=""color:white; font-size: 35px;"">全能</p>","i","categorize-html","131","294063","0.0-6.0-0.0-8.0-1.11","2","3","3","3","2","3","3","3","3","3","3","3","3","4","2","3","4","3","4","4","1","3","3","2","2","2","2","2","1","1","0","1","1","0","0","0","1","0","1","1","0","1","0","1","5","4","4","3","4","1","2","4","4","3","3","794290486587301890","王","649","","","","","","","","","","","","","","","","","","","true","4","4","ability","681","positive","全能","","","","","","","","","","","","","","","","",""
"null","","null","html-keyboard-response","132","294314","0.0-6.0-0.0-8.0-0.12","2","3","3","3","2","3","3","3","3","3","3","3","3","4","2","3","4","3","4","4","1","3","3","2","2","2","2","2","1","1","0","1","1","0","0","0","1","0","1","1","0","1","0","1","5","4","4","3","4","1","2","4","4","3","3","794290486587301890","王","649","","","","","","","","","","","","","","","","","","","","","","","","","","","","","","","","","","","","","","","","","",""
"689","<p style=""color:rgb(150, 250, 100); font-size: 35px;"">别人</p>","i","categorize-html","133","295008","0.0-6.0-0.0-8.0-1.12","2","3","3","3","2","3","3","3","3","3","3","3","3","4","2","3","4","3","4","4","1","3","3","2","2","2","2","2","1","1","0","1","1","0","0","0","1","0","1","1","0","1","0","1","5","4","4","3","4","1","2","4","4","3","3","794290486587301890","王","649","","","","","","","","","","","","","","","","","","","true","4","4","ability","689","other","别人","","","","","","","","","","","","","","","","",""
"null","","null","html-keyboard-response","134","295261","0.0-6.0-0.0-8.0-0.13","2","3","3","3","2","3","3","3","3","3","3","3","3","4","2","3","4","3","4","4","1","3","3","2","2","2","2","2","1","1","0","1","1","0","0","0","1","0","1","1","0","1","0","1","5","4","4","3","4","1","2","4","4","3","3","794290486587301890","王","649","","","","","","","","","","","","","","","","","","","","","","","","","","","","","","","","","","","","","","","","","",""
"700","<p style=""color:white; font-size: 35px;"">蠢笨</p>","e","categorize-html","135","295961","0.0-6.0-0.0-8.0-1.13","2","3","3","3","2","3","3","3","3","3","3","3","3","4","2","3","4","3","4","4","1","3","3","2","2","2","2","2","1","1","0","1","1","0","0","0","1","0","1","1","0","1","0","1","5","4","4","3","4","1","2","4","4","3","3","794290486587301890","王","649","","","","","","","","","","","","","","","","","","","true","4","4","ability","700","negative","蠢笨","","","","","","","","","","","","","","","","",""
"null","","null","html-keyboard-response","136","296214","0.0-6.0-0.0-8.0-0.14","2","3","3","3","2","3","3","3","3","3","3","3","3","4","2","3","4","3","4","4","1","3","3","2","2","2","2","2","1","1","0","1","1","0","0","0","1","0","1","1","0","1","0","1","5","4","4","3","4","1","2","4","4","3","3","794290486587301890","王","649","","","","","","","","","","","","","","","","","","","","","","","","","","","","","","","","","","","","","","","","","",""
"810","<p style=""color:rgb(150, 250, 100); font-size: 35px;"">本人的</p>","e","categorize-html","137","297025","0.0-6.0-0.0-8.0-1.14","2","3","3","3","2","3","3","3","3","3","3","3","3","4","2","3","4","3","4","4","1","3","3","2","2","2","2","2","1","1","0","1","1","0","0","0","1","0","1","1","0","1","0","1","5","4","4","3","4","1","2","4","4","3","3","794290486587301890","王","649","","","","","","","","","","","","","","","","","","","true","4","4","ability","810","self","本人的","","","","","","","","","","","","","","","","",""
"null","","null","html-keyboard-response","138","297276","0.0-6.0-0.0-8.0-0.15","2","3","3","3","2","3","3","3","3","3","3","3","3","4","2","3","4","3","4","4","1","3","3","2","2","2","2","2","1","1","0","1","1","0","0","0","1","0","1","1","0","1","0","1","5","4","4","3","4","1","2","4","4","3","3","794290486587301890","王","649","","","","","","","","","","","","","","","","","","","","","","","","","","","","","","","","","","","","","","","","","",""
"1060","<p style=""color:white; font-size: 35px;"">高效</p>","i","categorize-html","139","298338","0.0-6.0-0.0-8.0-1.15","2","3","3","3","2","3","3","3","3","3","3","3","3","4","2","3","4","3","4","4","1","3","3","2","2","2","2","2","1","1","0","1","1","0","0","0","1","0","1","1","0","1","0","1","5","4","4","3","4","1","2","4","4","3","3","794290486587301890","王","649","","","","","","","","","","","","","","","","","","","true","4","4","ability","1060","positive","高效","","","","","","","","","","","","","","","","",""
"null","","null","html-keyboard-response","140","298589","0.0-6.0-0.0-8.0-0.16","2","3","3","3","2","3","3","3","3","3","3","3","3","4","2","3","4","3","4","4","1","3","3","2","2","2","2","2","1","1","0","1","1","0","0","0","1","0","1","1","0","1","0","1","5","4","4","3","4","1","2","4","4","3","3","794290486587301890","王","649","","","","","","","","","","","","","","","","","","","","","","","","","","","","","","","","","","","","","","","","","",""
"804","<p style=""color:rgb(150, 250, 100); font-size: 35px;"">他的</p>","i","categorize-html","141","299395","0.0-6.0-0.0-8.0-1.16","2","3","3","3","2","3","3","3","3","3","3","3","3","4","2","3","4","3","4","4","1","3","3","2","2","2","2","2","1","1","0","1","1","0","0","0","1","0","1","1","0","1","0","1","5","4","4","3","4","1","2","4","4","3","3","794290486587301890","王","649","","","","","","","","","","","","","","","","","","","true","4","4","ability","804","other","他的","","","","","","","","","","","","","","","","",""
"null","","null","html-keyboard-response","142","299647","0.0-6.0-0.0-8.0-0.17","2","3","3","3","2","3","3","3","3","3","3","3","3","4","2","3","4","3","4","4","1","3","3","2","2","2","2","2","1","1","0","1","1","0","0","0","1","0","1","1","0","1","0","1","5","4","4","3","4","1","2","4","4","3","3","794290486587301890","王","649","","","","","","","","","","","","","","","","","","","","","","","","","","","","","","","","","","","","","","","","","",""
"1995","<p style=""color:white; font-size: 35px;"">精干</p>","i","categorize-html","143","301645","0.0-6.0-0.0-8.0-1.17","2","3","3","3","2","3","3","3","3","3","3","3","3","4","2","3","4","3","4","4","1","3","3","2","2","2","2","2","1","1","0","1","1","0","0","0","1","0","1","1","0","1","0","1","5","4","4","3","4","1","2","4","4","3","3","794290486587301890","王","649","","","","","","","","","","","","","","","","","","","true","4","4","ability","1995","positive","精干","","","","","","","","","","","","","","","","",""
"null","","null","html-keyboard-response","144","301897","0.0-6.0-0.0-8.0-0.18","2","3","3","3","2","3","3","3","3","3","3","3","3","4","2","3","4","3","4","4","1","3","3","2","2","2","2","2","1","1","0","1","1","0","0","0","1","0","1","1","0","1","0","1","5","4","4","3","4","1","2","4","4","3","3","794290486587301890","王","649","","","","","","","","","","","","","","","","","","","","","","","","","","","","","","","","","","","","","","","","","",""
"812","<p style=""color:rgb(150, 250, 100); font-size: 35px;"">自己</p>","e","categorize-html","145","302712","0.0-6.0-0.0-8.0-1.18","2","3","3","3","2","3","3","3","3","3","3","3","3","4","2","3","4","3","4","4","1","3","3","2","2","2","2","2","1","1","0","1","1","0","0","0","1","0","1","1","0","1","0","1","5","4","4","3","4","1","2","4","4","3","3","794290486587301890","王","649","","","","","","","","","","","","","","","","","","","true","4","4","ability","812","self","自己","","","","","","","","","","","","","","","","",""
"null","","null","html-keyboard-response","146","302965","0.0-6.0-0.0-8.0-0.19","2","3","3","3","2","3","3","3","3","3","3","3","3","4","2","3","4","3","4","4","1","3","3","2","2","2","2","2","1","1","0","1","1","0","0","0","1","0","1","1","0","1","0","1","5","4","4","3","4","1","2","4","4","3","3","794290486587301890","王","649","","","","","","","","","","","","","","","","","","","","","","","","","","","","","","","","","","","","","","","","","",""
"814","<p style=""color:white; font-size: 35px;"">拙笨</p>","e","categorize-html","147","303781","0.0-6.0-0.0-8.0-1.19","2","3","3","3","2","3","3","3","3","3","3","3","3","4","2","3","4","3","4","4","1","3","3","2","2","2","2","2","1","1","0","1","1","0","0","0","1","0","1","1","0","1","0","1","5","4","4","3","4","1","2","4","4","3","3","794290486587301890","王","649","","","","","","","","","","","","","","","","","","","true","4","4","ability","814","negative","拙笨","","","","","","","","","","","","","","","","",""
"null","","null","html-keyboard-response","148","304033","0.0-6.0-0.0-8.0-0.20","2","3","3","3","2","3","3","3","3","3","3","3","3","4","2","3","4","3","4","4","1","3","3","2","2","2","2","2","1","1","0","1","1","0","0","0","1","0","1","1","0","1","0","1","5","4","4","3","4","1","2","4","4","3","3","794290486587301890","王","649","","","","","","","","","","","","","","","","","","","","","","","","","","","","","","","","","","","","","","","","","",""
"731","<p style=""color:rgb(150, 250, 100); font-size: 35px;"">他人</p>","i","categorize-html","149","304766","0.0-6.0-0.0-8.0-1.20","2","3","3","3","2","3","3","3","3","3","3","3","3","4","2","3","4","3","4","4","1","3","3","2","2","2","2","2","1","1","0","1","1","0","0","0","1","0","1","1","0","1","0","1","5","4","4","3","4","1","2","4","4","3","3","794290486587301890","王","649","","","","","","","","","","","","","","","","","","","true","4","4","ability","731","other","他人","","","","","","","","","","","","","","","","",""
"null","","null","html-keyboard-response","150","305018","0.0-6.0-0.0-8.0-0.21","2","3","3","3","2","3","3","3","3","3","3","3","3","4","2","3","4","3","4","4","1","3","3","2","2","2","2","2","1","1","0","1","1","0","0","0","1","0","1","1","0","1","0","1","5","4","4","3","4","1","2","4","4","3","3","794290486587301890","王","649","","","","","","","","","","","","","","","","","","","","","","","","","","","","","","","","","","","","","","","","","",""
"1580","<p style=""color:white; font-size: 35px;"">无能</p>","e","categorize-html","151","306604","0.0-6.0-0.0-8.0-1.21","2","3","3","3","2","3","3","3","3","3","3","3","3","4","2","3","4","3","4","4","1","3","3","2","2","2","2","2","1","1","0","1","1","0","0","0","1","0","1","1","0","1","0","1","5","4","4","3","4","1","2","4","4","3","3","794290486587301890","王","649","","","","","","","","","","","","","","","","","","","true","4","4","ability","1580","negative","无能","","","","","","","","","","","","","","","","",""
"null","","null","html-keyboard-response","152","306855","0.0-6.0-0.0-8.0-0.22","2","3","3","3","2","3","3","3","3","3","3","3","3","4","2","3","4","3","4","4","1","3","3","2","2","2","2","2","1","1","0","1","1","0","0","0","1","0","1","1","0","1","0","1","5","4","4","3","4","1","2","4","4","3","3","794290486587301890","王","649","","","","","","","","","","","","","","","","","","","","","","","","","","","","","","","","","","","","","","","","","",""
"666","<p style=""color:rgb(150, 250, 100); font-size: 35px;"">本人</p>","e","categorize-html","153","307524","0.0-6.0-0.0-8.0-1.22","2","3","3","3","2","3","3","3","3","3","3","3","3","4","2","3","4","3","4","4","1","3","3","2","2","2","2","2","1","1","0","1","1","0","0","0","1","0","1","1","0","1","0","1","5","4","4","3","4","1","2","4","4","3","3","794290486587301890","王","649","","","","","","","","","","","","","","","","","","","true","4","4","ability","666","self","本人","","","","","","","","","","","","","","","","",""
"null","","null","html-keyboard-response","154","307775","0.0-6.0-0.0-8.0-0.23","2","3","3","3","2","3","3","3","3","3","3","3","3","4","2","3","4","3","4","4","1","3","3","2","2","2","2","2","1","1","0","1","1","0","0","0","1","0","1","1","0","1","0","1","5","4","4","3","4","1","2","4","4","3","3","794290486587301890","王","649","","","","","","","","","","","","","","","","","","","","","","","","","","","","","","","","","","","","","","","","","",""
"655","<p style=""color:white; font-size: 35px;"">天才</p>","i","categorize-html","155","308431","0.0-6.0-0.0-8.0-1.23","2","3","3","3","2","3","3","3","3","3","3","3","3","4","2","3","4","3","4","4","1","3","3","2","2","2","2","2","1","1","0","1","1","0","0","0","1","0","1","1","0","1","0","1","5","4","4","3","4","1","2","4","4","3","3","794290486587301890","王","649","","","","","","","","","","","","","","","","","","","true","4","4","ability","655","positive","天才","","","","","","","","","","","","","","","","",""
"null","","null","html-keyboard-response","156","308683","0.0-6.0-0.0-8.0-0.24","2","3","3","3","2","3","3","3","3","3","3","3","3","4","2","3","4","3","4","4","1","3","3","2","2","2","2","2","1","1","0","1","1","0","0","0","1","0","1","1","0","1","0","1","5","4","4","3","4","1","2","4","4","3","3","794290486587301890","王","649","","","","","","","","","","","","","","","","","","","","","","","","","","","","","","","","","","","","","","","","","",""
"744","<p style=""color:rgb(150, 250, 100); font-size: 35px;"">本人</p>","e","categorize-html","157","309429","0.0-6.0-0.0-8.0-1.24","2","3","3","3","2","3","3","3","3","3","3","3","3","4","2","3","4","3","4","4","1","3","3","2","2","2","2","2","1","1","0","1","1","0","0","0","1","0","1","1","0","1","0","1","5","4","4","3","4","1","2","4","4","3","3","794290486587301890","王","649","","","","","","","","","","","","","","","","","","","true","4","4","ability","744","self","本人","","","","","","","","","","","","","","","","",""
"null","","null","html-keyboard-response","158","309694","0.0-6.0-0.0-8.0-0.25","2","3","3","3","2","3","3","3","3","3","3","3","3","4","2","3","4","3","4","4","1","3","3","2","2","2","2","2","1","1","0","1","1","0","0","0","1","0","1","1","0","1","0","1","5","4","4","3","4","1","2","4","4","3","3","794290486587301890","王","649","","","","","","","","","","","","","","","","","","","","","","","","","","","","","","","","","","","","","","","","","",""
"709","<p style=""color:white; font-size: 35px;"">愚钝</p>","e","categorize-html","159","310409","0.0-6.0-0.0-8.0-1.25","2","3","3","3","2","3","3","3","3","3","3","3","3","4","2","3","4","3","4","4","1","3","3","2","2","2","2","2","1","1","0","1","1","0","0","0","1","0","1","1","0","1","0","1","5","4","4","3","4","1","2","4","4","3","3","794290486587301890","王","649","","","","","","","","","","","","","","","","","","","true","4","4","ability","709","negative","愚钝","","","","","","","","","","","","","","","","",""
"null","","null","html-keyboard-response","160","310661","0.0-6.0-0.0-8.0-0.26","2","3","3","3","2","3","3","3","3","3","3","3","3","4","2","3","4","3","4","4","1","3","3","2","2","2","2","2","1","1","0","1","1","0","0","0","1","0","1","1","0","1","0","1","5","4","4","3","4","1","2","4","4","3","3","794290486587301890","王","649","","","","","","","","","","","","","","","","","","","","","","","","","","","","","","","","","","","","","","","","","",""
"779","<p style=""color:rgb(150, 250, 100); font-size: 35px;"">他人的</p>","i","categorize-html","161","311442","0.0-6.0-0.0-8.0-1.26","2","3","3","3","2","3","3","3","3","3","3","3","3","4","2","3","4","3","4","4","1","3","3","2","2","2","2","2","1","1","0","1","1","0","0","0","1","0","1","1","0","1","0","1","5","4","4","3","4","1","2","4","4","3","3","794290486587301890","王","649","","","","","","","","","","","","","","","","","","","true","4","4","ability","779","other","他人的","","","","","","","","","","","","","","","","",""
"null","","null","html-keyboard-response","162","311694","0.0-6.0-0.0-8.0-0.27","2","3","3","3","2","3","3","3","3","3","3","3","3","4","2","3","4","3","4","4","1","3","3","2","2","2","2","2","1","1","0","1","1","0","0","0","1","0","1","1","0","1","0","1","5","4","4","3","4","1","2","4","4","3","3","794290486587301890","王","649","","","","","","","","","","","","","","","","","","","","","","","","","","","","","","","","","","","","","","","","","",""
"4670","<p style=""color:white; font-size: 35px;"">全才</p>","i","categorize-html","163","316367","0.0-6.0-0.0-8.0-1.27","2","3","3","3","2","3","3","3","3","3","3","3","3","4","2","3","4","3","4","4","1","3","3","2","2","2","2","2","1","1","0","1","1","0","0","0","1","0","1","1","0","1","0","1","5","4","4","3","4","1","2","4","4","3","3","794290486587301890","王","649","","","","","","","","","","","","","","","","","","","true","4","4","ability","4670","positive","全才","","","","","","","","","","","","","","","","",""
"null","","null","html-keyboard-response","164","316619","0.0-6.0-0.0-8.0-0.28","2","3","3","3","2","3","3","3","3","3","3","3","3","4","2","3","4","3","4","4","1","3","3","2","2","2","2","2","1","1","0","1","1","0","0","0","1","0","1","1","0","1","0","1","5","4","4","3","4","1","2","4","4","3","3","794290486587301890","王","649","","","","","","","","","","","","","","","","","","","","","","","","","","","","","","","","","","","","","","","","","",""
"916","<p style=""color:rgb(150, 250, 100); font-size: 35px;"">他</p>","i","categorize-html","165","317538","0.0-6.0-0.0-8.0-1.28","2","3","3","3","2","3","3","3","3","3","3","3","3","4","2","3","4","3","4","4","1","3","3","2","2","2","2","2","1","1","0","1","1","0","0","0","1","0","1","1","0","1","0","1","5","4","4","3","4","1","2","4","4","3","3","794290486587301890","王","649","","","","","","","","","","","","","","","","","","","true","4","4","ability","916","other","他","","","","","","","","","","","","","","","","",""
"null","","null","html-keyboard-response","166","317789","0.0-6.0-0.0-8.0-0.29","2","3","3","3","2","3","3","3","3","3","3","3","3","4","2","3","4","3","4","4","1","3","3","2","2","2","2","2","1","1","0","1","1","0","0","0","1","0","1","1","0","1","0","1","5","4","4","3","4","1","2","4","4","3","3","794290486587301890","王","649","","","","","","","","","","","","","","","","","","","","","","","","","","","","","","","","","","","","","","","","","",""
"606","<p style=""color:white; font-size: 35px;"">全能</p>","i","categorize-html","167","318396","0.0-6.0-0.0-8.0-1.29","2","3","3","3","2","3","3","3","3","3","3","3","3","4","2","3","4","3","4","4","1","3","3","2","2","2","2","2","1","1","0","1","1","0","0","0","1","0","1","1","0","1","0","1","5","4","4","3","4","1","2","4","4","3","3","794290486587301890","王","649","","","","","","","","","","","","","","","","","","","true","4","4","ability","606","positive","全能","","","","","","","","","","","","","","","","",""
"null","","null","html-keyboard-response","168","318648","0.0-6.0-0.0-8.0-0.30","2","3","3","3","2","3","3","3","3","3","3","3","3","4","2","3","4","3","4","4","1","3","3","2","2","2","2","2","1","1","0","1","1","0","0","0","1","0","1","1","0","1","0","1","5","4","4","3","4","1","2","4","4","3","3","794290486587301890","王","649","","","","","","","","","","","","","","","","","","","","","","","","","","","","","","","","","","","","","","","","","",""
"811","<p style=""color:rgb(150, 250, 100); font-size: 35px;"">我</p>","e","categorize-html","169","319464","0.0-6.0-0.0-8.0-1.30","2","3","3","3","2","3","3","3","3","3","3","3","3","4","2","3","4","3","4","4","1","3","3","2","2","2","2","2","1","1","0","1","1","0","0","0","1","0","1","1","0","1","0","1","5","4","4","3","4","1","2","4","4","3","3","794290486587301890","王","649","","","","","","","","","","","","","","","","","","","true","4","4","ability","811","self","我","","","","","","","","","","","","","","","","",""
"null","","null","html-keyboard-response","170","319715","0.0-6.0-0.0-8.0-0.31","2","3","3","3","2","3","3","3","3","3","3","3","3","4","2","3","4","3","4","4","1","3","3","2","2","2","2","2","1","1","0","1","1","0","0","0","1","0","1","1","0","1","0","1","5","4","4","3","4","1","2","4","4","3","3","794290486587301890","王","649","","","","","","","","","","","","","","","","","","","","","","","","","","","","","","","","","","","","","","","","","",""
"1859","<p style=""color:white; font-size: 35px;"">废物</p>","e","categorize-html","171","321577","0.0-6.0-0.0-8.0-1.31","2","3","3","3","2","3","3","3","3","3","3","3","3","4","2","3","4","3","4","4","1","3","3","2","2","2","2","2","1","1","0","1","1","0","0","0","1","0","1","1","0","1","0","1","5","4","4","3","4","1","2","4","4","3","3","794290486587301890","王","649","","","","","","","","","","","","","","","","","","","true","4","4","ability","1859","negative","废物","","","","","","","","","","","","","","","","",""
"null","","null","html-keyboard-response","172","321828","0.0-6.0-0.0-8.0-0.32","2","3","3","3","2","3","3","3","3","3","3","3","3","4","2","3","4","3","4","4","1","3","3","2","2","2","2","2","1","1","0","1","1","0","0","0","1","0","1","1","0","1","0","1","5","4","4","3","4","1","2","4","4","3","3","794290486587301890","王","649","","","","","","","","","","","","","","","","","","","","","","","","","","","","","","","","","","","","","","","","","",""
"928","<p style=""color:rgb(150, 250, 100); font-size: 35px;"">自己的</p>","e","categorize-html","173","322760","0.0-6.0-0.0-8.0-1.32","2","3","3","3","2","3","3","3","3","3","3","3","3","4","2","3","4","3","4","4","1","3","3","2","2","2","2","2","1","1","0","1","1","0","0","0","1","0","1","1","0","1","0","1","5","4","4","3","4","1","2","4","4","3","3","794290486587301890","王","649","","","","","","","","","","","","","","","","","","","true","4","4","ability","928","self","自己的","","","","","","","","","","","","","","","","",""
"null","","null","html-keyboard-response","174","323012","0.0-6.0-0.0-8.0-0.33","2","3","3","3","2","3","3","3","3","3","3","3","3","4","2","3","4","3","4","4","1","3","3","2","2","2","2","2","1","1","0","1","1","0","0","0","1","0","1","1","0","1","0","1","5","4","4","3","4","1","2","4","4","3","3","794290486587301890","王","649","","","","","","","","","","","","","","","","","","","","","","","","","","","","","","","","","","","","","","","","","",""
"674","<p style=""color:white; font-size: 35px;"">天才</p>","i","categorize-html","175","323689","0.0-6.0-0.0-8.0-1.33","2","3","3","3","2","3","3","3","3","3","3","3","3","4","2","3","4","3","4","4","1","3","3","2","2","2","2","2","1","1","0","1","1","0","0","0","1","0","1","1","0","1","0","1","5","4","4","3","4","1","2","4","4","3","3","794290486587301890","王","649","","","","","","","","","","","","","","","","","","","true","4","4","ability","674","positive","天才","","","","","","","","","","","","","","","","",""
"null","","null","html-keyboard-response","176","323941","0.0-6.0-0.0-8.0-0.34","2","3","3","3","2","3","3","3","3","3","3","3","3","4","2","3","4","3","4","4","1","3","3","2","2","2","2","2","1","1","0","1","1","0","0","0","1","0","1","1","0","1","0","1","5","4","4","3","4","1","2","4","4","3","3","794290486587301890","王","649","","","","","","","","","","","","","","","","","","","","","","","","","","","","","","","","","","","","","","","","","",""
"930","<p style=""color:rgb(150, 250, 100); font-size: 35px;"">别人</p>","i","categorize-html","177","324873","0.0-6.0-0.0-8.0-1.34","2","3","3","3","2","3","3","3","3","3","3","3","3","4","2","3","4","3","4","4","1","3","3","2","2","2","2","2","1","1","0","1","1","0","0","0","1","0","1","1","0","1","0","1","5","4","4","3","4","1","2","4","4","3","3","794290486587301890","王","649","","","","","","","","","","","","","","","","","","","true","4","4","ability","930","other","别人","","","","","","","","","","","","","","","","",""
"null","","null","html-keyboard-response","178","325124","0.0-6.0-0.0-8.0-0.35","2","3","3","3","2","3","3","3","3","3","3","3","3","4","2","3","4","3","4","4","1","3","3","2","2","2","2","2","1","1","0","1","1","0","0","0","1","0","1","1","0","1","0","1","5","4","4","3","4","1","2","4","4","3","3","794290486587301890","王","649","","","","","","","","","","","","","","","","","","","","","","","","","","","","","","","","","","","","","","","","","",""
"2034","<p style=""color:white; font-size: 35px;"">低能</p>","e","categorize-html","179","327164","0.0-6.0-0.0-8.0-1.35","2","3","3","3","2","3","3","3","3","3","3","3","3","4","2","3","4","3","4","4","1","3","3","2","2","2","2","2","1","1","0","1","1","0","0","0","1","0","1","1","0","1","0","1","5","4","4","3","4","1","2","4","4","3","3","794290486587301890","王","649","","","","","","","","","","","","","","","","","","","true","4","4","ability","2034","negative","低能","","","","","","","","","","","","","","","","",""
"null","","null","html-keyboard-response","180","327415","0.0-6.0-0.0-8.0-0.36","2","3","3","3","2","3","3","3","3","3","3","3","3","4","2","3","4","3","4","4","1","3","3","2","2","2","2","2","1","1","0","1","1","0","0","0","1","0","1","1","0","1","0","1","5","4","4","3","4","1","2","4","4","3","3","794290486587301890","王","649","","","","","","","","","","","","","","","","","","","","","","","","","","","","","","","","","","","","","","","","","",""
"1381","<p style=""color:rgb(150, 250, 100); font-size: 35px;"">别人的</p>","i","categorize-html","181","328801","0.0-6.0-0.0-8.0-1.36","2","3","3","3","2","3","3","3","3","3","3","3","3","4","2","3","4","3","4","4","1","3","3","2","2","2","2","2","1","1","0","1","1","0","0","0","1","0","1","1","0","1","0","1","5","4","4","3","4","1","2","4","4","3","3","794290486587301890","王","649","","","","","","","","","","","","","","","","","","","true","4","4","ability","1381","other","别人的","","","","","","","","","","","","","","","","",""
"null","","null","html-keyboard-response","182","329055","0.0-6.0-0.0-8.0-0.37","2","3","3","3","2","3","3","3","3","3","3","3","3","4","2","3","4","3","4","4","1","3","3","2","2","2","2","2","1","1","0","1","1","0","0","0","1","0","1","1","0","1","0","1","5","4","4","3","4","1","2","4","4","3","3","794290486587301890","王","649","","","","","","","","","","","","","","","","","","","","","","","","","","","","","","","","","","","","","","","","","",""
"1197","<p style=""color:white; font-size: 35px;"">能干</p>","i","categorize-html","183","330258","0.0-6.0-0.0-8.0-1.37","2","3","3","3","2","3","3","3","3","3","3","3","3","4","2","3","4","3","4","4","1","3","3","2","2","2","2","2","1","1","0","1","1","0","0","0","1","0","1","1","0","1","0","1","5","4","4","3","4","1","2","4","4","3","3","794290486587301890","王","649","","","","","","","","","","","","","","","","","","","true","4","4","ability","1197","positive","能干","","","","","","","","","","","","","","","","",""
"null","","null","html-keyboard-response","184","330511","0.0-6.0-0.0-8.0-0.38","2","3","3","3","2","3","3","3","3","3","3","3","3","4","2","3","4","3","4","4","1","3","3","2","2","2","2","2","1","1","0","1","1","0","0","0","1","0","1","1","0","1","0","1","5","4","4","3","4","1","2","4","4","3","3","794290486587301890","王","649","","","","","","","","","","","","","","","","","","","","","","","","","","","","","","","","","","","","","","","","","",""
"898","<p style=""color:rgb(150, 250, 100); font-size: 35px;"">自己</p>","e","categorize-html","185","331412","0.0-6.0-0.0-8.0-1.38","2","3","3","3","2","3","3","3","3","3","3","3","3","4","2","3","4","3","4","4","1","3","3","2","2","2","2","2","1","1","0","1","1","0","0","0","1","0","1","1","0","1","0","1","5","4","4","3","4","1","2","4","4","3","3","794290486587301890","王","649","","","","","","","","","","","","","","","","","","","true","4","4","ability","898","self","自己","","","","","","","","","","","","","","","","",""
"null","","null","html-keyboard-response","186","331664","0.0-6.0-0.0-8.0-0.39","2","3","3","3","2","3","3","3","3","3","3","3","3","4","2","3","4","3","4","4","1","3","3","2","2","2","2","2","1","1","0","1","1","0","0","0","1","0","1","1","0","1","0","1","5","4","4","3","4","1","2","4","4","3","3","794290486587301890","王","649","","","","","","","","","","","","","","","","","","","","","","","","","","","","","","","","","","","","","","","","","",""
"567","<p style=""color:white; font-size: 35px;"">废物</p>","e","categorize-html","187","332233","0.0-6.0-0.0-8.0-1.39","2","3","3","3","2","3","3","3","3","3","3","3","3","4","2","3","4","3","4","4","1","3","3","2","2","2","2","2","1","1","0","1","1","0","0","0","1","0","1","1","0","1","0","1","5","4","4","3","4","1","2","4","4","3","3","794290486587301890","王","649","","","","","","","","","","","","","","","","","","","true","4","4","ability","567","negative","废物","","","","","","","","","","","","","","","","",""
"null","","null","html-keyboard-response","188","332484","0.0-6.0-0.0-8.0-0.40","2","3","3","3","2","3","3","3","3","3","3","3","3","4","2","3","4","3","4","4","1","3","3","2","2","2","2","2","1","1","0","1","1","0","0","0","1","0","1","1","0","1","0","1","5","4","4","3","4","1","2","4","4","3","3","794290486587301890","王","649","","","","","","","","","","","","","","","","","","","","","","","","","","","","","","","","","","","","","","","","","",""
"1600","<p style=""color:rgb(150, 250, 100); font-size: 35px;"">他人</p>","i","categorize-html","189","334086","0.0-6.0-0.0-8.0-1.40","2","3","3","3","2","3","3","3","3","3","3","3","3","4","2","3","4","3","4","4","1","3","3","2","2","2","2","2","1","1","0","1","1","0","0","0","1","0","1","1","0","1","0","1","5","4","4","3","4","1","2","4","4","3","3","794290486587301890","王","649","","","","","","","","","","","","","","","","","","","true","4","4","ability","1600","other","他人","","","","","","","","","","","","","","","","",""
"null","","null","html-keyboard-response","190","334338","0.0-6.0-0.0-8.0-0.41","2","3","3","3","2","3","3","3","3","3","3","3","3","4","2","3","4","3","4","4","1","3","3","2","2","2","2","2","1","1","0","1","1","0","0","0","1","0","1","1","0","1","0","1","5","4","4","3","4","1","2","4","4","3","3","794290486587301890","王","649","","","","","","","","","","","","","","","","","","","","","","","","","","","","","","","","","","","","","","","","","",""
"1781","<p style=""color:white; font-size: 35px;"">愚钝</p>","e","categorize-html","191","336121","0.0-6.0-0.0-8.0-1.41","2","3","3","3","2","3","3","3","3","3","3","3","3","4","2","3","4","3","4","4","1","3","3","2","2","2","2","2","1","1","0","1","1","0","0","0","1","0","1","1","0","1","0","1","5","4","4","3","4","1","2","4","4","3","3","794290486587301890","王","649","","","","","","","","","","","","","","","","","","","true","4","4","ability","1781","negative","愚钝","","","","","","","","","","","","","","","","",""
"null","","null","html-keyboard-response","192","336372","0.0-6.0-0.0-8.0-0.42","2","3","3","3","2","3","3","3","3","3","3","3","3","4","2","3","4","3","4","4","1","3","3","2","2","2","2","2","1","1","0","1","1","0","0","0","1","0","1","1","0","1","0","1","5","4","4","3","4","1","2","4","4","3","3","794290486587301890","王","649","","","","","","","","","","","","","","","","","","","","","","","","","","","","","","","","","","","","","","","","","",""
"952","<p style=""color:rgb(150, 250, 100); font-size: 35px;"">我的</p>","e","categorize-html","193","337326","0.0-6.0-0.0-8.0-1.42","2","3","3","3","2","3","3","3","3","3","3","3","3","4","2","3","4","3","4","4","1","3","3","2","2","2","2","2","1","1","0","1","1","0","0","0","1","0","1","1","0","1","0","1","5","4","4","3","4","1","2","4","4","3","3","794290486587301890","王","649","","","","","","","","","","","","","","","","","","","true","4","4","ability","952","self","我的","","","","","","","","","","","","","","","","",""
