"rt","stimulus","response","trial_type","trial_index","time_elapsed","internal_node_id","ses_1","ses_2","ses_3","ses_4","ses_5","ses_6","ses_7","ses_8","ses_9","ses_10","coreself_1","coreself_2","coreself_3","coreself_4","coreself_5","coreself_6","coreself_7","coreself_8","coreself_9","coreself_10","SGPS_1","SGPS_2","SGPS_3","SGPS_4","SGPS_5","SGPS_6","SGPS_7","SGPS_8","SGPS_9","NPI1","NPI2","NPI3","NPI4","NPI5","NPI6","NPI7","NPI8","NPI9","NPI10","NPI11","NPI12","NPI13","NPI14","NPI15","hsns_1","hsns_2","hsns_3","hsns_4","hsns_5","trap1","hsns_6","hsns_7","hsns_8","hsns_9","hsns_10","subj_idx","friend_name","ParticipantID","value","success","user_agent","responses","item_order","radio_event_ids","radio_event_times","key_event_times","mouse_event_times","straightlining","zigzagging","honeypot","timeout","failed_images","failed_audio","failed_video","view_history","response_type","key_press","avg_frame_time","center_x","center_y","correct_response","correct","identity","Image","word","condition","task_id","screen_id","time_stamp","version_attrib2","version_target2","IAT","RT","varname","summary","version_attrib","version_target","question_order","correct_answer","trap1_item"
"49423","
   <p><div style = ""color: white;font-size:25px;"">您好，欢迎参加本次实验。</div> </p>
   <p><div style = ""color: white;font-size:25px;"">为充分保障您的权利，请确保您已经知晓并同意《参与实验同意书》以及《数据公开知情同意书》。</div></p>
   <p><div style = ""color: white;font-size:25px;"">如果您未见过上述内容，请咨询实验员。</div></p>
   <p><div style = ""color: white;font-size:25px;"">如果您选择继续实验，则表示您已经清楚两份知情同意书的内容并同意。</div></p>
   <p><div style = ""color: pink;font-size:30px;"">请确保您记得day0的实验编号，您将在本次实验输入该编号，若您忘记，请咨询实验员后作答。</div></p>
   <p><div style = ""color: lightblue;font-size:25px;"">请您尽可能认真地作答，我们将依据您在各问卷和按键任务中的作答质量发放报酬。</div></p>
   <p> <div style = ""color: green;font-size:25px;""><按空格键至下页></div> </p>
   "," ","html-keyboard-response","0","49421","0.0-0.0","3","4","4","3","3","4","3","3","3","4","4","4","2","3","4","4","4","4","4","5","4","4","3","4","4","3","4","2","3","1","0","1","1","0","1","1","0","1","1","1","0","0","0","1","4","3","1","2","4","","3","2","3","2","3","783652100818341890","张","269","","","","","","","","","","","","","","","","","","","","","","","","","","","","","","","","","","","","","","","","","",""
"","","","call-function","1","49423","0.0-1.0-0.0","3","4","4","3","3","4","3","3","3","4","4","4","2","3","4","4","4","4","4","5","4","4","3","4","4","3","4","2","3","1","0","1","1","0","1","1","0","1","1","1","0","0","0","1","4","3","1","2","4","","3","2","3","2","3","783652100818341890","张","269","","","","","","","","","","","","","","","","","","","","","","","","","","","","","","","","","","","","","","","","","",""
"14246","","{""friend_name"":""张"",""ParticipantID"":""269""}","survey-html-form","2","63670","0.0-1.0-1.0","3","4","4","3","3","4","3","3","3","4","4","4","2","3","4","4","4","4","4","5","4","4","3","4","4","3","4","2","3","1","0","1","1","0","1","1","0","1","1","1","0","0","0","1","4","3","1","2","4","","3","2","3","2","3","783652100818341890","张","269","","","","","","","","","","","","","","","","","","","","","","","","","","","","","","","","","","","","","","","","","",""
"","","","fullscreen","3","104131","0.0-2.0","3","4","4","3","3","4","3","3","3","4","4","4","2","3","4","4","4","4","4","5","4","4","3","4","4","3","4","2","3","1","0","1","1","0","1","1","0","1","1","1","0","0","0","1","4","3","1","2","4","","3","2","3","2","3","783652100818341890","张","269","","true","{}","","","","","","","","","","","","","","","","","","","","","","","","","","","","","","","","","","","","","","",""
"82737.20000004768","","{""Q01"":""3"",""Q02"":""4"",""Q03"":""4"",""Q04"":""3"",""Q05"":""3"",""Q06"":""4"",""Q07"":""3"",""Q08"":""3"",""Q09"":""3"",""Q10"":""4""}","survey-template","4","186875","0.0-3.0","3","4","4","3","3","4","3","3","3","4","4","4","2","3","4","4","4","4","4","5","4","4","3","4","4","3","4","2","3","1","0","1","1","0","1","1","0","1","1","1","0","0","0","1","4","3","1","2","4","","3","2","3","2","3","783652100818341890","张","269","","","","{""Q01"":""3"",""Q02"":""4"",""Q03"":""4"",""Q04"":""3"",""Q05"":""3"",""Q06"":""4"",""Q07"":""3"",""Q08"":""3"",""Q09"":""3"",""Q10"":""4""}","[0,1,2,3,4,5,6,7,8,9]","[""Q01"",""Q02"",""Q03"",""Q04"",""Q05"",""Q06"",""Q07"",""Q08"",""Q08"",""Q09"",""Q10"",""Q07"",""Q09""]","[9748,15271.799999952316,17809.099999904633,20630.299999952316,23018.200000047684,25072.900000095367,27765.799999952316,33202.299999952316,34964.40000009537,41554.59999990463,43626.200000047684,55306.40000009537,71057.90000009537]","[]","[9748,15271.799999952316,17809.099999904633,20630.299999952316,23018.200000047684,25072.900000095367,27765.799999952316,33202.299999952316,34964.40000009537,41554.59999990463,43626.200000047684,55306.40000009537,71057.90000009537,82735.70000004768]","0.3","0.6666666666666666","0","","","","","","","","","","","","","","","","","","","","","","","","","","","","","",""
"30388.799999952316","","{""Q01"":""4"",""Q02"":""4"",""Q03"":""2"",""Q04"":""3"",""Q05"":""4"",""Q06"":""4"",""Q07"":""4"",""Q08"":""4"",""Q09"":""4"",""Q10"":""5""}","survey-template","5","217273","0.0-4.0","3","4","4","3","3","4","3","3","3","4","4","4","2","3","4","4","4","4","4","5","4","4","3","4","4","3","4","2","3","1","0","1","1","0","1","1","0","1","1","1","0","0","0","1","4","3","1","2","4","","3","2","3","2","3","783652100818341890","张","269","","","","{""Q01"":""4"",""Q02"":""4"",""Q03"":""2"",""Q04"":""3"",""Q05"":""4"",""Q06"":""4"",""Q07"":""4"",""Q08"":""4"",""Q09"":""4"",""Q10"":""5""}","[0,1,2,3,4,5,6,7,8,9]","[""Q01"",""Q02"",""Q03"",""Q04"",""Q05"",""Q06"",""Q07"",""Q08"",""Q09"",""Q10""]","[3622.399999856949,6359.5,9145.799999952316,10868.599999904633,12784.899999856949,15916.599999904633,19100.599999904633,21758.799999952316,23371.89999985695,26901.89999985695]","[]","[3622.399999856949,6359.5,9145.799999952316,10868.599999904633,12784.899999856949,15916.599999904633,19100.599999904633,21758.799999952316,23371.89999985695,26901.89999985695,30387.099999904633]","0.4","0.2222222222222222","0","","","","","","","","","","","","","","","","","","","","","","","","","","","","","",""
"","","","preload","6","217734","0.0-5.0","3","4","4","3","3","4","3","3","3","4","4","4","2","3","4","4","4","4","4","5","4","4","3","4","4","3","4","2","3","1","0","1","1","0","1","1","0","1","1","1","0","0","0","1","4","3","1","2","4","","3","2","3","2","3","783652100818341890","张","269","","true","","","","","","","","","","","false","[]","[]","[]","","","","","","","","","","","","","","","","","","","","","","","","","",""
"19321","","","instructions","7","237051","0.0-6.0","3","4","4","3","3","4","3","3","3","4","4","4","2","3","4","4","4","4","4","5","4","4","3","4","4","3","4","2","3","1","0","1","1","0","1","1","0","1","1","1","0","0","0","1","4","3","1","2","4","","3","2","3","2","3","783652100818341890","张","269","","","","","","","","","","","","","","","","","[{""page_index"":0,""viewing_time"":19321}]","","","","","","","","","","","","","","","","","","","","","","","","",""
"46243","","","instructions","8","283296","0.0-7.0-1.0-0.0","3","4","4","3","3","4","3","3","3","4","4","4","2","3","4","4","4","4","4","5","4","4","3","4","4","3","4","2","3","1","0","1","1","0","1","1","0","1","1","1","0","0","0","1","4","3","1","2","4","","3","2","3","2","3","783652100818341890","张","269","","","","","","","","","","","","","","","","","[{""page_index"":0,""viewing_time"":30527},{""page_index"":1,""viewing_time"":13610},{""page_index"":2,""viewing_time"":2105}]","","","","","","","","","","","","","","","","","","","","","","","","",""
"null","","null","psychophysics","9","285521","0.0-7.0-1.0-1.0-0.0-0.0","3","4","4","3","3","4","3","3","3","4","4","4","2","3","4","4","4","4","4","5","4","4","3","4","4","3","4","2","3","1","0","1","1","0","1","1","0","1","1","1","0","0","0","1","4","3","1","2","4","","3","2","3","2","3","783652100818341890","张","269","","","","null","","","","","","","","","","","","","","key","null","16.66891666666682","640","356","j","false","match","img/hexagon.png","六边","六边","ALT1_2","prac_ALT1_2","","","","","","","","","","","",""
"null","<span class='add_' style='color:yellow; font-size: 70px;'> 太慢! </span>","null","html-keyboard-response","10","286025","0.0-7.0-1.0-1.0-0.0-1.0","3","4","4","3","3","4","3","3","3","4","4","4","2","3","4","4","4","4","4","5","4","4","3","4","4","3","4","2","3","1","0","1","1","0","1","1","0","1","1","1","0","0","0","1","4","3","1","2","4","","3","2","3","2","3","783652100818341890","张","269","","","","","","","","","","","","","","","","","","","","","","","","","","","","","","feedback_test","","","","","","","","","","","",""
"null","","null","psychophysics","11","288241","0.0-7.0-1.0-1.0-0.0-0.1","3","4","4","3","3","4","3","3","3","4","4","4","2","3","4","4","4","4","4","5","4","4","3","4","4","3","4","2","3","1","0","1","1","0","1","1","0","1","1","1","0","0","0","1","4","3","1","2","4","","3","2","3","2","3","783652100818341890","张","269","","","","null","","","","","","","","","","","","","","key","null","16.667244274809047","640","356","f","false","nonmatch","img/hexagon.png","菱形","六边","ALT1_2","prac_ALT1_2","","","","","","","","","","","",""
"null","<span class='add_' style='color:yellow; font-size: 70px;'> 太慢! </span>","null","html-keyboard-response","12","288753","0.0-7.0-1.0-1.0-0.0-1.1","3","4","4","3","3","4","3","3","3","4","4","4","2","3","4","4","4","4","4","5","4","4","3","4","4","3","4","2","3","1","0","1","1","0","1","1","0","1","1","1","0","0","0","1","4","3","1","2","4","","3","2","3","2","3","783652100818341890","张","269","","","","","","","","","","","","","","","","","","","","","","","","","","","","","","feedback_test","","","","","","","","","","","",""
"1122","","f","psychophysics","13","290881","0.0-7.0-1.0-1.0-0.0-0.2","3","4","4","3","3","4","3","3","3","4","4","4","2","3","4","4","4","4","4","5","4","4","3","4","4","3","4","2","3","1","0","1","1","0","1","1","0","1","1","1","0","0","0","1","4","3","1","2","4","","3","2","3","2","3","783652100818341890","张","269","","","","nonmatch","","","","","","","","","","","","","","key","f","16.669480314960897","640","356","f","true","nonmatch","img/hexagon.png","椭圆","六边","ALT1_2","prac_ALT1_2","","","","","","","","","","","",""
"null","<span style='color:GreenYellow; font-size: 70px;'>正确! </span>","null","html-keyboard-response","14","291385","0.0-7.0-1.0-1.0-0.0-1.2","3","4","4","3","3","4","3","3","3","4","4","4","2","3","4","4","4","4","4","5","4","4","3","4","4","3","4","2","3","1","0","1","1","0","1","1","0","1","1","1","0","0","0","1","4","3","1","2","4","","3","2","3","2","3","783652100818341890","张","269","","","","","","","","","","","","","","","","","","","","","","","","","","","","","","feedback_test","","","","","","","","","","","",""
"null","","null","psychophysics","15","293594","0.0-7.0-1.0-1.0-0.0-0.3","3","4","4","3","3","4","3","3","3","4","4","4","2","3","4","4","4","4","4","5","4","4","3","4","4","3","4","2","3","1","0","1","1","0","1","1","0","1","1","1","0","0","0","1","4","3","1","2","4","","3","2","3","2","3","783652100818341890","张","269","","","","null","","","","","","","","","","","","","","key","null","16.66917557251917","640","356","f","false","nonmatch","img/ellipse.png","菱形","椭圆","ALT1_2","prac_ALT1_2","","","","","","","","","","","",""
"null","<span class='add_' style='color:yellow; font-size: 70px;'> 太慢! </span>","null","html-keyboard-response","16","294099","0.0-7.0-1.0-1.0-0.0-1.3","3","4","4","3","3","4","3","3","3","4","4","4","2","3","4","4","4","4","4","5","4","4","3","4","4","3","4","2","3","1","0","1","1","0","1","1","0","1","1","1","0","0","0","1","4","3","1","2","4","","3","2","3","2","3","783652100818341890","张","269","","","","","","","","","","","","","","","","","","","","","","","","","","","","","","feedback_test","","","","","","","","","","","",""
"1061","","j","psychophysics","17","296163","0.0-7.0-1.0-1.0-0.0-0.4","3","4","4","3","3","4","3","3","3","4","4","4","2","3","4","4","4","4","4","5","4","4","3","4","4","3","4","2","3","1","0","1","1","0","1","1","0","1","1","1","0","0","0","1","4","3","1","2","4","","3","2","3","2","3","783652100818341890","张","269","","","","match","","","","","","","","","","","","","","key","j","16.666211382113964","640","356","j","true","match","img/ellipse.png","椭圆","椭圆","ALT1_2","prac_ALT1_2","","","","","","","","","","","",""
"null","<span style='color:GreenYellow; font-size: 70px;'>正确! </span>","null","html-keyboard-response","18","296681","0.0-7.0-1.0-1.0-0.0-1.4","3","4","4","3","3","4","3","3","3","4","4","4","2","3","4","4","4","4","4","5","4","4","3","4","4","3","4","2","3","1","0","1","1","0","1","1","0","1","1","1","0","0","0","1","4","3","1","2","4","","3","2","3","2","3","783652100818341890","张","269","","","","","","","","","","","","","","","","","","","","","","","","","","","","","","feedback_test","","","","","","","","","","","",""
"967","","f","psychophysics","19","298657","0.0-7.0-1.0-1.0-0.0-0.5","3","4","4","3","3","4","3","3","3","4","4","4","2","3","4","4","4","4","4","5","4","4","3","4","4","3","4","2","3","1","0","1","1","0","1","1","0","1","1","1","0","0","0","1","4","3","1","2","4","","3","2","3","2","3","783652100818341890","张","269","","","","nonmatch","","","","","","","","","","","","","","key","f","16.66535344827571","640","356","f","true","nonmatch","img/triangle.png","椭圆","三角","ALT1_2","prac_ALT1_2","","","","","","","","","","","",""
"null","<span style='color:GreenYellow; font-size: 70px;'>正确! </span>","null","html-keyboard-response","20","299159","0.0-7.0-1.0-1.0-0.0-1.5","3","4","4","3","3","4","3","3","3","4","4","4","2","3","4","4","4","4","4","5","4","4","3","4","4","3","4","2","3","1","0","1","1","0","1","1","0","1","1","1","0","0","0","1","4","3","1","2","4","","3","2","3","2","3","783652100818341890","张","269","","","","","","","","","","","","","","","","","","","","","","","","","","","","","","feedback_test","","","","","","","","","","","",""
"952","","f","psychophysics","21","301114","0.0-7.0-1.0-1.0-0.0-0.6","3","4","4","3","3","4","3","3","3","4","4","4","2","3","4","4","4","4","4","5","4","4","3","4","4","3","4","2","3","1","0","1","1","0","1","1","0","1","1","1","0","0","0","1","4","3","1","2","4","","3","2","3","2","3","783652100818341890","张","269","","","","nonmatch","","","","","","","","","","","","","","key","f","16.666603448275872","640","356","f","true","nonmatch","img/diamond.png","椭圆","菱形","ALT1_2","prac_ALT1_2","","","","","","","","","","","",""
"null","<span style='color:GreenYellow; font-size: 70px;'>正确! </span>","null","html-keyboard-response","22","301616","0.0-7.0-1.0-1.0-0.0-1.6","3","4","4","3","3","4","3","3","3","4","4","4","2","3","4","4","4","4","4","5","4","4","3","4","4","3","4","2","3","1","0","1","1","0","1","1","0","1","1","1","0","0","0","1","4","3","1","2","4","","3","2","3","2","3","783652100818341890","张","269","","","","","","","","","","","","","","","","","","","","","","","","","","","","","","feedback_test","","","","","","","","","","","",""
"848","","f","psychophysics","23","303475","0.0-7.0-1.0-1.0-0.0-0.7","3","4","4","3","3","4","3","3","3","4","4","4","2","3","4","4","4","4","4","5","4","4","3","4","4","3","4","2","3","1","0","1","1","0","1","1","0","1","1","1","0","0","0","1","4","3","1","2","4","","3","2","3","2","3","783652100818341890","张","269","","","","nonmatch","","","","","","","","","","","","","","key","f","16.669372727272673","640","356","f","true","nonmatch","img/ellipse.png","六边","椭圆","ALT1_2","prac_ALT1_2","","","","","","","","","","","",""
"null","<span style='color:GreenYellow; font-size: 70px;'>正确! </span>","null","html-keyboard-response","24","303983","0.0-7.0-1.0-1.0-0.0-1.7","3","4","4","3","3","4","3","3","3","4","4","4","2","3","4","4","4","4","4","5","4","4","3","4","4","3","4","2","3","1","0","1","1","0","1","1","0","1","1","1","0","0","0","1","4","3","1","2","4","","3","2","3","2","3","783652100818341890","张","269","","","","","","","","","","","","","","","","","","","","","","","","","","","","","","feedback_test","","","","","","","","","","","",""
"741","","j","psychophysics","25","305726","0.0-7.0-1.0-1.0-0.0-0.8","3","4","4","3","3","4","3","3","3","4","4","4","2","3","4","4","4","4","4","5","4","4","3","4","4","3","4","2","3","1","0","1","1","0","1","1","0","1","1","1","0","0","0","1","4","3","1","2","4","","3","2","3","2","3","783652100818341890","张","269","","","","match","","","","","","","","","","","","","","key","j","16.6671067961165","640","356","j","true","match","img/triangle.png","三角","三角","ALT1_2","prac_ALT1_2","","","","","","","","","","","",""
"null","<span style='color:GreenYellow; font-size: 70px;'>正确! </span>","null","html-keyboard-response","26","306235","0.0-7.0-1.0-1.0-0.0-1.8","3","4","4","3","3","4","3","3","3","4","4","4","2","3","4","4","4","4","4","5","4","4","3","4","4","3","4","2","3","1","0","1","1","0","1","1","0","1","1","1","0","0","0","1","4","3","1","2","4","","3","2","3","2","3","783652100818341890","张","269","","","","","","","","","","","","","","","","","","","","","","","","","","","","","","feedback_test","","","","","","","","","","","",""
"1031","","f","psychophysics","27","308274","0.0-7.0-1.0-1.0-0.0-0.9","3","4","4","3","3","4","3","3","3","4","4","4","2","3","4","4","4","4","4","5","4","4","3","4","4","3","4","2","3","1","0","1","1","0","1","1","0","1","1","1","0","0","0","1","4","3","1","2","4","","3","2","3","2","3","783652100818341890","张","269","","","","nonmatch","","","","","","","","","","","","","","key","f","16.66706611570221","640","356","f","true","nonmatch","img/triangle.png","菱形","三角","ALT1_2","prac_ALT1_2","","","","","","","","","","","",""
"null","<span style='color:GreenYellow; font-size: 70px;'>正确! </span>","null","html-keyboard-response","28","308782","0.0-7.0-1.0-1.0-0.0-1.9","3","4","4","3","3","4","3","3","3","4","4","4","2","3","4","4","4","4","4","5","4","4","3","4","4","3","4","2","3","1","0","1","1","0","1","1","0","1","1","1","0","0","0","1","4","3","1","2","4","","3","2","3","2","3","783652100818341890","张","269","","","","","","","","","","","","","","","","","","","","","","","","","","","","","","feedback_test","","","","","","","","","","","",""
"1042","","j","psychophysics","29","310833","0.0-7.0-1.0-1.0-0.0-0.10","3","4","4","3","3","4","3","3","3","4","4","4","2","3","4","4","4","4","4","5","4","4","3","4","4","3","4","2","3","1","0","1","1","0","1","1","0","1","1","1","0","0","0","1","4","3","1","2","4","","3","2","3","2","3","783652100818341890","张","269","","","","match","","","","","","","","","","","","","","key","j","16.669319672131202","640","356","j","true","match","img/diamond.png","菱形","菱形","ALT1_2","prac_ALT1_2","","","","","","","","","","","",""
"null","<span style='color:GreenYellow; font-size: 70px;'>正确! </span>","null","html-keyboard-response","30","311341","0.0-7.0-1.0-1.0-0.0-1.10","3","4","4","3","3","4","3","3","3","4","4","4","2","3","4","4","4","4","4","5","4","4","3","4","4","3","4","2","3","1","0","1","1","0","1","1","0","1","1","1","0","0","0","1","4","3","1","2","4","","3","2","3","2","3","783652100818341890","张","269","","","","","","","","","","","","","","","","","","","","","","","","","","","","","","feedback_test","","","","","","","","","","","",""
"939","","j","psychophysics","31","313283","0.0-7.0-1.0-1.0-0.0-0.11","3","4","4","3","3","4","3","3","3","4","4","4","2","3","4","4","4","4","4","5","4","4","3","4","4","3","4","2","3","1","0","1","1","0","1","1","0","1","1","1","0","0","0","1","4","3","1","2","4","","3","2","3","2","3","783652100818341890","张","269","","","","match","","","","","","","","","","","","","","key","j","16.666982608695474","640","356","j","true","match","img/ellipse.png","椭圆","椭圆","ALT1_2","prac_ALT1_2","","","","","","","","","","","",""
"null","<span style='color:GreenYellow; font-size: 70px;'>正确! </span>","null","html-keyboard-response","32","313788","0.0-7.0-1.0-1.0-0.0-1.11","3","4","4","3","3","4","3","3","3","4","4","4","2","3","4","4","4","4","4","5","4","4","3","4","4","3","4","2","3","1","0","1","1","0","1","1","0","1","1","1","0","0","0","1","4","3","1","2","4","","3","2","3","2","3","783652100818341890","张","269","","","","","","","","","","","","","","","","","","","","","","","","","","","","","","feedback_test","","","","","","","","","","","",""
"790","","f","psychophysics","33","315583","0.0-7.0-1.0-1.0-0.0-0.12","3","4","4","3","3","4","3","3","3","4","4","4","2","3","4","4","4","4","4","5","4","4","3","4","4","3","4","2","3","1","0","1","1","0","1","1","0","1","1","1","0","0","0","1","4","3","1","2","4","","3","2","3","2","3","783652100818341890","张","269","","","","nonmatch","","","","","","","","","","","","","","key","f","16.668130841121407","640","356","f","true","nonmatch","img/diamond.png","三角","菱形","ALT1_2","prac_ALT1_2","","","","","","","","","","","",""
"null","<span style='color:GreenYellow; font-size: 70px;'>正确! </span>","null","html-keyboard-response","34","316093","0.0-7.0-1.0-1.0-0.0-1.12","3","4","4","3","3","4","3","3","3","4","4","4","2","3","4","4","4","4","4","5","4","4","3","4","4","3","4","2","3","1","0","1","1","0","1","1","0","1","1","1","0","0","0","1","4","3","1","2","4","","3","2","3","2","3","783652100818341890","张","269","","","","","","","","","","","","","","","","","","","","","","","","","","","","","","feedback_test","","","","","","","","","","","",""
"854","","j","psychophysics","35","317950","0.0-7.0-1.0-1.0-0.0-0.13","3","4","4","3","3","4","3","3","3","4","4","4","2","3","4","4","4","4","4","5","4","4","3","4","4","3","4","2","3","1","0","1","1","0","1","1","0","1","1","1","0","0","0","1","4","3","1","2","4","","3","2","3","2","3","783652100818341890","张","269","","","","match","","","","","","","","","","","","","","key","j","16.6700090909091","640","356","j","true","match","img/hexagon.png","六边","六边","ALT1_2","prac_ALT1_2","","","","","","","","","","","",""
"null","<span style='color:GreenYellow; font-size: 70px;'>正确! </span>","null","html-keyboard-response","36","318461","0.0-7.0-1.0-1.0-0.0-1.13","3","4","4","3","3","4","3","3","3","4","4","4","2","3","4","4","4","4","4","5","4","4","3","4","4","3","4","2","3","1","0","1","1","0","1","1","0","1","1","1","0","0","0","1","4","3","1","2","4","","3","2","3","2","3","783652100818341890","张","269","","","","","","","","","","","","","","","","","","","","","","","","","","","","","","feedback_test","","","","","","","","","","","",""
"1054","","f","psychophysics","37","320520","0.0-7.0-1.0-1.0-0.0-0.14","3","4","4","3","3","4","3","3","3","4","4","4","2","3","4","4","4","4","4","5","4","4","3","4","4","3","4","2","3","1","0","1","1","0","1","1","0","1","1","1","0","0","0","1","4","3","1","2","4","","3","2","3","2","3","783652100818341890","张","269","","","","nonmatch","","","","","","","","","","","","","","key","f","16.663819672130945","640","356","j","false","match","img/diamond.png","菱形","菱形","ALT1_2","prac_ALT1_2","","","","","","","","","","","",""
"null","<span style='color:red; font-size: 70px;'>错误! </span>","null","html-keyboard-response","38","321032","0.0-7.0-1.0-1.0-0.0-1.14","3","4","4","3","3","4","3","3","3","4","4","4","2","3","4","4","4","4","4","5","4","4","3","4","4","3","4","2","3","1","0","1","1","0","1","1","0","1","1","1","0","0","0","1","4","3","1","2","4","","3","2","3","2","3","783652100818341890","张","269","","","","","","","","","","","","","","","","","","","","","","","","","","","","","","feedback_test","","","","","","","","","","","",""
"817","","j","psychophysics","39","322857","0.0-7.0-1.0-1.0-0.0-0.15","3","4","4","3","3","4","3","3","3","4","4","4","2","3","4","4","4","4","4","5","4","4","3","4","4","3","4","2","3","1","0","1","1","0","1","1","0","1","1","1","0","0","0","1","4","3","1","2","4","","3","2","3","2","3","783652100818341890","张","269","","","","match","","","","","","","","","","","","","","key","j","16.666962962963023","640","356","j","true","match","img/ellipse.png","椭圆","椭圆","ALT1_2","prac_ALT1_2","","","","","","","","","","","",""
"null","<span style='color:GreenYellow; font-size: 70px;'>正确! </span>","null","html-keyboard-response","40","323362","0.0-7.0-1.0-1.0-0.0-1.15","3","4","4","3","3","4","3","3","3","4","4","4","2","3","4","4","4","4","4","5","4","4","3","4","4","3","4","2","3","1","0","1","1","0","1","1","0","1","1","1","0","0","0","1","4","3","1","2","4","","3","2","3","2","3","783652100818341890","张","269","","","","","","","","","","","","","","","","","","","","","","","","","","","","","","feedback_test","","","","","","","","","","","",""
"915","","f","psychophysics","41","325285","0.0-7.0-1.0-1.0-0.0-0.16","3","4","4","3","3","4","3","3","3","4","4","4","2","3","4","4","4","4","4","5","4","4","3","4","4","3","4","2","3","1","0","1","1","0","1","1","0","1","1","1","0","0","0","1","4","3","1","2","4","","3","2","3","2","3","783652100818341890","张","269","","","","nonmatch","","","","","","","","","","","","","","key","f","16.666043859649154","640","356","f","true","nonmatch","img/triangle.png","六边","三角","ALT1_2","prac_ALT1_2","","","","","","","","","","","",""
"null","<span style='color:GreenYellow; font-size: 70px;'>正确! </span>","null","html-keyboard-response","42","325788","0.0-7.0-1.0-1.0-0.0-1.16","3","4","4","3","3","4","3","3","3","4","4","4","2","3","4","4","4","4","4","5","4","4","3","4","4","3","4","2","3","1","0","1","1","0","1","1","0","1","1","1","0","0","0","1","4","3","1","2","4","","3","2","3","2","3","783652100818341890","张","269","","","","","","","","","","","","","","","","","","","","","","","","","","","","","","feedback_test","","","","","","","","","","","",""
"641","","j","psychophysics","43","327433","0.0-7.0-1.0-1.0-0.0-0.17","3","4","4","3","3","4","3","3","3","4","4","4","2","3","4","4","4","4","4","5","4","4","3","4","4","3","4","2","3","1","0","1","1","0","1","1","0","1","1","1","0","0","0","1","4","3","1","2","4","","3","2","3","2","3","783652100818341890","张","269","","","","match","","","","","","","","","","","","","","key","j","16.668836734693603","640","356","j","true","match","img/triangle.png","三角","三角","ALT1_2","prac_ALT1_2","","","","","","","","","","","",""
"null","<span style='color:GreenYellow; font-size: 70px;'>正确! </span>","null","html-keyboard-response","44","327939","0.0-7.0-1.0-1.0-0.0-1.17","3","4","4","3","3","4","3","3","3","4","4","4","2","3","4","4","4","4","4","5","4","4","3","4","4","3","4","2","3","1","0","1","1","0","1","1","0","1","1","1","0","0","0","1","4","3","1","2","4","","3","2","3","2","3","783652100818341890","张","269","","","","","","","","","","","","","","","","","","","","","","","","","","","","","","feedback_test","","","","","","","","","","","",""
"784","","f","psychophysics","45","329726","0.0-7.0-1.0-1.0-0.0-0.18","3","4","4","3","3","4","3","3","3","4","4","4","2","3","4","4","4","4","4","5","4","4","3","4","4","3","4","2","3","1","0","1","1","0","1","1","0","1","1","1","0","0","0","1","4","3","1","2","4","","3","2","3","2","3","783652100818341890","张","269","","","","nonmatch","","","","","","","","","","","","","","key","f","16.669047169811268","640","356","f","true","nonmatch","img/hexagon.png","三角","六边","ALT1_2","prac_ALT1_2","","","","","","","","","","","",""
"null","<span style='color:GreenYellow; font-size: 70px;'>正确! </span>","null","html-keyboard-response","46","330235","0.0-7.0-1.0-1.0-0.0-1.18","3","4","4","3","3","4","3","3","3","4","4","4","2","3","4","4","4","4","4","5","4","4","3","4","4","3","4","2","3","1","0","1","1","0","1","1","0","1","1","1","0","0","0","1","4","3","1","2","4","","3","2","3","2","3","783652100818341890","张","269","","","","","","","","","","","","","","","","","","","","","","","","","","","","","","feedback_test","","","","","","","","","","","",""
"566","","j","psychophysics","47","331804","0.0-7.0-1.0-1.0-0.0-0.19","3","4","4","3","3","4","3","3","3","4","4","4","2","3","4","4","4","4","4","5","4","4","3","4","4","3","4","2","3","1","0","1","1","0","1","1","0","1","1","1","0","0","0","1","4","3","1","2","4","","3","2","3","2","3","783652100818341890","张","269","","","","match","","","","","","","","","","","","","","key","j","16.667086021505266","640","356","j","true","match","img/triangle.png","三角","三角","ALT1_2","prac_ALT1_2","","","","","","","","","","","",""
"null","<span style='color:GreenYellow; font-size: 70px;'>正确! </span>","null","html-keyboard-response","48","332313","0.0-7.0-1.0-1.0-0.0-1.19","3","4","4","3","3","4","3","3","3","4","4","4","2","3","4","4","4","4","4","5","4","4","3","4","4","3","4","2","3","1","0","1","1","0","1","1","0","1","1","1","0","0","0","1","4","3","1","2","4","","3","2","3","2","3","783652100818341890","张","269","","","","","","","","","","","","","","","","","","","","","","","","","","","","","","feedback_test","","","","","","","","","","","",""
"756","","j","psychophysics","49","334072","0.0-7.0-1.0-1.0-0.0-0.20","3","4","4","3","3","4","3","3","3","4","4","4","2","3","4","4","4","4","4","5","4","4","3","4","4","3","4","2","3","1","0","1","1","0","1","1","0","1","1","1","0","0","0","1","4","3","1","2","4","","3","2","3","2","3","783652100818341890","张","269","","","","match","","","","","","","","","","","","","","key","j","16.66949038461518","640","356","j","true","match","img/diamond.png","菱形","菱形","ALT1_2","prac_ALT1_2","","","","","","","","","","","",""
"null","<span style='color:GreenYellow; font-size: 70px;'>正确! </span>","null","html-keyboard-response","50","334578","0.0-7.0-1.0-1.0-0.0-1.20","3","4","4","3","3","4","3","3","3","4","4","4","2","3","4","4","4","4","4","5","4","4","3","4","4","3","4","2","3","1","0","1","1","0","1","1","0","1","1","1","0","0","0","1","4","3","1","2","4","","3","2","3","2","3","783652100818341890","张","269","","","","","","","","","","","","","","","","","","","","","","","","","","","","","","feedback_test","","","","","","","","","","","",""
"738","","f","psychophysics","51","336323","0.0-7.0-1.0-1.0-0.0-0.21","3","4","4","3","3","4","3","3","3","4","4","4","2","3","4","4","4","4","4","5","4","4","3","4","4","3","4","2","3","1","0","1","1","0","1","1","0","1","1","1","0","0","0","1","4","3","1","2","4","","3","2","3","2","3","783652100818341890","张","269","","","","nonmatch","","","","","","","","","","","","","","key","f","16.663805825242466","640","356","f","true","nonmatch","img/diamond.png","六边","菱形","ALT1_2","prac_ALT1_2","","","","","","","","","","","",""
"null","<span style='color:GreenYellow; font-size: 70px;'>正确! </span>","null","html-keyboard-response","52","336826","0.0-7.0-1.0-1.0-0.0-1.21","3","4","4","3","3","4","3","3","3","4","4","4","2","3","4","4","4","4","4","5","4","4","3","4","4","3","4","2","3","1","0","1","1","0","1","1","0","1","1","1","0","0","0","1","4","3","1","2","4","","3","2","3","2","3","783652100818341890","张","269","","","","","","","","","","","","","","","","","","","","","","","","","","","","","","feedback_test","","","","","","","","","","","",""
"742","","f","psychophysics","53","338570","0.0-7.0-1.0-1.0-0.0-0.22","3","4","4","3","3","4","3","3","3","4","4","4","2","3","4","4","4","4","4","5","4","4","3","4","4","3","4","2","3","1","0","1","1","0","1","1","0","1","1","1","0","0","0","1","4","3","1","2","4","","3","2","3","2","3","783652100818341890","张","269","","","","nonmatch","","","","","","","","","","","","","","key","f","16.667961165048997","640","356","f","true","nonmatch","img/ellipse.png","三角","椭圆","ALT1_2","prac_ALT1_2","","","","","","","","","","","",""
"null","<span style='color:GreenYellow; font-size: 70px;'>正确! </span>","null","html-keyboard-response","54","339077","0.0-7.0-1.0-1.0-0.0-1.22","3","4","4","3","3","4","3","3","3","4","4","4","2","3","4","4","4","4","4","5","4","4","3","4","4","3","4","2","3","1","0","1","1","0","1","1","0","1","1","1","0","0","0","1","4","3","1","2","4","","3","2","3","2","3","783652100818341890","张","269","","","","","","","","","","","","","","","","","","","","","","","","","","","","","","feedback_test","","","","","","","","","","","",""
"798","","f","psychophysics","55","340878","0.0-7.0-1.0-1.0-0.0-0.23","3","4","4","3","3","4","3","3","3","4","4","4","2","3","4","4","4","4","4","5","4","4","3","4","4","3","4","2","3","1","0","1","1","0","1","1","0","1","1","1","0","0","0","1","4","3","1","2","4","","3","2","3","2","3","783652100818341890","张","269","","","","nonmatch","","","","","","","","","","","","","","key","f","16.66893457943926","640","356","j","false","match","img/hexagon.png","六边","六边","ALT1_2","prac_ALT1_2","","","","","","","","","","","",""
"null","<span style='color:red; font-size: 70px;'>错误! </span>","null","html-keyboard-response","56","341396","0.0-7.0-1.0-1.0-0.0-1.23","3","4","4","3","3","4","3","3","3","4","4","4","2","3","4","4","4","4","4","5","4","4","3","4","4","3","4","2","3","1","0","1","1","0","1","1","0","1","1","1","0","0","0","1","4","3","1","2","4","","3","2","3","2","3","783652100818341890","张","269","","","","","","","","","","","","","","","","","","","","","","","","","","","","","","feedback_test","","","","","","","","","","","",""
"564","","j","psychophysics","57","342969","0.0-7.0-1.0-1.0-0.0-0.24","3","4","4","3","3","4","3","3","3","4","4","4","2","3","4","4","4","4","4","5","4","4","3","4","4","3","4","2","3","1","0","1","1","0","1","1","0","1","1","1","0","0","0","1","4","3","1","2","4","","3","2","3","2","3","783652100818341890","张","269","","","","match","","","","","","","","","","","","","","key","j","16.668666666666528","640","356","j","true","match","img/ellipse.png","椭圆","椭圆","ALT1_2","prac_ALT1_2","","","","","","","","","","","",""
"null","<span style='color:GreenYellow; font-size: 70px;'>正确! </span>","null","html-keyboard-response","58","343483","0.0-7.0-1.0-1.0-0.0-1.24","3","4","4","3","3","4","3","3","3","4","4","4","2","3","4","4","4","4","4","5","4","4","3","4","4","3","4","2","3","1","0","1","1","0","1","1","0","1","1","1","0","0","0","1","4","3","1","2","4","","3","2","3","2","3","783652100818341890","张","269","","","","","","","","","","","","","","","","","","","","","","","","","","","","","","feedback_test","","","","","","","","","","","",""
"759","","f","psychophysics","59","345252","0.0-7.0-1.0-1.0-0.0-0.25","3","4","4","3","3","4","3","3","3","4","4","4","2","3","4","4","4","4","4","5","4","4","3","4","4","3","4","2","3","1","0","1","1","0","1","1","0","1","1","1","0","0","0","1","4","3","1","2","4","","3","2","3","2","3","783652100818341890","张","269","","","","nonmatch","","","","","","","","","","","","","","key","f","16.66827619047614","640","356","f","true","nonmatch","img/ellipse.png","菱形","椭圆","ALT1_2","prac_ALT1_2","","","","","","","","","","","",""
"null","<span style='color:GreenYellow; font-size: 70px;'>正确! </span>","null","html-keyboard-response","60","345753","0.0-7.0-1.0-1.0-0.0-1.25","3","4","4","3","3","4","3","3","3","4","4","4","2","3","4","4","4","4","4","5","4","4","3","4","4","3","4","2","3","1","0","1","1","0","1","1","0","1","1","1","0","0","0","1","4","3","1","2","4","","3","2","3","2","3","783652100818341890","张","269","","","","","","","","","","","","","","","","","","","","","","","","","","","","","","feedback_test","","","","","","","","","","","",""
"691","","f","psychophysics","61","347447","0.0-7.0-1.0-1.0-0.0-0.26","3","4","4","3","3","4","3","3","3","4","4","4","2","3","4","4","4","4","4","5","4","4","3","4","4","3","4","2","3","1","0","1","1","0","1","1","0","1","1","1","0","0","0","1","4","3","1","2","4","","3","2","3","2","3","783652100818341890","张","269","","","","nonmatch","","","","","","","","","","","","","","key","f","16.66961386138608","640","356","f","true","nonmatch","img/ellipse.png","六边","椭圆","ALT1_2","prac_ALT1_2","","","","","","","","","","","",""
"null","<span style='color:GreenYellow; font-size: 70px;'>正确! </span>","null","html-keyboard-response","62","347949","0.0-7.0-1.0-1.0-0.0-1.26","3","4","4","3","3","4","3","3","3","4","4","4","2","3","4","4","4","4","4","5","4","4","3","4","4","3","4","2","3","1","0","1","1","0","1","1","0","1","1","1","0","0","0","1","4","3","1","2","4","","3","2","3","2","3","783652100818341890","张","269","","","","","","","","","","","","","","","","","","","","","","","","","","","","","","feedback_test","","","","","","","","","","","",""
"826","","j","psychophysics","63","349781","0.0-7.0-1.0-1.0-0.0-0.27","3","4","4","3","3","4","3","3","3","4","4","4","2","3","4","4","4","4","4","5","4","4","3","4","4","3","4","2","3","1","0","1","1","0","1","1","0","1","1","1","0","0","0","1","4","3","1","2","4","","3","2","3","2","3","783652100818341890","张","269","","","","match","","","","","","","","","","","","","","key","j","16.667807339449784","640","356","f","false","nonmatch","img/hexagon.png","三角","六边","ALT1_2","prac_ALT1_2","","","","","","","","","","","",""
"null","<span style='color:red; font-size: 70px;'>错误! </span>","null","html-keyboard-response","64","350288","0.0-7.0-1.0-1.0-0.0-1.27","3","4","4","3","3","4","3","3","3","4","4","4","2","3","4","4","4","4","4","5","4","4","3","4","4","3","4","2","3","1","0","1","1","0","1","1","0","1","1","1","0","0","0","1","4","3","1","2","4","","3","2","3","2","3","783652100818341890","张","269","","","","","","","","","","","","","","","","","","","","","","","","","","","","","","feedback_test","","","","","","","","","","","",""
"1105","","j","psychophysics","65","352396","0.0-7.0-1.0-1.0-0.0-0.28","3","4","4","3","3","4","3","3","3","4","4","4","2","3","4","4","4","4","4","5","4","4","3","4","4","3","4","2","3","1","0","1","1","0","1","1","0","1","1","1","0","0","0","1","4","3","1","2","4","","3","2","3","2","3","783652100818341890","张","269","","","","match","","","","","","","","","","","","","","key","j","16.666904761904522","640","356","j","true","match","img/diamond.png","菱形","菱形","ALT1_2","prac_ALT1_2","","","","","","","","","","","",""
"null","<span style='color:GreenYellow; font-size: 70px;'>正确! </span>","null","html-keyboard-response","66","352901","0.0-7.0-1.0-1.0-0.0-1.28","3","4","4","3","3","4","3","3","3","4","4","4","2","3","4","4","4","4","4","5","4","4","3","4","4","3","4","2","3","1","0","1","1","0","1","1","0","1","1","1","0","0","0","1","4","3","1","2","4","","3","2","3","2","3","783652100818341890","张","269","","","","","","","","","","","","","","","","","","","","","","","","","","","","","","feedback_test","","","","","","","","","","","",""
"883","","f","psychophysics","67","354791","0.0-7.0-1.0-1.0-0.0-0.29","3","4","4","3","3","4","3","3","3","4","4","4","2","3","4","4","4","4","4","5","4","4","3","4","4","3","4","2","3","1","0","1","1","0","1","1","0","1","1","1","0","0","0","1","4","3","1","2","4","","3","2","3","2","3","783652100818341890","张","269","","","","nonmatch","","","","","","","","","","","","","","key","f","16.668812500000058","640","356","f","true","nonmatch","img/triangle.png","菱形","三角","ALT1_2","prac_ALT1_2","","","","","","","","","","","",""
"null","<span style='color:GreenYellow; font-size: 70px;'>正确! </span>","null","html-keyboard-response","68","355303","0.0-7.0-1.0-1.0-0.0-1.29","3","4","4","3","3","4","3","3","3","4","4","4","2","3","4","4","4","4","4","5","4","4","3","4","4","3","4","2","3","1","0","1","1","0","1","1","0","1","1","1","0","0","0","1","4","3","1","2","4","","3","2","3","2","3","783652100818341890","张","269","","","","","","","","","","","","","","","","","","","","","","","","","","","","","","feedback_test","","","","","","","","","","","",""
"761","","f","psychophysics","69","357068","0.0-7.0-1.0-1.0-0.0-0.30","3","4","4","3","3","4","3","3","3","4","4","4","2","3","4","4","4","4","4","5","4","4","3","4","4","3","4","2","3","1","0","1","1","0","1","1","0","1","1","1","0","0","0","1","4","3","1","2","4","","3","2","3","2","3","783652100818341890","张","269","","","","nonmatch","","","","","","","","","","","","","","key","f","16.668057142856664","640","356","j","false","match","img/diamond.png","菱形","菱形","ALT1_2","prac_ALT1_2","","","","","","","","","","","",""
"null","<span style='color:red; font-size: 70px;'>错误! </span>","null","html-keyboard-response","70","357576","0.0-7.0-1.0-1.0-0.0-1.30","3","4","4","3","3","4","3","3","3","4","4","4","2","3","4","4","4","4","4","5","4","4","3","4","4","3","4","2","3","1","0","1","1","0","1","1","0","1","1","1","0","0","0","1","4","3","1","2","4","","3","2","3","2","3","783652100818341890","张","269","","","","","","","","","","","","","","","","","","","","","","","","","","","","","","feedback_test","","","","","","","","","","","",""
"794","","f","psychophysics","71","359373","0.0-7.0-1.0-1.0-0.0-0.31","3","4","4","3","3","4","3","3","3","4","4","4","2","3","4","4","4","4","4","5","4","4","3","4","4","3","4","2","3","1","0","1","1","0","1","1","0","1","1","1","0","0","0","1","4","3","1","2","4","","3","2","3","2","3","783652100818341890","张","269","","","","nonmatch","","","","","","","","","","","","","","key","f","16.66703773584911","640","356","f","true","nonmatch","img/diamond.png","三角","菱形","ALT1_2","prac_ALT1_2","","","","","","","","","","","",""
"null","<span style='color:GreenYellow; font-size: 70px;'>正确! </span>","null","html-keyboard-response","72","359878","0.0-7.0-1.0-1.0-0.0-1.31","3","4","4","3","3","4","3","3","3","4","4","4","2","3","4","4","4","4","4","5","4","4","3","4","4","3","4","2","3","1","0","1","1","0","1","1","0","1","1","1","0","0","0","1","4","3","1","2","4","","3","2","3","2","3","783652100818341890","张","269","","","","","","","","","","","","","","","","","","","","","","","","","","","","","","feedback_test","","","","","","","","","","","",""
"798","","j","psychophysics","73","361681","0.0-7.0-1.0-1.0-0.0-0.32","3","4","4","3","3","4","3","3","3","4","4","4","2","3","4","4","4","4","4","5","4","4","3","4","4","3","4","2","3","1","0","1","1","0","1","1","0","1","1","1","0","0","0","1","4","3","1","2","4","","3","2","3","2","3","783652100818341890","张","269","","","","match","","","","","","","","","","","","","","key","j","16.66842990654203","640","356","j","true","match","img/ellipse.png","椭圆","椭圆","ALT1_2","prac_ALT1_2","","","","","","","","","","","",""
"null","<span style='color:GreenYellow; font-size: 70px;'>正确! </span>","null","html-keyboard-response","74","362191","0.0-7.0-1.0-1.0-0.0-1.32","3","4","4","3","3","4","3","3","3","4","4","4","2","3","4","4","4","4","4","5","4","4","3","4","4","3","4","2","3","1","0","1","1","0","1","1","0","1","1","1","0","0","0","1","4","3","1","2","4","","3","2","3","2","3","783652100818341890","张","269","","","","","","","","","","","","","","","","","","","","","","","","","","","","","","feedback_test","","","","","","","","","","","",""
"637","","f","psychophysics","75","363830","0.0-7.0-1.0-1.0-0.0-0.33","3","4","4","3","3","4","3","3","3","4","4","4","2","3","4","4","4","4","4","5","4","4","3","4","4","3","4","2","3","1","0","1","1","0","1","1","0","1","1","1","0","0","0","1","4","3","1","2","4","","3","2","3","2","3","783652100818341890","张","269","","","","nonmatch","","","","","","","","","","","","","","key","f","16.663711340206234","640","356","f","true","nonmatch","img/triangle.png","椭圆","三角","ALT1_2","prac_ALT1_2","","","","","","","","","","","",""
"null","<span style='color:GreenYellow; font-size: 70px;'>正确! </span>","null","html-keyboard-response","76","364336","0.0-7.0-1.0-1.0-0.0-1.33","3","4","4","3","3","4","3","3","3","4","4","4","2","3","4","4","4","4","4","5","4","4","3","4","4","3","4","2","3","1","0","1","1","0","1","1","0","1","1","1","0","0","0","1","4","3","1","2","4","","3","2","3","2","3","783652100818341890","张","269","","","","","","","","","","","","","","","","","","","","","","","","","","","","","","feedback_test","","","","","","","","","","","",""
"1072","","f","psychophysics","77","366413","0.0-7.0-1.0-1.0-0.0-0.34","3","4","4","3","3","4","3","3","3","4","4","4","2","3","4","4","4","4","4","5","4","4","3","4","4","3","4","2","3","1","0","1","1","0","1","1","0","1","1","1","0","0","0","1","4","3","1","2","4","","3","2","3","2","3","783652100818341890","张","269","","","","nonmatch","","","","","","","","","","","","","","key","f","16.667427419354826","640","356","j","false","match","img/diamond.png","菱形","菱形","ALT1_2","prac_ALT1_2","","","","","","","","","","","",""
"null","<span style='color:red; font-size: 70px;'>错误! </span>","null","html-keyboard-response","78","366918","0.0-7.0-1.0-1.0-0.0-1.34","3","4","4","3","3","4","3","3","3","4","4","4","2","3","4","4","4","4","4","5","4","4","3","4","4","3","4","2","3","1","0","1","1","0","1","1","0","1","1","1","0","0","0","1","4","3","1","2","4","","3","2","3","2","3","783652100818341890","张","269","","","","","","","","","","","","","","","","","","","","","","","","","","","","","","feedback_test","","","","","","","","","","","",""
"942","","j","psychophysics","79","368867","0.0-7.0-1.0-1.0-0.0-0.35","3","4","4","3","3","4","3","3","3","4","4","4","2","3","4","4","4","4","4","5","4","4","3","4","4","3","4","2","3","1","0","1","1","0","1","1","0","1","1","1","0","0","0","1","4","3","1","2","4","","3","2","3","2","3","783652100818341890","张","269","","","","match","","","","","","","","","","","","","","key","j","16.669198275861884","640","356","j","true","match","img/hexagon.png","六边","六边","ALT1_2","prac_ALT1_2","","","","","","","","","","","",""
"null","<span style='color:GreenYellow; font-size: 70px;'>正确! </span>","null","html-keyboard-response","80","369383","0.0-7.0-1.0-1.0-0.0-1.35","3","4","4","3","3","4","3","3","3","4","4","4","2","3","4","4","4","4","4","5","4","4","3","4","4","3","4","2","3","1","0","1","1","0","1","1","0","1","1","1","0","0","0","1","4","3","1","2","4","","3","2","3","2","3","783652100818341890","张","269","","","","","","","","","","","","","","","","","","","","","","","","","","","","","","feedback_test","","","","","","","","","","","",""
"898","","j","psychophysics","81","371284","0.0-7.0-1.0-1.0-0.0-0.36","3","4","4","3","3","4","3","3","3","4","4","4","2","3","4","4","4","4","4","5","4","4","3","4","4","3","4","2","3","1","0","1","1","0","1","1","0","1","1","1","0","0","0","1","4","3","1","2","4","","3","2","3","2","3","783652100818341890","张","269","","","","match","","","","","","","","","","","","","","key","j","16.668168141592638","640","356","f","false","nonmatch","img/diamond.png","六边","菱形","ALT1_2","prac_ALT1_2","","","","","","","","","","","",""
"null","<span style='color:red; font-size: 70px;'>错误! </span>","null","html-keyboard-response","82","371788","0.0-7.0-1.0-1.0-0.0-1.36","3","4","4","3","3","4","3","3","3","4","4","4","2","3","4","4","4","4","4","5","4","4","3","4","4","3","4","2","3","1","0","1","1","0","1","1","0","1","1","1","0","0","0","1","4","3","1","2","4","","3","2","3","2","3","783652100818341890","张","269","","","","","","","","","","","","","","","","","","","","","","","","","","","","","","feedback_test","","","","","","","","","","","",""
"705","","j","psychophysics","83","373496","0.0-7.0-1.0-1.0-0.0-0.37","3","4","4","3","3","4","3","3","3","4","4","4","2","3","4","4","4","4","4","5","4","4","3","4","4","3","4","2","3","1","0","1","1","0","1","1","0","1","1","1","0","0","0","1","4","3","1","2","4","","3","2","3","2","3","783652100818341890","张","269","","","","match","","","","","","","","","","","","","","key","j","16.514287128713153","640","356","j","true","match","img/triangle.png","三角","三角","ALT1_2","prac_ALT1_2","","","","","","","","","","","",""
"null","<span style='color:GreenYellow; font-size: 70px;'>正确! </span>","null","html-keyboard-response","84","374008","0.0-7.0-1.0-1.0-0.0-1.37","3","4","4","3","3","4","3","3","3","4","4","4","2","3","4","4","4","4","4","5","4","4","3","4","4","3","4","2","3","1","0","1","1","0","1","1","0","1","1","1","0","0","0","1","4","3","1","2","4","","3","2","3","2","3","783652100818341890","张","269","","","","","","","","","","","","","","","","","","","","","","","","","","","","","","feedback_test","","","","","","","","","","","",""
"577","","j","psychophysics","85","375587","0.0-7.0-1.0-1.0-0.0-0.38","3","4","4","3","3","4","3","3","3","4","4","4","2","3","4","4","4","4","4","5","4","4","3","4","4","3","4","2","3","1","0","1","1","0","1","1","0","1","1","1","0","0","0","1","4","3","1","2","4","","3","2","3","2","3","783652100818341890","张","269","","","","match","","","","","","","","","","","","","","key","j","16.66864516128979","640","356","j","true","match","img/triangle.png","三角","三角","ALT1_2","prac_ALT1_2","","","","","","","","","","","",""
"null","<span style='color:GreenYellow; font-size: 70px;'>正确! </span>","null","html-keyboard-response","86","376092","0.0-7.0-1.0-1.0-0.0-1.38","3","4","4","3","3","4","3","3","3","4","4","4","2","3","4","4","4","4","4","5","4","4","3","4","4","3","4","2","3","1","0","1","1","0","1","1","0","1","1","1","0","0","0","1","4","3","1","2","4","","3","2","3","2","3","783652100818341890","张","269","","","","","","","","","","","","","","","","","","","","","","","","","","","","","","feedback_test","","","","","","","","","","","",""
"1003","","j","psychophysics","87","378097","0.0-7.0-1.0-1.0-0.0-0.39","3","4","4","3","3","4","3","3","3","4","4","4","2","3","4","4","4","4","4","5","4","4","3","4","4","3","4","2","3","1","0","1","1","0","1","1","0","1","1","1","0","0","0","1","4","3","1","2","4","","3","2","3","2","3","783652100818341890","张","269","","","","match","","","","","","","","","","","","","","key","j","16.669151260503842","640","356","f","false","nonmatch","img/hexagon.png","菱形","六边","ALT1_2","prac_ALT1_2","","","","","","","","","","","",""
"null","<span style='color:red; font-size: 70px;'>错误! </span>","null","html-keyboard-response","88","378601","0.0-7.0-1.0-1.0-0.0-1.39","3","4","4","3","3","4","3","3","3","4","4","4","2","3","4","4","4","4","4","5","4","4","3","4","4","3","4","2","3","1","0","1","1","0","1","1","0","1","1","1","0","0","0","1","4","3","1","2","4","","3","2","3","2","3","783652100818341890","张","269","","","","","","","","","","","","","","","","","","","","","","","","","","","","","","feedback_test","","","","","","","","","","","",""
"921","","j","psychophysics","89","380528","0.0-7.0-1.0-1.0-0.0-0.40","3","4","4","3","3","4","3","3","3","4","4","4","2","3","4","4","4","4","4","5","4","4","3","4","4","3","4","2","3","1","0","1","1","0","1","1","0","1","1","1","0","0","0","1","4","3","1","2","4","","3","2","3","2","3","783652100818341890","张","269","","","","match","","","","","","","","","","","","","","key","j","16.66690434782624","640","356","j","true","match","img/hexagon.png","六边","六边","ALT1_2","prac_ALT1_2","","","","","","","","","","","",""
"null","<span style='color:GreenYellow; font-size: 70px;'>正确! </span>","null","html-keyboard-response","90","381035","0.0-7.0-1.0-1.0-0.0-1.40","3","4","4","3","3","4","3","3","3","4","4","4","2","3","4","4","4","4","4","5","4","4","3","4","4","3","4","2","3","1","0","1","1","0","1","1","0","1","1","1","0","0","0","1","4","3","1","2","4","","3","2","3","2","3","783652100818341890","张","269","","","","","","","","","","","","","","","","","","","","","","","","","","","","","","feedback_test","","","","","","","","","","","",""
"568","","j","psychophysics","91","382607","0.0-7.0-1.0-1.0-0.0-0.41","3","4","4","3","3","4","3","3","3","4","4","4","2","3","4","4","4","4","4","5","4","4","3","4","4","3","4","2","3","1","0","1","1","0","1","1","0","1","1","1","0","0","0","1","4","3","1","2","4","","3","2","3","2","3","783652100818341890","张","269","","","","match","","","","","","","","","","","","","","key","j","16.667559139784775","640","356","j","true","match","img/hexagon.png","六边","六边","ALT1_2","prac_ALT1_2","","","","","","","","","","","",""
"null","<span style='color:GreenYellow; font-size: 70px;'>正确! </span>","null","html-keyboard-response","92","383113","0.0-7.0-1.0-1.0-0.0-1.41","3","4","4","3","3","4","3","3","3","4","4","4","2","3","4","4","4","4","4","5","4","4","3","4","4","3","4","2","3","1","0","1","1","0","1","1","0","1","1","1","0","0","0","1","4","3","1","2","4","","3","2","3","2","3","783652100818341890","张","269","","","","","","","","","","","","","","","","","","","","","","","","","","","","","","feedback_test","","","","","","","","","","","",""
"819","","f","psychophysics","93","384940","0.0-7.0-1.0-1.0-0.0-0.42","3","4","4","3","3","4","3","3","3","4","4","4","2","3","4","4","4","4","4","5","4","4","3","4","4","3","4","2","3","1","0","1","1","0","1","1","0","1","1","1","0","0","0","1","4","3","1","2","4","","3","2","3","2","3","783652100818341890","张","269","","","","nonmatch","","","","","","","","","","","","","","key","f","16.670731481481603","640","356","f","true","nonmatch","img/hexagon.png","椭圆","六边","ALT1_2","prac_ALT1_2","","","","","","","","","","","",""
"null","<span style='color:GreenYellow; font-size: 70px;'>正确! </span>","null","html-keyboard-response","94","385442","0.0-7.0-1.0-1.0-0.0-1.42","3","4","4","3","3","4","3","3","3","4","4","4","2","3","4","4","4","4","4","5","4","4","3","4","4","3","4","2","3","1","0","1","1","0","1","1","0","1","1","1","0","0","0","1","4","3","1","2","4","","3","2","3","2","3","783652100818341890","张","269","","","","","","","","","","","","","","","","","","","","","","","","","","","","","","feedback_test","","","","","","","","","","","",""
"611","","j","psychophysics","95","387056","0.0-7.0-1.0-1.0-0.0-0.43","3","4","4","3","3","4","3","3","3","4","4","4","2","3","4","4","4","4","4","5","4","4","3","4","4","3","4","2","3","1","0","1","1","0","1","1","0","1","1","1","0","0","0","1","4","3","1","2","4","","3","2","3","2","3","783652100818341890","张","269","","","","match","","","","","","","","","","","","","","key","j","16.668199999999917","640","356","f","false","nonmatch","img/ellipse.png","三角","椭圆","ALT1_2","prac_ALT1_2","","","","","","","","","","","",""
"null","<span style='color:red; font-size: 70px;'>错误! </span>","null","html-keyboard-response","96","387559","0.0-7.0-1.0-1.0-0.0-1.43","3","4","4","3","3","4","3","3","3","4","4","4","2","3","4","4","4","4","4","5","4","4","3","4","4","3","4","2","3","1","0","1","1","0","1","1","0","1","1","1","0","0","0","1","4","3","1","2","4","","3","2","3","2","3","783652100818341890","张","269","","","","","","","","","","","","","","","","","","","","","","","","","","","","","","feedback_test","","","","","","","","","","","",""
"824","","f","psychophysics","97","389393","0.0-7.0-1.0-1.0-0.0-0.44","3","4","4","3","3","4","3","3","3","4","4","4","2","3","4","4","4","4","4","5","4","4","3","4","4","3","4","2","3","1","0","1","1","0","1","1","0","1","1","1","0","0","0","1","4","3","1","2","4","","3","2","3","2","3","783652100818341890","张","269","","","","nonmatch","","","","","","","","","","","","","","key","f","16.664862385321378","640","356","f","true","nonmatch","img/diamond.png","椭圆","菱形","ALT1_2","prac_ALT1_2","","","","","","","","","","","",""
"null","<span style='color:GreenYellow; font-size: 70px;'>正确! </span>","null","html-keyboard-response","98","389897","0.0-7.0-1.0-1.0-0.0-1.44","3","4","4","3","3","4","3","3","3","4","4","4","2","3","4","4","4","4","4","5","4","4","3","4","4","3","4","2","3","1","0","1","1","0","1","1","0","1","1","1","0","0","0","1","4","3","1","2","4","","3","2","3","2","3","783652100818341890","张","269","","","","","","","","","","","","","","","","","","","","","","","","","","","","","","feedback_test","","","","","","","","","","","",""
"703","","j","psychophysics","99","391609","0.0-7.0-1.0-1.0-0.0-0.45","3","4","4","3","3","4","3","3","3","4","4","4","2","3","4","4","4","4","4","5","4","4","3","4","4","3","4","2","3","1","0","1","1","0","1","1","0","1","1","1","0","0","0","1","4","3","1","2","4","","3","2","3","2","3","783652100818341890","张","269","","","","match","","","","","","","","","","","","","","key","j","16.66746078431321","640","356","f","false","nonmatch","img/triangle.png","六边","三角","ALT1_2","prac_ALT1_2","","","","","","","","","","","",""
"null","<span style='color:red; font-size: 70px;'>错误! </span>","null","html-keyboard-response","100","392119","0.0-7.0-1.0-1.0-0.0-1.45","3","4","4","3","3","4","3","3","3","4","4","4","2","3","4","4","4","4","4","5","4","4","3","4","4","3","4","2","3","1","0","1","1","0","1","1","0","1","1","1","0","0","0","1","4","3","1","2","4","","3","2","3","2","3","783652100818341890","张","269","","","","","","","","","","","","","","","","","","","","","","","","","","","","","","feedback_test","","","","","","","","","","","",""
"789","","f","psychophysics","101","393913","0.0-7.0-1.0-1.0-0.0-0.46","3","4","4","3","3","4","3","3","3","4","4","4","2","3","4","4","4","4","4","5","4","4","3","4","4","3","4","2","3","1","0","1","1","0","1","1","0","1","1","1","0","0","0","1","4","3","1","2","4","","3","2","3","2","3","783652100818341890","张","269","","","","nonmatch","","","","","","","","","","","","","","key","f","16.667841121495623","640","356","j","false","match","img/ellipse.png","椭圆","椭圆","ALT1_2","prac_ALT1_2","","","","","","","","","","","",""
"null","<span style='color:red; font-size: 70px;'>错误! </span>","null","html-keyboard-response","102","394415","0.0-7.0-1.0-1.0-0.0-1.46","3","4","4","3","3","4","3","3","3","4","4","4","2","3","4","4","4","4","4","5","4","4","3","4","4","3","4","2","3","1","0","1","1","0","1","1","0","1","1","1","0","0","0","1","4","3","1","2","4","","3","2","3","2","3","783652100818341890","张","269","","","","","","","","","","","","","","","","","","","","","","","","","","","","","","feedback_test","","","","","","","","","","","",""
"681","","j","psychophysics","103","396105","0.0-7.0-1.0-1.0-0.0-0.47","3","4","4","3","3","4","3","3","3","4","4","4","2","3","4","4","4","4","4","5","4","4","3","4","4","3","4","2","3","1","0","1","1","0","1","1","0","1","1","1","0","0","0","1","4","3","1","2","4","","3","2","3","2","3","783652100818341890","张","269","","","","match","","","","","","","","","","","","","","key","j","16.6686599999998","640","356","j","true","match","img/triangle.png","三角","三角","ALT1_2","prac_ALT1_2","","","","","","","","","","","",""
"null","<span style='color:GreenYellow; font-size: 70px;'>正确! </span>","null","html-keyboard-response","104","396607","0.0-7.0-1.0-1.0-0.0-1.47","3","4","4","3","3","4","3","3","3","4","4","4","2","3","4","4","4","4","4","5","4","4","3","4","4","3","4","2","3","1","0","1","1","0","1","1","0","1","1","1","0","0","0","1","4","3","1","2","4","","3","2","3","2","3","783652100818341890","张","269","","","","","","","","","","","","","","","","","","","","","","","","","","","","","","feedback_test","","","","","","","","","","","",""
"19392","<style>.context{color:white; font-size: 35px; line-height:40px}</style>                          <div><p class='context'>您正确回答了73% 的试次。</p><p class='context'>您的平均反应时为816毫秒。</p><p class='context'>恭喜您完成练习。按空格键进入正式实验。</p><p class='footer' style='font-size: 35px; line-height:40px;'>请在进入正式实验实验之前将您的<span style='color: lightgreen;'>食指</span>放在电脑键盘的相应键位上进行按键。</p>"," ","html-keyboard-response","105","416004","0.0-7.0-1.0-2.0","3","4","4","3","3","4","3","3","3","4","4","4","2","3","4","4","4","4","4","5","4","4","3","4","4","3","4","2","3","1","0","1","1","0","1","1","0","1","1","1","0","0","0","1","4","3","1","2","4","","3","2","3","2","3","783652100818341890","张","269","","","","","","","","","","","","","","","","","","","","","","","","","","","","","","","","","","","","","","","","","",""
"4173","
  <p style='color: white; font-size: 22px'>请您将手指放在按键上，准备进入正式的匹配任务。</p>
  <p> <div style = ""color: green""><按空格键进入下一阶段的匹配任务></div></p>
  "," ","html-keyboard-response","106","420183","0.0-7.0-1.0-3.0","3","4","4","3","3","4","3","3","3","4","4","4","2","3","4","4","4","4","4","5","4","4","3","4","4","3","4","2","3","1","0","1","1","0","1","1","0","1","1","1","0","0","0","1","4","3","1","2","4","","3","2","3","2","3","783652100818341890","张","269","","","","","","","","","","","","","","","","","","","","","","","","","","","","","","","","","","","","","","","","","",""
"931","","j","psychophysics","107","422119","0.0-7.0-1.0-4.0-0.0-0.0","3","4","4","3","3","4","3","3","3","4","4","4","2","3","4","4","4","4","4","5","4","4","3","4","4","3","4","2","3","1","0","1","1","0","1","1","0","1","1","1","0","0","0","1","4","3","1","2","4","","3","2","3","2","3","783652100818341890","张","269","","","","match","","","","","","","","","","","","","","key","j","16.66636521739116","640","356","j","true","match","img/hexagon.png","六边","六边","ALT1","formal_ALT1_2","","","","","","","","","","","",""
"null","<span style='color:GreenYellow; font-size: 70px;'>正确! </span>","null","html-keyboard-response","108","422628","0.0-7.0-1.0-4.0-0.0-1.0","3","4","4","3","3","4","3","3","3","4","4","4","2","3","4","4","4","4","4","5","4","4","3","4","4","3","4","2","3","1","0","1","1","0","1","1","0","1","1","1","0","0","0","1","4","3","1","2","4","","3","2","3","2","3","783652100818341890","张","269","","","","","","","","","","","","","","","","","","","","","","","","","","","","","","feedback_test","","","","","","","","","","","",""
"985","","f","psychophysics","109","424621","0.0-7.0-1.0-4.0-0.0-0.1","3","4","4","3","3","4","3","3","3","4","4","4","2","3","4","4","4","4","4","5","4","4","3","4","4","3","4","2","3","1","0","1","1","0","1","1","0","1","1","1","0","0","0","1","4","3","1","2","4","","3","2","3","2","3","783652100818341890","张","269","","","","nonmatch","","","","","","","","","","","","","","key","f","16.668686440678204","640","356","f","true","nonmatch","img/triangle.png","菱形","三角","ALT1","formal_ALT1_2","","","","","","","","","","","",""
"null","<span style='color:GreenYellow; font-size: 70px;'>正确! </span>","null","html-keyboard-response","110","425132","0.0-7.0-1.0-4.0-0.0-1.1","3","4","4","3","3","4","3","3","3","4","4","4","2","3","4","4","4","4","4","5","4","4","3","4","4","3","4","2","3","1","0","1","1","0","1","1","0","1","1","1","0","0","0","1","4","3","1","2","4","","3","2","3","2","3","783652100818341890","张","269","","","","","","","","","","","","","","","","","","","","","","","","","","","","","","feedback_test","","","","","","","","","","","",""
"759","","f","psychophysics","111","426899","0.0-7.0-1.0-4.0-0.0-0.2","3","4","4","3","3","4","3","3","3","4","4","4","2","3","4","4","4","4","4","5","4","4","3","4","4","3","4","2","3","1","0","1","1","0","1","1","0","1","1","1","0","0","0","1","4","3","1","2","4","","3","2","3","2","3","783652100818341890","张","269","","","","nonmatch","","","","","","","","","","","","","","key","f","16.670200000000406","640","356","f","true","nonmatch","img/diamond.png","六边","菱形","ALT1","formal_ALT1_2","","","","","","","","","","","",""
"null","<span style='color:GreenYellow; font-size: 70px;'>正确! </span>","null","html-keyboard-response","112","427406","0.0-7.0-1.0-4.0-0.0-1.2","3","4","4","3","3","4","3","3","3","4","4","4","2","3","4","4","4","4","4","5","4","4","3","4","4","3","4","2","3","1","0","1","1","0","1","1","0","1","1","1","0","0","0","1","4","3","1","2","4","","3","2","3","2","3","783652100818341890","张","269","","","","","","","","","","","","","","","","","","","","","","","","","","","","","","feedback_test","","","","","","","","","","","",""
"757","","f","psychophysics","113","429166","0.0-7.0-1.0-4.0-0.0-0.3","3","4","4","3","3","4","3","3","3","4","4","4","2","3","4","4","4","4","4","5","4","4","3","4","4","3","4","2","3","1","0","1","1","0","1","1","0","1","1","1","0","0","0","1","4","3","1","2","4","","3","2","3","2","3","783652100818341890","张","269","","","","nonmatch","","","","","","","","","","","","","","key","f","16.67001923076952","640","356","f","true","nonmatch","img/triangle.png","六边","三角","ALT1","formal_ALT1_2","","","","","","","","","","","",""
"null","<span style='color:GreenYellow; font-size: 70px;'>正确! </span>","null","html-keyboard-response","114","429678","0.0-7.0-1.0-4.0-0.0-1.3","3","4","4","3","3","4","3","3","3","4","4","4","2","3","4","4","4","4","4","5","4","4","3","4","4","3","4","2","3","1","0","1","1","0","1","1","0","1","1","1","0","0","0","1","4","3","1","2","4","","3","2","3","2","3","783652100818341890","张","269","","","","","","","","","","","","","","","","","","","","","","","","","","","","","","feedback_test","","","","","","","","","","","",""
"811","","f","psychophysics","115","431494","0.0-7.0-1.0-4.0-0.0-0.4","3","4","4","3","3","4","3","3","3","4","4","4","2","3","4","4","4","4","4","5","4","4","3","4","4","3","4","2","3","1","0","1","1","0","1","1","0","1","1","1","0","0","0","1","4","3","1","2","4","","3","2","3","2","3","783652100818341890","张","269","","","","nonmatch","","","","","","","","","","","","","","key","f","16.66996296296323","640","356","f","true","nonmatch","img/triangle.png","椭圆","三角","ALT1","formal_ALT1_2","","","","","","","","","","","",""
"null","<span style='color:GreenYellow; font-size: 70px;'>正确! </span>","null","html-keyboard-response","116","432001","0.0-7.0-1.0-4.0-0.0-1.4","3","4","4","3","3","4","3","3","3","4","4","4","2","3","4","4","4","4","4","5","4","4","3","4","4","3","4","2","3","1","0","1","1","0","1","1","0","1","1","1","0","0","0","1","4","3","1","2","4","","3","2","3","2","3","783652100818341890","张","269","","","","","","","","","","","","","","","","","","","","","","","","","","","","","","feedback_test","","","","","","","","","","","",""
"857","","j","psychophysics","117","433861","0.0-7.0-1.0-4.0-0.0-0.5","3","4","4","3","3","4","3","3","3","4","4","4","2","3","4","4","4","4","4","5","4","4","3","4","4","3","4","2","3","1","0","1","1","0","1","1","0","1","1","1","0","0","0","1","4","3","1","2","4","","3","2","3","2","3","783652100818341890","张","269","","","","match","","","","","","","","","","","","","","key","j","16.668369369369486","640","356","j","true","match","img/triangle.png","三角","三角","ALT1","formal_ALT1_2","","","","","","","","","","","",""
"null","<span style='color:GreenYellow; font-size: 70px;'>正确! </span>","null","html-keyboard-response","118","434369","0.0-7.0-1.0-4.0-0.0-1.5","3","4","4","3","3","4","3","3","3","4","4","4","2","3","4","4","4","4","4","5","4","4","3","4","4","3","4","2","3","1","0","1","1","0","1","1","0","1","1","1","0","0","0","1","4","3","1","2","4","","3","2","3","2","3","783652100818341890","张","269","","","","","","","","","","","","","","","","","","","","","","","","","","","","","","feedback_test","","","","","","","","","","","",""
"755","","f","psychophysics","119","436127","0.0-7.0-1.0-4.0-0.0-0.6","3","4","4","3","3","4","3","3","3","4","4","4","2","3","4","4","4","4","4","5","4","4","3","4","4","3","4","2","3","1","0","1","1","0","1","1","0","1","1","1","0","0","0","1","4","3","1","2","4","","3","2","3","2","3","783652100818341890","张","269","","","","nonmatch","","","","","","","","","","","","","","key","f","16.66755238095232","640","356","j","false","match","img/diamond.png","菱形","菱形","ALT1","formal_ALT1_2","","","","","","","","","","","",""
"null","<span style='color:red; font-size: 70px;'>错误! </span>","null","html-keyboard-response","120","436635","0.0-7.0-1.0-4.0-0.0-1.6","3","4","4","3","3","4","3","3","3","4","4","4","2","3","4","4","4","4","4","5","4","4","3","4","4","3","4","2","3","1","0","1","1","0","1","1","0","1","1","1","0","0","0","1","4","3","1","2","4","","3","2","3","2","3","783652100818341890","张","269","","","","","","","","","","","","","","","","","","","","","","","","","","","","","","feedback_test","","","","","","","","","","","",""
"706","","f","psychophysics","121","438343","0.0-7.0-1.0-4.0-0.0-0.7","3","4","4","3","3","4","3","3","3","4","4","4","2","3","4","4","4","4","4","5","4","4","3","4","4","3","4","2","3","1","0","1","1","0","1","1","0","1","1","1","0","0","0","1","4","3","1","2","4","","3","2","3","2","3","783652100818341890","张","269","","","","nonmatch","","","","","","","","","","","","","","key","f","16.66769607843119","640","356","f","true","nonmatch","img/ellipse.png","六边","椭圆","ALT1","formal_ALT1_2","","","","","","","","","","","",""
"null","<span style='color:GreenYellow; font-size: 70px;'>正确! </span>","null","html-keyboard-response","122","438859","0.0-7.0-1.0-4.0-0.0-1.7","3","4","4","3","3","4","3","3","3","4","4","4","2","3","4","4","4","4","4","5","4","4","3","4","4","3","4","2","3","1","0","1","1","0","1","1","0","1","1","1","0","0","0","1","4","3","1","2","4","","3","2","3","2","3","783652100818341890","张","269","","","","","","","","","","","","","","","","","","","","","","","","","","","","","","feedback_test","","","","","","","","","","","",""
"750","","f","psychophysics","123","440611","0.0-7.0-1.0-4.0-0.0-0.8","3","4","4","3","3","4","3","3","3","4","4","4","2","3","4","4","4","4","4","5","4","4","3","4","4","3","4","2","3","1","0","1","1","0","1","1","0","1","1","1","0","0","0","1","4","3","1","2","4","","3","2","3","2","3","783652100818341890","张","269","","","","nonmatch","","","","","","","","","","","","","","key","f","16.66695192307704","640","356","f","true","nonmatch","img/ellipse.png","菱形","椭圆","ALT1","formal_ALT1_2","","","","","","","","","","","",""
"null","<span style='color:GreenYellow; font-size: 70px;'>正确! </span>","null","html-keyboard-response","124","441115","0.0-7.0-1.0-4.0-0.0-1.8","3","4","4","3","3","4","3","3","3","4","4","4","2","3","4","4","4","4","4","5","4","4","3","4","4","3","4","2","3","1","0","1","1","0","1","1","0","1","1","1","0","0","0","1","4","3","1","2","4","","3","2","3","2","3","783652100818341890","张","269","","","","","","","","","","","","","","","","","","","","","","","","","","","","","","feedback_test","","","","","","","","","","","",""
"726","","j","psychophysics","125","442848","0.0-7.0-1.0-4.0-0.0-0.9","3","4","4","3","3","4","3","3","3","4","4","4","2","3","4","4","4","4","4","5","4","4","3","4","4","3","4","2","3","1","0","1","1","0","1","1","0","1","1","1","0","0","0","1","4","3","1","2","4","","3","2","3","2","3","783652100818341890","张","269","","","","match","","","","","","","","","","","","","","key","j","16.66691262135904","640","356","f","false","nonmatch","img/hexagon.png","三角","六边","ALT1","formal_ALT1_2","","","","","","","","","","","",""
"null","<span style='color:red; font-size: 70px;'>错误! </span>","null","html-keyboard-response","126","443351","0.0-7.0-1.0-4.0-0.0-1.9","3","4","4","3","3","4","3","3","3","4","4","4","2","3","4","4","4","4","4","5","4","4","3","4","4","3","4","2","3","1","0","1","1","0","1","1","0","1","1","1","0","0","0","1","4","3","1","2","4","","3","2","3","2","3","783652100818341890","张","269","","","","","","","","","","","","","","","","","","","","","","","","","","","","","","feedback_test","","","","","","","","","","","",""
"774","","j","psychophysics","127","445128","0.0-7.0-1.0-4.0-0.0-0.10","3","4","4","3","3","4","3","3","3","4","4","4","2","3","4","4","4","4","4","5","4","4","3","4","4","3","4","2","3","1","0","1","1","0","1","1","0","1","1","1","0","0","0","1","4","3","1","2","4","","3","2","3","2","3","783652100818341890","张","269","","","","match","","","","","","","","","","","","","","key","j","16.668084905660198","640","356","j","true","match","img/hexagon.png","六边","六边","ALT1","formal_ALT1_2","","","","","","","","","","","",""
"null","<span style='color:GreenYellow; font-size: 70px;'>正确! </span>","null","html-keyboard-response","128","445632","0.0-7.0-1.0-4.0-0.0-1.10","3","4","4","3","3","4","3","3","3","4","4","4","2","3","4","4","4","4","4","5","4","4","3","4","4","3","4","2","3","1","0","1","1","0","1","1","0","1","1","1","0","0","0","1","4","3","1","2","4","","3","2","3","2","3","783652100818341890","张","269","","","","","","","","","","","","","","","","","","","","","","","","","","","","","","feedback_test","","","","","","","","","","","",""
"817","","j","psychophysics","129","447454","0.0-7.0-1.0-4.0-0.0-0.11","3","4","4","3","3","4","3","3","3","4","4","4","2","3","4","4","4","4","4","5","4","4","3","4","4","3","4","2","3","1","0","1","1","0","1","1","0","1","1","1","0","0","0","1","4","3","1","2","4","","3","2","3","2","3","783652100818341890","张","269","","","","match","","","","","","","","","","","","","","key","j","16.66946296296266","640","356","j","true","match","img/diamond.png","菱形","菱形","ALT1","formal_ALT1_2","","","","","","","","","","","",""
"null","<span style='color:GreenYellow; font-size: 70px;'>正确! </span>","null","html-keyboard-response","130","447963","0.0-7.0-1.0-4.0-0.0-1.11","3","4","4","3","3","4","3","3","3","4","4","4","2","3","4","4","4","4","4","5","4","4","3","4","4","3","4","2","3","1","0","1","1","0","1","1","0","1","1","1","0","0","0","1","4","3","1","2","4","","3","2","3","2","3","783652100818341890","张","269","","","","","","","","","","","","","","","","","","","","","","","","","","","","","","feedback_test","","","","","","","","","","","",""
"680","","j","psychophysics","131","449651","0.0-7.0-1.0-4.0-0.0-0.12","3","4","4","3","3","4","3","3","3","4","4","4","2","3","4","4","4","4","4","5","4","4","3","4","4","3","4","2","3","1","0","1","1","0","1","1","0","1","1","1","0","0","0","1","4","3","1","2","4","","3","2","3","2","3","783652100818341890","张","269","","","","match","","","","","","","","","","","","","","key","j","16.66767999999982","640","356","j","true","match","img/triangle.png","三角","三角","ALT1","formal_ALT1_2","","","","","","","","","","","",""
"null","<span style='color:GreenYellow; font-size: 70px;'>正确! </span>","null","html-keyboard-response","132","450152","0.0-7.0-1.0-4.0-0.0-1.12","3","4","4","3","3","4","3","3","3","4","4","4","2","3","4","4","4","4","4","5","4","4","3","4","4","3","4","2","3","1","0","1","1","0","1","1","0","1","1","1","0","0","0","1","4","3","1","2","4","","3","2","3","2","3","783652100818341890","张","269","","","","","","","","","","","","","","","","","","","","","","","","","","","","","","feedback_test","","","","","","","","","","","",""
"645","","f","psychophysics","133","451800","0.0-7.0-1.0-4.0-0.0-0.13","3","4","4","3","3","4","3","3","3","4","4","4","2","3","4","4","4","4","4","5","4","4","3","4","4","3","4","2","3","1","0","1","1","0","1","1","0","1","1","1","0","0","0","1","4","3","1","2","4","","3","2","3","2","3","783652100818341890","张","269","","","","nonmatch","","","","","","","","","","","","","","key","f","16.668785714285985","640","356","f","true","nonmatch","img/diamond.png","椭圆","菱形","ALT1","formal_ALT1_2","","","","","","","","","","","",""
"null","<span style='color:GreenYellow; font-size: 70px;'>正确! </span>","null","html-keyboard-response","134","452304","0.0-7.0-1.0-4.0-0.0-1.13","3","4","4","3","3","4","3","3","3","4","4","4","2","3","4","4","4","4","4","5","4","4","3","4","4","3","4","2","3","1","0","1","1","0","1","1","0","1","1","1","0","0","0","1","4","3","1","2","4","","3","2","3","2","3","783652100818341890","张","269","","","","","","","","","","","","","","","","","","","","","","","","","","","","","","feedback_test","","","","","","","","","","","",""
"798","","f","psychophysics","135","454104","0.0-7.0-1.0-4.0-0.0-0.14","3","4","4","3","3","4","3","3","3","4","4","4","2","3","4","4","4","4","4","5","4","4","3","4","4","3","4","2","3","1","0","1","1","0","1","1","0","1","1","1","0","0","0","1","4","3","1","2","4","","3","2","3","2","3","783652100818341890","张","269","","","","nonmatch","","","","","","","","","","","","","","key","f","16.66517924528321","640","356","f","true","nonmatch","img/ellipse.png","三角","椭圆","ALT1","formal_ALT1_2","","","","","","","","","","","",""
"null","<span style='color:GreenYellow; font-size: 70px;'>正确! </span>","null","html-keyboard-response","136","454611","0.0-7.0-1.0-4.0-0.0-1.14","3","4","4","3","3","4","3","3","3","4","4","4","2","3","4","4","4","4","4","5","4","4","3","4","4","3","4","2","3","1","0","1","1","0","1","1","0","1","1","1","0","0","0","1","4","3","1","2","4","","3","2","3","2","3","783652100818341890","张","269","","","","","","","","","","","","","","","","","","","","","","","","","","","","","","feedback_test","","","","","","","","","","","",""
"816","","j","psychophysics","137","456431","0.0-7.0-1.0-4.0-0.0-0.15","3","4","4","3","3","4","3","3","3","4","4","4","2","3","4","4","4","4","4","5","4","4","3","4","4","3","4","2","3","1","0","1","1","0","1","1","0","1","1","1","0","0","0","1","4","3","1","2","4","","3","2","3","2","3","783652100818341890","张","269","","","","match","","","","","","","","","","","","","","key","j","16.669416666666855","640","356","j","true","match","img/ellipse.png","椭圆","椭圆","ALT1","formal_ALT1_2","","","","","","","","","","","",""
"null","<span style='color:GreenYellow; font-size: 70px;'>正确! </span>","null","html-keyboard-response","138","456941","0.0-7.0-1.0-4.0-0.0-1.15","3","4","4","3","3","4","3","3","3","4","4","4","2","3","4","4","4","4","4","5","4","4","3","4","4","3","4","2","3","1","0","1","1","0","1","1","0","1","1","1","0","0","0","1","4","3","1","2","4","","3","2","3","2","3","783652100818341890","张","269","","","","","","","","","","","","","","","","","","","","","","","","","","","","","","feedback_test","","","","","","","","","","","",""
"845","","f","psychophysics","139","458787","0.0-7.0-1.0-4.0-0.0-0.16","3","4","4","3","3","4","3","3","3","4","4","4","2","3","4","4","4","4","4","5","4","4","3","4","4","3","4","2","3","1","0","1","1","0","1","1","0","1","1","1","0","0","0","1","4","3","1","2","4","","3","2","3","2","3","783652100818341890","张","269","","","","nonmatch","","","","","","","","","","","","","","key","f","16.667082568807334","640","356","f","true","nonmatch","img/hexagon.png","椭圆","六边","ALT1","formal_ALT1_2","","","","","","","","","","","",""
"null","<span style='color:GreenYellow; font-size: 70px;'>正确! </span>","null","html-keyboard-response","140","459292","0.0-7.0-1.0-4.0-0.0-1.16","3","4","4","3","3","4","3","3","3","4","4","4","2","3","4","4","4","4","4","5","4","4","3","4","4","3","4","2","3","1","0","1","1","0","1","1","0","1","1","1","0","0","0","1","4","3","1","2","4","","3","2","3","2","3","783652100818341890","张","269","","","","","","","","","","","","","","","","","","","","","","","","","","","","","","feedback_test","","","","","","","","","","","",""
"598","","j","psychophysics","141","460899","0.0-7.0-1.0-4.0-0.0-0.17","3","4","4","3","3","4","3","3","3","4","4","4","2","3","4","4","4","4","4","5","4","4","3","4","4","3","4","2","3","1","0","1","1","0","1","1","0","1","1","1","0","0","0","1","4","3","1","2","4","","3","2","3","2","3","783652100818341890","张","269","","","","match","","","","","","","","","","","","","","key","j","16.667631578947248","640","356","j","true","match","img/ellipse.png","椭圆","椭圆","ALT1","formal_ALT1_2","","","","","","","","","","","",""
"null","<span style='color:GreenYellow; font-size: 70px;'>正确! </span>","null","html-keyboard-response","142","461406","0.0-7.0-1.0-4.0-0.0-1.17","3","4","4","3","3","4","3","3","3","4","4","4","2","3","4","4","4","4","4","5","4","4","3","4","4","3","4","2","3","1","0","1","1","0","1","1","0","1","1","1","0","0","0","1","4","3","1","2","4","","3","2","3","2","3","783652100818341890","张","269","","","","","","","","","","","","","","","","","","","","","","","","","","","","","","feedback_test","","","","","","","","","","","",""
"536","","j","psychophysics","143","462944","0.0-7.0-1.0-4.0-0.0-0.18","3","4","4","3","3","4","3","3","3","4","4","4","2","3","4","4","4","4","4","5","4","4","3","4","4","3","4","2","3","1","0","1","1","0","1","1","0","1","1","1","0","0","0","1","4","3","1","2","4","","3","2","3","2","3","783652100818341890","张","269","","","","match","","","","","","","","","","","","","","key","j","16.664340659340837","640","356","j","true","match","img/triangle.png","三角","三角","ALT1","formal_ALT1_2","","","","","","","","","","","",""
"null","<span style='color:GreenYellow; font-size: 70px;'>正确! </span>","null","html-keyboard-response","144","463451","0.0-7.0-1.0-4.0-0.0-1.18","3","4","4","3","3","4","3","3","3","4","4","4","2","3","4","4","4","4","4","5","4","4","3","4","4","3","4","2","3","1","0","1","1","0","1","1","0","1","1","1","0","0","0","1","4","3","1","2","4","","3","2","3","2","3","783652100818341890","张","269","","","","","","","","","","","","","","","","","","","","","","","","","","","","","","feedback_test","","","","","","","","","","","",""
"557","","j","psychophysics","145","465012","0.0-7.0-1.0-4.0-0.0-0.19","3","4","4","3","3","4","3","3","3","4","4","4","2","3","4","4","4","4","4","5","4","4","3","4","4","3","4","2","3","1","0","1","1","0","1","1","0","1","1","1","0","0","0","1","4","3","1","2","4","","3","2","3","2","3","783652100818341890","张","269","","","","match","","","","","","","","","","","","","","key","j","16.669645161290344","640","356","j","true","match","img/ellipse.png","椭圆","椭圆","ALT1","formal_ALT1_2","","","","","","","","","","","",""
"null","<span style='color:GreenYellow; font-size: 70px;'>正确! </span>","null","html-keyboard-response","146","465517","0.0-7.0-1.0-4.0-0.0-1.19","3","4","4","3","3","4","3","3","3","4","4","4","2","3","4","4","4","4","4","5","4","4","3","4","4","3","4","2","3","1","0","1","1","0","1","1","0","1","1","1","0","0","0","1","4","3","1","2","4","","3","2","3","2","3","783652100818341890","张","269","","","","","","","","","","","","","","","","","","","","","","","","","","","","","","feedback_test","","","","","","","","","","","",""
"701","","j","psychophysics","147","467224","0.0-7.0-1.0-4.0-0.0-0.20","3","4","4","3","3","4","3","3","3","4","4","4","2","3","4","4","4","4","4","5","4","4","3","4","4","3","4","2","3","1","0","1","1","0","1","1","0","1","1","1","0","0","0","1","4","3","1","2","4","","3","2","3","2","3","783652100818341890","张","269","","","","match","","","","","","","","","","","","","","key","j","16.667343137255074","640","356","j","true","match","img/hexagon.png","六边","六边","ALT1","formal_ALT1_2","","","","","","","","","","","",""
"null","<span style='color:GreenYellow; font-size: 70px;'>正确! </span>","null","html-keyboard-response","148","467731","0.0-7.0-1.0-4.0-0.0-1.20","3","4","4","3","3","4","3","3","3","4","4","4","2","3","4","4","4","4","4","5","4","4","3","4","4","3","4","2","3","1","0","1","1","0","1","1","0","1","1","1","0","0","0","1","4","3","1","2","4","","3","2","3","2","3","783652100818341890","张","269","","","","","","","","","","","","","","","","","","","","","","","","","","","","","","feedback_test","","","","","","","","","","","",""
"714","","f","psychophysics","149","469453","0.0-7.0-1.0-4.0-0.0-0.21","3","4","4","3","3","4","3","3","3","4","4","4","2","3","4","4","4","4","4","5","4","4","3","4","4","3","4","2","3","1","0","1","1","0","1","1","0","1","1","1","0","0","0","1","4","3","1","2","4","","3","2","3","2","3","783652100818341890","张","269","","","","nonmatch","","","","","","","","","","","","","","key","f","16.669823529411623","640","356","f","true","nonmatch","img/diamond.png","三角","菱形","ALT1","formal_ALT1_2","","","","","","","","","","","",""
"null","<span style='color:GreenYellow; font-size: 70px;'>正确! </span>","null","html-keyboard-response","150","469956","0.0-7.0-1.0-4.0-0.0-1.21","3","4","4","3","3","4","3","3","3","4","4","4","2","3","4","4","4","4","4","5","4","4","3","4","4","3","4","2","3","1","0","1","1","0","1","1","0","1","1","1","0","0","0","1","4","3","1","2","4","","3","2","3","2","3","783652100818341890","张","269","","","","","","","","","","","","","","","","","","","","","","","","","","","","","","feedback_test","","","","","","","","","","","",""
"744","","j","psychophysics","151","471703","0.0-7.0-1.0-4.0-0.0-0.22","3","4","4","3","3","4","3","3","3","4","4","4","2","3","4","4","4","4","4","5","4","4","3","4","4","3","4","2","3","1","0","1","1","0","1","1","0","1","1","1","0","0","0","1","4","3","1","2","4","","3","2","3","2","3","783652100818341890","张","269","","","","match","","","","","","","","","","","","","","key","j","16.665495145630807","640","356","j","true","match","img/diamond.png","菱形","菱形","ALT1","formal_ALT1_2","","","","","","","","","","","",""
"null","<span style='color:GreenYellow; font-size: 70px;'>正确! </span>","null","html-keyboard-response","152","472218","0.0-7.0-1.0-4.0-0.0-1.22","3","4","4","3","3","4","3","3","3","4","4","4","2","3","4","4","4","4","4","5","4","4","3","4","4","3","4","2","3","1","0","1","1","0","1","1","0","1","1","1","0","0","0","1","4","3","1","2","4","","3","2","3","2","3","783652100818341890","张","269","","","","","","","","","","","","","","","","","","","","","","","","","","","","","","feedback_test","","","","","","","","","","","",""
"754","","j","psychophysics","153","473976","0.0-7.0-1.0-4.0-0.0-0.23","3","4","4","3","3","4","3","3","3","4","4","4","2","3","4","4","4","4","4","5","4","4","3","4","4","3","4","2","3","1","0","1","1","0","1","1","0","1","1","1","0","0","0","1","4","3","1","2","4","","3","2","3","2","3","783652100818341890","张","269","","","","match","","","","","","","","","","","","","","key","j","16.661761904762326","640","356","f","false","nonmatch","img/hexagon.png","菱形","六边","ALT1","formal_ALT1_2","","","","","","","","","","","",""
"null","<span style='color:red; font-size: 70px;'>错误! </span>","null","html-keyboard-response","154","474479","0.0-7.0-1.0-4.0-0.0-1.23","3","4","4","3","3","4","3","3","3","4","4","4","2","3","4","4","4","4","4","5","4","4","3","4","4","3","4","2","3","1","0","1","1","0","1","1","0","1","1","1","0","0","0","1","4","3","1","2","4","","3","2","3","2","3","783652100818341890","张","269","","","","","","","","","","","","","","","","","","","","","","","","","","","","","","feedback_test","","","","","","","","","","","",""
"566","","j","psychophysics","155","476051","0.0-7.0-1.0-4.0-0.0-0.24","3","4","4","3","3","4","3","3","3","4","4","4","2","3","4","4","4","4","4","5","4","4","3","4","4","3","4","2","3","1","0","1","1","0","1","1","0","1","1","1","0","0","0","1","4","3","1","2","4","","3","2","3","2","3","783652100818341890","张","269","","","","match","","","","","","","","","","","","","","key","j","16.66834408602169","640","356","j","true","match","img/triangle.png","三角","三角","ALT1","formal_ALT1_2","","","","","","","","","","","",""
"null","<span style='color:GreenYellow; font-size: 70px;'>正确! </span>","null","html-keyboard-response","156","476562","0.0-7.0-1.0-4.0-0.0-1.24","3","4","4","3","3","4","3","3","3","4","4","4","2","3","4","4","4","4","4","5","4","4","3","4","4","3","4","2","3","1","0","1","1","0","1","1","0","1","1","1","0","0","0","1","4","3","1","2","4","","3","2","3","2","3","783652100818341890","张","269","","","","","","","","","","","","","","","","","","","","","","","","","","","","","","feedback_test","","","","","","","","","","","",""
"701","","f","psychophysics","157","478271","0.0-7.0-1.0-4.0-0.0-0.25","3","4","4","3","3","4","3","3","3","4","4","4","2","3","4","4","4","4","4","5","4","4","3","4","4","3","4","2","3","1","0","1","1","0","1","1","0","1","1","1","0","0","0","1","4","3","1","2","4","","3","2","3","2","3","783652100818341890","张","269","","","","nonmatch","","","","","","","","","","","","","","key","f","16.66730392156865","640","356","f","true","nonmatch","img/triangle.png","椭圆","三角","ALT1","formal_ALT1_2","","","","","","","","","","","",""
"null","<span style='color:GreenYellow; font-size: 70px;'>正确! </span>","null","html-keyboard-response","158","478776","0.0-7.0-1.0-4.0-0.0-1.25","3","4","4","3","3","4","3","3","3","4","4","4","2","3","4","4","4","4","4","5","4","4","3","4","4","3","4","2","3","1","0","1","1","0","1","1","0","1","1","1","0","0","0","1","4","3","1","2","4","","3","2","3","2","3","783652100818341890","张","269","","","","","","","","","","","","","","","","","","","","","","","","","","","","","","feedback_test","","","","","","","","","","","",""
"635","","j","psychophysics","159","480422","0.0-7.0-1.0-4.0-0.0-0.26","3","4","4","3","3","4","3","3","3","4","4","4","2","3","4","4","4","4","4","5","4","4","3","4","4","3","4","2","3","1","0","1","1","0","1","1","0","1","1","1","0","0","0","1","4","3","1","2","4","","3","2","3","2","3","783652100818341890","张","269","","","","match","","","","","","","","","","","","","","key","j","16.66875510204082","640","356","j","true","match","img/triangle.png","三角","三角","ALT1","formal_ALT1_2","","","","","","","","","","","",""
"null","<span style='color:GreenYellow; font-size: 70px;'>正确! </span>","null","html-keyboard-response","160","480925","0.0-7.0-1.0-4.0-0.0-1.26","3","4","4","3","3","4","3","3","3","4","4","4","2","3","4","4","4","4","4","5","4","4","3","4","4","3","4","2","3","1","0","1","1","0","1","1","0","1","1","1","0","0","0","1","4","3","1","2","4","","3","2","3","2","3","783652100818341890","张","269","","","","","","","","","","","","","","","","","","","","","","","","","","","","","","feedback_test","","","","","","","","","","","",""
"598","","j","psychophysics","161","482526","0.0-7.0-1.0-4.0-0.0-0.27","3","4","4","3","3","4","3","3","3","4","4","4","2","3","4","4","4","4","4","5","4","4","3","4","4","3","4","2","3","1","0","1","1","0","1","1","0","1","1","1","0","0","0","1","4","3","1","2","4","","3","2","3","2","3","783652100818341890","张","269","","","","match","","","","","","","","","","","","","","key","j","16.67006315789492","640","356","f","false","nonmatch","img/ellipse.png","六边","椭圆","ALT1","formal_ALT1_2","","","","","","","","","","","",""
"null","<span style='color:red; font-size: 70px;'>错误! </span>","null","html-keyboard-response","162","483032","0.0-7.0-1.0-4.0-0.0-1.27","3","4","4","3","3","4","3","3","3","4","4","4","2","3","4","4","4","4","4","5","4","4","3","4","4","3","4","2","3","1","0","1","1","0","1","1","0","1","1","1","0","0","0","1","4","3","1","2","4","","3","2","3","2","3","783652100818341890","张","269","","","","","","","","","","","","","","","","","","","","","","","","","","","","","","feedback_test","","","","","","","","","","","",""
"896","","j","psychophysics","163","484932","0.0-7.0-1.0-4.0-0.0-0.28","3","4","4","3","3","4","3","3","3","4","4","4","2","3","4","4","4","4","4","5","4","4","3","4","4","3","4","2","3","1","0","1","1","0","1","1","0","1","1","1","0","0","0","1","4","3","1","2","4","","3","2","3","2","3","783652100818341890","张","269","","","","match","","","","","","","","","","","","","","key","j","16.668601769911213","640","356","j","true","match","img/diamond.png","菱形","菱形","ALT1","formal_ALT1_2","","","","","","","","","","","",""
"null","<span style='color:GreenYellow; font-size: 70px;'>正确! </span>","null","html-keyboard-response","164","485437","0.0-7.0-1.0-4.0-0.0-1.28","3","4","4","3","3","4","3","3","3","4","4","4","2","3","4","4","4","4","4","5","4","4","3","4","4","3","4","2","3","1","0","1","1","0","1","1","0","1","1","1","0","0","0","1","4","3","1","2","4","","3","2","3","2","3","783652100818341890","张","269","","","","","","","","","","","","","","","","","","","","","","","","","","","","","","feedback_test","","","","","","","","","","","",""
"633","","j","psychophysics","165","487073","0.0-7.0-1.0-4.0-0.0-0.29","3","4","4","3","3","4","3","3","3","4","4","4","2","3","4","4","4","4","4","5","4","4","3","4","4","3","4","2","3","1","0","1","1","0","1","1","0","1","1","1","0","0","0","1","4","3","1","2","4","","3","2","3","2","3","783652100818341890","张","269","","","","match","","","","","","","","","","","","","","key","j","16.66983505154626","640","356","j","true","match","img/hexagon.png","六边","六边","ALT1","formal_ALT1_2","","","","","","","","","","","",""
"null","<span style='color:GreenYellow; font-size: 70px;'>正确! </span>","null","html-keyboard-response","166","487578","0.0-7.0-1.0-4.0-0.0-1.29","3","4","4","3","3","4","3","3","3","4","4","4","2","3","4","4","4","4","4","5","4","4","3","4","4","3","4","2","3","1","0","1","1","0","1","1","0","1","1","1","0","0","0","1","4","3","1","2","4","","3","2","3","2","3","783652100818341890","张","269","","","","","","","","","","","","","","","","","","","","","","","","","","","","","","feedback_test","","","","","","","","","","","",""
"673","","f","psychophysics","167","489259","0.0-7.0-1.0-4.0-0.0-0.30","3","4","4","3","3","4","3","3","3","4","4","4","2","3","4","4","4","4","4","5","4","4","3","4","4","3","4","2","3","1","0","1","1","0","1","1","0","1","1","1","0","0","0","1","4","3","1","2","4","","3","2","3","2","3","783652100818341890","张","269","","","","nonmatch","","","","","","","","","","","","","","key","f","16.671419999999927","640","356","f","true","nonmatch","img/hexagon.png","三角","六边","ALT1","formal_ALT1_2","","","","","","","","","","","",""
"null","<span style='color:GreenYellow; font-size: 70px;'>正确! </span>","null","html-keyboard-response","168","489760","0.0-7.0-1.0-4.0-0.0-1.30","3","4","4","3","3","4","3","3","3","4","4","4","2","3","4","4","4","4","4","5","4","4","3","4","4","3","4","2","3","1","0","1","1","0","1","1","0","1","1","1","0","0","0","1","4","3","1","2","4","","3","2","3","2","3","783652100818341890","张","269","","","","","","","","","","","","","","","","","","","","","","","","","","","","","","feedback_test","","","","","","","","","","","",""
"686","","j","psychophysics","169","491450","0.0-7.0-1.0-4.0-0.0-0.31","3","4","4","3","3","4","3","3","3","4","4","4","2","3","4","4","4","4","4","5","4","4","3","4","4","3","4","2","3","1","0","1","1","0","1","1","0","1","1","1","0","0","0","1","4","3","1","2","4","","3","2","3","2","3","783652100818341890","张","269","","","","match","","","","","","","","","","","","","","key","j","16.669860000000334","640","356","j","true","match","img/hexagon.png","六边","六边","ALT1","formal_ALT1_2","","","","","","","","","","","",""
"null","<span style='color:GreenYellow; font-size: 70px;'>正确! </span>","null","html-keyboard-response","170","491953","0.0-7.0-1.0-4.0-0.0-1.31","3","4","4","3","3","4","3","3","3","4","4","4","2","3","4","4","4","4","4","5","4","4","3","4","4","3","4","2","3","1","0","1","1","0","1","1","0","1","1","1","0","0","0","1","4","3","1","2","4","","3","2","3","2","3","783652100818341890","张","269","","","","","","","","","","","","","","","","","","","","","","","","","","","","","","feedback_test","","","","","","","","","","","",""
"641","","f","psychophysics","171","493597","0.0-7.0-1.0-4.0-0.0-0.32","3","4","4","3","3","4","3","3","3","4","4","4","2","3","4","4","4","4","4","5","4","4","3","4","4","3","4","2","3","1","0","1","1","0","1","1","0","1","1","1","0","0","0","1","4","3","1","2","4","","3","2","3","2","3","783652100818341890","张","269","","","","nonmatch","","","","","","","","","","","","","","key","f","16.66610309278374","640","356","f","true","nonmatch","img/diamond.png","椭圆","菱形","ALT1","formal_ALT1_2","","","","","","","","","","","",""
"null","<span style='color:GreenYellow; font-size: 70px;'>正确! </span>","null","html-keyboard-response","172","494101","0.0-7.0-1.0-4.0-0.0-1.32","3","4","4","3","3","4","3","3","3","4","4","4","2","3","4","4","4","4","4","5","4","4","3","4","4","3","4","2","3","1","0","1","1","0","1","1","0","1","1","1","0","0","0","1","4","3","1","2","4","","3","2","3","2","3","783652100818341890","张","269","","","","","","","","","","","","","","","","","","","","","","","","","","","","","","feedback_test","","","","","","","","","","","",""
"672","","j","psychophysics","173","495776","0.0-7.0-1.0-4.0-0.0-0.33","3","4","4","3","3","4","3","3","3","4","4","4","2","3","4","4","4","4","4","5","4","4","3","4","4","3","4","2","3","1","0","1","1","0","1","1","0","1","1","1","0","0","0","1","4","3","1","2","4","","3","2","3","2","3","783652100818341890","张","269","","","","match","","","","","","","","","","","","","","key","j","16.667939393939285","640","356","f","false","nonmatch","img/diamond.png","三角","菱形","ALT1","formal_ALT1_2","","","","","","","","","","","",""
"null","<span style='color:red; font-size: 70px;'>错误! </span>","null","html-keyboard-response","174","496279","0.0-7.0-1.0-4.0-0.0-1.33","3","4","4","3","3","4","3","3","3","4","4","4","2","3","4","4","4","4","4","5","4","4","3","4","4","3","4","2","3","1","0","1","1","0","1","1","0","1","1","1","0","0","0","1","4","3","1","2","4","","3","2","3","2","3","783652100818341890","张","269","","","","","","","","","","","","","","","","","","","","","","","","","","","","","","feedback_test","","","","","","","","","","","",""
"657","","j","psychophysics","175","497943","0.0-7.0-1.0-4.0-0.0-0.34","3","4","4","3","3","4","3","3","3","4","4","4","2","3","4","4","4","4","4","5","4","4","3","4","4","3","4","2","3","1","0","1","1","0","1","1","0","1","1","1","0","0","0","1","4","3","1","2","4","","3","2","3","2","3","783652100818341890","张","269","","","","match","","","","","","","","","","","","","","key","j","16.669848484848508","640","356","j","true","match","img/ellipse.png","椭圆","椭圆","ALT1","formal_ALT1_2","","","","","","","","","","","",""
"null","<span style='color:GreenYellow; font-size: 70px;'>正确! </span>","null","html-keyboard-response","176","498449","0.0-7.0-1.0-4.0-0.0-1.34","3","4","4","3","3","4","3","3","3","4","4","4","2","3","4","4","4","4","4","5","4","4","3","4","4","3","4","2","3","1","0","1","1","0","1","1","0","1","1","1","0","0","0","1","4","3","1","2","4","","3","2","3","2","3","783652100818341890","张","269","","","","","","","","","","","","","","","","","","","","","","","","","","","","","","feedback_test","","","","","","","","","","","",""
"834","","j","psychophysics","177","500287","0.0-7.0-1.0-4.0-0.0-0.35","3","4","4","3","3","4","3","3","3","4","4","4","2","3","4","4","4","4","4","5","4","4","3","4","4","3","4","2","3","1","0","1","1","0","1","1","0","1","1","1","0","0","0","1","4","3","1","2","4","","3","2","3","2","3","783652100818341890","张","269","","","","match","","","","","","","","","","","","","","key","j","16.667263636363945","640","356","j","true","match","img/diamond.png","菱形","菱形","ALT1","formal_ALT1_2","","","","","","","","","","","",""
"null","<span style='color:GreenYellow; font-size: 70px;'>正确! </span>","null","html-keyboard-response","178","500790","0.0-7.0-1.0-4.0-0.0-1.35","3","4","4","3","3","4","3","3","3","4","4","4","2","3","4","4","4","4","4","5","4","4","3","4","4","3","4","2","3","1","0","1","1","0","1","1","0","1","1","1","0","0","0","1","4","3","1","2","4","","3","2","3","2","3","783652100818341890","张","269","","","","","","","","","","","","","","","","","","","","","","","","","","","","","","feedback_test","","","","","","","","","","","",""
"717","","j","psychophysics","179","502512","0.0-7.0-1.0-4.0-0.0-0.36","3","4","4","3","3","4","3","3","3","4","4","4","2","3","4","4","4","4","4","5","4","4","3","4","4","3","4","2","3","1","0","1","1","0","1","1","0","1","1","1","0","0","0","1","4","3","1","2","4","","3","2","3","2","3","783652100818341890","张","269","","","","match","","","","","","","","","","","","","","key","j","16.668666666666933","640","356","j","true","match","img/diamond.png","菱形","菱形","ALT1","formal_ALT1_2","","","","","","","","","","","",""
"null","<span style='color:GreenYellow; font-size: 70px;'>正确! </span>","null","html-keyboard-response","180","503022","0.0-7.0-1.0-4.0-0.0-1.36","3","4","4","3","3","4","3","3","3","4","4","4","2","3","4","4","4","4","4","5","4","4","3","4","4","3","4","2","3","1","0","1","1","0","1","1","0","1","1","1","0","0","0","1","4","3","1","2","4","","3","2","3","2","3","783652100818341890","张","269","","","","","","","","","","","","","","","","","","","","","","","","","","","","","","feedback_test","","","","","","","","","","","",""
"755","","j","psychophysics","181","504782","0.0-7.0-1.0-4.0-0.0-0.37","3","4","4","3","3","4","3","3","3","4","4","4","2","3","4","4","4","4","4","5","4","4","3","4","4","3","4","2","3","1","0","1","1","0","1","1","0","1","1","1","0","0","0","1","4","3","1","2","4","","3","2","3","2","3","783652100818341890","张","269","","","","match","","","","","","","","","","","","","","key","j","16.66695192307648","640","356","j","true","match","img/hexagon.png","六边","六边","ALT1","formal_ALT1_2","","","","","","","","","","","",""
