"rt","stimulus","response","trial_type","trial_index","time_elapsed","internal_node_id","ses_1","ses_2","ses_3","ses_4","ses_5","ses_6","ses_7","ses_8","ses_9","ses_10","coreself_1","coreself_2","coreself_3","coreself_4","coreself_5","coreself_6","coreself_7","coreself_8","coreself_9","coreself_10","SGPS_1","SGPS_2","SGPS_3","SGPS_4","SGPS_5","SGPS_6","SGPS_7","SGPS_8","SGPS_9","NPI1","NPI2","NPI3","NPI4","NPI5","NPI6","NPI7","NPI8","NPI9","NPI10","NPI11","NPI12","NPI13","NPI14","NPI15","hsns_1","hsns_2","hsns_3","hsns_4","hsns_5","trap1","hsns_6","hsns_7","hsns_8","hsns_9","hsns_10","subj_idx","friend_name","ParticipantID","value","success","user_agent","responses","item_order","radio_event_ids","radio_event_times","key_event_times","mouse_event_times","straightlining","zigzagging","honeypot","timeout","failed_images","failed_audio","failed_video","view_history","response_type","key_press","avg_frame_time","center_x","center_y","correct_response","correct","identity","Image","word","condition","task_id","screen_id","time_stamp","version_attrib2","version_target2","IAT","RT","varname","summary","version_attrib","version_target","question_order","correct_answer","trap1_item"
"17211","
   <p><div style = ""color: white;font-size:25px;"">您好，欢迎参加本次实验。</div> </p>
   <p><div style = ""color: white;font-size:25px;"">为充分保障您的权利，请确保您已经知晓并同意《参与实验同意书》以及《数据公开知情同意书》。</div></p>
   <p><div style = ""color: white;font-size:25px;"">如果您未见过上述内容，请咨询实验员。</div></p>
   <p><div style = ""color: white;font-size:25px;"">如果您选择继续实验，则表示您已经清楚两份知情同意书的内容并同意。</div></p>
   <p><div style = ""color: pink;font-size:30px;"">请确保您记得day0的实验编号，您将在本次实验输入该编号，若您忘记，请咨询实验员后作答。</div></p>
   <p><div style = ""color: lightblue;font-size:25px;"">请您尽可能认真地作答，我们将依据您在各问卷和按键任务中的作答质量发放报酬。</div></p>
   <p> <div style = ""color: green;font-size:25px;""><按空格键至下页></div> </p>
   "," ","html-keyboard-response","0","17220","0.0-0.0","4","4","4","3","3","4","3","3","3","3","4","3","2","4","4","4","4","2","4","4","4","5","3","4","4","3","4","4","4","1","0","1","1","0","0","1","1","0","1","1","0","1","0","1","5","4","2","2","4","3","2","4","4","2","2","792726336467771393","陈","275","","","","","","","","","","","","","","","","","","","","","","","","","","","","","","","","","","","","","","","","","",""
"","","","call-function","1","17225","0.0-1.0-0.0","4","4","4","3","3","4","3","3","3","3","4","3","2","4","4","4","4","2","4","4","4","5","3","4","4","3","4","4","4","1","0","1","1","0","0","1","1","0","1","1","0","1","0","1","5","4","2","2","4","3","2","4","4","2","2","792726336467771393","陈","275","","","","","","","","","","","","","","","","","","","","","","","","","","","","","","","","","","","","","","","","","",""
"17948","","{""friend_name"":""陈"",""ParticipantID"":""275""}","survey-html-form","2","35185","0.0-1.0-1.0","4","4","4","3","3","4","3","3","3","3","4","3","2","4","4","4","4","2","4","4","4","5","3","4","4","3","4","4","4","1","0","1","1","0","0","1","1","0","1","1","0","1","0","1","5","4","2","2","4","3","2","4","4","2","2","792726336467771393","陈","275","","","","","","","","","","","","","","","","","","","","","","","","","","","","","","","","","","","","","","","","","",""
"","","","fullscreen","3","79468","0.0-2.0","4","4","4","3","3","4","3","3","3","3","4","3","2","4","4","4","4","2","4","4","4","5","3","4","4","3","4","4","4","1","0","1","1","0","0","1","1","0","1","1","0","1","0","1","5","4","2","2","4","3","2","4","4","2","2","792726336467771393","陈","275","","true","","","","","","","","","","","","","","","","","","","","","","","","","","","","","","","","","","","","","","","",""
"20021.999999999985","","{""Q01"":""4"",""Q02"":""4"",""Q03"":""4"",""Q04"":""3"",""Q05"":""3"",""Q06"":""4"",""Q07"":""3"",""Q08"":""3"",""Q09"":""3"",""Q10"":""3""}","survey-template","4","99497","0.0-3.0","4","4","4","3","3","4","3","3","3","3","4","3","2","4","4","4","4","2","4","4","4","5","3","4","4","3","4","4","4","1","0","1","1","0","0","1","1","0","1","1","0","1","0","1","5","4","2","2","4","3","2","4","4","2","2","792726336467771393","陈","275","","","","{""Q01"":""4"",""Q02"":""4"",""Q03"":""4"",""Q04"":""3"",""Q05"":""3"",""Q06"":""4"",""Q07"":""3"",""Q08"":""3"",""Q09"":""3"",""Q10"":""3""}","[0,1,2,3,4,5,6,7,8,9]","[""Q01"",""Q02"",""Q03"",""Q04"",""Q05"",""Q07"",""Q06"",""Q08"",""Q09"",""Q10""]","[2628.9999999999854,3539.9999999999854,4723.999999999985,5744,9889.999999999985,12223.999999999985,12622.999999999985,14221.999999999985,15772.999999999985,17191.999999999985]","[]","[2628.9999999999854,3539.9999999999854,4723.999999999985,5744,7622.999999999985,8924.999999999985,9422.999999999985,9889.999999999985,11473,12223.999999999985,12622.999999999985,14221.999999999985,15772.999999999985,17191.999999999985,20020.999999999985]","0.4","0.4444444444444444","0","","","","","","","","","","","","","","","","","","","","","","","","","","","","","",""
"16018","","{""Q01"":""4"",""Q02"":""3"",""Q03"":""2"",""Q04"":""4"",""Q05"":""4"",""Q06"":""4"",""Q07"":""4"",""Q08"":""2"",""Q09"":""4"",""Q10"":""4""}","survey-template","5","115522","0.0-4.0","4","4","4","3","3","4","3","3","3","3","4","3","2","4","4","4","4","2","4","4","4","5","3","4","4","3","4","4","4","1","0","1","1","0","0","1","1","0","1","1","0","1","0","1","5","4","2","2","4","3","2","4","4","2","2","792726336467771393","陈","275","","","","{""Q01"":""4"",""Q02"":""3"",""Q03"":""2"",""Q04"":""4"",""Q05"":""4"",""Q06"":""4"",""Q07"":""4"",""Q08"":""2"",""Q09"":""4"",""Q10"":""4""}","[0,1,2,3,4,5,6,7,8,9]","[""Q01"",""Q02"",""Q03"",""Q04"",""Q05"",""Q06"",""Q07"",""Q08"",""Q09"",""Q10""]","[1690.0000000000146,2959,5009,6438,7758,8772,11172,11918,12950,14587]","[]","[1690.0000000000146,2959,5009,6438,7758,8772,10058,11172,11918,12950,14587,16018]","0.6","0.2222222222222222","0","","","","","","","","","","","","","","","","","","","","","","","","","","","","","",""
"","","","preload","6","116242","0.0-5.0","4","4","4","3","3","4","3","3","3","3","4","3","2","4","4","4","4","2","4","4","4","5","3","4","4","3","4","4","4","1","0","1","1","0","0","1","1","0","1","1","0","1","0","1","5","4","2","2","4","3","2","4","4","2","2","792726336467771393","陈","275","","true","","","","","","","","","","","false","[]","[]","[]","","","","","","","","","","","","","","","","","","","","","","","","","",""
"11158","","","instructions","7","127403","0.0-6.0","4","4","4","3","3","4","3","3","3","3","4","3","2","4","4","4","4","2","4","4","4","5","3","4","4","3","4","4","4","1","0","1","1","0","0","1","1","0","1","1","0","1","0","1","5","4","2","2","4","3","2","4","4","2","2","792726336467771393","陈","275","","","","","","","","","","","","","","","","","[{""page_index"":0,""viewing_time"":11158}]","","","","","","","","","","","","","","","","","","","","","","","","",""
"22719","","","instructions","8","150126","0.0-7.0-1.0-0.0","4","4","4","3","3","4","3","3","3","3","4","3","2","4","4","4","4","2","4","4","4","5","3","4","4","3","4","4","4","1","0","1","1","0","0","1","1","0","1","1","0","1","0","1","5","4","2","2","4","3","2","4","4","2","2","792726336467771393","陈","275","","","","","","","","","","","","","","","","","[{""page_index"":0,""viewing_time"":11475},{""page_index"":1,""viewing_time"":9012},{""page_index"":2,""viewing_time"":2232}]","","","","","","","","","","","","","","","","","","","","","","","","",""
"1199","","f","psychophysics","9","152335","0.0-7.0-1.0-1.0-0.0-0.0","4","4","4","3","3","4","3","3","3","3","4","3","2","4","4","4","4","2","4","4","4","5","3","4","4","3","4","4","4","1","0","1","1","0","0","1","1","0","1","1","0","1","0","1","5","4","2","2","4","3","2","4","4","2","2","792726336467771393","陈","275","","","","nonmatch","","","","","","","","","","","","","","key","f","16.54263565891473","540","337","j","false","match","img/triangle.png","三角","三角","ALT1_2","prac_ALT1_2","","","","","","","","","","","",""
"null","<span style='color:red; font-size: 70px;'>错误! </span>","null","html-keyboard-response","10","152838","0.0-7.0-1.0-1.0-0.0-1.0","4","4","4","3","3","4","3","3","3","3","4","3","2","4","4","4","4","2","4","4","4","5","3","4","4","3","4","4","4","1","0","1","1","0","0","1","1","0","1","1","0","1","0","1","5","4","2","2","4","3","2","4","4","2","2","792726336467771393","陈","275","","","","","","","","","","","","","","","","","","","","","","","","","","","","","","feedback_test","","","","","","","","","","","",""
"939","","j","psychophysics","11","154783","0.0-7.0-1.0-1.0-0.0-0.1","4","4","4","3","3","4","3","3","3","3","4","3","2","4","4","4","4","2","4","4","4","5","3","4","4","3","4","4","4","1","0","1","1","0","0","1","1","0","1","1","0","1","0","1","5","4","2","2","4","3","2","4","4","2","2","792726336467771393","陈","275","","","","match","","","","","","","","","","","","","","key","j","16.657894736842106","540","337","j","true","match","img/trapezoid.png","梯形","梯形","ALT1_2","prac_ALT1_2","","","","","","","","","","","",""
"null","<span style='color:GreenYellow; font-size: 70px;'>正确! </span>","null","html-keyboard-response","12","155286","0.0-7.0-1.0-1.0-0.0-1.1","4","4","4","3","3","4","3","3","3","3","4","3","2","4","4","4","4","2","4","4","4","5","3","4","4","3","4","4","4","1","0","1","1","0","0","1","1","0","1","1","0","1","0","1","5","4","2","2","4","3","2","4","4","2","2","792726336467771393","陈","275","","","","","","","","","","","","","","","","","","","","","","","","","","","","","","feedback_test","","","","","","","","","","","",""
"658","","j","psychophysics","13","156949","0.0-7.0-1.0-1.0-0.0-0.2","4","4","4","3","3","4","3","3","3","3","4","3","2","4","4","4","4","2","4","4","4","5","3","4","4","3","4","4","4","1","0","1","1","0","0","1","1","0","1","1","0","1","0","1","5","4","2","2","4","3","2","4","4","2","2","792726336467771393","陈","275","","","","match","","","","","","","","","","","","","","key","j","16.625","540","337","j","true","match","img/trapezoid.png","梯形","梯形","ALT1_2","prac_ALT1_2","","","","","","","","","","","",""
"null","<span style='color:GreenYellow; font-size: 70px;'>正确! </span>","null","html-keyboard-response","14","157452","0.0-7.0-1.0-1.0-0.0-1.2","4","4","4","3","3","4","3","3","3","3","4","3","2","4","4","4","4","2","4","4","4","5","3","4","4","3","4","4","4","1","0","1","1","0","0","1","1","0","1","1","0","1","0","1","5","4","2","2","4","3","2","4","4","2","2","792726336467771393","陈","275","","","","","","","","","","","","","","","","","","","","","","","","","","","","","","feedback_test","","","","","","","","","","","",""
"610","","f","psychophysics","15","159065","0.0-7.0-1.0-1.0-0.0-0.3","4","4","4","3","3","4","3","3","3","3","4","3","2","4","4","4","4","2","4","4","4","5","3","4","4","3","4","4","4","1","0","1","1","0","0","1","1","0","1","1","0","1","0","1","5","4","2","2","4","3","2","4","4","2","2","792726336467771393","陈","275","","","","nonmatch","","","","","","","","","","","","","","key","f","16.6","540","337","f","true","nonmatch","img/circle.png","三角","圆形","ALT1_2","prac_ALT1_2","","","","","","","","","","","",""
"null","<span style='color:GreenYellow; font-size: 70px;'>正确! </span>","null","html-keyboard-response","16","159567","0.0-7.0-1.0-1.0-0.0-1.3","4","4","4","3","3","4","3","3","3","3","4","3","2","4","4","4","4","2","4","4","4","5","3","4","4","3","4","4","4","1","0","1","1","0","0","1","1","0","1","1","0","1","0","1","5","4","2","2","4","3","2","4","4","2","2","792726336467771393","陈","275","","","","","","","","","","","","","","","","","","","","","","","","","","","","","","feedback_test","","","","","","","","","","","",""
"761","","j","psychophysics","17","161331","0.0-7.0-1.0-1.0-0.0-0.4","4","4","4","3","3","4","3","3","3","3","4","3","2","4","4","4","4","2","4","4","4","5","3","4","4","3","4","4","4","1","0","1","1","0","0","1","1","0","1","1","0","1","0","1","5","4","2","2","4","3","2","4","4","2","2","792726336467771393","陈","275","","","","match","","","","","","","","","","","","","","key","j","16.567307692307693","540","337","j","true","match","img/circle.png","圆形","圆形","ALT1_2","prac_ALT1_2","","","","","","","","","","","",""
"null","<span style='color:GreenYellow; font-size: 70px;'>正确! </span>","null","html-keyboard-response","18","161834","0.0-7.0-1.0-1.0-0.0-1.4","4","4","4","3","3","4","3","3","3","3","4","3","2","4","4","4","4","2","4","4","4","5","3","4","4","3","4","4","4","1","0","1","1","0","0","1","1","0","1","1","0","1","0","1","5","4","2","2","4","3","2","4","4","2","2","792726336467771393","陈","275","","","","","","","","","","","","","","","","","","","","","","","","","","","","","","feedback_test","","","","","","","","","","","",""
"807","","j","psychophysics","19","163645","0.0-7.0-1.0-1.0-0.0-0.5","4","4","4","3","3","4","3","3","3","3","4","3","2","4","4","4","4","2","4","4","4","5","3","4","4","3","4","4","4","1","0","1","1","0","0","1","1","0","1","1","0","1","0","1","5","4","2","2","4","3","2","4","4","2","2","792726336467771393","陈","275","","","","match","","","","","","","","","","","","","","key","j","16.69811320754717","540","337","j","true","match","img/pentagon.png","五边","五边","ALT1_2","prac_ALT1_2","","","","","","","","","","","",""
"null","<span style='color:GreenYellow; font-size: 70px;'>正确! </span>","null","html-keyboard-response","20","164147","0.0-7.0-1.0-1.0-0.0-1.5","4","4","4","3","3","4","3","3","3","3","4","3","2","4","4","4","4","2","4","4","4","5","3","4","4","3","4","4","4","1","0","1","1","0","0","1","1","0","1","1","0","1","0","1","5","4","2","2","4","3","2","4","4","2","2","792726336467771393","陈","275","","","","","","","","","","","","","","","","","","","","","","","","","","","","","","feedback_test","","","","","","","","","","","",""
"828","","f","psychophysics","21","165979","0.0-7.0-1.0-1.0-0.0-0.6","4","4","4","3","3","4","3","3","3","3","4","3","2","4","4","4","4","2","4","4","4","5","3","4","4","3","4","4","4","1","0","1","1","0","0","1","1","0","1","1","0","1","0","1","5","4","2","2","4","3","2","4","4","2","2","792726336467771393","陈","275","","","","nonmatch","","","","","","","","","","","","","","key","f","16.672897196261683","540","337","f","true","nonmatch","img/trapezoid.png","五边","梯形","ALT1_2","prac_ALT1_2","","","","","","","","","","","",""
"null","<span style='color:GreenYellow; font-size: 70px;'>正确! </span>","null","html-keyboard-response","22","166481","0.0-7.0-1.0-1.0-0.0-1.6","4","4","4","3","3","4","3","3","3","3","4","3","2","4","4","4","4","2","4","4","4","5","3","4","4","3","4","4","4","1","0","1","1","0","0","1","1","0","1","1","0","1","0","1","5","4","2","2","4","3","2","4","4","2","2","792726336467771393","陈","275","","","","","","","","","","","","","","","","","","","","","","","","","","","","","","feedback_test","","","","","","","","","","","",""
"643","","j","psychophysics","23","168128","0.0-7.0-1.0-1.0-0.0-0.7","4","4","4","3","3","4","3","3","3","3","4","3","2","4","4","4","4","2","4","4","4","5","3","4","4","3","4","4","4","1","0","1","1","0","0","1","1","0","1","1","0","1","0","1","5","4","2","2","4","3","2","4","4","2","2","792726336467771393","陈","275","","","","match","","","","","","","","","","","","","","key","j","16.697916666666668","540","337","j","true","match","img/trapezoid.png","梯形","梯形","ALT1_2","prac_ALT1_2","","","","","","","","","","","",""
"null","<span style='color:GreenYellow; font-size: 70px;'>正确! </span>","null","html-keyboard-response","24","168631","0.0-7.0-1.0-1.0-0.0-1.7","4","4","4","3","3","4","3","3","3","3","4","3","2","4","4","4","4","2","4","4","4","5","3","4","4","3","4","4","4","1","0","1","1","0","0","1","1","0","1","1","0","1","0","1","5","4","2","2","4","3","2","4","4","2","2","792726336467771393","陈","275","","","","","","","","","","","","","","","","","","","","","","","","","","","","","","feedback_test","","","","","","","","","","","",""
"693","","j","psychophysics","25","170328","0.0-7.0-1.0-1.0-0.0-0.8","4","4","4","3","3","4","3","3","3","3","4","3","2","4","4","4","4","2","4","4","4","5","3","4","4","3","4","4","4","1","0","1","1","0","0","1","1","0","1","1","0","1","0","1","5","4","2","2","4","3","2","4","4","2","2","792726336467771393","陈","275","","","","match","","","","","","","","","","","","","","key","j","16.54","540","337","j","true","match","img/circle.png","圆形","圆形","ALT1_2","prac_ALT1_2","","","","","","","","","","","",""
"null","<span style='color:GreenYellow; font-size: 70px;'>正确! </span>","null","html-keyboard-response","26","170830","0.0-7.0-1.0-1.0-0.0-1.8","4","4","4","3","3","4","3","3","3","3","4","3","2","4","4","4","4","2","4","4","4","5","3","4","4","3","4","4","4","1","0","1","1","0","0","1","1","0","1","1","0","1","0","1","5","4","2","2","4","3","2","4","4","2","2","792726336467771393","陈","275","","","","","","","","","","","","","","","","","","","","","","","","","","","","","","feedback_test","","","","","","","","","","","",""
"635","","f","psychophysics","27","172477","0.0-7.0-1.0-1.0-0.0-0.9","4","4","4","3","3","4","3","3","3","3","4","3","2","4","4","4","4","2","4","4","4","5","3","4","4","3","4","4","4","1","0","1","1","0","0","1","1","0","1","1","0","1","0","1","5","4","2","2","4","3","2","4","4","2","2","792726336467771393","陈","275","","","","nonmatch","","","","","","","","","","","","","","key","f","16.645833333333332","540","337","f","true","nonmatch","img/triangle.png","圆形","三角","ALT1_2","prac_ALT1_2","","","","","","","","","","","",""
"null","<span style='color:GreenYellow; font-size: 70px;'>正确! </span>","null","html-keyboard-response","28","172979","0.0-7.0-1.0-1.0-0.0-1.9","4","4","4","3","3","4","3","3","3","3","4","3","2","4","4","4","4","2","4","4","4","5","3","4","4","3","4","4","4","1","0","1","1","0","0","1","1","0","1","1","0","1","0","1","5","4","2","2","4","3","2","4","4","2","2","792726336467771393","陈","275","","","","","","","","","","","","","","","","","","","","","","","","","","","","","","feedback_test","","","","","","","","","","","",""
"727","","f","psychophysics","29","174711","0.0-7.0-1.0-1.0-0.0-0.10","4","4","4","3","3","4","3","3","3","3","4","3","2","4","4","4","4","2","4","4","4","5","3","4","4","3","4","4","4","1","0","1","1","0","0","1","1","0","1","1","0","1","0","1","5","4","2","2","4","3","2","4","4","2","2","792726336467771393","陈","275","","","","nonmatch","","","","","","","","","","","","","","key","f","16.683168316831683","540","337","f","true","nonmatch","img/circle.png","梯形","圆形","ALT1_2","prac_ALT1_2","","","","","","","","","","","",""
"null","<span style='color:GreenYellow; font-size: 70px;'>正确! </span>","null","html-keyboard-response","30","175213","0.0-7.0-1.0-1.0-0.0-1.10","4","4","4","3","3","4","3","3","3","3","4","3","2","4","4","4","4","2","4","4","4","5","3","4","4","3","4","4","4","1","0","1","1","0","0","1","1","0","1","1","0","1","0","1","5","4","2","2","4","3","2","4","4","2","2","792726336467771393","陈","275","","","","","","","","","","","","","","","","","","","","","","","","","","","","","","feedback_test","","","","","","","","","","","",""
"825","","f","psychophysics","31","177043","0.0-7.0-1.0-1.0-0.0-0.11","4","4","4","3","3","4","3","3","3","3","4","3","2","4","4","4","4","2","4","4","4","5","3","4","4","3","4","4","4","1","0","1","1","0","0","1","1","0","1","1","0","1","0","1","5","4","2","2","4","3","2","4","4","2","2","792726336467771393","陈","275","","","","nonmatch","","","","","","","","","","","","","","key","f","16.69158878504673","540","337","f","true","nonmatch","img/pentagon.png","圆形","五边","ALT1_2","prac_ALT1_2","","","","","","","","","","","",""
"null","<span style='color:GreenYellow; font-size: 70px;'>正确! </span>","null","html-keyboard-response","32","177555","0.0-7.0-1.0-1.0-0.0-1.11","4","4","4","3","3","4","3","3","3","3","4","3","2","4","4","4","4","2","4","4","4","5","3","4","4","3","4","4","4","1","0","1","1","0","0","1","1","0","1","1","0","1","0","1","5","4","2","2","4","3","2","4","4","2","2","792726336467771393","陈","275","","","","","","","","","","","","","","","","","","","","","","","","","","","","","","feedback_test","","","","","","","","","","","",""
"632","","j","psychophysics","33","179192","0.0-7.0-1.0-1.0-0.0-0.12","4","4","4","3","3","4","3","3","3","3","4","3","2","4","4","4","4","2","4","4","4","5","3","4","4","3","4","4","4","1","0","1","1","0","0","1","1","0","1","1","0","1","0","1","5","4","2","2","4","3","2","4","4","2","2","792726336467771393","陈","275","","","","match","","","","","","","","","","","","","","key","j","16.65625","540","337","j","true","match","img/circle.png","圆形","圆形","ALT1_2","prac_ALT1_2","","","","","","","","","","","",""
"null","<span style='color:GreenYellow; font-size: 70px;'>正确! </span>","null","html-keyboard-response","34","179694","0.0-7.0-1.0-1.0-0.0-1.12","4","4","4","3","3","4","3","3","3","3","4","3","2","4","4","4","4","2","4","4","4","5","3","4","4","3","4","4","4","1","0","1","1","0","0","1","1","0","1","1","0","1","0","1","5","4","2","2","4","3","2","4","4","2","2","792726336467771393","陈","275","","","","","","","","","","","","","","","","","","","","","","","","","","","","","","feedback_test","","","","","","","","","","","",""
"725","","f","psychophysics","35","181424","0.0-7.0-1.0-1.0-0.0-0.13","4","4","4","3","3","4","3","3","3","3","4","3","2","4","4","4","4","2","4","4","4","5","3","4","4","3","4","4","4","1","0","1","1","0","0","1","1","0","1","1","0","1","0","1","5","4","2","2","4","3","2","4","4","2","2","792726336467771393","陈","275","","","","nonmatch","","","","","","","","","","","","","","key","f","16.568627450980394","540","337","f","true","nonmatch","img/trapezoid.png","圆形","梯形","ALT1_2","prac_ALT1_2","","","","","","","","","","","",""
"null","<span style='color:GreenYellow; font-size: 70px;'>正确! </span>","null","html-keyboard-response","36","181927","0.0-7.0-1.0-1.0-0.0-1.13","4","4","4","3","3","4","3","3","3","3","4","3","2","4","4","4","4","2","4","4","4","5","3","4","4","3","4","4","4","1","0","1","1","0","0","1","1","0","1","1","0","1","0","1","5","4","2","2","4","3","2","4","4","2","2","792726336467771393","陈","275","","","","","","","","","","","","","","","","","","","","","","","","","","","","","","feedback_test","","","","","","","","","","","",""
"724","","f","psychophysics","37","183656","0.0-7.0-1.0-1.0-0.0-0.14","4","4","4","3","3","4","3","3","3","3","4","3","2","4","4","4","4","2","4","4","4","5","3","4","4","3","4","4","4","1","0","1","1","0","0","1","1","0","1","1","0","1","0","1","5","4","2","2","4","3","2","4","4","2","2","792726336467771393","陈","275","","","","nonmatch","","","","","","","","","","","","","","key","f","16.683168316831683","540","337","j","false","match","img/triangle.png","三角","三角","ALT1_2","prac_ALT1_2","","","","","","","","","","","",""
"null","<span style='color:red; font-size: 70px;'>错误! </span>","null","html-keyboard-response","38","184158","0.0-7.0-1.0-1.0-0.0-1.14","4","4","4","3","3","4","3","3","3","3","4","3","2","4","4","4","4","2","4","4","4","5","3","4","4","3","4","4","4","1","0","1","1","0","0","1","1","0","1","1","0","1","0","1","5","4","2","2","4","3","2","4","4","2","2","792726336467771393","陈","275","","","","","","","","","","","","","","","","","","","","","","","","","","","","","","feedback_test","","","","","","","","","","","",""
"711","","f","psychophysics","39","185872","0.0-7.0-1.0-1.0-0.0-0.15","4","4","4","3","3","4","3","3","3","3","4","3","2","4","4","4","4","2","4","4","4","5","3","4","4","3","4","4","4","1","0","1","1","0","0","1","1","0","1","1","0","1","0","1","5","4","2","2","4","3","2","4","4","2","2","792726336467771393","陈","275","","","","nonmatch","","","","","","","","","","","","","","key","f","16.69","540","337","f","true","nonmatch","img/circle.png","五边","圆形","ALT1_2","prac_ALT1_2","","","","","","","","","","","",""
"null","<span style='color:GreenYellow; font-size: 70px;'>正确! </span>","null","html-keyboard-response","40","186373","0.0-7.0-1.0-1.0-0.0-1.15","4","4","4","3","3","4","3","3","3","3","4","3","2","4","4","4","4","2","4","4","4","5","3","4","4","3","4","4","4","1","0","1","1","0","0","1","1","0","1","1","0","1","0","1","5","4","2","2","4","3","2","4","4","2","2","792726336467771393","陈","275","","","","","","","","","","","","","","","","","","","","","","","","","","","","","","feedback_test","","","","","","","","","","","",""
"628","","f","psychophysics","41","188005","0.0-7.0-1.0-1.0-0.0-0.16","4","4","4","3","3","4","3","3","3","3","4","3","2","4","4","4","4","2","4","4","4","5","3","4","4","3","4","4","4","1","0","1","1","0","0","1","1","0","1","1","0","1","0","1","5","4","2","2","4","3","2","4","4","2","2","792726336467771393","陈","275","","","","nonmatch","","","","","","","","","","","","","","key","f","16.541666666666668","540","337","f","true","nonmatch","img/pentagon.png","三角","五边","ALT1_2","prac_ALT1_2","","","","","","","","","","","",""
"null","<span style='color:GreenYellow; font-size: 70px;'>正确! </span>","null","html-keyboard-response","42","188507","0.0-7.0-1.0-1.0-0.0-1.16","4","4","4","3","3","4","3","3","3","3","4","3","2","4","4","4","4","2","4","4","4","5","3","4","4","3","4","4","4","1","0","1","1","0","0","1","1","0","1","1","0","1","0","1","5","4","2","2","4","3","2","4","4","2","2","792726336467771393","陈","275","","","","","","","","","","","","","","","","","","","","","","","","","","","","","","feedback_test","","","","","","","","","","","",""
"694","","j","psychophysics","43","190204","0.0-7.0-1.0-1.0-0.0-0.17","4","4","4","3","3","4","3","3","3","3","4","3","2","4","4","4","4","2","4","4","4","5","3","4","4","3","4","4","4","1","0","1","1","0","0","1","1","0","1","1","0","1","0","1","5","4","2","2","4","3","2","4","4","2","2","792726336467771393","陈","275","","","","match","","","","","","","","","","","","","","key","j","16.55","540","337","j","true","match","img/pentagon.png","五边","五边","ALT1_2","prac_ALT1_2","","","","","","","","","","","",""
"null","<span style='color:GreenYellow; font-size: 70px;'>正确! </span>","null","html-keyboard-response","44","190707","0.0-7.0-1.0-1.0-0.0-1.17","4","4","4","3","3","4","3","3","3","3","4","3","2","4","4","4","4","2","4","4","4","5","3","4","4","3","4","4","4","1","0","1","1","0","0","1","1","0","1","1","0","1","0","1","5","4","2","2","4","3","2","4","4","2","2","792726336467771393","陈","275","","","","","","","","","","","","","","","","","","","","","","","","","","","","","","feedback_test","","","","","","","","","","","",""
"661","","f","psychophysics","45","192371","0.0-7.0-1.0-1.0-0.0-0.18","4","4","4","3","3","4","3","3","3","3","4","3","2","4","4","4","4","2","4","4","4","5","3","4","4","3","4","4","4","1","0","1","1","0","0","1","1","0","1","1","0","1","0","1","5","4","2","2","4","3","2","4","4","2","2","792726336467771393","陈","275","","","","nonmatch","","","","","","","","","","","","","","key","f","16.540816326530614","540","337","f","true","nonmatch","img/triangle.png","梯形","三角","ALT1_2","prac_ALT1_2","","","","","","","","","","","",""
"null","<span style='color:GreenYellow; font-size: 70px;'>正确! </span>","null","html-keyboard-response","46","192873","0.0-7.0-1.0-1.0-0.0-1.18","4","4","4","3","3","4","3","3","3","3","4","3","2","4","4","4","4","2","4","4","4","5","3","4","4","3","4","4","4","1","0","1","1","0","0","1","1","0","1","1","0","1","0","1","5","4","2","2","4","3","2","4","4","2","2","792726336467771393","陈","275","","","","","","","","","","","","","","","","","","","","","","","","","","","","","","feedback_test","","","","","","","","","","","",""
"609","","f","psychophysics","47","194487","0.0-7.0-1.0-1.0-0.0-0.19","4","4","4","3","3","4","3","3","3","3","4","3","2","4","4","4","4","2","4","4","4","5","3","4","4","3","4","4","4","1","0","1","1","0","0","1","1","0","1","1","0","1","0","1","5","4","2","2","4","3","2","4","4","2","2","792726336467771393","陈","275","","","","nonmatch","","","","","","","","","","","","","","key","f","16.557894736842105","540","337","f","true","nonmatch","img/triangle.png","五边","三角","ALT1_2","prac_ALT1_2","","","","","","","","","","","",""
"null","<span style='color:GreenYellow; font-size: 70px;'>正确! </span>","null","html-keyboard-response","48","194990","0.0-7.0-1.0-1.0-0.0-1.19","4","4","4","3","3","4","3","3","3","3","4","3","2","4","4","4","4","2","4","4","4","5","3","4","4","3","4","4","4","1","0","1","1","0","0","1","1","0","1","1","0","1","0","1","5","4","2","2","4","3","2","4","4","2","2","792726336467771393","陈","275","","","","","","","","","","","","","","","","","","","","","","","","","","","","","","feedback_test","","","","","","","","","","","",""
"893","","f","psychophysics","49","196886","0.0-7.0-1.0-1.0-0.0-0.20","4","4","4","3","3","4","3","3","3","3","4","3","2","4","4","4","4","2","4","4","4","5","3","4","4","3","4","4","4","1","0","1","1","0","0","1","1","0","1","1","0","1","0","1","5","4","2","2","4","3","2","4","4","2","2","792726336467771393","陈","275","","","","nonmatch","","","","","","","","","","","","","","key","f","16.684684684684683","540","337","f","true","nonmatch","img/pentagon.png","梯形","五边","ALT1_2","prac_ALT1_2","","","","","","","","","","","",""
"null","<span style='color:GreenYellow; font-size: 70px;'>正确! </span>","null","html-keyboard-response","50","197388","0.0-7.0-1.0-1.0-0.0-1.20","4","4","4","3","3","4","3","3","3","3","4","3","2","4","4","4","4","2","4","4","4","5","3","4","4","3","4","4","4","1","0","1","1","0","0","1","1","0","1","1","0","1","0","1","5","4","2","2","4","3","2","4","4","2","2","792726336467771393","陈","275","","","","","","","","","","","","","","","","","","","","","","","","","","","","","","feedback_test","","","","","","","","","","","",""
"710","","f","psychophysics","51","199101","0.0-7.0-1.0-1.0-0.0-0.21","4","4","4","3","3","4","3","3","3","3","4","3","2","4","4","4","4","2","4","4","4","5","3","4","4","3","4","4","4","1","0","1","1","0","0","1","1","0","1","1","0","1","0","1","5","4","2","2","4","3","2","4","4","2","2","792726336467771393","陈","275","","","","nonmatch","","","","","","","","","","","","","","key","f","16.7","540","337","j","false","match","img/triangle.png","三角","三角","ALT1_2","prac_ALT1_2","","","","","","","","","","","",""
"null","<span style='color:red; font-size: 70px;'>错误! </span>","null","html-keyboard-response","52","199602","0.0-7.0-1.0-1.0-0.0-1.21","4","4","4","3","3","4","3","3","3","3","4","3","2","4","4","4","4","2","4","4","4","5","3","4","4","3","4","4","4","1","0","1","1","0","0","1","1","0","1","1","0","1","0","1","5","4","2","2","4","3","2","4","4","2","2","792726336467771393","陈","275","","","","","","","","","","","","","","","","","","","","","","","","","","","","","","feedback_test","","","","","","","","","","","",""
"729","","j","psychophysics","53","201335","0.0-7.0-1.0-1.0-0.0-0.22","4","4","4","3","3","4","3","3","3","3","4","3","2","4","4","4","4","2","4","4","4","5","3","4","4","3","4","4","4","1","0","1","1","0","0","1","1","0","1","1","0","1","0","1","5","4","2","2","4","3","2","4","4","2","2","792726336467771393","陈","275","","","","match","","","","","","","","","","","","","","key","j","16.683168316831683","540","337","j","true","match","img/pentagon.png","五边","五边","ALT1_2","prac_ALT1_2","","","","","","","","","","","",""
"null","<span style='color:GreenYellow; font-size: 70px;'>正确! </span>","null","html-keyboard-response","54","201838","0.0-7.0-1.0-1.0-0.0-1.22","4","4","4","3","3","4","3","3","3","3","4","3","2","4","4","4","4","2","4","4","4","5","3","4","4","3","4","4","4","1","0","1","1","0","0","1","1","0","1","1","0","1","0","1","5","4","2","2","4","3","2","4","4","2","2","792726336467771393","陈","275","","","","","","","","","","","","","","","","","","","","","","","","","","","","","","feedback_test","","","","","","","","","","","",""
"542","","f","psychophysics","55","203384","0.0-7.0-1.0-1.0-0.0-0.23","4","4","4","3","3","4","3","3","3","3","4","3","2","4","4","4","4","2","4","4","4","5","3","4","4","3","4","4","4","1","0","1","1","0","0","1","1","0","1","1","0","1","0","1","5","4","2","2","4","3","2","4","4","2","2","792726336467771393","陈","275","","","","nonmatch","","","","","","","","","","","","","","key","f","16.7","540","337","f","true","nonmatch","img/trapezoid.png","三角","梯形","ALT1_2","prac_ALT1_2","","","","","","","","","","","",""
"null","<span style='color:GreenYellow; font-size: 70px;'>正确! </span>","null","html-keyboard-response","56","203887","0.0-7.0-1.0-1.0-0.0-1.23","4","4","4","3","3","4","3","3","3","3","4","3","2","4","4","4","4","2","4","4","4","5","3","4","4","3","4","4","4","1","0","1","1","0","0","1","1","0","1","1","0","1","0","1","5","4","2","2","4","3","2","4","4","2","2","792726336467771393","陈","275","","","","","","","","","","","","","","","","","","","","","","","","","","","","","","feedback_test","","","","","","","","","","","",""
"623","","f","psychophysics","57","205516","0.0-7.0-1.0-1.0-0.0-0.24","4","4","4","3","3","4","3","3","3","3","4","3","2","4","4","4","4","2","4","4","4","5","3","4","4","3","4","4","4","1","0","1","1","0","0","1","1","0","1","1","0","1","0","1","5","4","2","2","4","3","2","4","4","2","2","792726336467771393","陈","275","","","","nonmatch","","","","","","","","","","","","","","key","f","16.694736842105264","540","337","f","true","nonmatch","img/pentagon.png","梯形","五边","ALT1_2","prac_ALT1_2","","","","","","","","","","","",""
"null","<span style='color:GreenYellow; font-size: 70px;'>正确! </span>","null","html-keyboard-response","58","206018","0.0-7.0-1.0-1.0-0.0-1.24","4","4","4","3","3","4","3","3","3","3","4","3","2","4","4","4","4","2","4","4","4","5","3","4","4","3","4","4","4","1","0","1","1","0","0","1","1","0","1","1","0","1","0","1","5","4","2","2","4","3","2","4","4","2","2","792726336467771393","陈","275","","","","","","","","","","","","","","","","","","","","","","","","","","","","","","feedback_test","","","","","","","","","","","",""
"644","","f","psychophysics","59","207666","0.0-7.0-1.0-1.0-0.0-0.25","4","4","4","3","3","4","3","3","3","3","4","3","2","4","4","4","4","2","4","4","4","5","3","4","4","3","4","4","4","1","0","1","1","0","0","1","1","0","1","1","0","1","0","1","5","4","2","2","4","3","2","4","4","2","2","792726336467771393","陈","275","","","","nonmatch","","","","","","","","","","","","","","key","f","16.54639175257732","540","337","f","true","nonmatch","img/trapezoid.png","圆形","梯形","ALT1_2","prac_ALT1_2","","","","","","","","","","","",""
"null","<span style='color:GreenYellow; font-size: 70px;'>正确! </span>","null","html-keyboard-response","60","208168","0.0-7.0-1.0-1.0-0.0-1.25","4","4","4","3","3","4","3","3","3","3","4","3","2","4","4","4","4","2","4","4","4","5","3","4","4","3","4","4","4","1","0","1","1","0","0","1","1","0","1","1","0","1","0","1","5","4","2","2","4","3","2","4","4","2","2","792726336467771393","陈","275","","","","","","","","","","","","","","","","","","","","","","","","","","","","","","feedback_test","","","","","","","","","","","",""
"573","","j","psychophysics","61","209748","0.0-7.0-1.0-1.0-0.0-0.26","4","4","4","3","3","4","3","3","3","3","4","3","2","4","4","4","4","2","4","4","4","5","3","4","4","3","4","4","4","1","0","1","1","0","0","1","1","0","1","1","0","1","0","1","5","4","2","2","4","3","2","4","4","2","2","792726336467771393","陈","275","","","","match","","","","","","","","","","","","","","key","j","16.695652173913043","540","337","j","true","match","img/circle.png","圆形","圆形","ALT1_2","prac_ALT1_2","","","","","","","","","","","",""
"null","<span style='color:GreenYellow; font-size: 70px;'>正确! </span>","null","html-keyboard-response","62","210249","0.0-7.0-1.0-1.0-0.0-1.26","4","4","4","3","3","4","3","3","3","3","4","3","2","4","4","4","4","2","4","4","4","5","3","4","4","3","4","4","4","1","0","1","1","0","0","1","1","0","1","1","0","1","0","1","5","4","2","2","4","3","2","4","4","2","2","792726336467771393","陈","275","","","","","","","","","","","","","","","","","","","","","","","","","","","","","","feedback_test","","","","","","","","","","","",""
"611","","f","psychophysics","63","211864","0.0-7.0-1.0-1.0-0.0-0.27","4","4","4","3","3","4","3","3","3","3","4","3","2","4","4","4","4","2","4","4","4","5","3","4","4","3","4","4","4","1","0","1","1","0","0","1","1","0","1","1","0","1","0","1","5","4","2","2","4","3","2","4","4","2","2","792726336467771393","陈","275","","","","nonmatch","","","","","","","","","","","","","","key","f","16.54736842105263","540","337","j","false","match","img/trapezoid.png","梯形","梯形","ALT1_2","prac_ALT1_2","","","","","","","","","","","",""
"null","<span style='color:red; font-size: 70px;'>错误! </span>","null","html-keyboard-response","64","212366","0.0-7.0-1.0-1.0-0.0-1.27","4","4","4","3","3","4","3","3","3","3","4","3","2","4","4","4","4","2","4","4","4","5","3","4","4","3","4","4","4","1","0","1","1","0","0","1","1","0","1","1","0","1","0","1","5","4","2","2","4","3","2","4","4","2","2","792726336467771393","陈","275","","","","","","","","","","","","","","","","","","","","","","","","","","","","","","feedback_test","","","","","","","","","","","",""
"676","","f","psychophysics","65","214046","0.0-7.0-1.0-1.0-0.0-0.28","4","4","4","3","3","4","3","3","3","3","4","3","2","4","4","4","4","2","4","4","4","5","3","4","4","3","4","4","4","1","0","1","1","0","0","1","1","0","1","1","0","1","0","1","5","4","2","2","4","3","2","4","4","2","2","792726336467771393","陈","275","","","","nonmatch","","","","","","","","","","","","","","key","f","16.653061224489797","540","337","f","true","nonmatch","img/circle.png","梯形","圆形","ALT1_2","prac_ALT1_2","","","","","","","","","","","",""
"null","<span style='color:GreenYellow; font-size: 70px;'>正确! </span>","null","html-keyboard-response","66","214548","0.0-7.0-1.0-1.0-0.0-1.28","4","4","4","3","3","4","3","3","3","3","4","3","2","4","4","4","4","2","4","4","4","5","3","4","4","3","4","4","4","1","0","1","1","0","0","1","1","0","1","1","0","1","0","1","5","4","2","2","4","3","2","4","4","2","2","792726336467771393","陈","275","","","","","","","","","","","","","","","","","","","","","","","","","","","","","","feedback_test","","","","","","","","","","","",""
"744","","j","psychophysics","67","216296","0.0-7.0-1.0-1.0-0.0-0.29","4","4","4","3","3","4","3","3","3","3","4","3","2","4","4","4","4","2","4","4","4","5","3","4","4","3","4","4","4","1","0","1","1","0","0","1","1","0","1","1","0","1","0","1","5","4","2","2","4","3","2","4","4","2","2","792726336467771393","陈","275","","","","match","","","","","","","","","","","","","","key","j","16.553398058252426","540","337","j","true","match","img/pentagon.png","五边","五边","ALT1_2","prac_ALT1_2","","","","","","","","","","","",""
"null","<span style='color:GreenYellow; font-size: 70px;'>正确! </span>","null","html-keyboard-response","68","216799","0.0-7.0-1.0-1.0-0.0-1.29","4","4","4","3","3","4","3","3","3","3","4","3","2","4","4","4","4","2","4","4","4","5","3","4","4","3","4","4","4","1","0","1","1","0","0","1","1","0","1","1","0","1","0","1","5","4","2","2","4","3","2","4","4","2","2","792726336467771393","陈","275","","","","","","","","","","","","","","","","","","","","","","","","","","","","","","feedback_test","","","","","","","","","","","",""
"741","","f","psychophysics","69","218545","0.0-7.0-1.0-1.0-0.0-0.30","4","4","4","3","3","4","3","3","3","3","4","3","2","4","4","4","4","2","4","4","4","5","3","4","4","3","4","4","4","1","0","1","1","0","0","1","1","0","1","1","0","1","0","1","5","4","2","2","4","3","2","4","4","2","2","792726336467771393","陈","275","","","","nonmatch","","","","","","","","","","","","","","key","f","16.686274509803923","540","337","j","false","match","img/triangle.png","三角","三角","ALT1_2","prac_ALT1_2","","","","","","","","","","","",""
"null","<span style='color:red; font-size: 70px;'>错误! </span>","null","html-keyboard-response","70","219047","0.0-7.0-1.0-1.0-0.0-1.30","4","4","4","3","3","4","3","3","3","3","4","3","2","4","4","4","4","2","4","4","4","5","3","4","4","3","4","4","4","1","0","1","1","0","0","1","1","0","1","1","0","1","0","1","5","4","2","2","4","3","2","4","4","2","2","792726336467771393","陈","275","","","","","","","","","","","","","","","","","","","","","","","","","","","","","","feedback_test","","","","","","","","","","","",""
"668","","j","psychophysics","71","220730","0.0-7.0-1.0-1.0-0.0-0.31","4","4","4","3","3","4","3","3","3","3","4","3","2","4","4","4","4","2","4","4","4","5","3","4","4","3","4","4","4","1","0","1","1","0","0","1","1","0","1","1","0","1","0","1","5","4","2","2","4","3","2","4","4","2","2","792726336467771393","陈","275","","","","match","","","","","","","","","","","","","","key","j","16.693877551020407","540","337","j","true","match","img/pentagon.png","五边","五边","ALT1_2","prac_ALT1_2","","","","","","","","","","","",""
"null","<span style='color:GreenYellow; font-size: 70px;'>正确! </span>","null","html-keyboard-response","72","221232","0.0-7.0-1.0-1.0-0.0-1.31","4","4","4","3","3","4","3","3","3","3","4","3","2","4","4","4","4","2","4","4","4","5","3","4","4","3","4","4","4","1","0","1","1","0","0","1","1","0","1","1","0","1","0","1","5","4","2","2","4","3","2","4","4","2","2","792726336467771393","陈","275","","","","","","","","","","","","","","","","","","","","","","","","","","","","","","feedback_test","","","","","","","","","","","",""
"475","","j","psychophysics","73","222712","0.0-7.0-1.0-1.0-0.0-0.32","4","4","4","3","3","4","3","3","3","3","4","3","2","4","4","4","4","2","4","4","4","5","3","4","4","3","4","4","4","1","0","1","1","0","0","1","1","0","1","1","0","1","0","1","5","4","2","2","4","3","2","4","4","2","2","792726336467771393","陈","275","","","","match","","","","","","","","","","","","","","key","j","16.674418604651162","540","337","j","true","match","img/triangle.png","三角","三角","ALT1_2","prac_ALT1_2","","","","","","","","","","","",""
"null","<span style='color:GreenYellow; font-size: 70px;'>正确! </span>","null","html-keyboard-response","74","223213","0.0-7.0-1.0-1.0-0.0-1.32","4","4","4","3","3","4","3","3","3","3","4","3","2","4","4","4","4","2","4","4","4","5","3","4","4","3","4","4","4","1","0","1","1","0","0","1","1","0","1","1","0","1","0","1","5","4","2","2","4","3","2","4","4","2","2","792726336467771393","陈","275","","","","","","","","","","","","","","","","","","","","","","","","","","","","","","feedback_test","","","","","","","","","","","",""
"741","","f","psychophysics","75","224960","0.0-7.0-1.0-1.0-0.0-0.33","4","4","4","3","3","4","3","3","3","3","4","3","2","4","4","4","4","2","4","4","4","5","3","4","4","3","4","4","4","1","0","1","1","0","0","1","1","0","1","1","0","1","0","1","5","4","2","2","4","3","2","4","4","2","2","792726336467771393","陈","275","","","","nonmatch","","","","","","","","","","","","","","key","f","16.686274509803923","540","337","f","true","nonmatch","img/triangle.png","圆形","三角","ALT1_2","prac_ALT1_2","","","","","","","","","","","",""
"null","<span style='color:GreenYellow; font-size: 70px;'>正确! </span>","null","html-keyboard-response","76","225462","0.0-7.0-1.0-1.0-0.0-1.33","4","4","4","3","3","4","3","3","3","3","4","3","2","4","4","4","4","2","4","4","4","5","3","4","4","3","4","4","4","1","0","1","1","0","0","1","1","0","1","1","0","1","0","1","5","4","2","2","4","3","2","4","4","2","2","792726336467771393","陈","275","","","","","","","","","","","","","","","","","","","","","","","","","","","","","","feedback_test","","","","","","","","","","","",""
"694","","j","psychophysics","77","227159","0.0-7.0-1.0-1.0-0.0-0.34","4","4","4","3","3","4","3","3","3","3","4","3","2","4","4","4","4","2","4","4","4","5","3","4","4","3","4","4","4","1","0","1","1","0","0","1","1","0","1","1","0","1","0","1","5","4","2","2","4","3","2","4","4","2","2","792726336467771393","陈","275","","","","match","","","","","","","","","","","","","","key","j","16.67676767676768","540","337","f","false","nonmatch","img/triangle.png","五边","三角","ALT1_2","prac_ALT1_2","","","","","","","","","","","",""
"null","<span style='color:red; font-size: 70px;'>错误! </span>","null","html-keyboard-response","78","227661","0.0-7.0-1.0-1.0-0.0-1.34","4","4","4","3","3","4","3","3","3","3","4","3","2","4","4","4","4","2","4","4","4","5","3","4","4","3","4","4","4","1","0","1","1","0","0","1","1","0","1","1","0","1","0","1","5","4","2","2","4","3","2","4","4","2","2","792726336467771393","陈","275","","","","","","","","","","","","","","","","","","","","","","","","","","","","","","feedback_test","","","","","","","","","","","",""
"794","","j","psychophysics","79","229459","0.0-7.0-1.0-1.0-0.0-0.35","4","4","4","3","3","4","3","3","3","3","4","3","2","4","4","4","4","2","4","4","4","5","3","4","4","3","4","4","4","1","0","1","1","0","0","1","1","0","1","1","0","1","0","1","5","4","2","2","4","3","2","4","4","2","2","792726336467771393","陈","275","","","","match","","","","","","","","","","","","","","key","j","16.685714285714287","540","337","j","true","match","img/pentagon.png","五边","五边","ALT1_2","prac_ALT1_2","","","","","","","","","","","",""
"null","<span style='color:GreenYellow; font-size: 70px;'>正确! </span>","null","html-keyboard-response","80","229962","0.0-7.0-1.0-1.0-0.0-1.35","4","4","4","3","3","4","3","3","3","3","4","3","2","4","4","4","4","2","4","4","4","5","3","4","4","3","4","4","4","1","0","1","1","0","0","1","1","0","1","1","0","1","0","1","5","4","2","2","4","3","2","4","4","2","2","792726336467771393","陈","275","","","","","","","","","","","","","","","","","","","","","","","","","","","","","","feedback_test","","","","","","","","","","","",""
"640","","f","psychophysics","81","231607","0.0-7.0-1.0-1.0-0.0-0.36","4","4","4","3","3","4","3","3","3","3","4","3","2","4","4","4","4","2","4","4","4","5","3","4","4","3","4","4","4","1","0","1","1","0","0","1","1","0","1","1","0","1","0","1","5","4","2","2","4","3","2","4","4","2","2","792726336467771393","陈","275","","","","nonmatch","","","","","","","","","","","","","","key","f","17.04255319148936","540","337","f","true","nonmatch","img/pentagon.png","三角","五边","ALT1_2","prac_ALT1_2","","","","","","","","","","","",""
"null","<span style='color:GreenYellow; font-size: 70px;'>正确! </span>","null","html-keyboard-response","82","232109","0.0-7.0-1.0-1.0-0.0-1.36","4","4","4","3","3","4","3","3","3","3","4","3","2","4","4","4","4","2","4","4","4","5","3","4","4","3","4","4","4","1","0","1","1","0","0","1","1","0","1","1","0","1","0","1","5","4","2","2","4","3","2","4","4","2","2","792726336467771393","陈","275","","","","","","","","","","","","","","","","","","","","","","","","","","","","","","feedback_test","","","","","","","","","","","",""
"595","","j","psychophysics","83","233708","0.0-7.0-1.0-1.0-0.0-0.37","4","4","4","3","3","4","3","3","3","3","4","3","2","4","4","4","4","2","4","4","4","5","3","4","4","3","4","4","4","1","0","1","1","0","0","1","1","0","1","1","0","1","0","1","5","4","2","2","4","3","2","4","4","2","2","792726336467771393","陈","275","","","","match","","","","","","","","","","","","","","key","j","16.54255319148936","540","337","j","true","match","img/circle.png","圆形","圆形","ALT1_2","prac_ALT1_2","","","","","","","","","","","",""
"null","<span style='color:GreenYellow; font-size: 70px;'>正确! </span>","null","html-keyboard-response","84","234213","0.0-7.0-1.0-1.0-0.0-1.37","4","4","4","3","3","4","3","3","3","3","4","3","2","4","4","4","4","2","4","4","4","5","3","4","4","3","4","4","4","1","0","1","1","0","0","1","1","0","1","1","0","1","0","1","5","4","2","2","4","3","2","4","4","2","2","792726336467771393","陈","275","","","","","","","","","","","","","","","","","","","","","","","","","","","","","","feedback_test","","","","","","","","","","","",""
"638","","j","psychophysics","85","235856","0.0-7.0-1.0-1.0-0.0-0.38","4","4","4","3","3","4","3","3","3","3","4","3","2","4","4","4","4","2","4","4","4","5","3","4","4","3","4","4","4","1","0","1","1","0","0","1","1","0","1","1","0","1","0","1","5","4","2","2","4","3","2","4","4","2","2","792726336467771393","陈","275","","","","match","","","","","","","","","","","","","","key","j","16.65625","540","337","j","true","match","img/circle.png","圆形","圆形","ALT1_2","prac_ALT1_2","","","","","","","","","","","",""
"null","<span style='color:GreenYellow; font-size: 70px;'>正确! </span>","null","html-keyboard-response","86","236359","0.0-7.0-1.0-1.0-0.0-1.38","4","4","4","3","3","4","3","3","3","3","4","3","2","4","4","4","4","2","4","4","4","5","3","4","4","3","4","4","4","1","0","1","1","0","0","1","1","0","1","1","0","1","0","1","5","4","2","2","4","3","2","4","4","2","2","792726336467771393","陈","275","","","","","","","","","","","","","","","","","","","","","","","","","","","","","","feedback_test","","","","","","","","","","","",""
"658","","j","psychophysics","87","238021","0.0-7.0-1.0-1.0-0.0-0.39","4","4","4","3","3","4","3","3","3","3","4","3","2","4","4","4","4","2","4","4","4","5","3","4","4","3","4","4","4","1","0","1","1","0","0","1","1","0","1","1","0","1","0","1","5","4","2","2","4","3","2","4","4","2","2","792726336467771393","陈","275","","","","match","","","","","","","","","","","","","","key","j","16.551020408163264","540","337","j","true","match","img/trapezoid.png","梯形","梯形","ALT1_2","prac_ALT1_2","","","","","","","","","","","",""
"null","<span style='color:GreenYellow; font-size: 70px;'>正确! </span>","null","html-keyboard-response","88","238523","0.0-7.0-1.0-1.0-0.0-1.39","4","4","4","3","3","4","3","3","3","3","4","3","2","4","4","4","4","2","4","4","4","5","3","4","4","3","4","4","4","1","0","1","1","0","0","1","1","0","1","1","0","1","0","1","5","4","2","2","4","3","2","4","4","2","2","792726336467771393","陈","275","","","","","","","","","","","","","","","","","","","","","","","","","","","","","","feedback_test","","","","","","","","","","","",""
"796","","j","psychophysics","89","240322","0.0-7.0-1.0-1.0-0.0-0.40","4","4","4","3","3","4","3","3","3","3","4","3","2","4","4","4","4","2","4","4","4","5","3","4","4","3","4","4","4","1","0","1","1","0","0","1","1","0","1","1","0","1","0","1","5","4","2","2","4","3","2","4","4","2","2","792726336467771393","陈","275","","","","match","","","","","","","","","","","","","","key","j","16.676190476190477","540","337","j","true","match","img/trapezoid.png","梯形","梯形","ALT1_2","prac_ALT1_2","","","","","","","","","","","",""
"null","<span style='color:GreenYellow; font-size: 70px;'>正确! </span>","null","html-keyboard-response","90","240824","0.0-7.0-1.0-1.0-0.0-1.40","4","4","4","3","3","4","3","3","3","3","4","3","2","4","4","4","4","2","4","4","4","5","3","4","4","3","4","4","4","1","0","1","1","0","0","1","1","0","1","1","0","1","0","1","5","4","2","2","4","3","2","4","4","2","2","792726336467771393","陈","275","","","","","","","","","","","","","","","","","","","","","","","","","","","","","","feedback_test","","","","","","","","","","","",""
"592","","j","psychophysics","91","242420","0.0-7.0-1.0-1.0-0.0-0.41","4","4","4","3","3","4","3","3","3","3","4","3","2","4","4","4","4","2","4","4","4","5","3","4","4","3","4","4","4","1","0","1","1","0","0","1","1","0","1","1","0","1","0","1","5","4","2","2","4","3","2","4","4","2","2","792726336467771393","陈","275","","","","match","","","","","","","","","","","","","","key","j","16.677419354838708","540","337","f","false","nonmatch","img/circle.png","三角","圆形","ALT1_2","prac_ALT1_2","","","","","","","","","","","",""
"null","<span style='color:red; font-size: 70px;'>错误! </span>","null","html-keyboard-response","92","242923","0.0-7.0-1.0-1.0-0.0-1.41","4","4","4","3","3","4","3","3","3","3","4","3","2","4","4","4","4","2","4","4","4","5","3","4","4","3","4","4","4","1","0","1","1","0","0","1","1","0","1","1","0","1","0","1","5","4","2","2","4","3","2","4","4","2","2","792726336467771393","陈","275","","","","","","","","","","","","","","","","","","","","","","","","","","","","","","feedback_test","","","","","","","","","","","",""
"695","","f","psychophysics","93","244622","0.0-7.0-1.0-1.0-0.0-0.42","4","4","4","3","3","4","3","3","3","3","4","3","2","4","4","4","4","2","4","4","4","5","3","4","4","3","4","4","4","1","0","1","1","0","0","1","1","0","1","1","0","1","0","1","5","4","2","2","4","3","2","4","4","2","2","792726336467771393","陈","275","","","","nonmatch","","","","","","","","","","","","","","key","f","16.54","540","337","f","true","nonmatch","img/pentagon.png","圆形","五边","ALT1_2","prac_ALT1_2","","","","","","","","","","","",""
"null","<span style='color:GreenYellow; font-size: 70px;'>正确! </span>","null","html-keyboard-response","94","245124","0.0-7.0-1.0-1.0-0.0-1.42","4","4","4","3","3","4","3","3","3","3","4","3","2","4","4","4","4","2","4","4","4","5","3","4","4","3","4","4","4","1","0","1","1","0","0","1","1","0","1","1","0","1","0","1","5","4","2","2","4","3","2","4","4","2","2","792726336467771393","陈","275","","","","","","","","","","","","","","","","","","","","","","","","","","","","","","feedback_test","","","","","","","","","","","",""
"659","","f","psychophysics","95","246788","0.0-7.0-1.0-1.0-0.0-0.43","4","4","4","3","3","4","3","3","3","3","4","3","2","4","4","4","4","2","4","4","4","5","3","4","4","3","4","4","4","1","0","1","1","0","0","1","1","0","1","1","0","1","0","1","5","4","2","2","4","3","2","4","4","2","2","792726336467771393","陈","275","","","","nonmatch","","","","","","","","","","","","","","key","f","16.690721649484537","540","337","f","true","nonmatch","img/trapezoid.png","三角","梯形","ALT1_2","prac_ALT1_2","","","","","","","","","","","",""
"null","<span style='color:GreenYellow; font-size: 70px;'>正确! </span>","null","html-keyboard-response","96","247290","0.0-7.0-1.0-1.0-0.0-1.43","4","4","4","3","3","4","3","3","3","3","4","3","2","4","4","4","4","2","4","4","4","5","3","4","4","3","4","4","4","1","0","1","1","0","0","1","1","0","1","1","0","1","0","1","5","4","2","2","4","3","2","4","4","2","2","792726336467771393","陈","275","","","","","","","","","","","","","","","","","","","","","","","","","","","","","","feedback_test","","","","","","","","","","","",""
"775","","f","psychophysics","97","249069","0.0-7.0-1.0-1.0-0.0-0.44","4","4","4","3","3","4","3","3","3","3","4","3","2","4","4","4","4","2","4","4","4","5","3","4","4","3","4","4","4","1","0","1","1","0","0","1","1","0","1","1","0","1","0","1","5","4","2","2","4","3","2","4","4","2","2","792726336467771393","陈","275","","","","nonmatch","","","","","","","","","","","","","","key","f","16.682692307692307","540","337","f","true","nonmatch","img/circle.png","五边","圆形","ALT1_2","prac_ALT1_2","","","","","","","","","","","",""
"null","<span style='color:GreenYellow; font-size: 70px;'>正确! </span>","null","html-keyboard-response","98","249570","0.0-7.0-1.0-1.0-0.0-1.44","4","4","4","3","3","4","3","3","3","3","4","3","2","4","4","4","4","2","4","4","4","5","3","4","4","3","4","4","4","1","0","1","1","0","0","1","1","0","1","1","0","1","0","1","5","4","2","2","4","3","2","4","4","2","2","792726336467771393","陈","275","","","","","","","","","","","","","","","","","","","","","","","","","","","","","","feedback_test","","","","","","","","","","","",""
"762","","f","psychophysics","99","251335","0.0-7.0-1.0-1.0-0.0-0.45","4","4","4","3","3","4","3","3","3","3","4","3","2","4","4","4","4","2","4","4","4","5","3","4","4","3","4","4","4","1","0","1","1","0","0","1","1","0","1","1","0","1","0","1","5","4","2","2","4","3","2","4","4","2","2","792726336467771393","陈","275","","","","nonmatch","","","","","","","","","","","","","","key","f","16.679611650485437","540","337","f","true","nonmatch","img/trapezoid.png","五边","梯形","ALT1_2","prac_ALT1_2","","","","","","","","","","","",""
"null","<span style='color:GreenYellow; font-size: 70px;'>正确! </span>","null","html-keyboard-response","100","251838","0.0-7.0-1.0-1.0-0.0-1.45","4","4","4","3","3","4","3","3","3","3","4","3","2","4","4","4","4","2","4","4","4","5","3","4","4","3","4","4","4","1","0","1","1","0","0","1","1","0","1","1","0","1","0","1","5","4","2","2","4","3","2","4","4","2","2","792726336467771393","陈","275","","","","","","","","","","","","","","","","","","","","","","","","","","","","","","feedback_test","","","","","","","","","","","",""
"808","","j","psychophysics","101","253650","0.0-7.0-1.0-1.0-0.0-0.46","4","4","4","3","3","4","3","3","3","3","4","3","2","4","4","4","4","2","4","4","4","5","3","4","4","3","4","4","4","1","0","1","1","0","0","1","1","0","1","1","0","1","0","1","5","4","2","2","4","3","2","4","4","2","2","792726336467771393","陈","275","","","","match","","","","","","","","","","","","","","key","j","16.68867924528302","540","337","f","false","nonmatch","img/triangle.png","梯形","三角","ALT1_2","prac_ALT1_2","","","","","","","","","","","",""
"null","<span style='color:red; font-size: 70px;'>错误! </span>","null","html-keyboard-response","102","254152","0.0-7.0-1.0-1.0-0.0-1.46","4","4","4","3","3","4","3","3","3","3","4","3","2","4","4","4","4","2","4","4","4","5","3","4","4","3","4","4","4","1","0","1","1","0","0","1","1","0","1","1","0","1","0","1","5","4","2","2","4","3","2","4","4","2","2","792726336467771393","陈","275","","","","","","","","","","","","","","","","","","","","","","","","","","","","","","feedback_test","","","","","","","","","","","",""
"660","","f","psychophysics","103","255817","0.0-7.0-1.0-1.0-0.0-0.47","4","4","4","3","3","4","3","3","3","3","4","3","2","4","4","4","4","2","4","4","4","5","3","4","4","3","4","4","4","1","0","1","1","0","0","1","1","0","1","1","0","1","0","1","5","4","2","2","4","3","2","4","4","2","2","792726336467771393","陈","275","","","","nonmatch","","","","","","","","","","","","","","key","f","16.690721649484537","540","337","j","false","match","img/triangle.png","三角","三角","ALT1_2","prac_ALT1_2","","","","","","","","","","","",""
"null","<span style='color:red; font-size: 70px;'>错误! </span>","null","html-keyboard-response","104","256320","0.0-7.0-1.0-1.0-0.0-1.47","4","4","4","3","3","4","3","3","3","3","4","3","2","4","4","4","4","2","4","4","4","5","3","4","4","3","4","4","4","1","0","1","1","0","0","1","1","0","1","1","0","1","0","1","5","4","2","2","4","3","2","4","4","2","2","792726336467771393","陈","275","","","","","","","","","","","","","","","","","","","","","","","","","","","","","","feedback_test","","","","","","","","","","","",""
"61274","<style>.context{color:white; font-size: 35px; line-height:40px}</style>                          <div><p class='context'>您正确回答了81% 的试次。</p><p class='context'>您的平均反应时为695毫秒。</p><p class='context'>恭喜您完成练习。按空格键进入正式实验。</p><p class='footer' style='font-size: 35px; line-height:40px;'>请在进入正式实验实验之前将您的<span style='color: lightgreen;'>食指</span>放在电脑键盘的相应键位上进行按键。</p>"," ","html-keyboard-response","105","317606","0.0-7.0-1.0-2.0","4","4","4","3","3","4","3","3","3","3","4","3","2","4","4","4","4","2","4","4","4","5","3","4","4","3","4","4","4","1","0","1","1","0","0","1","1","0","1","1","0","1","0","1","5","4","2","2","4","3","2","4","4","2","2","792726336467771393","陈","275","","","","","","","","","","","","","","","","","","","","","","","","","","","","","","","","","","","","","","","","","",""
"3040","
  <p style='color: white; font-size: 22px'>请您将手指放在按键上，准备进入正式的匹配任务。</p>
  <p> <div style = ""color: green""><按空格键进入下一阶段的匹配任务></div></p>
  "," ","html-keyboard-response","106","320668","0.0-7.0-1.0-3.0","4","4","4","3","3","4","3","3","3","3","4","3","2","4","4","4","4","2","4","4","4","5","3","4","4","3","4","4","4","1","0","1","1","0","0","1","1","0","1","1","0","1","0","1","5","4","2","2","4","3","2","4","4","2","2","792726336467771393","陈","275","","","","","","","","","","","","","","","","","","","","","","","","","","","","","","","","","","","","","","","","","",""
"800","","f","psychophysics","107","322479","0.0-7.0-1.0-4.0-0.0-0.0","4","4","4","3","3","4","3","3","3","3","4","3","2","4","4","4","4","2","4","4","4","5","3","4","4","3","4","4","4","1","0","1","1","0","0","1","1","0","1","1","0","1","0","1","5","4","2","2","4","3","2","4","4","2","2","792726336467771393","陈","275","","","","nonmatch","","","","","","","","","","","","","","key","f","16.59433962264151","540","337","f","true","nonmatch","img/circle.png","梯形","圆形","ALT1","formal_ALT1_2","","","","","","","","","","","",""
"null","<span style='color:GreenYellow; font-size: 70px;'>正确! </span>","null","html-keyboard-response","108","322981","0.0-7.0-1.0-4.0-0.0-1.0","4","4","4","3","3","4","3","3","3","3","4","3","2","4","4","4","4","2","4","4","4","5","3","4","4","3","4","4","4","1","0","1","1","0","0","1","1","0","1","1","0","1","0","1","5","4","2","2","4","3","2","4","4","2","2","792726336467771393","陈","275","","","","","","","","","","","","","","","","","","","","","","","","","","","","","","feedback_test","","","","","","","","","","","",""
"608","","j","psychophysics","109","324594","0.0-7.0-1.0-4.0-0.0-0.1","4","4","4","3","3","4","3","3","3","3","4","3","2","4","4","4","4","2","4","4","4","5","3","4","4","3","4","4","4","1","0","1","1","0","0","1","1","0","1","1","0","1","0","1","5","4","2","2","4","3","2","4","4","2","2","792726336467771393","陈","275","","","","match","","","","","","","","","","","","","","key","j","16.53684210526316","540","337","j","true","match","img/triangle.png","三角","三角","ALT1","formal_ALT1_2","","","","","","","","","","","",""
"null","<span style='color:GreenYellow; font-size: 70px;'>正确! </span>","null","html-keyboard-response","110","325096","0.0-7.0-1.0-4.0-0.0-1.1","4","4","4","3","3","4","3","3","3","3","4","3","2","4","4","4","4","2","4","4","4","5","3","4","4","3","4","4","4","1","0","1","1","0","0","1","1","0","1","1","0","1","0","1","5","4","2","2","4","3","2","4","4","2","2","792726336467771393","陈","275","","","","","","","","","","","","","","","","","","","","","","","","","","","","","","feedback_test","","","","","","","","","","","",""
"543","","f","psychophysics","111","326644","0.0-7.0-1.0-4.0-0.0-0.2","4","4","4","3","3","4","3","3","3","3","4","3","2","4","4","4","4","2","4","4","4","5","3","4","4","3","4","4","4","1","0","1","1","0","0","1","1","0","1","1","0","1","0","1","5","4","2","2","4","3","2","4","4","2","2","792726336467771393","陈","275","","","","nonmatch","","","","","","","","","","","","","","key","f","16.52747252747253","540","337","j","false","match","img/trapezoid.png","梯形","梯形","ALT1","formal_ALT1_2","","","","","","","","","","","",""
"null","<span style='color:red; font-size: 70px;'>错误! </span>","null","html-keyboard-response","112","327145","0.0-7.0-1.0-4.0-0.0-1.2","4","4","4","3","3","4","3","3","3","3","4","3","2","4","4","4","4","2","4","4","4","5","3","4","4","3","4","4","4","1","0","1","1","0","0","1","1","0","1","1","0","1","0","1","5","4","2","2","4","3","2","4","4","2","2","792726336467771393","陈","275","","","","","","","","","","","","","","","","","","","","","","","","","","","","","","feedback_test","","","","","","","","","","","",""
"508","","j","psychophysics","113","328659","0.0-7.0-1.0-4.0-0.0-0.3","4","4","4","3","3","4","3","3","3","3","4","3","2","4","4","4","4","2","4","4","4","5","3","4","4","3","4","4","4","1","0","1","1","0","0","1","1","0","1","1","0","1","0","1","5","4","2","2","4","3","2","4","4","2","2","792726336467771393","陈","275","","","","match","","","","","","","","","","","","","","key","j","16.704545454545453","540","337","j","true","match","img/circle.png","圆形","圆形","ALT1","formal_ALT1_2","","","","","","","","","","","",""
"null","<span style='color:GreenYellow; font-size: 70px;'>正确! </span>","null","html-keyboard-response","114","329161","0.0-7.0-1.0-4.0-0.0-1.3","4","4","4","3","3","4","3","3","3","3","4","3","2","4","4","4","4","2","4","4","4","5","3","4","4","3","4","4","4","1","0","1","1","0","0","1","1","0","1","1","0","1","0","1","5","4","2","2","4","3","2","4","4","2","2","792726336467771393","陈","275","","","","","","","","","","","","","","","","","","","","","","","","","","","","","","feedback_test","","","","","","","","","","","",""
"761","","j","psychophysics","115","330926","0.0-7.0-1.0-4.0-0.0-0.4","4","4","4","3","3","4","3","3","3","3","4","3","2","4","4","4","4","2","4","4","4","5","3","4","4","3","4","4","4","1","0","1","1","0","0","1","1","0","1","1","0","1","0","1","5","4","2","2","4","3","2","4","4","2","2","792726336467771393","陈","275","","","","match","","","","","","","","","","","","","","key","j","16.51923076923077","540","337","j","true","match","img/pentagon.png","五边","五边","ALT1","formal_ALT1_2","","","","","","","","","","","",""
"null","<span style='color:GreenYellow; font-size: 70px;'>正确! </span>","null","html-keyboard-response","116","331429","0.0-7.0-1.0-4.0-0.0-1.4","4","4","4","3","3","4","3","3","3","3","4","3","2","4","4","4","4","2","4","4","4","5","3","4","4","3","4","4","4","1","0","1","1","0","0","1","1","0","1","1","0","1","0","1","5","4","2","2","4","3","2","4","4","2","2","792726336467771393","陈","275","","","","","","","","","","","","","","","","","","","","","","","","","","","","","","feedback_test","","","","","","","","","","","",""
"657","","f","psychophysics","117","333090","0.0-7.0-1.0-4.0-0.0-0.5","4","4","4","3","3","4","3","3","3","3","4","3","2","4","4","4","4","2","4","4","4","5","3","4","4","3","4","4","4","1","0","1","1","0","0","1","1","0","1","1","0","1","0","1","5","4","2","2","4","3","2","4","4","2","2","792726336467771393","陈","275","","","","nonmatch","","","","","","","","","","","","","","key","f","16.68041237113402","540","337","f","true","nonmatch","img/trapezoid.png","三角","梯形","ALT1","formal_ALT1_2","","","","","","","","","","","",""
"null","<span style='color:GreenYellow; font-size: 70px;'>正确! </span>","null","html-keyboard-response","118","333592","0.0-7.0-1.0-4.0-0.0-1.5","4","4","4","3","3","4","3","3","3","3","4","3","2","4","4","4","4","2","4","4","4","5","3","4","4","3","4","4","4","1","0","1","1","0","0","1","1","0","1","1","0","1","0","1","5","4","2","2","4","3","2","4","4","2","2","792726336467771393","陈","275","","","","","","","","","","","","","","","","","","","","","","","","","","","","","","feedback_test","","","","","","","","","","","",""
"528","","j","psychophysics","119","335123","0.0-7.0-1.0-4.0-0.0-0.6","4","4","4","3","3","4","3","3","3","3","4","3","2","4","4","4","4","2","4","4","4","5","3","4","4","3","4","4","4","1","0","1","1","0","0","1","1","0","1","1","0","1","0","1","5","4","2","2","4","3","2","4","4","2","2","792726336467771393","陈","275","","","","match","","","","","","","","","","","","","","key","j","16.533333333333335","540","337","j","true","match","img/circle.png","圆形","圆形","ALT1","formal_ALT1_2","","","","","","","","","","","",""
"null","<span style='color:GreenYellow; font-size: 70px;'>正确! </span>","null","html-keyboard-response","120","335626","0.0-7.0-1.0-4.0-0.0-1.6","4","4","4","3","3","4","3","3","3","3","4","3","2","4","4","4","4","2","4","4","4","5","3","4","4","3","4","4","4","1","0","1","1","0","0","1","1","0","1","1","0","1","0","1","5","4","2","2","4","3","2","4","4","2","2","792726336467771393","陈","275","","","","","","","","","","","","","","","","","","","","","","","","","","","","","","feedback_test","","","","","","","","","","","",""
"544","","j","psychophysics","121","337173","0.0-7.0-1.0-4.0-0.0-0.7","4","4","4","3","3","4","3","3","3","3","4","3","2","4","4","4","4","2","4","4","4","5","3","4","4","3","4","4","4","1","0","1","1","0","0","1","1","0","1","1","0","1","0","1","5","4","2","2","4","3","2","4","4","2","2","792726336467771393","陈","275","","","","match","","","","","","","","","","","","","","key","j","16.666666666666668","540","337","j","true","match","img/pentagon.png","五边","五边","ALT1","formal_ALT1_2","","","","","","","","","","","",""
"null","<span style='color:GreenYellow; font-size: 70px;'>正确! </span>","null","html-keyboard-response","122","337674","0.0-7.0-1.0-4.0-0.0-1.7","4","4","4","3","3","4","3","3","3","3","4","3","2","4","4","4","4","2","4","4","4","5","3","4","4","3","4","4","4","1","0","1","1","0","0","1","1","0","1","1","0","1","0","1","5","4","2","2","4","3","2","4","4","2","2","792726336467771393","陈","275","","","","","","","","","","","","","","","","","","","","","","","","","","","","","","feedback_test","","","","","","","","","","","",""
"628","","f","psychophysics","123","339306","0.0-7.0-1.0-4.0-0.0-0.8","4","4","4","3","3","4","3","3","3","3","4","3","2","4","4","4","4","2","4","4","4","5","3","4","4","3","4","4","4","1","0","1","1","0","0","1","1","0","1","1","0","1","0","1","5","4","2","2","4","3","2","4","4","2","2","792726336467771393","陈","275","","","","nonmatch","","","","","","","","","","","","","","key","f","16.68421052631579","540","337","f","true","nonmatch","img/circle.png","五边","圆形","ALT1","formal_ALT1_2","","","","","","","","","","","",""
"null","<span style='color:GreenYellow; font-size: 70px;'>正确! </span>","null","html-keyboard-response","124","339809","0.0-7.0-1.0-4.0-0.0-1.8","4","4","4","3","3","4","3","3","3","3","4","3","2","4","4","4","4","2","4","4","4","5","3","4","4","3","4","4","4","1","0","1","1","0","0","1","1","0","1","1","0","1","0","1","5","4","2","2","4","3","2","4","4","2","2","792726336467771393","陈","275","","","","","","","","","","","","","","","","","","","","","","","","","","","","","","feedback_test","","","","","","","","","","","",""
"626","","f","psychophysics","125","341438","0.0-7.0-1.0-4.0-0.0-0.9","4","4","4","3","3","4","3","3","3","3","4","3","2","4","4","4","4","2","4","4","4","5","3","4","4","3","4","4","4","1","0","1","1","0","0","1","1","0","1","1","0","1","0","1","5","4","2","2","4","3","2","4","4","2","2","792726336467771393","陈","275","","","","nonmatch","","","","","","","","","","","","","","key","f","16.705263157894738","540","337","j","false","match","img/trapezoid.png","梯形","梯形","ALT1","formal_ALT1_2","","","","","","","","","","","",""
"null","<span style='color:red; font-size: 70px;'>错误! </span>","null","html-keyboard-response","126","341939","0.0-7.0-1.0-4.0-0.0-1.9","4","4","4","3","3","4","3","3","3","3","4","3","2","4","4","4","4","2","4","4","4","5","3","4","4","3","4","4","4","1","0","1","1","0","0","1","1","0","1","1","0","1","0","1","5","4","2","2","4","3","2","4","4","2","2","792726336467771393","陈","275","","","","","","","","","","","","","","","","","","","","","","","","","","","","","","feedback_test","","","","","","","","","","","",""
"628","","j","psychophysics","127","343571","0.0-7.0-1.0-4.0-0.0-0.10","4","4","4","3","3","4","3","3","3","3","4","3","2","4","4","4","4","2","4","4","4","5","3","4","4","3","4","4","4","1","0","1","1","0","0","1","1","0","1","1","0","1","0","1","5","4","2","2","4","3","2","4","4","2","2","792726336467771393","陈","275","","","","match","","","","","","","","","","","","","","key","j","16.5625","540","337","j","true","match","img/circle.png","圆形","圆形","ALT1","formal_ALT1_2","","","","","","","","","","","",""
"null","<span style='color:GreenYellow; font-size: 70px;'>正确! </span>","null","html-keyboard-response","128","344073","0.0-7.0-1.0-4.0-0.0-1.10","4","4","4","3","3","4","3","3","3","3","4","3","2","4","4","4","4","2","4","4","4","5","3","4","4","3","4","4","4","1","0","1","1","0","0","1","1","0","1","1","0","1","0","1","5","4","2","2","4","3","2","4","4","2","2","792726336467771393","陈","275","","","","","","","","","","","","","","","","","","","","","","","","","","","","","","feedback_test","","","","","","","","","","","",""
"643","","f","psychophysics","129","345720","0.0-7.0-1.0-4.0-0.0-0.11","4","4","4","3","3","4","3","3","3","3","4","3","2","4","4","4","4","2","4","4","4","5","3","4","4","3","4","4","4","1","0","1","1","0","0","1","1","0","1","1","0","1","0","1","5","4","2","2","4","3","2","4","4","2","2","792726336467771393","陈","275","","","","nonmatch","","","","","","","","","","","","","","key","f","16.567010309278352","540","337","f","true","nonmatch","img/triangle.png","五边","三角","ALT1","formal_ALT1_2","","","","","","","","","","","",""
"null","<span style='color:GreenYellow; font-size: 70px;'>正确! </span>","null","html-keyboard-response","130","346223","0.0-7.0-1.0-4.0-0.0-1.11","4","4","4","3","3","4","3","3","3","3","4","3","2","4","4","4","4","2","4","4","4","5","3","4","4","3","4","4","4","1","0","1","1","0","0","1","1","0","1","1","0","1","0","1","5","4","2","2","4","3","2","4","4","2","2","792726336467771393","陈","275","","","","","","","","","","","","","","","","","","","","","","","","","","","","","","feedback_test","","","","","","","","","","","",""
"742","","f","psychophysics","131","347970","0.0-7.0-1.0-4.0-0.0-0.12","4","4","4","3","3","4","3","3","3","3","4","3","2","4","4","4","4","2","4","4","4","5","3","4","4","3","4","4","4","1","0","1","1","0","0","1","1","0","1","1","0","1","0","1","5","4","2","2","4","3","2","4","4","2","2","792726336467771393","陈","275","","","","nonmatch","","","","","","","","","","","","","","key","f","16.686274509803923","540","337","f","true","nonmatch","img/pentagon.png","圆形","五边","ALT1","formal_ALT1_2","","","","","","","","","","","",""
"null","<span style='color:GreenYellow; font-size: 70px;'>正确! </span>","null","html-keyboard-response","132","348472","0.0-7.0-1.0-4.0-0.0-1.12","4","4","4","3","3","4","3","3","3","3","4","3","2","4","4","4","4","2","4","4","4","5","3","4","4","3","4","4","4","1","0","1","1","0","0","1","1","0","1","1","0","1","0","1","5","4","2","2","4","3","2","4","4","2","2","792726336467771393","陈","275","","","","","","","","","","","","","","","","","","","","","","","","","","","","","","feedback_test","","","","","","","","","","","",""
"910","","f","psychophysics","133","350386","0.0-7.0-1.0-4.0-0.0-0.13","4","4","4","3","3","4","3","3","3","3","4","3","2","4","4","4","4","2","4","4","4","5","3","4","4","3","4","4","4","1","0","1","1","0","0","1","1","0","1","1","0","1","0","1","5","4","2","2","4","3","2","4","4","2","2","792726336467771393","陈","275","","","","nonmatch","","","","","","","","","","","","","","key","f","16.6875","540","337","f","true","nonmatch","img/pentagon.png","梯形","五边","ALT1","formal_ALT1_2","","","","","","","","","","","",""
"null","<span style='color:GreenYellow; font-size: 70px;'>正确! </span>","null","html-keyboard-response","134","350889","0.0-7.0-1.0-4.0-0.0-1.13","4","4","4","3","3","4","3","3","3","3","4","3","2","4","4","4","4","2","4","4","4","5","3","4","4","3","4","4","4","1","0","1","1","0","0","1","1","0","1","1","0","1","0","1","5","4","2","2","4","3","2","4","4","2","2","792726336467771393","陈","275","","","","","","","","","","","","","","","","","","","","","","","","","","","","","","feedback_test","","","","","","","","","","","",""
"693","","f","psychophysics","135","352586","0.0-7.0-1.0-4.0-0.0-0.14","4","4","4","3","3","4","3","3","3","3","4","3","2","4","4","4","4","2","4","4","4","5","3","4","4","3","4","4","4","1","0","1","1","0","0","1","1","0","1","1","0","1","0","1","5","4","2","2","4","3","2","4","4","2","2","792726336467771393","陈","275","","","","nonmatch","","","","","","","","","","","","","","key","f","16.656565656565657","540","337","f","true","nonmatch","img/circle.png","三角","圆形","ALT1","formal_ALT1_2","","","","","","","","","","","",""
"null","<span style='color:GreenYellow; font-size: 70px;'>正确! </span>","null","html-keyboard-response","136","353088","0.0-7.0-1.0-4.0-0.0-1.14","4","4","4","3","3","4","3","3","3","3","4","3","2","4","4","4","4","2","4","4","4","5","3","4","4","3","4","4","4","1","0","1","1","0","0","1","1","0","1","1","0","1","0","1","5","4","2","2","4","3","2","4","4","2","2","792726336467771393","陈","275","","","","","","","","","","","","","","","","","","","","","","","","","","","","","","feedback_test","","","","","","","","","","","",""
"675","","f","psychophysics","137","354768","0.0-7.0-1.0-4.0-0.0-0.15","4","4","4","3","3","4","3","3","3","3","4","3","2","4","4","4","4","2","4","4","4","5","3","4","4","3","4","4","4","1","0","1","1","0","0","1","1","0","1","1","0","1","0","1","5","4","2","2","4","3","2","4","4","2","2","792726336467771393","陈","275","","","","nonmatch","","","","","","","","","","","","","","key","f","16.6734693877551","540","337","f","true","nonmatch","img/triangle.png","梯形","三角","ALT1","formal_ALT1_2","","","","","","","","","","","",""
"null","<span style='color:GreenYellow; font-size: 70px;'>正确! </span>","null","html-keyboard-response","138","355270","0.0-7.0-1.0-4.0-0.0-1.15","4","4","4","3","3","4","3","3","3","3","4","3","2","4","4","4","4","2","4","4","4","5","3","4","4","3","4","4","4","1","0","1","1","0","0","1","1","0","1","1","0","1","0","1","5","4","2","2","4","3","2","4","4","2","2","792726336467771393","陈","275","","","","","","","","","","","","","","","","","","","","","","","","","","","","","","feedback_test","","","","","","","","","","","",""
"612","","j","psychophysics","139","356886","0.0-7.0-1.0-4.0-0.0-0.16","4","4","4","3","3","4","3","3","3","3","4","3","2","4","4","4","4","2","4","4","4","5","3","4","4","3","4","4","4","1","0","1","1","0","0","1","1","0","1","1","0","1","0","1","5","4","2","2","4","3","2","4","4","2","2","792726336467771393","陈","275","","","","match","","","","","","","","","","","","","","key","j","16.526315789473685","540","337","j","true","match","img/triangle.png","三角","三角","ALT1","formal_ALT1_2","","","","","","","","","","","",""
"null","<span style='color:GreenYellow; font-size: 70px;'>正确! </span>","null","html-keyboard-response","140","357390","0.0-7.0-1.0-4.0-0.0-1.16","4","4","4","3","3","4","3","3","3","3","4","3","2","4","4","4","4","2","4","4","4","5","3","4","4","3","4","4","4","1","0","1","1","0","0","1","1","0","1","1","0","1","0","1","5","4","2","2","4","3","2","4","4","2","2","792726336467771393","陈","275","","","","","","","","","","","","","","","","","","","","","","","","","","","","","","feedback_test","","","","","","","","","","","",""
"688","","f","psychophysics","141","359083","0.0-7.0-1.0-4.0-0.0-0.17","4","4","4","3","3","4","3","3","3","3","4","3","2","4","4","4","4","2","4","4","4","5","3","4","4","3","4","4","4","1","0","1","1","0","0","1","1","0","1","1","0","1","0","1","5","4","2","2","4","3","2","4","4","2","2","792726336467771393","陈","275","","","","nonmatch","","","","","","","","","","","","","","key","f","16.656565656565657","540","337","j","false","match","img/triangle.png","三角","三角","ALT1","formal_ALT1_2","","","","","","","","","","","",""
"null","<span style='color:red; font-size: 70px;'>错误! </span>","null","html-keyboard-response","142","359584","0.0-7.0-1.0-4.0-0.0-1.17","4","4","4","3","3","4","3","3","3","3","4","3","2","4","4","4","4","2","4","4","4","5","3","4","4","3","4","4","4","1","0","1","1","0","0","1","1","0","1","1","0","1","0","1","5","4","2","2","4","3","2","4","4","2","2","792726336467771393","陈","275","","","","","","","","","","","","","","","","","","","","","","","","","","","","","","feedback_test","","","","","","","","","","","",""
"860","","f","psychophysics","143","361448","0.0-7.0-1.0-4.0-0.0-0.18","4","4","4","3","3","4","3","3","3","3","4","3","2","4","4","4","4","2","4","4","4","5","3","4","4","3","4","4","4","1","0","1","1","0","0","1","1","0","1","1","0","1","0","1","5","4","2","2","4","3","2","4","4","2","2","792726336467771393","陈","275","","","","nonmatch","","","","","","","","","","","","","","key","f","16.563636363636363","540","337","f","true","nonmatch","img/trapezoid.png","圆形","梯形","ALT1","formal_ALT1_2","","","","","","","","","","","",""
"null","<span style='color:GreenYellow; font-size: 70px;'>正确! </span>","null","html-keyboard-response","144","361950","0.0-7.0-1.0-4.0-0.0-1.18","4","4","4","3","3","4","3","3","3","3","4","3","2","4","4","4","4","2","4","4","4","5","3","4","4","3","4","4","4","1","0","1","1","0","0","1","1","0","1","1","0","1","0","1","5","4","2","2","4","3","2","4","4","2","2","792726336467771393","陈","275","","","","","","","","","","","","","","","","","","","","","","","","","","","","","","feedback_test","","","","","","","","","","","",""
"696","","j","psychophysics","145","363648","0.0-7.0-1.0-4.0-0.0-0.19","4","4","4","3","3","4","3","3","3","3","4","3","2","4","4","4","4","2","4","4","4","5","3","4","4","3","4","4","4","1","0","1","1","0","0","1","1","0","1","1","0","1","0","1","5","4","2","2","4","3","2","4","4","2","2","792726336467771393","陈","275","","","","match","","","","","","","","","","","","","","key","j","16.696969696969695","540","337","j","true","match","img/pentagon.png","五边","五边","ALT1","formal_ALT1_2","","","","","","","","","","","",""
"null","<span style='color:GreenYellow; font-size: 70px;'>正确! </span>","null","html-keyboard-response","146","364150","0.0-7.0-1.0-4.0-0.0-1.19","4","4","4","3","3","4","3","3","3","3","4","3","2","4","4","4","4","2","4","4","4","5","3","4","4","3","4","4","4","1","0","1","1","0","0","1","1","0","1","1","0","1","0","1","5","4","2","2","4","3","2","4","4","2","2","792726336467771393","陈","275","","","","","","","","","","","","","","","","","","","","","","","","","","","","","","feedback_test","","","","","","","","","","","",""
"661","","f","psychophysics","147","365814","0.0-7.0-1.0-4.0-0.0-0.20","4","4","4","3","3","4","3","3","3","3","4","3","2","4","4","4","4","2","4","4","4","5","3","4","4","3","4","4","4","1","0","1","1","0","0","1","1","0","1","1","0","1","0","1","5","4","2","2","4","3","2","4","4","2","2","792726336467771393","陈","275","","","","nonmatch","","","","","","","","","","","","","","key","f","16.68041237113402","540","337","f","true","nonmatch","img/triangle.png","圆形","三角","ALT1","formal_ALT1_2","","","","","","","","","","","",""
"null","<span style='color:GreenYellow; font-size: 70px;'>正确! </span>","null","html-keyboard-response","148","366317","0.0-7.0-1.0-4.0-0.0-1.20","4","4","4","3","3","4","3","3","3","3","4","3","2","4","4","4","4","2","4","4","4","5","3","4","4","3","4","4","4","1","0","1","1","0","0","1","1","0","1","1","0","1","0","1","5","4","2","2","4","3","2","4","4","2","2","792726336467771393","陈","275","","","","","","","","","","","","","","","","","","","","","","","","","","","","","","feedback_test","","","","","","","","","","","",""
"808","","f","psychophysics","149","368130","0.0-7.0-1.0-4.0-0.0-0.21","4","4","4","3","3","4","3","3","3","3","4","3","2","4","4","4","4","2","4","4","4","5","3","4","4","3","4","4","4","1","0","1","1","0","0","1","1","0","1","1","0","1","0","1","5","4","2","2","4","3","2","4","4","2","2","792726336467771393","陈","275","","","","nonmatch","","","","","","","","","","","","","","key","f","16.69811320754717","540","337","f","true","nonmatch","img/trapezoid.png","五边","梯形","ALT1","formal_ALT1_2","","","","","","","","","","","",""
"null","<span style='color:GreenYellow; font-size: 70px;'>正确! </span>","null","html-keyboard-response","150","368632","0.0-7.0-1.0-4.0-0.0-1.21","4","4","4","3","3","4","3","3","3","3","4","3","2","4","4","4","4","2","4","4","4","5","3","4","4","3","4","4","4","1","0","1","1","0","0","1","1","0","1","1","0","1","0","1","5","4","2","2","4","3","2","4","4","2","2","792726336467771393","陈","275","","","","","","","","","","","","","","","","","","","","","","","","","","","","","","feedback_test","","","","","","","","","","","",""
"711","","f","psychophysics","151","370347","0.0-7.0-1.0-4.0-0.0-0.22","4","4","4","3","3","4","3","3","3","3","4","3","2","4","4","4","4","2","4","4","4","5","3","4","4","3","4","4","4","1","0","1","1","0","0","1","1","0","1","1","0","1","0","1","5","4","2","2","4","3","2","4","4","2","2","792726336467771393","陈","275","","","","nonmatch","","","","","","","","","","","","","","key","f","16.534653465346533","540","337","f","true","nonmatch","img/pentagon.png","三角","五边","ALT1","formal_ALT1_2","","","","","","","","","","","",""
"null","<span style='color:GreenYellow; font-size: 70px;'>正确! </span>","null","html-keyboard-response","152","370849","0.0-7.0-1.0-4.0-0.0-1.22","4","4","4","3","3","4","3","3","3","3","4","3","2","4","4","4","4","2","4","4","4","5","3","4","4","3","4","4","4","1","0","1","1","0","0","1","1","0","1","1","0","1","0","1","5","4","2","2","4","3","2","4","4","2","2","792726336467771393","陈","275","","","","","","","","","","","","","","","","","","","","","","","","","","","","","","feedback_test","","","","","","","","","","","",""
"559","","j","psychophysics","153","372413","0.0-7.0-1.0-4.0-0.0-0.23","4","4","4","3","3","4","3","3","3","3","4","3","2","4","4","4","4","2","4","4","4","5","3","4","4","3","4","4","4","1","0","1","1","0","0","1","1","0","1","1","0","1","0","1","5","4","2","2","4","3","2","4","4","2","2","792726336467771393","陈","275","","","","match","","","","","","","","","","","","","","key","j","16.532608695652176","540","337","j","true","match","img/trapezoid.png","梯形","梯形","ALT1","formal_ALT1_2","","","","","","","","","","","",""
"null","<span style='color:GreenYellow; font-size: 70px;'>正确! </span>","null","html-keyboard-response","154","372916","0.0-7.0-1.0-4.0-0.0-1.23","4","4","4","3","3","4","3","3","3","3","4","3","2","4","4","4","4","2","4","4","4","5","3","4","4","3","4","4","4","1","0","1","1","0","0","1","1","0","1","1","0","1","0","1","5","4","2","2","4","3","2","4","4","2","2","792726336467771393","陈","275","","","","","","","","","","","","","","","","","","","","","","","","","","","","","","feedback_test","","","","","","","","","","","",""
"639","","j","psychophysics","155","374561","0.0-7.0-1.0-4.0-0.0-0.24","4","4","4","3","3","4","3","3","3","3","4","3","2","4","4","4","4","2","4","4","4","5","3","4","4","3","4","4","4","1","0","1","1","0","0","1","1","0","1","1","0","1","0","1","5","4","2","2","4","3","2","4","4","2","2","792726336467771393","陈","275","","","","match","","","","","","","","","","","","","","key","j","16.677083333333332","540","337","f","false","nonmatch","img/circle.png","五边","圆形","ALT1","formal_ALT1_2","","","","","","","","","","","",""
"null","<span style='color:red; font-size: 70px;'>错误! </span>","null","html-keyboard-response","156","375063","0.0-7.0-1.0-4.0-0.0-1.24","4","4","4","3","3","4","3","3","3","3","4","3","2","4","4","4","4","2","4","4","4","5","3","4","4","3","4","4","4","1","0","1","1","0","0","1","1","0","1","1","0","1","0","1","5","4","2","2","4","3","2","4","4","2","2","792726336467771393","陈","275","","","","","","","","","","","","","","","","","","","","","","","","","","","","","","feedback_test","","","","","","","","","","","",""
"543","","j","psychophysics","157","376610","0.0-7.0-1.0-4.0-0.0-0.25","4","4","4","3","3","4","3","3","3","3","4","3","2","4","4","4","4","2","4","4","4","5","3","4","4","3","4","4","4","1","0","1","1","0","0","1","1","0","1","1","0","1","0","1","5","4","2","2","4","3","2","4","4","2","2","792726336467771393","陈","275","","","","match","","","","","","","","","","","","","","key","j","16.677777777777777","540","337","j","true","match","img/circle.png","圆形","圆形","ALT1","formal_ALT1_2","","","","","","","","","","","",""
"null","<span style='color:GreenYellow; font-size: 70px;'>正确! </span>","null","html-keyboard-response","158","377111","0.0-7.0-1.0-4.0-0.0-1.25","4","4","4","3","3","4","3","3","3","3","4","3","2","4","4","4","4","2","4","4","4","5","3","4","4","3","4","4","4","1","0","1","1","0","0","1","1","0","1","1","0","1","0","1","5","4","2","2","4","3","2","4","4","2","2","792726336467771393","陈","275","","","","","","","","","","","","","","","","","","","","","","","","","","","","","","feedback_test","","","","","","","","","","","",""
"646","","j","psychophysics","159","378761","0.0-7.0-1.0-4.0-0.0-0.26","4","4","4","3","3","4","3","3","3","3","4","3","2","4","4","4","4","2","4","4","4","5","3","4","4","3","4","4","4","1","0","1","1","0","0","1","1","0","1","1","0","1","0","1","5","4","2","2","4","3","2","4","4","2","2","792726336467771393","陈","275","","","","match","","","","","","","","","","","","","","key","j","16.536082474226806","540","337","j","true","match","img/triangle.png","三角","三角","ALT1","formal_ALT1_2","","","","","","","","","","","",""
"null","<span style='color:GreenYellow; font-size: 70px;'>正确! </span>","null","html-keyboard-response","160","379262","0.0-7.0-1.0-4.0-0.0-1.26","4","4","4","3","3","4","3","3","3","3","4","3","2","4","4","4","4","2","4","4","4","5","3","4","4","3","4","4","4","1","0","1","1","0","0","1","1","0","1","1","0","1","0","1","5","4","2","2","4","3","2","4","4","2","2","792726336467771393","陈","275","","","","","","","","","","","","","","","","","","","","","","","","","","","","","","feedback_test","","","","","","","","","","","",""
"677","","f","psychophysics","161","380943","0.0-7.0-1.0-4.0-0.0-0.27","4","4","4","3","3","4","3","3","3","3","4","3","2","4","4","4","4","2","4","4","4","5","3","4","4","3","4","4","4","1","0","1","1","0","0","1","1","0","1","1","0","1","0","1","5","4","2","2","4","3","2","4","4","2","2","792726336467771393","陈","275","","","","nonmatch","","","","","","","","","","","","","","key","f","16.585858585858585","540","337","f","true","nonmatch","img/circle.png","梯形","圆形","ALT1","formal_ALT1_2","","","","","","","","","","","",""
"null","<span style='color:GreenYellow; font-size: 70px;'>正确! </span>","null","html-keyboard-response","162","381446","0.0-7.0-1.0-4.0-0.0-1.27","4","4","4","3","3","4","3","3","3","3","4","3","2","4","4","4","4","2","4","4","4","5","3","4","4","3","4","4","4","1","0","1","1","0","0","1","1","0","1","1","0","1","0","1","5","4","2","2","4","3","2","4","4","2","2","792726336467771393","陈","275","","","","","","","","","","","","","","","","","","","","","","","","","","","","","","feedback_test","","","","","","","","","","","",""
"691","","f","psychophysics","163","383141","0.0-7.0-1.0-4.0-0.0-0.28","4","4","4","3","3","4","3","3","3","3","4","3","2","4","4","4","4","2","4","4","4","5","3","4","4","3","4","4","4","1","0","1","1","0","0","1","1","0","1","1","0","1","0","1","5","4","2","2","4","3","2","4","4","2","2","792726336467771393","陈","275","","","","nonmatch","","","","","","","","","","","","","","key","f","16.666666666666668","540","337","f","true","nonmatch","img/triangle.png","五边","三角","ALT1","formal_ALT1_2","","","","","","","","","","","",""
"null","<span style='color:GreenYellow; font-size: 70px;'>正确! </span>","null","html-keyboard-response","164","383643","0.0-7.0-1.0-4.0-0.0-1.28","4","4","4","3","3","4","3","3","3","3","4","3","2","4","4","4","4","2","4","4","4","5","3","4","4","3","4","4","4","1","0","1","1","0","0","1","1","0","1","1","0","1","0","1","5","4","2","2","4","3","2","4","4","2","2","792726336467771393","陈","275","","","","","","","","","","","","","","","","","","","","","","","","","","","","","","feedback_test","","","","","","","","","","","",""
"645","","f","psychophysics","165","385292","0.0-7.0-1.0-4.0-0.0-0.29","4","4","4","3","3","4","3","3","3","3","4","3","2","4","4","4","4","2","4","4","4","5","3","4","4","3","4","4","4","1","0","1","1","0","0","1","1","0","1","1","0","1","0","1","5","4","2","2","4","3","2","4","4","2","2","792726336467771393","陈","275","","","","nonmatch","","","","","","","","","","","","","","key","f","16.536082474226806","540","337","f","true","nonmatch","img/triangle.png","圆形","三角","ALT1","formal_ALT1_2","","","","","","","","","","","",""
"null","<span style='color:GreenYellow; font-size: 70px;'>正确! </span>","null","html-keyboard-response","166","385794","0.0-7.0-1.0-4.0-0.0-1.29","4","4","4","3","3","4","3","3","3","3","4","3","2","4","4","4","4","2","4","4","4","5","3","4","4","3","4","4","4","1","0","1","1","0","0","1","1","0","1","1","0","1","0","1","5","4","2","2","4","3","2","4","4","2","2","792726336467771393","陈","275","","","","","","","","","","","","","","","","","","","","","","","","","","","","","","feedback_test","","","","","","","","","","","",""
"642","","f","psychophysics","167","387440","0.0-7.0-1.0-4.0-0.0-0.30","4","4","4","3","3","4","3","3","3","3","4","3","2","4","4","4","4","2","4","4","4","5","3","4","4","3","4","4","4","1","0","1","1","0","0","1","1","0","1","1","0","1","0","1","5","4","2","2","4","3","2","4","4","2","2","792726336467771393","陈","275","","","","nonmatch","","","","","","","","","","","","","","key","f","16.6875","540","337","f","true","nonmatch","img/pentagon.png","三角","五边","ALT1","formal_ALT1_2","","","","","","","","","","","",""
"null","<span style='color:GreenYellow; font-size: 70px;'>正确! </span>","null","html-keyboard-response","168","387942","0.0-7.0-1.0-4.0-0.0-1.30","4","4","4","3","3","4","3","3","3","3","4","3","2","4","4","4","4","2","4","4","4","5","3","4","4","3","4","4","4","1","0","1","1","0","0","1","1","0","1","1","0","1","0","1","5","4","2","2","4","3","2","4","4","2","2","792726336467771393","陈","275","","","","","","","","","","","","","","","","","","","","","","","","","","","","","","feedback_test","","","","","","","","","","","",""
"626","","j","psychophysics","169","389573","0.0-7.0-1.0-4.0-0.0-0.31","4","4","4","3","3","4","3","3","3","3","4","3","2","4","4","4","4","2","4","4","4","5","3","4","4","3","4","4","4","1","0","1","1","0","0","1","1","0","1","1","0","1","0","1","5","4","2","2","4","3","2","4","4","2","2","792726336467771393","陈","275","","","","match","","","","","","","","","","","","","","key","j","16.53125","540","337","j","true","match","img/triangle.png","三角","三角","ALT1","formal_ALT1_2","","","","","","","","","","","",""
"null","<span style='color:GreenYellow; font-size: 70px;'>正确! </span>","null","html-keyboard-response","170","390075","0.0-7.0-1.0-4.0-0.0-1.31","4","4","4","3","3","4","3","3","3","3","4","3","2","4","4","4","4","2","4","4","4","5","3","4","4","3","4","4","4","1","0","1","1","0","0","1","1","0","1","1","0","1","0","1","5","4","2","2","4","3","2","4","4","2","2","792726336467771393","陈","275","","","","","","","","","","","","","","","","","","","","","","","","","","","","","","feedback_test","","","","","","","","","","","",""
"677","","j","psychophysics","171","391756","0.0-7.0-1.0-4.0-0.0-0.32","4","4","4","3","3","4","3","3","3","3","4","3","2","4","4","4","4","2","4","4","4","5","3","4","4","3","4","4","4","1","0","1","1","0","0","1","1","0","1","1","0","1","0","1","5","4","2","2","4","3","2","4","4","2","2","792726336467771393","陈","275","","","","match","","","","","","","","","","","","","","key","j","16.683673469387756","540","337","j","true","match","img/trapezoid.png","梯形","梯形","ALT1","formal_ALT1_2","","","","","","","","","","","",""
"null","<span style='color:GreenYellow; font-size: 70px;'>正确! </span>","null","html-keyboard-response","172","392257","0.0-7.0-1.0-4.0-0.0-1.32","4","4","4","3","3","4","3","3","3","3","4","3","2","4","4","4","4","2","4","4","4","5","3","4","4","3","4","4","4","1","0","1","1","0","0","1","1","0","1","1","0","1","0","1","5","4","2","2","4","3","2","4","4","2","2","792726336467771393","陈","275","","","","","","","","","","","","","","","","","","","","","","","","","","","","","","feedback_test","","","","","","","","","","","",""
"578","","j","psychophysics","173","393839","0.0-7.0-1.0-4.0-0.0-0.33","4","4","4","3","3","4","3","3","3","3","4","3","2","4","4","4","4","2","4","4","4","5","3","4","4","3","4","4","4","1","0","1","1","0","0","1","1","0","1","1","0","1","0","1","5","4","2","2","4","3","2","4","4","2","2","792726336467771393","陈","275","","","","match","","","","","","","","","","","","","","key","j","16.706521739130434","540","337","j","true","match","img/circle.png","圆形","圆形","ALT1","formal_ALT1_2","","","","","","","","","","","",""
"null","<span style='color:GreenYellow; font-size: 70px;'>正确! </span>","null","html-keyboard-response","174","394341","0.0-7.0-1.0-4.0-0.0-1.33","4","4","4","3","3","4","3","3","3","3","4","3","2","4","4","4","4","2","4","4","4","5","3","4","4","3","4","4","4","1","0","1","1","0","0","1","1","0","1","1","0","1","0","1","5","4","2","2","4","3","2","4","4","2","2","792726336467771393","陈","275","","","","","","","","","","","","","","","","","","","","","","","","","","","","","","feedback_test","","","","","","","","","","","",""
"625","","j","psychophysics","175","395971","0.0-7.0-1.0-4.0-0.0-0.34","4","4","4","3","3","4","3","3","3","3","4","3","2","4","4","4","4","2","4","4","4","5","3","4","4","3","4","4","4","1","0","1","1","0","0","1","1","0","1","1","0","1","0","1","5","4","2","2","4","3","2","4","4","2","2","792726336467771393","陈","275","","","","match","","","","","","","","","","","","","","key","j","16.694736842105264","540","337","j","true","match","img/pentagon.png","五边","五边","ALT1","formal_ALT1_2","","","","","","","","","","","",""
"null","<span style='color:GreenYellow; font-size: 70px;'>正确! </span>","null","html-keyboard-response","176","396473","0.0-7.0-1.0-4.0-0.0-1.34","4","4","4","3","3","4","3","3","3","3","4","3","2","4","4","4","4","2","4","4","4","5","3","4","4","3","4","4","4","1","0","1","1","0","0","1","1","0","1","1","0","1","0","1","5","4","2","2","4","3","2","4","4","2","2","792726336467771393","陈","275","","","","","","","","","","","","","","","","","","","","","","","","","","","","","","feedback_test","","","","","","","","","","","",""
"662","","f","psychophysics","177","398139","0.0-7.0-1.0-4.0-0.0-0.35","4","4","4","3","3","4","3","3","3","3","4","3","2","4","4","4","4","2","4","4","4","5","3","4","4","3","4","4","4","1","0","1","1","0","0","1","1","0","1","1","0","1","0","1","5","4","2","2","4","3","2","4","4","2","2","792726336467771393","陈","275","","","","nonmatch","","","","","","","","","","","","","","key","f","16.540816326530614","540","337","f","true","nonmatch","img/circle.png","三角","圆形","ALT1","formal_ALT1_2","","","","","","","","","","","",""
"null","<span style='color:GreenYellow; font-size: 70px;'>正确! </span>","null","html-keyboard-response","178","398643","0.0-7.0-1.0-4.0-0.0-1.35","4","4","4","3","3","4","3","3","3","3","4","3","2","4","4","4","4","2","4","4","4","5","3","4","4","3","4","4","4","1","0","1","1","0","0","1","1","0","1","1","0","1","0","1","5","4","2","2","4","3","2","4","4","2","2","792726336467771393","陈","275","","","","","","","","","","","","","","","","","","","","","","","","","","","","","","feedback_test","","","","","","","","","","","",""
"587","","j","psychophysics","179","400237","0.0-7.0-1.0-4.0-0.0-0.36","4","4","4","3","3","4","3","3","3","3","4","3","2","4","4","4","4","2","4","4","4","5","3","4","4","3","4","4","4","1","0","1","1","0","0","1","1","0","1","1","0","1","0","1","5","4","2","2","4","3","2","4","4","2","2","792726336467771393","陈","275","","","","match","","","","","","","","","","","","","","key","j","16.64516129032258","540","337","j","true","match","img/circle.png","圆形","圆形","ALT1","formal_ALT1_2","","","","","","","","","","","",""
"null","<span style='color:GreenYellow; font-size: 70px;'>正确! </span>","null","html-keyboard-response","180","400739","0.0-7.0-1.0-4.0-0.0-1.36","4","4","4","3","3","4","3","3","3","3","4","3","2","4","4","4","4","2","4","4","4","5","3","4","4","3","4","4","4","1","0","1","1","0","0","1","1","0","1","1","0","1","0","1","5","4","2","2","4","3","2","4","4","2","2","792726336467771393","陈","275","","","","","","","","","","","","","","","","","","","","","","","","","","","","","","feedback_test","","","","","","","","","","","",""
"643","","f","psychophysics","181","402386","0.0-7.0-1.0-4.0-0.0-0.37","4","4","4","3","3","4","3","3","3","3","4","3","2","4","4","4","4","2","4","4","4","5","3","4","4","3","4","4","4","1","0","1","1","0","0","1","1","0","1","1","0","1","0","1","5","4","2","2","4","3","2","4","4","2","2","792726336467771393","陈","275","","","","nonmatch","","","","","","","","","","","","","","key","f","16.708333333333332","540","337","f","true","nonmatch","img/triangle.png","梯形","三角","ALT1","formal_ALT1_2","","","","","","","","","","","",""
