"rt","stimulus","response","trial_type","trial_index","time_elapsed","internal_node_id","ses_1","ses_2","ses_3","ses_4","ses_5","ses_6","ses_7","ses_8","ses_9","ses_10","coreself_1","coreself_2","coreself_3","coreself_4","coreself_5","coreself_6","coreself_7","coreself_8","coreself_9","coreself_10","SGPS_1","SGPS_2","SGPS_3","SGPS_4","SGPS_5","SGPS_6","SGPS_7","SGPS_8","SGPS_9","NPI1","NPI2","NPI3","NPI4","NPI5","NPI6","NPI7","NPI8","NPI9","NPI10","NPI11","NPI12","NPI13","NPI14","NPI15","hsns_1","hsns_2","hsns_3","hsns_4","hsns_5","trap1","hsns_6","hsns_7","hsns_8","hsns_9","hsns_10","subj_idx","friend_name","ParticipantID","value","success","user_agent","responses","item_order","radio_event_ids","radio_event_times","key_event_times","mouse_event_times","straightlining","zigzagging","honeypot","timeout","failed_images","failed_audio","failed_video","view_history","response_type","key_press","avg_frame_time","center_x","center_y","correct_response","correct","identity","Image","word","condition","task_id","screen_id","time_stamp","version_attrib2","version_target2","IAT","RT","varname","summary","version_attrib","version_target","question_order","correct_answer","trap1_item"
"16756","
   <p><div style = ""color: white;font-size:25px;"">您好，欢迎参加本次实验。</div> </p>
   <p><div style = ""color: white;font-size:25px;"">为充分保障您的权利，请确保您已经知晓并同意《参与实验同意书》以及《数据公开知情同意书》。</div></p>
   <p><div style = ""color: white;font-size:25px;"">如果您未见过上述内容，请咨询实验员。</div></p>
   <p><div style = ""color: white;font-size:25px;"">如果您选择继续实验，则表示您已经清楚两份知情同意书的内容并同意。</div></p>
   <p><div style = ""color: pink;font-size:30px;"">请确保您记得day0的实验编号，您将在本次实验输入该编号，若您忘记，请咨询实验员后作答。</div></p>
   <p><div style = ""color: lightblue;font-size:25px;"">请您尽可能认真地作答，我们将依据您在各问卷和按键任务中的作答质量发放报酬。</div></p>
   <p> <div style = ""color: green;font-size:25px;""><按空格键至下页></div> </p>
   "," ","html-keyboard-response","0","16757","0.0-0.0","3","3","4","3","3","3","4","4","3","3","4","4","3","5","4","4","4","3","4","4","1","2","2","2","2","2","2","2","2","1","1","0","1","0","0","0","1","0","0","0","0","1","0","1","4","4","3","2","3","3","4","4","3","3","2","792475678095319042","李","438","","","","","","","","","","","","","","","","","","","","","","","","","","","","","","","","","","","","","","","","","",""
"","","","call-function","1","16759","0.0-1.0-0.0","3","3","4","3","3","3","4","4","3","3","4","4","3","5","4","4","4","3","4","4","1","2","2","2","2","2","2","2","2","1","1","0","1","0","0","0","1","0","0","0","0","1","0","1","4","4","3","2","3","3","4","4","3","3","2","792475678095319042","李","438","","","","","","","","","","","","","","","","","","","","","","","","","","","","","","","","","","","","","","","","","",""
"21168","","{""friend_name"":""李"",""ParticipantID"":""438""}","survey-html-form","2","37927","0.0-1.0-1.0","3","3","4","3","3","3","4","4","3","3","4","4","3","5","4","4","4","3","4","4","1","2","2","2","2","2","2","2","2","1","1","0","1","0","0","0","1","0","0","0","0","1","0","1","4","4","3","2","3","3","4","4","3","3","2","792475678095319042","李","438","","","","","","","","","","","","","","","","","","","","","","","","","","","","","","","","","","","","","","","","","",""
"","","","fullscreen","3","57030","0.0-2.0","3","3","4","3","3","3","4","4","3","3","4","4","3","5","4","4","4","3","4","4","1","2","2","2","2","2","2","2","2","1","1","0","1","0","0","0","1","0","0","0","0","1","0","1","4","4","3","2","3","3","4","4","3","3","2","792475678095319042","李","438","","true","{}","","","","","","","","","","","","","","","","","","","","","","","","","","","","","","","","","","","","","","",""
"33644.60000000009","","{""Q01"":""3"",""Q02"":""3"",""Q03"":""4"",""Q04"":""3"",""Q05"":""3"",""Q06"":""3"",""Q07"":""4"",""Q08"":""4"",""Q09"":""3"",""Q10"":""3""}","survey-template","4","90678","0.0-3.0","3","3","4","3","3","3","4","4","3","3","4","4","3","5","4","4","4","3","4","4","1","2","2","2","2","2","2","2","2","1","1","0","1","0","0","0","1","0","0","0","0","1","0","1","4","4","3","2","3","3","4","4","3","3","2","792475678095319042","李","438","","","","{""Q01"":""3"",""Q02"":""3"",""Q03"":""4"",""Q04"":""3"",""Q05"":""3"",""Q06"":""3"",""Q07"":""4"",""Q08"":""4"",""Q09"":""3"",""Q10"":""3""}","[0,1,2,3,4,5,6,7,8,9]","[""Q01"",""Q02"",""Q03"",""Q04"",""Q05"",""Q06"",""Q07"",""Q08"",""Q09"",""Q10""]","[5397.40000000014,8279.300000000047,11359.300000000047,14229.100000000093,17254.600000000093,20121.100000000093,23249.300000000047,27459.300000000047,30023,32374.700000000186]","[]","[5397.40000000014,8279.300000000047,11359.300000000047,14229.100000000093,17254.600000000093,20121.100000000093,23249.300000000047,26951.100000000093,27459.300000000047,30023,32374.700000000186,33643.60000000009]","0.4","0.5555555555555556","0","","","","","","","","","","","","","","","","","","","","","","","","","","","","","",""
"37386.30000000005","","{""Q01"":""4"",""Q02"":""4"",""Q03"":""3"",""Q04"":""5"",""Q05"":""4"",""Q06"":""4"",""Q07"":""4"",""Q08"":""3"",""Q09"":""4"",""Q10"":""4""}","survey-template","5","128069","0.0-4.0","3","3","4","3","3","3","4","4","3","3","4","4","3","5","4","4","4","3","4","4","1","2","2","2","2","2","2","2","2","1","1","0","1","0","0","0","1","0","0","0","0","1","0","1","4","4","3","2","3","3","4","4","3","3","2","792475678095319042","李","438","","","","{""Q01"":""4"",""Q02"":""4"",""Q03"":""3"",""Q04"":""5"",""Q05"":""4"",""Q06"":""4"",""Q07"":""4"",""Q08"":""3"",""Q09"":""4"",""Q10"":""4""}","[0,1,2,3,4,5,6,7,8,9]","[""Q01"",""Q02"",""Q03"",""Q04"",""Q05"",""Q06"",""Q07"",""Q08"",""Q09"",""Q10""]","[7272.100000000093,8828.199999999953,11632.300000000047,17257.5,20472.100000000093,22735.5,26771.40000000014,30706,33882.10000000009,36590.69999999995]","[]","[7272.100000000093,8828.199999999953,11632.300000000047,17257.5,20472.100000000093,22735.5,26771.40000000014,30706,33882.10000000009,36590.69999999995,37385.19999999995]","0.4","0.3333333333333333","0","","","","","","","","","","","","","","","","","","","","","","","","","","","","","",""
"","","","preload","6","128410","0.0-5.0","3","3","4","3","3","3","4","4","3","3","4","4","3","5","4","4","4","3","4","4","1","2","2","2","2","2","2","2","2","1","1","0","1","0","0","0","1","0","0","0","0","1","0","1","4","4","3","2","3","3","4","4","3","3","2","792475678095319042","李","438","","true","","","","","","","","","","","false","[]","[]","[]","","","","","","","","","","","","","","","","","","","","","","","","","",""
"16628","","","instructions","7","145038","0.0-6.0","3","3","4","3","3","3","4","4","3","3","4","4","3","5","4","4","4","3","4","4","1","2","2","2","2","2","2","2","2","1","1","0","1","0","0","0","1","0","0","0","0","1","0","1","4","4","3","2","3","3","4","4","3","3","2","792475678095319042","李","438","","","","","","","","","","","","","","","","","[{""page_index"":0,""viewing_time"":16627}]","","","","","","","","","","","","","","","","","","","","","","","","",""
"40518","","","instructions","8","185557","0.0-7.0-1.0-0.0","3","3","4","3","3","3","4","4","3","3","4","4","3","5","4","4","4","3","4","4","1","2","2","2","2","2","2","2","2","1","1","0","1","0","0","0","1","0","0","0","0","1","0","1","4","4","3","2","3","3","4","4","3","3","2","792475678095319042","李","438","","","","","","","","","","","","","","","","","[{""page_index"":0,""viewing_time"":26669},{""page_index"":1,""viewing_time"":10688},{""page_index"":2,""viewing_time"":3160}]","","","","","","","","","","","","","","","","","","","","","","","","",""
"null","","null","psychophysics","9","187761","0.0-7.0-1.0-1.0-0.0-0.0","3","3","4","3","3","3","4","4","3","3","4","4","3","5","4","4","4","3","4","4","1","2","2","2","2","2","2","2","2","1","1","0","1","0","0","0","1","0","0","0","0","1","0","1","4","4","3","2","3","3","4","4","3","3","2","792475678095319042","李","438","","","","null","","","","","","","","","","","","","","key","null","16.66488549618303","768","428","f","false","match","img/diamond.png","菱形","菱形","ALT1_2","prac_ALT1_2","","","","","","","","","","","",""
"null","<span class='add_' style='color:yellow; font-size: 70px;'> 太慢! </span>","null","html-keyboard-response","10","188262","0.0-7.0-1.0-1.0-0.0-1.0","3","3","4","3","3","3","4","4","3","3","4","4","3","5","4","4","4","3","4","4","1","2","2","2","2","2","2","2","2","1","1","0","1","0","0","0","1","0","0","0","0","1","0","1","4","4","3","2","3","3","4","4","3","3","2","792475678095319042","李","438","","","","","","","","","","","","","","","","","","","","","","","","","","","","","","feedback_test","","","","","","","","","","","",""
"null","","null","psychophysics","11","190465","0.0-7.0-1.0-1.0-0.0-0.1","3","3","4","3","3","3","4","4","3","3","4","4","3","5","4","4","4","3","4","4","1","2","2","2","2","2","2","2","2","1","1","0","1","0","0","0","1","0","0","0","0","1","0","1","4","4","3","2","3","3","4","4","3","3","2","792475678095319042","李","438","","","","null","","","","","","","","","","","","","","key","null","16.66488549618325","768","428","f","false","match","img/hexagon.png","六边","六边","ALT1_2","prac_ALT1_2","","","","","","","","","","","",""
"null","<span class='add_' style='color:yellow; font-size: 70px;'> 太慢! </span>","null","html-keyboard-response","12","190967","0.0-7.0-1.0-1.0-0.0-1.1","3","3","4","3","3","3","4","4","3","3","4","4","3","5","4","4","4","3","4","4","1","2","2","2","2","2","2","2","2","1","1","0","1","0","0","0","1","0","0","0","0","1","0","1","4","4","3","2","3","3","4","4","3","3","2","792475678095319042","李","438","","","","","","","","","","","","","","","","","","","","","","","","","","","","","","feedback_test","","","","","","","","","","","",""
"null","","null","psychophysics","13","193169","0.0-7.0-1.0-1.0-0.0-0.2","3","3","4","3","3","3","4","4","3","3","4","4","3","5","4","4","4","3","4","4","1","2","2","2","2","2","2","2","2","1","1","0","1","0","0","0","1","0","0","0","0","1","0","1","4","4","3","2","3","3","4","4","3","3","2","792475678095319042","李","438","","","","null","","","","","","","","","","","","","","key","null","16.663358778626133","768","428","j","false","nonmatch","img/diamond.png","六边","菱形","ALT1_2","prac_ALT1_2","","","","","","","","","","","",""
"null","<span class='add_' style='color:yellow; font-size: 70px;'> 太慢! </span>","null","html-keyboard-response","14","193671","0.0-7.0-1.0-1.0-0.0-1.2","3","3","4","3","3","3","4","4","3","3","4","4","3","5","4","4","4","3","4","4","1","2","2","2","2","2","2","2","2","1","1","0","1","0","0","0","1","0","0","0","0","1","0","1","4","4","3","2","3","3","4","4","3","3","2","792475678095319042","李","438","","","","","","","","","","","","","","","","","","","","","","","","","","","","","","feedback_test","","","","","","","","","","","",""
"661","","j","psychophysics","15","195334","0.0-7.0-1.0-1.0-0.0-0.3","3","3","4","3","3","3","4","4","3","3","4","4","3","5","4","4","4","3","4","4","1","2","2","2","2","2","2","2","2","1","1","0","1","0","0","0","1","0","0","0","0","1","0","1","4","4","3","2","3","3","4","4","3","3","2","792475678095319042","李","438","","","","nonmatch","","","","","","","","","","","","","","key","j","16.666666666666668","768","428","j","true","nonmatch","img/diamond.png","梯形","菱形","ALT1_2","prac_ALT1_2","","","","","","","","","","","",""
"null","<span style='color:GreenYellow; font-size: 70px;'>正确! </span>","null","html-keyboard-response","16","195834","0.0-7.0-1.0-1.0-0.0-1.3","3","3","4","3","3","3","4","4","3","3","4","4","3","5","4","4","4","3","4","4","1","2","2","2","2","2","2","2","2","1","1","0","1","0","0","0","1","0","0","0","0","1","0","1","4","4","3","2","3","3","4","4","3","3","2","792475678095319042","李","438","","","","","","","","","","","","","","","","","","","","","","","","","","","","","","feedback_test","","","","","","","","","","","",""
"584","","f","psychophysics","17","197421","0.0-7.0-1.0-1.0-0.0-0.4","3","3","4","3","3","3","4","4","3","3","4","4","3","5","4","4","4","3","4","4","1","2","2","2","2","2","2","2","2","1","1","0","1","0","0","0","1","0","0","0","0","1","0","1","4","4","3","2","3","3","4","4","3","3","2","792475678095319042","李","438","","","","match","","","","","","","","","","","","","","key","f","16.664893617021278","768","428","j","false","nonmatch","img/trapezoid.png","菱形","梯形","ALT1_2","prac_ALT1_2","","","","","","","","","","","",""
"null","<span style='color:red; font-size: 70px;'>错误! </span>","null","html-keyboard-response","18","197922","0.0-7.0-1.0-1.0-0.0-1.4","3","3","4","3","3","3","4","4","3","3","4","4","3","5","4","4","4","3","4","4","1","2","2","2","2","2","2","2","2","1","1","0","1","0","0","0","1","0","0","0","0","1","0","1","4","4","3","2","3","3","4","4","3","3","2","792475678095319042","李","438","","","","","","","","","","","","","","","","","","","","","","","","","","","","","","feedback_test","","","","","","","","","","","",""
"726","","j","psychophysics","19","199650","0.0-7.0-1.0-1.0-0.0-0.5","3","3","4","3","3","3","4","4","3","3","4","4","3","5","4","4","4","3","4","4","1","2","2","2","2","2","2","2","2","1","1","0","1","0","0","0","1","0","0","0","0","1","0","1","4","4","3","2","3","3","4","4","3","3","2","792475678095319042","李","438","","","","nonmatch","","","","","","","","","","","","","","key","j","16.66504854368932","768","428","j","true","nonmatch","img/trapezoid.png","六边","梯形","ALT1_2","prac_ALT1_2","","","","","","","","","","","",""
"null","<span style='color:GreenYellow; font-size: 70px;'>正确! </span>","null","html-keyboard-response","20","200152","0.0-7.0-1.0-1.0-0.0-1.5","3","3","4","3","3","3","4","4","3","3","4","4","3","5","4","4","4","3","4","4","1","2","2","2","2","2","2","2","2","1","1","0","1","0","0","0","1","0","0","0","0","1","0","1","4","4","3","2","3","3","4","4","3","3","2","792475678095319042","李","438","","","","","","","","","","","","","","","","","","","","","","","","","","","","","","feedback_test","","","","","","","","","","","",""
"1082","","j","psychophysics","21","202235","0.0-7.0-1.0-1.0-0.0-0.6","3","3","4","3","3","3","4","4","3","3","4","4","3","5","4","4","4","3","4","4","1","2","2","2","2","2","2","2","2","1","1","0","1","0","0","0","1","0","0","0","0","1","0","1","4","4","3","2","3","3","4","4","3","3","2","792475678095319042","李","438","","","","nonmatch","","","","","","","","","","","","","","key","j","16.662903225806545","768","428","j","true","nonmatch","img/hexagon.png","菱形","六边","ALT1_2","prac_ALT1_2","","","","","","","","","","","",""
"null","<span style='color:GreenYellow; font-size: 70px;'>正确! </span>","null","html-keyboard-response","22","202739","0.0-7.0-1.0-1.0-0.0-1.6","3","3","4","3","3","3","4","4","3","3","4","4","3","5","4","4","4","3","4","4","1","2","2","2","2","2","2","2","2","1","1","0","1","0","0","0","1","0","0","0","0","1","0","1","4","4","3","2","3","3","4","4","3","3","2","792475678095319042","李","438","","","","","","","","","","","","","","","","","","","","","","","","","","","","","","feedback_test","","","","","","","","","","","",""
"1133","","f","psychophysics","23","204874","0.0-7.0-1.0-1.0-0.0-0.7","3","3","4","3","3","3","4","4","3","3","4","4","3","5","4","4","4","3","4","4","1","2","2","2","2","2","2","2","2","1","1","0","1","0","0","0","1","0","0","0","0","1","0","1","4","4","3","2","3","3","4","4","3","3","2","792475678095319042","李","438","","","","match","","","","","","","","","","","","","","key","f","16.664566929133812","768","428","f","true","match","img/trapezoid.png","梯形","梯形","ALT1_2","prac_ALT1_2","","","","","","","","","","","",""
"null","<span style='color:GreenYellow; font-size: 70px;'>正确! </span>","null","html-keyboard-response","24","205375","0.0-7.0-1.0-1.0-0.0-1.7","3","3","4","3","3","3","4","4","3","3","4","4","3","5","4","4","4","3","4","4","1","2","2","2","2","2","2","2","2","1","1","0","1","0","0","0","1","0","0","0","0","1","0","1","4","4","3","2","3","3","4","4","3","3","2","792475678095319042","李","438","","","","","","","","","","","","","","","","","","","","","","","","","","","","","","feedback_test","","","","","","","","","","","",""
"null","","null","psychophysics","25","207578","0.0-7.0-1.0-1.0-0.0-0.8","3","3","4","3","3","3","4","4","3","3","4","4","3","5","4","4","4","3","4","4","1","2","2","2","2","2","2","2","2","1","1","0","1","0","0","0","1","0","0","0","0","1","0","1","4","4","3","2","3","3","4","4","3","3","2","792475678095319042","李","438","","","","null","","","","","","","","","","","","","","key","null","16.662121212121168","768","428","j","false","nonmatch","img/diamond.png","圆形","菱形","ALT1_2","prac_ALT1_2","","","","","","","","","","","",""
"null","<span class='add_' style='color:yellow; font-size: 70px;'> 太慢! </span>","null","html-keyboard-response","26","208079","0.0-7.0-1.0-1.0-0.0-1.8","3","3","4","3","3","3","4","4","3","3","4","4","3","5","4","4","4","3","4","4","1","2","2","2","2","2","2","2","2","1","1","0","1","0","0","0","1","0","0","0","0","1","0","1","4","4","3","2","3","3","4","4","3","3","2","792475678095319042","李","438","","","","","","","","","","","","","","","","","","","","","","","","","","","","","","feedback_test","","","","","","","","","","","",""
"716","","f","psychophysics","27","209797","0.0-7.0-1.0-1.0-0.0-0.9","3","3","4","3","3","3","4","4","3","3","4","4","3","5","4","4","4","3","4","4","1","2","2","2","2","2","2","2","2","1","1","0","1","0","0","0","1","0","0","0","0","1","0","1","4","4","3","2","3","3","4","4","3","3","2","792475678095319042","李","438","","","","match","","","","","","","","","","","","","","key","f","16.662745098039274","768","428","j","false","nonmatch","img/circle.png","梯形","圆形","ALT1_2","prac_ALT1_2","","","","","","","","","","","",""
"null","<span style='color:red; font-size: 70px;'>错误! </span>","null","html-keyboard-response","28","210298","0.0-7.0-1.0-1.0-0.0-1.9","3","3","4","3","3","3","4","4","3","3","4","4","3","5","4","4","4","3","4","4","1","2","2","2","2","2","2","2","2","1","1","0","1","0","0","0","1","0","0","0","0","1","0","1","4","4","3","2","3","3","4","4","3","3","2","792475678095319042","李","438","","","","","","","","","","","","","","","","","","","","","","","","","","","","","","feedback_test","","","","","","","","","","","",""
"363","","j","psychophysics","29","211662","0.0-7.0-1.0-1.0-0.0-0.10","3","3","4","3","3","3","4","4","3","3","4","4","3","5","4","4","4","3","4","4","1","2","2","2","2","2","2","2","2","1","1","0","1","0","0","0","1","0","0","0","0","1","0","1","4","4","3","2","3","3","4","4","3","3","2","792475678095319042","李","438","","","","nonmatch","","","","","","","","","","","","","","key","j","16.66543209876536","768","428","j","true","nonmatch","img/hexagon.png","梯形","六边","ALT1_2","prac_ALT1_2","","","","","","","","","","","",""
"null","<span style='color:GreenYellow; font-size: 70px;'>正确! </span>","null","html-keyboard-response","30","212164","0.0-7.0-1.0-1.0-0.0-1.10","3","3","4","3","3","3","4","4","3","3","4","4","3","5","4","4","4","3","4","4","1","2","2","2","2","2","2","2","2","1","1","0","1","0","0","0","1","0","0","0","0","1","0","1","4","4","3","2","3","3","4","4","3","3","2","792475678095319042","李","438","","","","","","","","","","","","","","","","","","","","","","","","","","","","","","feedback_test","","","","","","","","","","","",""
"611","","j","psychophysics","31","213777","0.0-7.0-1.0-1.0-0.0-0.11","3","3","4","3","3","3","4","4","3","3","4","4","3","5","4","4","4","3","4","4","1","2","2","2","2","2","2","2","2","1","1","0","1","0","0","0","1","0","0","0","0","1","0","1","4","4","3","2","3","3","4","4","3","3","2","792475678095319042","李","438","","","","nonmatch","","","","","","","","","","","","","","key","j","16.663541666666486","768","428","f","false","match","img/hexagon.png","六边","六边","ALT1_2","prac_ALT1_2","","","","","","","","","","","",""
"null","<span style='color:red; font-size: 70px;'>错误! </span>","null","html-keyboard-response","32","214278","0.0-7.0-1.0-1.0-0.0-1.11","3","3","4","3","3","3","4","4","3","3","4","4","3","5","4","4","4","3","4","4","1","2","2","2","2","2","2","2","2","1","1","0","1","0","0","0","1","0","0","0","0","1","0","1","4","4","3","2","3","3","4","4","3","3","2","792475678095319042","李","438","","","","","","","","","","","","","","","","","","","","","","","","","","","","","","feedback_test","","","","","","","","","","","",""
"637","","j","psychophysics","33","215917","0.0-7.0-1.0-1.0-0.0-0.12","3","3","4","3","3","3","4","4","3","3","4","4","3","5","4","4","4","3","4","4","1","2","2","2","2","2","2","2","2","1","1","0","1","0","0","0","1","0","0","0","0","1","0","1","4","4","3","2","3","3","4","4","3","3","2","792475678095319042","李","438","","","","nonmatch","","","","","","","","","","","","","","key","j","16.662886597938325","768","428","j","true","nonmatch","img/hexagon.png","圆形","六边","ALT1_2","prac_ALT1_2","","","","","","","","","","","",""
"null","<span style='color:GreenYellow; font-size: 70px;'>正确! </span>","null","html-keyboard-response","34","216421","0.0-7.0-1.0-1.0-0.0-1.12","3","3","4","3","3","3","4","4","3","3","4","4","3","5","4","4","4","3","4","4","1","2","2","2","2","2","2","2","2","1","1","0","1","0","0","0","1","0","0","0","0","1","0","1","4","4","3","2","3","3","4","4","3","3","2","792475678095319042","李","438","","","","","","","","","","","","","","","","","","","","","","","","","","","","","","feedback_test","","","","","","","","","","","",""
"742","","f","psychophysics","35","218164","0.0-7.0-1.0-1.0-0.0-0.13","3","3","4","3","3","3","4","4","3","3","4","4","3","5","4","4","4","3","4","4","1","2","2","2","2","2","2","2","2","1","1","0","1","0","0","0","1","0","0","0","0","1","0","1","4","4","3","2","3","3","4","4","3","3","2","792475678095319042","李","438","","","","match","","","","","","","","","","","","","","key","f","16.662500000000225","768","428","f","true","match","img/circle.png","圆形","圆形","ALT1_2","prac_ALT1_2","","","","","","","","","","","",""
"null","<span style='color:GreenYellow; font-size: 70px;'>正确! </span>","null","html-keyboard-response","36","218666","0.0-7.0-1.0-1.0-0.0-1.13","3","3","4","3","3","3","4","4","3","3","4","4","3","5","4","4","4","3","4","4","1","2","2","2","2","2","2","2","2","1","1","0","1","0","0","0","1","0","0","0","0","1","0","1","4","4","3","2","3","3","4","4","3","3","2","792475678095319042","李","438","","","","","","","","","","","","","","","","","","","","","","","","","","","","","","feedback_test","","","","","","","","","","","",""
"822","","f","psychophysics","37","220490","0.0-7.0-1.0-1.0-0.0-0.14","3","3","4","3","3","3","4","4","3","3","4","4","3","5","4","4","4","3","4","4","1","2","2","2","2","2","2","2","2","1","1","0","1","0","0","0","1","0","0","0","0","1","0","1","4","4","3","2","3","3","4","4","3","3","2","792475678095319042","李","438","","","","match","","","","","","","","","","","","","","key","f","16.665740740740958","768","428","j","false","nonmatch","img/trapezoid.png","圆形","梯形","ALT1_2","prac_ALT1_2","","","","","","","","","","","",""
"null","<span style='color:red; font-size: 70px;'>错误! </span>","null","html-keyboard-response","38","220991","0.0-7.0-1.0-1.0-0.0-1.14","3","3","4","3","3","3","4","4","3","3","4","4","3","5","4","4","4","3","4","4","1","2","2","2","2","2","2","2","2","1","1","0","1","0","0","0","1","0","0","0","0","1","0","1","4","4","3","2","3","3","4","4","3","3","2","792475678095319042","李","438","","","","","","","","","","","","","","","","","","","","","","","","","","","","","","feedback_test","","","","","","","","","","","",""
"892","","j","psychophysics","39","222885","0.0-7.0-1.0-1.0-0.0-0.15","3","3","4","3","3","3","4","4","3","3","4","4","3","5","4","4","4","3","4","4","1","2","2","2","2","2","2","2","2","1","1","0","1","0","0","0","1","0","0","0","0","1","0","1","4","4","3","2","3","3","4","4","3","3","2","792475678095319042","李","438","","","","nonmatch","","","","","","","","","","","","","","key","j","16.66607142857148","768","428","j","true","nonmatch","img/circle.png","六边","圆形","ALT1_2","prac_ALT1_2","","","","","","","","","","","",""
"null","<span style='color:GreenYellow; font-size: 70px;'>正确! </span>","null","html-keyboard-response","40","223389","0.0-7.0-1.0-1.0-0.0-1.15","3","3","4","3","3","3","4","4","3","3","4","4","3","5","4","4","4","3","4","4","1","2","2","2","2","2","2","2","2","1","1","0","1","0","0","0","1","0","0","0","0","1","0","1","4","4","3","2","3","3","4","4","3","3","2","792475678095319042","李","438","","","","","","","","","","","","","","","","","","","","","","","","","","","","","","feedback_test","","","","","","","","","","","",""
"873","","f","psychophysics","41","225263","0.0-7.0-1.0-1.0-0.0-0.16","3","3","4","3","3","3","4","4","3","3","4","4","3","5","4","4","4","3","4","4","1","2","2","2","2","2","2","2","2","1","1","0","1","0","0","0","1","0","0","0","0","1","0","1","4","4","3","2","3","3","4","4","3","3","2","792475678095319042","李","438","","","","match","","","","","","","","","","","","","","key","f","16.665765765765713","768","428","f","true","match","img/circle.png","圆形","圆形","ALT1_2","prac_ALT1_2","","","","","","","","","","","",""
"null","<span style='color:GreenYellow; font-size: 70px;'>正确! </span>","null","html-keyboard-response","42","225764","0.0-7.0-1.0-1.0-0.0-1.16","3","3","4","3","3","3","4","4","3","3","4","4","3","5","4","4","4","3","4","4","1","2","2","2","2","2","2","2","2","1","1","0","1","0","0","0","1","0","0","0","0","1","0","1","4","4","3","2","3","3","4","4","3","3","2","792475678095319042","李","438","","","","","","","","","","","","","","","","","","","","","","","","","","","","","","feedback_test","","","","","","","","","","","",""
"620","","j","psychophysics","43","227386","0.0-7.0-1.0-1.0-0.0-0.17","3","3","4","3","3","3","4","4","3","3","4","4","3","5","4","4","4","3","4","4","1","2","2","2","2","2","2","2","2","1","1","0","1","0","0","0","1","0","0","0","0","1","0","1","4","4","3","2","3","3","4","4","3","3","2","792475678095319042","李","438","","","","nonmatch","","","","","","","","","","","","","","key","j","16.665624999999938","768","428","f","false","match","img/trapezoid.png","梯形","梯形","ALT1_2","prac_ALT1_2","","","","","","","","","","","",""
"null","<span style='color:red; font-size: 70px;'>错误! </span>","null","html-keyboard-response","44","227888","0.0-7.0-1.0-1.0-0.0-1.17","3","3","4","3","3","3","4","4","3","3","4","4","3","5","4","4","4","3","4","4","1","2","2","2","2","2","2","2","2","1","1","0","1","0","0","0","1","0","0","0","0","1","0","1","4","4","3","2","3","3","4","4","3","3","2","792475678095319042","李","438","","","","","","","","","","","","","","","","","","","","","","","","","","","","","","feedback_test","","","","","","","","","","","",""
"760","","j","psychophysics","45","229648","0.0-7.0-1.0-1.0-0.0-0.18","3","3","4","3","3","3","4","4","3","3","4","4","3","5","4","4","4","3","4","4","1","2","2","2","2","2","2","2","2","1","1","0","1","0","0","0","1","0","0","0","0","1","0","1","4","4","3","2","3","3","4","4","3","3","2","792475678095319042","李","438","","","","nonmatch","","","","","","","","","","","","","","key","j","16.66153846153835","768","428","f","false","match","img/diamond.png","菱形","菱形","ALT1_2","prac_ALT1_2","","","","","","","","","","","",""
"null","<span style='color:red; font-size: 70px;'>错误! </span>","null","html-keyboard-response","46","230151","0.0-7.0-1.0-1.0-0.0-1.18","3","3","4","3","3","3","4","4","3","3","4","4","3","5","4","4","4","3","4","4","1","2","2","2","2","2","2","2","2","1","1","0","1","0","0","0","1","0","0","0","0","1","0","1","4","4","3","2","3","3","4","4","3","3","2","792475678095319042","李","438","","","","","","","","","","","","","","","","","","","","","","","","","","","","","","feedback_test","","","","","","","","","","","",""
"1095","","j","psychophysics","47","232247","0.0-7.0-1.0-1.0-0.0-0.19","3","3","4","3","3","3","4","4","3","3","4","4","3","5","4","4","4","3","4","4","1","2","2","2","2","2","2","2","2","1","1","0","1","0","0","0","1","0","0","0","0","1","0","1","4","4","3","2","3","3","4","4","3","3","2","792475678095319042","李","438","","","","nonmatch","","","","","","","","","","","","","","key","j","16.663199999999954","768","428","f","false","match","img/trapezoid.png","梯形","梯形","ALT1_2","prac_ALT1_2","","","","","","","","","","","",""
"null","<span style='color:red; font-size: 70px;'>错误! </span>","null","html-keyboard-response","48","232748","0.0-7.0-1.0-1.0-0.0-1.19","3","3","4","3","3","3","4","4","3","3","4","4","3","5","4","4","4","3","4","4","1","2","2","2","2","2","2","2","2","1","1","0","1","0","0","0","1","0","0","0","0","1","0","1","4","4","3","2","3","3","4","4","3","3","2","792475678095319042","李","438","","","","","","","","","","","","","","","","","","","","","","","","","","","","","","feedback_test","","","","","","","","","","","",""
"835","","f","psychophysics","49","234586","0.0-7.0-1.0-1.0-0.0-0.20","3","3","4","3","3","3","4","4","3","3","4","4","3","5","4","4","4","3","4","4","1","2","2","2","2","2","2","2","2","1","1","0","1","0","0","0","1","0","0","0","0","1","0","1","4","4","3","2","3","3","4","4","3","3","2","792475678095319042","李","438","","","","match","","","","","","","","","","","","","","key","f","16.666055045871612","768","428","f","true","match","img/hexagon.png","六边","六边","ALT1_2","prac_ALT1_2","","","","","","","","","","","",""
"null","<span style='color:GreenYellow; font-size: 70px;'>正确! </span>","null","html-keyboard-response","50","235103","0.0-7.0-1.0-1.0-0.0-1.20","3","3","4","3","3","3","4","4","3","3","4","4","3","5","4","4","4","3","4","4","1","2","2","2","2","2","2","2","2","1","1","0","1","0","0","0","1","0","0","0","0","1","0","1","4","4","3","2","3","3","4","4","3","3","2","792475678095319042","李","438","","","","","","","","","","","","","","","","","","","","","","","","","","","","","","feedback_test","","","","","","","","","","","",""
"701","","f","psychophysics","51","236804","0.0-7.0-1.0-1.0-0.0-0.21","3","3","4","3","3","3","4","4","3","3","4","4","3","5","4","4","4","3","4","4","1","2","2","2","2","2","2","2","2","1","1","0","1","0","0","0","1","0","0","0","0","1","0","1","4","4","3","2","3","3","4","4","3","3","2","792475678095319042","李","438","","","","match","","","","","","","","","","","","","","key","f","16.662376237623704","768","428","f","true","match","img/circle.png","圆形","圆形","ALT1_2","prac_ALT1_2","","","","","","","","","","","",""
"null","<span style='color:GreenYellow; font-size: 70px;'>正确! </span>","null","html-keyboard-response","52","237306","0.0-7.0-1.0-1.0-0.0-1.21","3","3","4","3","3","3","4","4","3","3","4","4","3","5","4","4","4","3","4","4","1","2","2","2","2","2","2","2","2","1","1","0","1","0","0","0","1","0","0","0","0","1","0","1","4","4","3","2","3","3","4","4","3","3","2","792475678095319042","李","438","","","","","","","","","","","","","","","","","","","","","","","","","","","","","","feedback_test","","","","","","","","","","","",""
"587","","f","psychophysics","53","238894","0.0-7.0-1.0-1.0-0.0-0.22","3","3","4","3","3","3","4","4","3","3","4","4","3","5","4","4","4","3","4","4","1","2","2","2","2","2","2","2","2","1","1","0","1","0","0","0","1","0","0","0","0","1","0","1","4","4","3","2","3","3","4","4","3","3","2","792475678095319042","李","438","","","","match","","","","","","","","","","","","","","key","f","16.66382978723429","768","428","f","true","match","img/diamond.png","菱形","菱形","ALT1_2","prac_ALT1_2","","","","","","","","","","","",""
"null","<span style='color:GreenYellow; font-size: 70px;'>正确! </span>","null","html-keyboard-response","54","239408","0.0-7.0-1.0-1.0-0.0-1.22","3","3","4","3","3","3","4","4","3","3","4","4","3","5","4","4","4","3","4","4","1","2","2","2","2","2","2","2","2","1","1","0","1","0","0","0","1","0","0","0","0","1","0","1","4","4","3","2","3","3","4","4","3","3","2","792475678095319042","李","438","","","","","","","","","","","","","","","","","","","","","","","","","","","","","","feedback_test","","","","","","","","","","","",""
"1042","","j","psychophysics","55","241451","0.0-7.0-1.0-1.0-0.0-0.23","3","3","4","3","3","3","4","4","3","3","4","4","3","5","4","4","4","3","4","4","1","2","2","2","2","2","2","2","2","1","1","0","1","0","0","0","1","0","0","0","0","1","0","1","4","4","3","2","3","3","4","4","3","3","2","792475678095319042","李","438","","","","nonmatch","","","","","","","","","","","","","","key","j","16.662809917355467","768","428","j","true","nonmatch","img/circle.png","菱形","圆形","ALT1_2","prac_ALT1_2","","","","","","","","","","","",""
"null","<span style='color:GreenYellow; font-size: 70px;'>正确! </span>","null","html-keyboard-response","56","241953","0.0-7.0-1.0-1.0-0.0-1.23","3","3","4","3","3","3","4","4","3","3","4","4","3","5","4","4","4","3","4","4","1","2","2","2","2","2","2","2","2","1","1","0","1","0","0","0","1","0","0","0","0","1","0","1","4","4","3","2","3","3","4","4","3","3","2","792475678095319042","李","438","","","","","","","","","","","","","","","","","","","","","","","","","","","","","","feedback_test","","","","","","","","","","","",""
"null","","null","psychophysics","57","244156","0.0-7.0-1.0-1.0-0.0-0.24","3","3","4","3","3","3","4","4","3","3","4","4","3","5","4","4","4","3","4","4","1","2","2","2","2","2","2","2","2","1","1","0","1","0","0","0","1","0","0","0","0","1","0","1","4","4","3","2","3","3","4","4","3","3","2","792475678095319042","李","438","","","","null","","","","","","","","","","","","","","key","null","16.66488549618325","768","428","j","false","nonmatch","img/diamond.png","圆形","菱形","ALT1_2","prac_ALT1_2","","","","","","","","","","","",""
"null","<span class='add_' style='color:yellow; font-size: 70px;'> 太慢! </span>","null","html-keyboard-response","58","244657","0.0-7.0-1.0-1.0-0.0-1.24","3","3","4","3","3","3","4","4","3","3","4","4","3","5","4","4","4","3","4","4","1","2","2","2","2","2","2","2","2","1","1","0","1","0","0","0","1","0","0","0","0","1","0","1","4","4","3","2","3","3","4","4","3","3","2","792475678095319042","李","438","","","","","","","","","","","","","","","","","","","","","","","","","","","","","","feedback_test","","","","","","","","","","","",""
"706","","j","psychophysics","59","246366","0.0-7.0-1.0-1.0-0.0-0.25","3","3","4","3","3","3","4","4","3","3","4","4","3","5","4","4","4","3","4","4","1","2","2","2","2","2","2","2","2","1","1","0","1","0","0","0","1","0","0","0","0","1","0","1","4","4","3","2","3","3","4","4","3","3","2","792475678095319042","李","438","","","","nonmatch","","","","","","","","","","","","","","key","j","16.662376237623704","768","428","f","false","match","img/diamond.png","菱形","菱形","ALT1_2","prac_ALT1_2","","","","","","","","","","","",""
"null","<span style='color:red; font-size: 70px;'>错误! </span>","null","html-keyboard-response","60","246876","0.0-7.0-1.0-1.0-0.0-1.25","3","3","4","3","3","3","4","4","3","3","4","4","3","5","4","4","4","3","4","4","1","2","2","2","2","2","2","2","2","1","1","0","1","0","0","0","1","0","0","0","0","1","0","1","4","4","3","2","3","3","4","4","3","3","2","792475678095319042","李","438","","","","","","","","","","","","","","","","","","","","","","","","","","","","","","feedback_test","","","","","","","","","","","",""
"668","","f","psychophysics","61","248546","0.0-7.0-1.0-1.0-0.0-0.26","3","3","4","3","3","3","4","4","3","3","4","4","3","5","4","4","4","3","4","4","1","2","2","2","2","2","2","2","2","1","1","0","1","0","0","0","1","0","0","0","0","1","0","1","4","4","3","2","3","3","4","4","3","3","2","792475678095319042","李","438","","","","match","","","","","","","","","","","","","","key","f","16.66464646464664","768","428","f","true","match","img/diamond.png","菱形","菱形","ALT1_2","prac_ALT1_2","","","","","","","","","","","",""
"null","<span style='color:GreenYellow; font-size: 70px;'>正确! </span>","null","html-keyboard-response","62","249047","0.0-7.0-1.0-1.0-0.0-1.26","3","3","4","3","3","3","4","4","3","3","4","4","3","5","4","4","4","3","4","4","1","2","2","2","2","2","2","2","2","1","1","0","1","0","0","0","1","0","0","0","0","1","0","1","4","4","3","2","3","3","4","4","3","3","2","792475678095319042","李","438","","","","","","","","","","","","","","","","","","","","","","","","","","","","","","feedback_test","","","","","","","","","","","",""
"677","","j","psychophysics","63","250726","0.0-7.0-1.0-1.0-0.0-0.27","3","3","4","3","3","3","4","4","3","3","4","4","3","5","4","4","4","3","4","4","1","2","2","2","2","2","2","2","2","1","1","0","1","0","0","0","1","0","0","0","0","1","0","1","4","4","3","2","3","3","4","4","3","3","2","792475678095319042","李","438","","","","nonmatch","","","","","","","","","","","","","","key","j","16.666999999999824","768","428","f","false","match","img/trapezoid.png","梯形","梯形","ALT1_2","prac_ALT1_2","","","","","","","","","","","",""
"null","<span style='color:red; font-size: 70px;'>错误! </span>","null","html-keyboard-response","64","251227","0.0-7.0-1.0-1.0-0.0-1.27","3","3","4","3","3","3","4","4","3","3","4","4","3","5","4","4","4","3","4","4","1","2","2","2","2","2","2","2","2","1","1","0","1","0","0","0","1","0","0","0","0","1","0","1","4","4","3","2","3","3","4","4","3","3","2","792475678095319042","李","438","","","","","","","","","","","","","","","","","","","","","","","","","","","","","","feedback_test","","","","","","","","","","","",""
"1151","","f","psychophysics","65","253381","0.0-7.0-1.0-1.0-0.0-0.28","3","3","4","3","3","3","4","4","3","3","4","4","3","5","4","4","4","3","4","4","1","2","2","2","2","2","2","2","2","1","1","0","1","0","0","0","1","0","0","0","0","1","0","1","4","4","3","2","3","3","4","4","3","3","2","792475678095319042","李","438","","","","match","","","","","","","","","","","","","","key","f","16.6640625","768","428","f","true","match","img/hexagon.png","六边","六边","ALT1_2","prac_ALT1_2","","","","","","","","","","","",""
"null","<span style='color:GreenYellow; font-size: 70px;'>正确! </span>","null","html-keyboard-response","66","253882","0.0-7.0-1.0-1.0-0.0-1.28","3","3","4","3","3","3","4","4","3","3","4","4","3","5","4","4","4","3","4","4","1","2","2","2","2","2","2","2","2","1","1","0","1","0","0","0","1","0","0","0","0","1","0","1","4","4","3","2","3","3","4","4","3","3","2","792475678095319042","李","438","","","","","","","","","","","","","","","","","","","","","","","","","","","","","","feedback_test","","","","","","","","","","","",""
"703","","j","psychophysics","67","255586","0.0-7.0-1.0-1.0-0.0-0.29","3","3","4","3","3","3","4","4","3","3","4","4","3","5","4","4","4","3","4","4","1","2","2","2","2","2","2","2","2","1","1","0","1","0","0","0","1","0","0","0","0","1","0","1","4","4","3","2","3","3","4","4","3","3","2","792475678095319042","李","438","","","","nonmatch","","","","","","","","","","","","","","key","j","16.664356435643622","768","428","j","true","nonmatch","img/circle.png","梯形","圆形","ALT1_2","prac_ALT1_2","","","","","","","","","","","",""
"null","<span style='color:GreenYellow; font-size: 70px;'>正确! </span>","null","html-keyboard-response","68","256088","0.0-7.0-1.0-1.0-0.0-1.29","3","3","4","3","3","3","4","4","3","3","4","4","3","5","4","4","4","3","4","4","1","2","2","2","2","2","2","2","2","1","1","0","1","0","0","0","1","0","0","0","0","1","0","1","4","4","3","2","3","3","4","4","3","3","2","792475678095319042","李","438","","","","","","","","","","","","","","","","","","","","","","","","","","","","","","feedback_test","","","","","","","","","","","",""
"574","","f","psychophysics","69","257663","0.0-7.0-1.0-1.0-0.0-0.30","3","3","4","3","3","3","4","4","3","3","4","4","3","5","4","4","4","3","4","4","1","2","2","2","2","2","2","2","2","1","1","0","1","0","0","0","1","0","0","0","0","1","0","1","4","4","3","2","3","3","4","4","3","3","2","792475678095319042","李","438","","","","match","","","","","","","","","","","","","","key","f","16.666666666666668","768","428","f","true","match","img/circle.png","圆形","圆形","ALT1_2","prac_ALT1_2","","","","","","","","","","","",""
"null","<span style='color:GreenYellow; font-size: 70px;'>正确! </span>","null","html-keyboard-response","70","258174","0.0-7.0-1.0-1.0-0.0-1.30","3","3","4","3","3","3","4","4","3","3","4","4","3","5","4","4","4","3","4","4","1","2","2","2","2","2","2","2","2","1","1","0","1","0","0","0","1","0","0","0","0","1","0","1","4","4","3","2","3","3","4","4","3","3","2","792475678095319042","李","438","","","","","","","","","","","","","","","","","","","","","","","","","","","","","","feedback_test","","","","","","","","","","","",""
"751","","j","psychophysics","71","259927","0.0-7.0-1.0-1.0-0.0-0.31","3","3","4","3","3","3","4","4","3","3","4","4","3","5","4","4","4","3","4","4","1","2","2","2","2","2","2","2","2","1","1","0","1","0","0","0","1","0","0","0","0","1","0","1","4","4","3","2","3","3","4","4","3","3","2","792475678095319042","李","438","","","","nonmatch","","","","","","","","","","","","","","key","j","16.66346153846154","768","428","j","true","nonmatch","img/hexagon.png","梯形","六边","ALT1_2","prac_ALT1_2","","","","","","","","","","","",""
"null","<span style='color:GreenYellow; font-size: 70px;'>正确! </span>","null","html-keyboard-response","72","260436","0.0-7.0-1.0-1.0-0.0-1.31","3","3","4","3","3","3","4","4","3","3","4","4","3","5","4","4","4","3","4","4","1","2","2","2","2","2","2","2","2","1","1","0","1","0","0","0","1","0","0","0","0","1","0","1","4","4","3","2","3","3","4","4","3","3","2","792475678095319042","李","438","","","","","","","","","","","","","","","","","","","","","","","","","","","","","","feedback_test","","","","","","","","","","","",""
"745","","f","psychophysics","73","262183","0.0-7.0-1.0-1.0-0.0-0.32","3","3","4","3","3","3","4","4","3","3","4","4","3","5","4","4","4","3","4","4","1","2","2","2","2","2","2","2","2","1","1","0","1","0","0","0","1","0","0","0","0","1","0","1","4","4","3","2","3","3","4","4","3","3","2","792475678095319042","李","438","","","","match","","","","","","","","","","","","","","key","f","16.660576923077034","768","428","j","false","nonmatch","img/trapezoid.png","圆形","梯形","ALT1_2","prac_ALT1_2","","","","","","","","","","","",""
"null","<span style='color:red; font-size: 70px;'>错误! </span>","null","html-keyboard-response","74","262683","0.0-7.0-1.0-1.0-0.0-1.32","3","3","4","3","3","3","4","4","3","3","4","4","3","5","4","4","4","3","4","4","1","2","2","2","2","2","2","2","2","1","1","0","1","0","0","0","1","0","0","0","0","1","0","1","4","4","3","2","3","3","4","4","3","3","2","792475678095319042","李","438","","","","","","","","","","","","","","","","","","","","","","","","","","","","","","feedback_test","","","","","","","","","","","",""
"906","","j","psychophysics","75","264590","0.0-7.0-1.0-1.0-0.0-0.33","3","3","4","3","3","3","4","4","3","3","4","4","3","5","4","4","4","3","4","4","1","2","2","2","2","2","2","2","2","1","1","0","1","0","0","0","1","0","0","0","0","1","0","1","4","4","3","2","3","3","4","4","3","3","2","792475678095319042","李","438","","","","nonmatch","","","","","","","","","","","","","","key","j","16.662831858407287","768","428","f","false","match","img/circle.png","圆形","圆形","ALT1_2","prac_ALT1_2","","","","","","","","","","","",""
"null","<span style='color:red; font-size: 70px;'>错误! </span>","null","html-keyboard-response","76","265092","0.0-7.0-1.0-1.0-0.0-1.33","3","3","4","3","3","3","4","4","3","3","4","4","3","5","4","4","4","3","4","4","1","2","2","2","2","2","2","2","2","1","1","0","1","0","0","0","1","0","0","0","0","1","0","1","4","4","3","2","3","3","4","4","3","3","2","792475678095319042","李","438","","","","","","","","","","","","","","","","","","","","","","","","","","","","","","feedback_test","","","","","","","","","","","",""
"1100","","j","psychophysics","77","267194","0.0-7.0-1.0-1.0-0.0-0.34","3","3","4","3","3","3","4","4","3","3","4","4","3","5","4","4","4","3","4","4","1","2","2","2","2","2","2","2","2","1","1","0","1","0","0","0","1","0","0","0","0","1","0","1","4","4","3","2","3","3","4","4","3","3","2","792475678095319042","李","438","","","","nonmatch","","","","","","","","","","","","","","key","j","16.665600000000094","768","428","j","true","nonmatch","img/hexagon.png","圆形","六边","ALT1_2","prac_ALT1_2","","","","","","","","","","","",""
"null","<span style='color:GreenYellow; font-size: 70px;'>正确! </span>","null","html-keyboard-response","78","267695","0.0-7.0-1.0-1.0-0.0-1.34","3","3","4","3","3","3","4","4","3","3","4","4","3","5","4","4","4","3","4","4","1","2","2","2","2","2","2","2","2","1","1","0","1","0","0","0","1","0","0","0","0","1","0","1","4","4","3","2","3","3","4","4","3","3","2","792475678095319042","李","438","","","","","","","","","","","","","","","","","","","","","","","","","","","","","","feedback_test","","","","","","","","","","","",""
"977","","f","psychophysics","79","269673","0.0-7.0-1.0-1.0-0.0-0.35","3","3","4","3","3","3","4","4","3","3","4","4","3","5","4","4","4","3","4","4","1","2","2","2","2","2","2","2","2","1","1","0","1","0","0","0","1","0","0","0","0","1","0","1","4","4","3","2","3","3","4","4","3","3","2","792475678095319042","李","438","","","","match","","","","","","","","","","","","","","key","f","16.66153846153866","768","428","f","true","match","img/hexagon.png","六边","六边","ALT1_2","prac_ALT1_2","","","","","","","","","","","",""
"null","<span style='color:GreenYellow; font-size: 70px;'>正确! </span>","null","html-keyboard-response","80","270182","0.0-7.0-1.0-1.0-0.0-1.35","3","3","4","3","3","3","4","4","3","3","4","4","3","5","4","4","4","3","4","4","1","2","2","2","2","2","2","2","2","1","1","0","1","0","0","0","1","0","0","0","0","1","0","1","4","4","3","2","3","3","4","4","3","3","2","792475678095319042","李","438","","","","","","","","","","","","","","","","","","","","","","","","","","","","","","feedback_test","","","","","","","","","","","",""
"897","","j","psychophysics","81","272080","0.0-7.0-1.0-1.0-0.0-0.36","3","3","4","3","3","3","4","4","3","3","4","4","3","5","4","4","4","3","4","4","1","2","2","2","2","2","2","2","2","1","1","0","1","0","0","0","1","0","0","0","0","1","0","1","4","4","3","2","3","3","4","4","3","3","2","792475678095319042","李","438","","","","nonmatch","","","","","","","","","","","","","","key","j","16.663716814159294","768","428","f","false","match","img/trapezoid.png","梯形","梯形","ALT1_2","prac_ALT1_2","","","","","","","","","","","",""
"null","<span style='color:red; font-size: 70px;'>错误! </span>","null","html-keyboard-response","82","272582","0.0-7.0-1.0-1.0-0.0-1.36","3","3","4","3","3","3","4","4","3","3","4","4","3","5","4","4","4","3","4","4","1","2","2","2","2","2","2","2","2","1","1","0","1","0","0","0","1","0","0","0","0","1","0","1","4","4","3","2","3","3","4","4","3","3","2","792475678095319042","李","438","","","","","","","","","","","","","","","","","","","","","","","","","","","","","","feedback_test","","","","","","","","","","","",""
"917","","j","psychophysics","83","274499","0.0-7.0-1.0-1.0-0.0-0.37","3","3","4","3","3","3","4","4","3","3","4","4","3","5","4","4","4","3","4","4","1","2","2","2","2","2","2","2","2","1","1","0","1","0","0","0","1","0","0","0","0","1","0","1","4","4","3","2","3","3","4","4","3","3","2","792475678095319042","李","438","","","","nonmatch","","","","","","","","","","","","","","key","j","16.660526315789372","768","428","j","true","nonmatch","img/trapezoid.png","菱形","梯形","ALT1_2","prac_ALT1_2","","","","","","","","","","","",""
"null","<span style='color:GreenYellow; font-size: 70px;'>正确! </span>","null","html-keyboard-response","84","275000","0.0-7.0-1.0-1.0-0.0-1.37","3","3","4","3","3","3","4","4","3","3","4","4","3","5","4","4","4","3","4","4","1","2","2","2","2","2","2","2","2","1","1","0","1","0","0","0","1","0","0","0","0","1","0","1","4","4","3","2","3","3","4","4","3","3","2","792475678095319042","李","438","","","","","","","","","","","","","","","","","","","","","","","","","","","","","","feedback_test","","","","","","","","","","","",""
"998","","f","psychophysics","85","277000","0.0-7.0-1.0-1.0-0.0-0.38","3","3","4","3","3","3","4","4","3","3","4","4","3","5","4","4","4","3","4","4","1","2","2","2","2","2","2","2","2","1","1","0","1","0","0","0","1","0","0","0","0","1","0","1","4","4","3","2","3","3","4","4","3","3","2","792475678095319042","李","438","","","","match","","","","","","","","","","","","","","key","f","16.665546218487005","768","428","j","false","nonmatch","img/diamond.png","六边","菱形","ALT1_2","prac_ALT1_2","","","","","","","","","","","",""
"null","<span style='color:red; font-size: 70px;'>错误! </span>","null","html-keyboard-response","86","277501","0.0-7.0-1.0-1.0-0.0-1.38","3","3","4","3","3","3","4","4","3","3","4","4","3","5","4","4","4","3","4","4","1","2","2","2","2","2","2","2","2","1","1","0","1","0","0","0","1","0","0","0","0","1","0","1","4","4","3","2","3","3","4","4","3","3","2","792475678095319042","李","438","","","","","","","","","","","","","","","","","","","","","","","","","","","","","","feedback_test","","","","","","","","","","","",""
"767","","j","psychophysics","87","279270","0.0-7.0-1.0-1.0-0.0-0.39","3","3","4","3","3","3","4","4","3","3","4","4","3","5","4","4","4","3","4","4","1","2","2","2","2","2","2","2","2","1","1","0","1","0","0","0","1","0","0","0","0","1","0","1","4","4","3","2","3","3","4","4","3","3","2","792475678095319042","李","438","","","","nonmatch","","","","","","","","","","","","","","key","j","16.665714285713953","768","428","j","true","nonmatch","img/hexagon.png","菱形","六边","ALT1_2","prac_ALT1_2","","","","","","","","","","","",""
"null","<span style='color:GreenYellow; font-size: 70px;'>正确! </span>","null","html-keyboard-response","88","279771","0.0-7.0-1.0-1.0-0.0-1.39","3","3","4","3","3","3","4","4","3","3","4","4","3","5","4","4","4","3","4","4","1","2","2","2","2","2","2","2","2","1","1","0","1","0","0","0","1","0","0","0","0","1","0","1","4","4","3","2","3","3","4","4","3","3","2","792475678095319042","李","438","","","","","","","","","","","","","","","","","","","","","","","","","","","","","","feedback_test","","","","","","","","","","","",""
"814","","j","psychophysics","89","281586","0.0-7.0-1.0-1.0-0.0-0.40","3","3","4","3","3","3","4","4","3","3","4","4","3","5","4","4","4","3","4","4","1","2","2","2","2","2","2","2","2","1","1","0","1","0","0","0","1","0","0","0","0","1","0","1","4","4","3","2","3","3","4","4","3","3","2","792475678095319042","李","438","","","","nonmatch","","","","","","","","","","","","","","key","j","16.664814814814708","768","428","j","true","nonmatch","img/circle.png","菱形","圆形","ALT1_2","prac_ALT1_2","","","","","","","","","","","",""
"null","<span style='color:GreenYellow; font-size: 70px;'>正确! </span>","null","html-keyboard-response","90","282096","0.0-7.0-1.0-1.0-0.0-1.40","3","3","4","3","3","3","4","4","3","3","4","4","3","5","4","4","4","3","4","4","1","2","2","2","2","2","2","2","2","1","1","0","1","0","0","0","1","0","0","0","0","1","0","1","4","4","3","2","3","3","4","4","3","3","2","792475678095319042","李","438","","","","","","","","","","","","","","","","","","","","","","","","","","","","","","feedback_test","","","","","","","","","","","",""
"833","","f","psychophysics","91","283930","0.0-7.0-1.0-1.0-0.0-0.41","3","3","4","3","3","3","4","4","3","3","4","4","3","5","4","4","4","3","4","4","1","2","2","2","2","2","2","2","2","1","1","0","1","0","0","0","1","0","0","0","0","1","0","1","4","4","3","2","3","3","4","4","3","3","2","792475678095319042","李","438","","","","match","","","","","","","","","","","","","","key","f","16.663302752293472","768","428","j","false","nonmatch","img/circle.png","六边","圆形","ALT1_2","prac_ALT1_2","","","","","","","","","","","",""
"null","<span style='color:red; font-size: 70px;'>错误! </span>","null","html-keyboard-response","92","284431","0.0-7.0-1.0-1.0-0.0-1.41","3","3","4","3","3","3","4","4","3","3","4","4","3","5","4","4","4","3","4","4","1","2","2","2","2","2","2","2","2","1","1","0","1","0","0","0","1","0","0","0","0","1","0","1","4","4","3","2","3","3","4","4","3","3","2","792475678095319042","李","438","","","","","","","","","","","","","","","","","","","","","","","","","","","","","","feedback_test","","","","","","","","","","","",""
"976","","j","psychophysics","93","286407","0.0-7.0-1.0-1.0-0.0-0.42","3","3","4","3","3","3","4","4","3","3","4","4","3","5","4","4","4","3","4","4","1","2","2","2","2","2","2","2","2","1","1","0","1","0","0","0","1","0","0","0","0","1","0","1","4","4","3","2","3","3","4","4","3","3","2","792475678095319042","李","438","","","","nonmatch","","","","","","","","","","","","","","key","j","16.662711864406877","768","428","f","false","match","img/hexagon.png","六边","六边","ALT1_2","prac_ALT1_2","","","","","","","","","","","",""
"null","<span style='color:red; font-size: 70px;'>错误! </span>","null","html-keyboard-response","94","286910","0.0-7.0-1.0-1.0-0.0-1.42","3","3","4","3","3","3","4","4","3","3","4","4","3","5","4","4","4","3","4","4","1","2","2","2","2","2","2","2","2","1","1","0","1","0","0","0","1","0","0","0","0","1","0","1","4","4","3","2","3","3","4","4","3","3","2","792475678095319042","李","438","","","","","","","","","","","","","","","","","","","","","","","","","","","","","","feedback_test","","","","","","","","","","","",""
"null","","null","psychophysics","95","289113","0.0-7.0-1.0-1.0-0.0-0.43","3","3","4","3","3","3","4","4","3","3","4","4","3","5","4","4","4","3","4","4","1","2","2","2","2","2","2","2","2","1","1","0","1","0","0","0","1","0","0","0","0","1","0","1","4","4","3","2","3","3","4","4","3","3","2","792475678095319042","李","438","","","","null","","","","","","","","","","","","","","key","null","16.66183206106879","768","428","f","false","match","img/diamond.png","菱形","菱形","ALT1_2","prac_ALT1_2","","","","","","","","","","","",""
"null","<span class='add_' style='color:yellow; font-size: 70px;'> 太慢! </span>","null","html-keyboard-response","96","289614","0.0-7.0-1.0-1.0-0.0-1.43","3","3","4","3","3","3","4","4","3","3","4","4","3","5","4","4","4","3","4","4","1","2","2","2","2","2","2","2","2","1","1","0","1","0","0","0","1","0","0","0","0","1","0","1","4","4","3","2","3","3","4","4","3","3","2","792475678095319042","李","438","","","","","","","","","","","","","","","","","","","","","","","","","","","","","","feedback_test","","","","","","","","","","","",""
"569","","f","psychophysics","97","291186","0.0-7.0-1.0-1.0-0.0-0.44","3","3","4","3","3","3","4","4","3","3","4","4","3","5","4","4","4","3","4","4","1","2","2","2","2","2","2","2","2","1","1","0","1","0","0","0","1","0","0","0","0","1","0","1","4","4","3","2","3","3","4","4","3","3","2","792475678095319042","李","438","","","","match","","","","","","","","","","","","","","key","f","16.666666666666668","768","428","f","true","match","img/circle.png","圆形","圆形","ALT1_2","prac_ALT1_2","","","","","","","","","","","",""
"null","<span style='color:GreenYellow; font-size: 70px;'>正确! </span>","null","html-keyboard-response","98","291687","0.0-7.0-1.0-1.0-0.0-1.44","3","3","4","3","3","3","4","4","3","3","4","4","3","5","4","4","4","3","4","4","1","2","2","2","2","2","2","2","2","1","1","0","1","0","0","0","1","0","0","0","0","1","0","1","4","4","3","2","3","3","4","4","3","3","2","792475678095319042","李","438","","","","","","","","","","","","","","","","","","","","","","","","","","","","","","feedback_test","","","","","","","","","","","",""
"624","","j","psychophysics","99","293313","0.0-7.0-1.0-1.0-0.0-0.45","3","3","4","3","3","3","4","4","3","3","4","4","3","5","4","4","4","3","4","4","1","2","2","2","2","2","2","2","2","1","1","0","1","0","0","0","1","0","0","0","0","1","0","1","4","4","3","2","3","3","4","4","3","3","2","792475678095319042","李","438","","","","nonmatch","","","","","","","","","","","","","","key","j","16.652083333333696","768","428","f","false","match","img/trapezoid.png","梯形","梯形","ALT1_2","prac_ALT1_2","","","","","","","","","","","",""
"null","<span style='color:red; font-size: 70px;'>错误! </span>","null","html-keyboard-response","100","293829","0.0-7.0-1.0-1.0-0.0-1.45","3","3","4","3","3","3","4","4","3","3","4","4","3","5","4","4","4","3","4","4","1","2","2","2","2","2","2","2","2","1","1","0","1","0","0","0","1","0","0","0","0","1","0","1","4","4","3","2","3","3","4","4","3","3","2","792475678095319042","李","438","","","","","","","","","","","","","","","","","","","","","","","","","","","","","","feedback_test","","","","","","","","","","","",""
"1120","","f","psychophysics","101","295950","0.0-7.0-1.0-1.0-0.0-0.46","3","3","4","3","3","3","4","4","3","3","4","4","3","5","4","4","4","3","4","4","1","2","2","2","2","2","2","2","2","1","1","0","1","0","0","0","1","0","0","0","0","1","0","1","4","4","3","2","3","3","4","4","3","3","2","792475678095319042","李","438","","","","match","","","","","","","","","","","","","","key","f","16.6658730158732","768","428","j","false","nonmatch","img/diamond.png","梯形","菱形","ALT1_2","prac_ALT1_2","","","","","","","","","","","",""
"null","<span style='color:red; font-size: 70px;'>错误! </span>","null","html-keyboard-response","102","296452","0.0-7.0-1.0-1.0-0.0-1.46","3","3","4","3","3","3","4","4","3","3","4","4","3","5","4","4","4","3","4","4","1","2","2","2","2","2","2","2","2","1","1","0","1","0","0","0","1","0","0","0","0","1","0","1","4","4","3","2","3","3","4","4","3","3","2","792475678095319042","李","438","","","","","","","","","","","","","","","","","","","","","","","","","","","","","","feedback_test","","","","","","","","","","","",""
"860","","f","psychophysics","103","298313","0.0-7.0-1.0-1.0-0.0-0.47","3","3","4","3","3","3","4","4","3","3","4","4","3","5","4","4","4","3","4","4","1","2","2","2","2","2","2","2","2","1","1","0","1","0","0","0","1","0","0","0","0","1","0","1","4","4","3","2","3","3","4","4","3","3","2","792475678095319042","李","438","","","","match","","","","","","","","","","","","","","key","f","16.66486486486476","768","428","j","false","nonmatch","img/trapezoid.png","六边","梯形","ALT1_2","prac_ALT1_2","","","","","","","","","","","",""
"null","<span style='color:red; font-size: 70px;'>错误! </span>","null","html-keyboard-response","104","298813","0.0-7.0-1.0-1.0-0.0-1.47","3","3","4","3","3","3","4","4","3","3","4","4","3","5","4","4","4","3","4","4","1","2","2","2","2","2","2","2","2","1","1","0","1","0","0","0","1","0","0","0","0","1","0","1","4","4","3","2","3","3","4","4","3","3","2","792475678095319042","李","438","","","","","","","","","","","","","","","","","","","","","","","","","","","","","","feedback_test","","","","","","","","","","","",""
"3418","<style>.context{color:white; font-size: 35px; line-height:40px}</style>                          <div><p class='context'>您正确回答了50% 的试次。</p><p class='context'>您的平均反应时为803毫秒。</p><p class='context'>恭喜您完成练习。按空格键继续。</p></div>"," ","html-keyboard-response","105","302233","0.0-7.0-1.0-1.0-1.0-0.0","3","3","4","3","3","3","4","4","3","3","4","4","3","5","4","4","4","3","4","4","1","2","2","2","2","2","2","2","2","1","1","0","1","0","0","0","1","0","0","0","0","1","0","1","4","4","3","2","3","3","4","4","3","3","2","792475678095319042","李","438","","","","","","","","","","","","","","","","","","","","","","","","","","","","","","","","","","","","","","","","","",""
"10512","","","instructions","106","312746","0.0-7.0-1.0-1.0-1.0-1.0","3","3","4","3","3","3","4","4","3","3","4","4","3","5","4","4","4","3","4","4","1","2","2","2","2","2","2","2","2","1","1","0","1","0","0","0","1","0","0","0","0","1","0","1","4","4","3","2","3","3","4","4","3","3","2","792475678095319042","李","438","","","","","","","","","","","","","","","","","[{""page_index"":0,""viewing_time"":2519},{""page_index"":1,""viewing_time"":5708},{""page_index"":2,""viewing_time"":2285}]","","","","","","","","","","","","","","","","","","","","","","","","",""
"1109","","f","psychophysics","107","314859","0.0-7.0-1.0-1.1-0.1-0.48","3","3","4","3","3","3","4","4","3","3","4","4","3","5","4","4","4","3","4","4","1","2","2","2","2","2","2","2","2","1","1","0","1","0","0","0","1","0","0","0","0","1","0","1","4","4","3","2","3","3","4","4","3","3","2","792475678095319042","李","438","","","","match","","","","","","","","","","","","","","key","f","16.6658730158732","768","428","f","true","match","img/diamond.png","菱形","菱形","ALT1_2","prac_ALT1_2","","","","","","","","","","","",""
"null","<span style='color:GreenYellow; font-size: 70px;'>正确! </span>","null","html-keyboard-response","108","315360","0.0-7.0-1.0-1.1-0.1-1.48","3","3","4","3","3","3","4","4","3","3","4","4","3","5","4","4","4","3","4","4","1","2","2","2","2","2","2","2","2","1","1","0","1","0","0","0","1","0","0","0","0","1","0","1","4","4","3","2","3","3","4","4","3","3","2","792475678095319042","李","438","","","","","","","","","","","","","","","","","","","","","","","","","","","","","","feedback_test","","","","","","","","","","","",""
"1024","","j","psychophysics","109","317385","0.0-7.0-1.0-1.1-0.1-0.49","3","3","4","3","3","3","4","4","3","3","4","4","3","5","4","4","4","3","4","4","1","2","2","2","2","2","2","2","2","1","1","0","1","0","0","0","1","0","0","0","0","1","0","1","4","4","3","2","3","3","4","4","3","3","2","792475678095319042","李","438","","","","nonmatch","","","","","","","","","","","","","","key","j","16.663636363636268","768","428","j","true","nonmatch","img/diamond.png","六边","菱形","ALT1_2","prac_ALT1_2","","","","","","","","","","","",""
"null","<span style='color:GreenYellow; font-size: 70px;'>正确! </span>","null","html-keyboard-response","110","317886","0.0-7.0-1.0-1.1-0.1-1.49","3","3","4","3","3","3","4","4","3","3","4","4","3","5","4","4","4","3","4","4","1","2","2","2","2","2","2","2","2","1","1","0","1","0","0","0","1","0","0","0","0","1","0","1","4","4","3","2","3","3","4","4","3","3","2","792475678095319042","李","438","","","","","","","","","","","","","","","","","","","","","","","","","","","","","","feedback_test","","","","","","","","","","","",""
"749","","j","psychophysics","111","319636","0.0-7.0-1.0-1.1-0.1-0.50","3","3","4","3","3","3","4","4","3","3","4","4","3","5","4","4","4","3","4","4","1","2","2","2","2","2","2","2","2","1","1","0","1","0","0","0","1","0","0","0","0","1","0","1","4","4","3","2","3","3","4","4","3","3","2","792475678095319042","李","438","","","","nonmatch","","","","","","","","","","","","","","key","j","16.658653846153847","768","428","j","true","nonmatch","img/circle.png","六边","圆形","ALT1_2","prac_ALT1_2","","","","","","","","","","","",""
"null","<span style='color:GreenYellow; font-size: 70px;'>正确! </span>","null","html-keyboard-response","112","320139","0.0-7.0-1.0-1.1-0.1-1.50","3","3","4","3","3","3","4","4","3","3","4","4","3","5","4","4","4","3","4","4","1","2","2","2","2","2","2","2","2","1","1","0","1","0","0","0","1","0","0","0","0","1","0","1","4","4","3","2","3","3","4","4","3","3","2","792475678095319042","李","438","","","","","","","","","","","","","","","","","","","","","","","","","","","","","","feedback_test","","","","","","","","","","","",""
"1025","","f","psychophysics","113","322166","0.0-7.0-1.0-1.1-0.1-0.51","3","3","4","3","3","3","4","4","3","3","4","4","3","5","4","4","4","3","4","4","1","2","2","2","2","2","2","2","2","1","1","0","1","0","0","0","1","0","0","0","0","1","0","1","4","4","3","2","3","3","4","4","3","3","2","792475678095319042","李","438","","","","match","","","","","","","","","","","","","","key","f","16.661983471074187","768","428","f","true","match","img/hexagon.png","六边","六边","ALT1_2","prac_ALT1_2","","","","","","","","","","","",""
"null","<span style='color:GreenYellow; font-size: 70px;'>正确! </span>","null","html-keyboard-response","114","322668","0.0-7.0-1.0-1.1-0.1-1.51","3","3","4","3","3","3","4","4","3","3","4","4","3","5","4","4","4","3","4","4","1","2","2","2","2","2","2","2","2","1","1","0","1","0","0","0","1","0","0","0","0","1","0","1","4","4","3","2","3","3","4","4","3","3","2","792475678095319042","李","438","","","","","","","","","","","","","","","","","","","","","","","","","","","","","","feedback_test","","","","","","","","","","","",""
"null","","null","psychophysics","115","324871","0.0-7.0-1.0-1.1-0.1-0.52","3","3","4","3","3","3","4","4","3","3","4","4","3","5","4","4","4","3","4","4","1","2","2","2","2","2","2","2","2","1","1","0","1","0","0","0","1","0","0","0","0","1","0","1","4","4","3","2","3","3","4","4","3","3","2","792475678095319042","李","438","","","","null","","","","","","","","","","","","","","key","null","16.66259541984724","768","428","j","false","nonmatch","img/trapezoid.png","六边","梯形","ALT1_2","prac_ALT1_2","","","","","","","","","","","",""
"null","<span class='add_' style='color:yellow; font-size: 70px;'> 太慢! </span>","null","html-keyboard-response","116","325372","0.0-7.0-1.0-1.1-0.1-1.52","3","3","4","3","3","3","4","4","3","3","4","4","3","5","4","4","4","3","4","4","1","2","2","2","2","2","2","2","2","1","1","0","1","0","0","0","1","0","0","0","0","1","0","1","4","4","3","2","3","3","4","4","3","3","2","792475678095319042","李","438","","","","","","","","","","","","","","","","","","","","","","","","","","","","","","feedback_test","","","","","","","","","","","",""
"905","","j","psychophysics","117","327278","0.0-7.0-1.0-1.1-0.1-0.53","3","3","4","3","3","3","4","4","3","3","4","4","3","5","4","4","4","3","4","4","1","2","2","2","2","2","2","2","2","1","1","0","1","0","0","0","1","0","0","0","0","1","0","1","4","4","3","2","3","3","4","4","3","3","2","792475678095319042","李","438","","","","nonmatch","","","","","","","","","","","","","","key","j","16.665486725663303","768","428","j","true","nonmatch","img/hexagon.png","梯形","六边","ALT1_2","prac_ALT1_2","","","","","","","","","","","",""
"null","<span style='color:GreenYellow; font-size: 70px;'>正确! </span>","null","html-keyboard-response","118","327780","0.0-7.0-1.0-1.1-0.1-1.53","3","3","4","3","3","3","4","4","3","3","4","4","3","5","4","4","4","3","4","4","1","2","2","2","2","2","2","2","2","1","1","0","1","0","0","0","1","0","0","0","0","1","0","1","4","4","3","2","3","3","4","4","3","3","2","792475678095319042","李","438","","","","","","","","","","","","","","","","","","","","","","","","","","","","","","feedback_test","","","","","","","","","","","",""
"940","","j","psychophysics","119","329721","0.0-7.0-1.0-1.1-0.1-0.54","3","3","4","3","3","3","4","4","3","3","4","4","3","5","4","4","4","3","4","4","1","2","2","2","2","2","2","2","2","1","1","0","1","0","0","0","1","0","0","0","0","1","0","1","4","4","3","2","3","3","4","4","3","3","2","792475678095319042","李","438","","","","nonmatch","","","","","","","","","","","","","","key","j","16.661739130435087","768","428","f","false","match","img/diamond.png","菱形","菱形","ALT1_2","prac_ALT1_2","","","","","","","","","","","",""
"null","<span style='color:red; font-size: 70px;'>错误! </span>","null","html-keyboard-response","120","330222","0.0-7.0-1.0-1.1-0.1-1.54","3","3","4","3","3","3","4","4","3","3","4","4","3","5","4","4","4","3","4","4","1","2","2","2","2","2","2","2","2","1","1","0","1","0","0","0","1","0","0","0","0","1","0","1","4","4","3","2","3","3","4","4","3","3","2","792475678095319042","李","438","","","","","","","","","","","","","","","","","","","","","","","","","","","","","","feedback_test","","","","","","","","","","","",""
"975","","j","psychophysics","121","332198","0.0-7.0-1.0-1.1-0.1-0.55","3","3","4","3","3","3","4","4","3","3","4","4","3","5","4","4","4","3","4","4","1","2","2","2","2","2","2","2","2","1","1","0","1","0","0","0","1","0","0","0","0","1","0","1","4","4","3","2","3","3","4","4","3","3","2","792475678095319042","李","438","","","","nonmatch","","","","","","","","","","","","","","key","j","16.666949152542472","768","428","f","false","match","img/trapezoid.png","梯形","梯形","ALT1_2","prac_ALT1_2","","","","","","","","","","","",""
"null","<span style='color:red; font-size: 70px;'>错误! </span>","null","html-keyboard-response","122","332700","0.0-7.0-1.0-1.1-0.1-1.55","3","3","4","3","3","3","4","4","3","3","4","4","3","5","4","4","4","3","4","4","1","2","2","2","2","2","2","2","2","1","1","0","1","0","0","0","1","0","0","0","0","1","0","1","4","4","3","2","3","3","4","4","3","3","2","792475678095319042","李","438","","","","","","","","","","","","","","","","","","","","","","","","","","","","","","feedback_test","","","","","","","","","","","",""
"955","","f","psychophysics","123","334656","0.0-7.0-1.0-1.1-0.1-0.56","3","3","4","3","3","3","4","4","3","3","4","4","3","5","4","4","4","3","4","4","1","2","2","2","2","2","2","2","2","1","1","0","1","0","0","0","1","0","0","0","0","1","0","1","4","4","3","2","3","3","4","4","3","3","2","792475678095319042","李","438","","","","match","","","","","","","","","","","","","","key","f","16.66206896551714","768","428","j","false","nonmatch","img/hexagon.png","圆形","六边","ALT1_2","prac_ALT1_2","","","","","","","","","","","",""
"null","<span style='color:red; font-size: 70px;'>错误! </span>","null","html-keyboard-response","124","335157","0.0-7.0-1.0-1.1-0.1-1.56","3","3","4","3","3","3","4","4","3","3","4","4","3","5","4","4","4","3","4","4","1","2","2","2","2","2","2","2","2","1","1","0","1","0","0","0","1","0","0","0","0","1","0","1","4","4","3","2","3","3","4","4","3","3","2","792475678095319042","李","438","","","","","","","","","","","","","","","","","","","","","","","","","","","","","","feedback_test","","","","","","","","","","","",""
"1026","","f","psychophysics","125","337183","0.0-7.0-1.0-1.1-0.1-0.57","3","3","4","3","3","3","4","4","3","3","4","4","3","5","4","4","4","3","4","4","1","2","2","2","2","2","2","2","2","1","1","0","1","0","0","0","1","0","0","0","0","1","0","1","4","4","3","2","3","3","4","4","3","3","2","792475678095319042","李","438","","","","match","","","","","","","","","","","","","","key","f","16.666942148760427","768","428","f","true","match","img/diamond.png","菱形","菱形","ALT1_2","prac_ALT1_2","","","","","","","","","","","",""
"null","<span style='color:GreenYellow; font-size: 70px;'>正确! </span>","null","html-keyboard-response","126","337685","0.0-7.0-1.0-1.1-0.1-1.57","3","3","4","3","3","3","4","4","3","3","4","4","3","5","4","4","4","3","4","4","1","2","2","2","2","2","2","2","2","1","1","0","1","0","0","0","1","0","0","0","0","1","0","1","4","4","3","2","3","3","4","4","3","3","2","792475678095319042","李","438","","","","","","","","","","","","","","","","","","","","","","","","","","","","","","feedback_test","","","","","","","","","","","",""
"1002","","j","psychophysics","127","339690","0.0-7.0-1.0-1.1-0.1-0.58","3","3","4","3","3","3","4","4","3","3","4","4","3","5","4","4","4","3","4","4","1","2","2","2","2","2","2","2","2","1","1","0","1","0","0","0","1","0","0","0","0","1","0","1","4","4","3","2","3","3","4","4","3","3","2","792475678095319042","李","438","","","","nonmatch","","","","","","","","","","","","","","key","j","16.662184873949972","768","428","j","true","nonmatch","img/trapezoid.png","菱形","梯形","ALT1_2","prac_ALT1_2","","","","","","","","","","","",""
"null","<span style='color:GreenYellow; font-size: 70px;'>正确! </span>","null","html-keyboard-response","128","340191","0.0-7.0-1.0-1.1-0.1-1.58","3","3","4","3","3","3","4","4","3","3","4","4","3","5","4","4","4","3","4","4","1","2","2","2","2","2","2","2","2","1","1","0","1","0","0","0","1","0","0","0","0","1","0","1","4","4","3","2","3","3","4","4","3","3","2","792475678095319042","李","438","","","","","","","","","","","","","","","","","","","","","","","","","","","","","","feedback_test","","","","","","","","","","","",""
"612","","f","psychophysics","129","341804","0.0-7.0-1.0-1.1-0.1-0.59","3","3","4","3","3","3","4","4","3","3","4","4","3","5","4","4","4","3","4","4","1","2","2","2","2","2","2","2","2","1","1","0","1","0","0","0","1","0","0","0","0","1","0","1","4","4","3","2","3","3","4","4","3","3","2","792475678095319042","李","438","","","","match","","","","","","","","","","","","","","key","f","16.662499999999756","768","428","f","true","match","img/circle.png","圆形","圆形","ALT1_2","prac_ALT1_2","","","","","","","","","","","",""
"null","<span style='color:GreenYellow; font-size: 70px;'>正确! </span>","null","html-keyboard-response","130","342319","0.0-7.0-1.0-1.1-0.1-1.59","3","3","4","3","3","3","4","4","3","3","4","4","3","5","4","4","4","3","4","4","1","2","2","2","2","2","2","2","2","1","1","0","1","0","0","0","1","0","0","0","0","1","0","1","4","4","3","2","3","3","4","4","3","3","2","792475678095319042","李","438","","","","","","","","","","","","","","","","","","","","","","","","","","","","","","feedback_test","","","","","","","","","","","",""
"1020","","f","psychophysics","131","344342","0.0-7.0-1.0-1.1-0.1-0.60","3","3","4","3","3","3","4","4","3","3","4","4","3","5","4","4","4","3","4","4","1","2","2","2","2","2","2","2","2","1","1","0","1","0","0","0","1","0","0","0","0","1","0","1","4","4","3","2","3","3","4","4","3","3","2","792475678095319042","李","438","","","","match","","","","","","","","","","","","","","key","f","16.663333333333625","768","428","f","true","match","img/trapezoid.png","梯形","梯形","ALT1_2","prac_ALT1_2","","","","","","","","","","","",""
"null","<span style='color:GreenYellow; font-size: 70px;'>正确! </span>","null","html-keyboard-response","132","344843","0.0-7.0-1.0-1.1-0.1-1.60","3","3","4","3","3","3","4","4","3","3","4","4","3","5","4","4","4","3","4","4","1","2","2","2","2","2","2","2","2","1","1","0","1","0","0","0","1","0","0","0","0","1","0","1","4","4","3","2","3","3","4","4","3","3","2","792475678095319042","李","438","","","","","","","","","","","","","","","","","","","","","","","","","","","","","","feedback_test","","","","","","","","","","","",""
"803","","j","psychophysics","133","346647","0.0-7.0-1.0-1.1-0.1-0.61","3","3","4","3","3","3","4","4","3","3","4","4","3","5","4","4","4","3","4","4","1","2","2","2","2","2","2","2","2","1","1","0","1","0","0","0","1","0","0","0","0","1","0","1","4","4","3","2","3","3","4","4","3","3","2","792475678095319042","李","438","","","","nonmatch","","","","","","","","","","","","","","key","j","16.665420560747773","768","428","f","false","match","img/trapezoid.png","梯形","梯形","ALT1_2","prac_ALT1_2","","","","","","","","","","","",""
"null","<span style='color:red; font-size: 70px;'>错误! </span>","null","html-keyboard-response","134","347148","0.0-7.0-1.0-1.1-0.1-1.61","3","3","4","3","3","3","4","4","3","3","4","4","3","5","4","4","4","3","4","4","1","2","2","2","2","2","2","2","2","1","1","0","1","0","0","0","1","0","0","0","0","1","0","1","4","4","3","2","3","3","4","4","3","3","2","792475678095319042","李","438","","","","","","","","","","","","","","","","","","","","","","","","","","","","","","feedback_test","","","","","","","","","","","",""
"840","","f","psychophysics","135","348990","0.0-7.0-1.0-1.1-0.1-0.62","3","3","4","3","3","3","4","4","3","3","4","4","3","5","4","4","4","3","4","4","1","2","2","2","2","2","2","2","2","1","1","0","1","0","0","0","1","0","0","0","0","1","0","1","4","4","3","2","3","3","4","4","3","3","2","792475678095319042","李","438","","","","match","","","","","","","","","","","","","","key","f","16.663302752293472","768","428","f","true","match","img/circle.png","圆形","圆形","ALT1_2","prac_ALT1_2","","","","","","","","","","","",""
"null","<span style='color:GreenYellow; font-size: 70px;'>正确! </span>","null","html-keyboard-response","136","349491","0.0-7.0-1.0-1.1-0.1-1.62","3","3","4","3","3","3","4","4","3","3","4","4","3","5","4","4","4","3","4","4","1","2","2","2","2","2","2","2","2","1","1","0","1","0","0","0","1","0","0","0","0","1","0","1","4","4","3","2","3","3","4","4","3","3","2","792475678095319042","李","438","","","","","","","","","","","","","","","","","","","","","","","","","","","","","","feedback_test","","","","","","","","","","","",""
"810","","j","psychophysics","137","351302","0.0-7.0-1.0-1.1-0.1-0.63","3","3","4","3","3","3","4","4","3","3","4","4","3","5","4","4","4","3","4","4","1","2","2","2","2","2","2","2","2","1","1","0","1","0","0","0","1","0","0","0","0","1","0","1","4","4","3","2","3","3","4","4","3","3","2","792475678095319042","李","438","","","","nonmatch","","","","","","","","","","","","","","key","j","16.66074766355151","768","428","j","true","nonmatch","img/circle.png","菱形","圆形","ALT1_2","prac_ALT1_2","","","","","","","","","","","",""
"null","<span style='color:GreenYellow; font-size: 70px;'>正确! </span>","null","html-keyboard-response","138","351803","0.0-7.0-1.0-1.1-0.1-1.63","3","3","4","3","3","3","4","4","3","3","4","4","3","5","4","4","4","3","4","4","1","2","2","2","2","2","2","2","2","1","1","0","1","0","0","0","1","0","0","0","0","1","0","1","4","4","3","2","3","3","4","4","3","3","2","792475678095319042","李","438","","","","","","","","","","","","","","","","","","","","","","","","","","","","","","feedback_test","","","","","","","","","","","",""
"912","","f","psychophysics","139","353717","0.0-7.0-1.0-1.1-0.1-0.64","3","3","4","3","3","3","4","4","3","3","4","4","3","5","4","4","4","3","4","4","1","2","2","2","2","2","2","2","2","1","1","0","1","0","0","0","1","0","0","0","0","1","0","1","4","4","3","2","3","3","4","4","3","3","2","792475678095319042","李","438","","","","match","","","","","","","","","","","","","","key","f","16.665789473683905","768","428","f","true","match","img/hexagon.png","六边","六边","ALT1_2","prac_ALT1_2","","","","","","","","","","","",""
"null","<span style='color:GreenYellow; font-size: 70px;'>正确! </span>","null","html-keyboard-response","140","354218","0.0-7.0-1.0-1.1-0.1-1.64","3","3","4","3","3","3","4","4","3","3","4","4","3","5","4","4","4","3","4","4","1","2","2","2","2","2","2","2","2","1","1","0","1","0","0","0","1","0","0","0","0","1","0","1","4","4","3","2","3","3","4","4","3","3","2","792475678095319042","李","438","","","","","","","","","","","","","","","","","","","","","","","","","","","","","","feedback_test","","","","","","","","","","","",""
"980","","j","psychophysics","141","356200","0.0-7.0-1.0-1.1-0.1-0.65","3","3","4","3","3","3","4","4","3","3","4","4","3","5","4","4","4","3","4","4","1","2","2","2","2","2","2","2","2","1","1","0","1","0","0","0","1","0","0","0","0","1","0","1","4","4","3","2","3","3","4","4","3","3","2","792475678095319042","李","438","","","","nonmatch","","","","","","","","","","","","","","key","j","16.66610169491555","768","428","j","true","nonmatch","img/trapezoid.png","圆形","梯形","ALT1_2","prac_ALT1_2","","","","","","","","","","","",""
"null","<span style='color:GreenYellow; font-size: 70px;'>正确! </span>","null","html-keyboard-response","142","356701","0.0-7.0-1.0-1.1-0.1-1.65","3","3","4","3","3","3","4","4","3","3","4","4","3","5","4","4","4","3","4","4","1","2","2","2","2","2","2","2","2","1","1","0","1","0","0","0","1","0","0","0","0","1","0","1","4","4","3","2","3","3","4","4","3","3","2","792475678095319042","李","438","","","","","","","","","","","","","","","","","","","","","","","","","","","","","","feedback_test","","","","","","","","","","","",""
"966","","j","psychophysics","143","358668","0.0-7.0-1.0-1.1-0.1-0.66","3","3","4","3","3","3","4","4","3","3","4","4","3","5","4","4","4","3","4","4","1","2","2","2","2","2","2","2","2","1","1","0","1","0","0","0","1","0","0","0","0","1","0","1","4","4","3","2","3","3","4","4","3","3","2","792475678095319042","李","438","","","","nonmatch","","","","","","","","","","","","","","key","j","16.664102564102663","768","428","j","true","nonmatch","img/diamond.png","梯形","菱形","ALT1_2","prac_ALT1_2","","","","","","","","","","","",""
"null","<span style='color:GreenYellow; font-size: 70px;'>正确! </span>","null","html-keyboard-response","144","359177","0.0-7.0-1.0-1.1-0.1-1.66","3","3","4","3","3","3","4","4","3","3","4","4","3","5","4","4","4","3","4","4","1","2","2","2","2","2","2","2","2","1","1","0","1","0","0","0","1","0","0","0","0","1","0","1","4","4","3","2","3","3","4","4","3","3","2","792475678095319042","李","438","","","","","","","","","","","","","","","","","","","","","","","","","","","","","","feedback_test","","","","","","","","","","","",""
"849","","f","psychophysics","145","361027","0.0-7.0-1.0-1.1-0.1-0.67","3","3","4","3","3","3","4","4","3","3","4","4","3","5","4","4","4","3","4","4","1","2","2","2","2","2","2","2","2","1","1","0","1","0","0","0","1","0","0","0","0","1","0","1","4","4","3","2","3","3","4","4","3","3","2","792475678095319042","李","438","","","","match","","","","","","","","","","","","","","key","f","16.662727272727484","768","428","j","false","nonmatch","img/hexagon.png","菱形","六边","ALT1_2","prac_ALT1_2","","","","","","","","","","","",""
"null","<span style='color:red; font-size: 70px;'>错误! </span>","null","html-keyboard-response","146","361528","0.0-7.0-1.0-1.1-0.1-1.67","3","3","4","3","3","3","4","4","3","3","4","4","3","5","4","4","4","3","4","4","1","2","2","2","2","2","2","2","2","1","1","0","1","0","0","0","1","0","0","0","0","1","0","1","4","4","3","2","3","3","4","4","3","3","2","792475678095319042","李","438","","","","","","","","","","","","","","","","","","","","","","","","","","","","","","feedback_test","","","","","","","","","","","",""
"781","","j","psychophysics","147","363310","0.0-7.0-1.0-1.1-0.1-0.68","3","3","4","3","3","3","4","4","3","3","4","4","3","5","4","4","4","3","4","4","1","2","2","2","2","2","2","2","2","1","1","0","1","0","0","0","1","0","0","0","0","1","0","1","4","4","3","2","3","3","4","4","3","3","2","792475678095319042","李","438","","","","nonmatch","","","","","","","","","","","","","","key","j","16.662264150943507","768","428","j","true","nonmatch","img/circle.png","梯形","圆形","ALT1_2","prac_ALT1_2","","","","","","","","","","","",""
"null","<span style='color:GreenYellow; font-size: 70px;'>正确! </span>","null","html-keyboard-response","148","363812","0.0-7.0-1.0-1.1-0.1-1.68","3","3","4","3","3","3","4","4","3","3","4","4","3","5","4","4","4","3","4","4","1","2","2","2","2","2","2","2","2","1","1","0","1","0","0","0","1","0","0","0","0","1","0","1","4","4","3","2","3","3","4","4","3","3","2","792475678095319042","李","438","","","","","","","","","","","","","","","","","","","","","","","","","","","","","","feedback_test","","","","","","","","","","","",""
"1006","","f","psychophysics","149","365819","0.0-7.0-1.0-1.1-0.1-0.69","3","3","4","3","3","3","4","4","3","3","4","4","3","5","4","4","4","3","4","4","1","2","2","2","2","2","2","2","2","1","1","0","1","0","0","0","1","0","0","0","0","1","0","1","4","4","3","2","3","3","4","4","3","3","2","792475678095319042","李","438","","","","match","","","","","","","","","","","","","","key","f","16.66386554621849","768","428","f","true","match","img/hexagon.png","六边","六边","ALT1_2","prac_ALT1_2","","","","","","","","","","","",""
"null","<span style='color:GreenYellow; font-size: 70px;'>正确! </span>","null","html-keyboard-response","150","366325","0.0-7.0-1.0-1.1-0.1-1.69","3","3","4","3","3","3","4","4","3","3","4","4","3","5","4","4","4","3","4","4","1","2","2","2","2","2","2","2","2","1","1","0","1","0","0","0","1","0","0","0","0","1","0","1","4","4","3","2","3","3","4","4","3","3","2","792475678095319042","李","438","","","","","","","","","","","","","","","","","","","","","","","","","","","","","","feedback_test","","","","","","","","","","","",""
"862","","j","psychophysics","151","368190","0.0-7.0-1.0-1.1-0.1-0.70","3","3","4","3","3","3","4","4","3","3","4","4","3","5","4","4","4","3","4","4","1","2","2","2","2","2","2","2","2","1","1","0","1","0","0","0","1","0","0","0","0","1","0","1","4","4","3","2","3","3","4","4","3","3","2","792475678095319042","李","438","","","","nonmatch","","","","","","","","","","","","","","key","j","16.660360360360254","768","428","f","false","match","img/circle.png","圆形","圆形","ALT1_2","prac_ALT1_2","","","","","","","","","","","",""
"null","<span style='color:red; font-size: 70px;'>错误! </span>","null","html-keyboard-response","152","368690","0.0-7.0-1.0-1.1-0.1-1.70","3","3","4","3","3","3","4","4","3","3","4","4","3","5","4","4","4","3","4","4","1","2","2","2","2","2","2","2","2","1","1","0","1","0","0","0","1","0","0","0","0","1","0","1","4","4","3","2","3","3","4","4","3","3","2","792475678095319042","李","438","","","","","","","","","","","","","","","","","","","","","","","","","","","","","","feedback_test","","","","","","","","","","","",""
"797","","j","psychophysics","153","370489","0.0-7.0-1.0-1.1-0.1-0.71","3","3","4","3","3","3","4","4","3","3","4","4","3","5","4","4","4","3","4","4","1","2","2","2","2","2","2","2","2","1","1","0","1","0","0","0","1","0","0","0","0","1","0","1","4","4","3","2","3","3","4","4","3","3","2","792475678095319042","李","438","","","","nonmatch","","","","","","","","","","","","","","key","j","16.65981308411193","768","428","j","true","nonmatch","img/diamond.png","圆形","菱形","ALT1_2","prac_ALT1_2","","","","","","","","","","","",""
"null","<span style='color:GreenYellow; font-size: 70px;'>正确! </span>","null","html-keyboard-response","154","370990","0.0-7.0-1.0-1.1-0.1-1.71","3","3","4","3","3","3","4","4","3","3","4","4","3","5","4","4","4","3","4","4","1","2","2","2","2","2","2","2","2","1","1","0","1","0","0","0","1","0","0","0","0","1","0","1","4","4","3","2","3","3","4","4","3","3","2","792475678095319042","李","438","","","","","","","","","","","","","","","","","","","","","","","","","","","","","","feedback_test","","","","","","","","","","","",""
"739","","f","psychophysics","155","372732","0.0-7.0-1.0-1.1-0.1-0.72","3","3","4","3","3","3","4","4","3","3","4","4","3","5","4","4","4","3","4","4","1","2","2","2","2","2","2","2","2","1","1","0","1","0","0","0","1","0","0","0","0","1","0","1","4","4","3","2","3","3","4","4","3","3","2","792475678095319042","李","438","","","","match","","","","","","","","","","","","","","key","f","16.664077669902575","768","428","f","true","match","img/circle.png","圆形","圆形","ALT1_2","prac_ALT1_2","","","","","","","","","","","",""
"null","<span style='color:GreenYellow; font-size: 70px;'>正确! </span>","null","html-keyboard-response","156","373233","0.0-7.0-1.0-1.1-0.1-1.72","3","3","4","3","3","3","4","4","3","3","4","4","3","5","4","4","4","3","4","4","1","2","2","2","2","2","2","2","2","1","1","0","1","0","0","0","1","0","0","0","0","1","0","1","4","4","3","2","3","3","4","4","3","3","2","792475678095319042","李","438","","","","","","","","","","","","","","","","","","","","","","","","","","","","","","feedback_test","","","","","","","","","","","",""
"705","","j","psychophysics","157","374940","0.0-7.0-1.0-1.1-0.1-0.73","3","3","4","3","3","3","4","4","3","3","4","4","3","5","4","4","4","3","4","4","1","2","2","2","2","2","2","2","2","1","1","0","1","0","0","0","1","0","0","0","0","1","0","1","4","4","3","2","3","3","4","4","3","3","2","792475678095319042","李","438","","","","nonmatch","","","","","","","","","","","","","","key","j","16.819607843137597","768","428","f","false","match","img/trapezoid.png","梯形","梯形","ALT1_2","prac_ALT1_2","","","","","","","","","","","",""
"null","<span style='color:red; font-size: 70px;'>错误! </span>","null","html-keyboard-response","158","375441","0.0-7.0-1.0-1.1-0.1-1.73","3","3","4","3","3","3","4","4","3","3","4","4","3","5","4","4","4","3","4","4","1","2","2","2","2","2","2","2","2","1","1","0","1","0","0","0","1","0","0","0","0","1","0","1","4","4","3","2","3","3","4","4","3","3","2","792475678095319042","李","438","","","","","","","","","","","","","","","","","","","","","","","","","","","","","","feedback_test","","","","","","","","","","","",""
"1078","","j","psychophysics","159","377520","0.0-7.0-1.0-1.1-0.1-0.74","3","3","4","3","3","3","4","4","3","3","4","4","3","5","4","4","4","3","4","4","1","2","2","2","2","2","2","2","2","1","1","0","1","0","0","0","1","0","0","0","0","1","0","1","4","4","3","2","3","3","4","4","3","3","2","792475678095319042","李","438","","","","nonmatch","","","","","","","","","","","","","","key","j","16.661290322580644","768","428","j","true","nonmatch","img/diamond.png","六边","菱形","ALT1_2","prac_ALT1_2","","","","","","","","","","","",""
"null","<span style='color:GreenYellow; font-size: 70px;'>正确! </span>","null","html-keyboard-response","160","378021","0.0-7.0-1.0-1.1-0.1-1.74","3","3","4","3","3","3","4","4","3","3","4","4","3","5","4","4","4","3","4","4","1","2","2","2","2","2","2","2","2","1","1","0","1","0","0","0","1","0","0","0","0","1","0","1","4","4","3","2","3","3","4","4","3","3","2","792475678095319042","李","438","","","","","","","","","","","","","","","","","","","","","","","","","","","","","","feedback_test","","","","","","","","","","","",""
"924","","f","psychophysics","161","379948","0.0-7.0-1.0-1.1-0.1-0.75","3","3","4","3","3","3","4","4","3","3","4","4","3","5","4","4","4","3","4","4","1","2","2","2","2","2","2","2","2","1","1","0","1","0","0","0","1","0","0","0","0","1","0","1","4","4","3","2","3","3","4","4","3","3","2","792475678095319042","李","438","","","","match","","","","","","","","","","","","","","key","f","16.66315789473664","768","428","j","false","nonmatch","img/trapezoid.png","菱形","梯形","ALT1_2","prac_ALT1_2","","","","","","","","","","","",""
"null","<span style='color:red; font-size: 70px;'>错误! </span>","null","html-keyboard-response","162","380449","0.0-7.0-1.0-1.1-0.1-1.75","3","3","4","3","3","3","4","4","3","3","4","4","3","5","4","4","4","3","4","4","1","2","2","2","2","2","2","2","2","1","1","0","1","0","0","0","1","0","0","0","0","1","0","1","4","4","3","2","3","3","4","4","3","3","2","792475678095319042","李","438","","","","","","","","","","","","","","","","","","","","","","","","","","","","","","feedback_test","","","","","","","","","","","",""
"1102","","j","psychophysics","163","382553","0.0-7.0-1.0-1.1-0.1-0.76","3","3","4","3","3","3","4","4","3","3","4","4","3","5","4","4","4","3","4","4","1","2","2","2","2","2","2","2","2","1","1","0","1","0","0","0","1","0","0","0","0","1","0","1","4","4","3","2","3","3","4","4","3","3","2","792475678095319042","李","438","","","","nonmatch","","","","","","","","","","","","","","key","j","16.665079365079272","768","428","j","true","nonmatch","img/diamond.png","圆形","菱形","ALT1_2","prac_ALT1_2","","","","","","","","","","","",""
"null","<span style='color:GreenYellow; font-size: 70px;'>正确! </span>","null","html-keyboard-response","164","383066","0.0-7.0-1.0-1.1-0.1-1.76","3","3","4","3","3","3","4","4","3","3","4","4","3","5","4","4","4","3","4","4","1","2","2","2","2","2","2","2","2","1","1","0","1","0","0","0","1","0","0","0","0","1","0","1","4","4","3","2","3","3","4","4","3","3","2","792475678095319042","李","438","","","","","","","","","","","","","","","","","","","","","","","","","","","","","","feedback_test","","","","","","","","","","","",""
"940","","f","psychophysics","165","385007","0.0-7.0-1.0-1.1-0.1-0.77","3","3","4","3","3","3","4","4","3","3","4","4","3","5","4","4","4","3","4","4","1","2","2","2","2","2","2","2","2","1","1","0","1","0","0","0","1","0","0","0","0","1","0","1","4","4","3","2","3","3","4","4","3","3","2","792475678095319042","李","438","","","","match","","","","","","","","","","","","","","key","f","16.662608695652274","768","428","f","true","match","img/diamond.png","菱形","菱形","ALT1_2","prac_ALT1_2","","","","","","","","","","","",""
"null","<span style='color:GreenYellow; font-size: 70px;'>正确! </span>","null","html-keyboard-response","166","385508","0.0-7.0-1.0-1.1-0.1-1.77","3","3","4","3","3","3","4","4","3","3","4","4","3","5","4","4","4","3","4","4","1","2","2","2","2","2","2","2","2","1","1","0","1","0","0","0","1","0","0","0","0","1","0","1","4","4","3","2","3","3","4","4","3","3","2","792475678095319042","李","438","","","","","","","","","","","","","","","","","","","","","","","","","","","","","","feedback_test","","","","","","","","","","","",""
"942","","f","psychophysics","167","387452","0.0-7.0-1.0-1.1-0.1-0.78","3","3","4","3","3","3","4","4","3","3","4","4","3","5","4","4","4","3","4","4","1","2","2","2","2","2","2","2","2","1","1","0","1","0","0","0","1","0","0","0","0","1","0","1","4","4","3","2","3","3","4","4","3","3","2","792475678095319042","李","438","","","","match","","","","","","","","","","","","","","key","f","16.664655172414093","768","428","f","true","match","img/hexagon.png","六边","六边","ALT1_2","prac_ALT1_2","","","","","","","","","","","",""
"null","<span style='color:GreenYellow; font-size: 70px;'>正确! </span>","null","html-keyboard-response","168","387954","0.0-7.0-1.0-1.1-0.1-1.78","3","3","4","3","3","3","4","4","3","3","4","4","3","5","4","4","4","3","4","4","1","2","2","2","2","2","2","2","2","1","1","0","1","0","0","0","1","0","0","0","0","1","0","1","4","4","3","2","3","3","4","4","3","3","2","792475678095319042","李","438","","","","","","","","","","","","","","","","","","","","","","","","","","","","","","feedback_test","","","","","","","","","","","",""
"991","","j","psychophysics","169","389946","0.0-7.0-1.0-1.1-0.1-0.79","3","3","4","3","3","3","4","4","3","3","4","4","3","5","4","4","4","3","4","4","1","2","2","2","2","2","2","2","2","1","1","0","1","0","0","0","1","0","0","0","0","1","0","1","4","4","3","2","3","3","4","4","3","3","2","792475678095319042","李","438","","","","nonmatch","","","","","","","","","","","","","","key","j","16.663559322033798","768","428","j","true","nonmatch","img/trapezoid.png","六边","梯形","ALT1_2","prac_ALT1_2","","","","","","","","","","","",""
"null","<span style='color:GreenYellow; font-size: 70px;'>正确! </span>","null","html-keyboard-response","170","390446","0.0-7.0-1.0-1.1-0.1-1.79","3","3","4","3","3","3","4","4","3","3","4","4","3","5","4","4","4","3","4","4","1","2","2","2","2","2","2","2","2","1","1","0","1","0","0","0","1","0","0","0","0","1","0","1","4","4","3","2","3","3","4","4","3","3","2","792475678095319042","李","438","","","","","","","","","","","","","","","","","","","","","","","","","","","","","","feedback_test","","","","","","","","","","","",""
"1097","","f","psychophysics","171","392545","0.0-7.0-1.0-1.1-0.1-0.80","3","3","4","3","3","3","4","4","3","3","4","4","3","5","4","4","4","3","4","4","1","2","2","2","2","2","2","2","2","1","1","0","1","0","0","0","1","0","0","0","0","1","0","1","4","4","3","2","3","3","4","4","3","3","2","792475678095319042","李","438","","","","match","","","","","","","","","","","","","","key","f","16.662903225806545","768","428","j","false","nonmatch","img/hexagon.png","菱形","六边","ALT1_2","prac_ALT1_2","","","","","","","","","","","",""
"null","<span style='color:red; font-size: 70px;'>错误! </span>","null","html-keyboard-response","172","393047","0.0-7.0-1.0-1.1-0.1-1.80","3","3","4","3","3","3","4","4","3","3","4","4","3","5","4","4","4","3","4","4","1","2","2","2","2","2","2","2","2","1","1","0","1","0","0","0","1","0","0","0","0","1","0","1","4","4","3","2","3","3","4","4","3","3","2","792475678095319042","李","438","","","","","","","","","","","","","","","","","","","","","","","","","","","","","","feedback_test","","","","","","","","","","","",""
"783","","j","psychophysics","173","394831","0.0-7.0-1.0-1.1-0.1-0.81","3","3","4","3","3","3","4","4","3","3","4","4","3","5","4","4","4","3","4","4","1","2","2","2","2","2","2","2","2","1","1","0","1","0","0","0","1","0","0","0","0","1","0","1","4","4","3","2","3","3","4","4","3","3","2","792475678095319042","李","438","","","","nonmatch","","","","","","","","","","","","","","key","j","16.6609523809526","768","428","j","true","nonmatch","img/hexagon.png","梯形","六边","ALT1_2","prac_ALT1_2","","","","","","","","","","","",""
"null","<span style='color:GreenYellow; font-size: 70px;'>正确! </span>","null","html-keyboard-response","174","395338","0.0-7.0-1.0-1.1-0.1-1.81","3","3","4","3","3","3","4","4","3","3","4","4","3","5","4","4","4","3","4","4","1","2","2","2","2","2","2","2","2","1","1","0","1","0","0","0","1","0","0","0","0","1","0","1","4","4","3","2","3","3","4","4","3","3","2","792475678095319042","李","438","","","","","","","","","","","","","","","","","","","","","","","","","","","","","","feedback_test","","","","","","","","","","","",""
"672","","j","psychophysics","175","397012","0.0-7.0-1.0-1.1-0.1-0.82","3","3","4","3","3","3","4","4","3","3","4","4","3","5","4","4","4","3","4","4","1","2","2","2","2","2","2","2","2","1","1","0","1","0","0","0","1","0","0","0","0","1","0","1","4","4","3","2","3","3","4","4","3","3","2","792475678095319042","李","438","","","","nonmatch","","","","","","","","","","","","","","key","j","16.661616161616163","768","428","f","false","match","img/trapezoid.png","梯形","梯形","ALT1_2","prac_ALT1_2","","","","","","","","","","","",""
"null","<span style='color:red; font-size: 70px;'>错误! </span>","null","html-keyboard-response","176","397513","0.0-7.0-1.0-1.1-0.1-1.82","3","3","4","3","3","3","4","4","3","3","4","4","3","5","4","4","4","3","4","4","1","2","2","2","2","2","2","2","2","1","1","0","1","0","0","0","1","0","0","0","0","1","0","1","4","4","3","2","3","3","4","4","3","3","2","792475678095319042","李","438","","","","","","","","","","","","","","","","","","","","","","","","","","","","","","feedback_test","","","","","","","","","","","",""
"989","","f","psychophysics","177","399504","0.0-7.0-1.0-1.1-0.1-0.83","3","3","4","3","3","3","4","4","3","3","4","4","3","5","4","4","4","3","4","4","1","2","2","2","2","2","2","2","2","1","1","0","1","0","0","0","1","0","0","0","0","1","0","1","4","4","3","2","3","3","4","4","3","3","2","792475678095319042","李","438","","","","match","","","","","","","","","","","","","","key","f","16.661016949152543","768","428","f","true","match","img/trapezoid.png","梯形","梯形","ALT1_2","prac_ALT1_2","","","","","","","","","","","",""
"null","<span style='color:GreenYellow; font-size: 70px;'>正确! </span>","null","html-keyboard-response","178","400004","0.0-7.0-1.0-1.1-0.1-1.83","3","3","4","3","3","3","4","4","3","3","4","4","3","5","4","4","4","3","4","4","1","2","2","2","2","2","2","2","2","1","1","0","1","0","0","0","1","0","0","0","0","1","0","1","4","4","3","2","3","3","4","4","3","3","2","792475678095319042","李","438","","","","","","","","","","","","","","","","","","","","","","","","","","","","","","feedback_test","","","","","","","","","","","",""
"719","","j","psychophysics","179","401725","0.0-7.0-1.0-1.1-0.1-0.84","3","3","4","3","3","3","4","4","3","3","4","4","3","5","4","4","4","3","4","4","1","2","2","2","2","2","2","2","2","1","1","0","1","0","0","0","1","0","0","0","0","1","0","1","4","4","3","2","3","3","4","4","3","3","2","792475678095319042","李","438","","","","nonmatch","","","","","","","","","","","","","","key","j","16.666666666666668","768","428","j","true","nonmatch","img/circle.png","菱形","圆形","ALT1_2","prac_ALT1_2","","","","","","","","","","","",""
"null","<span style='color:GreenYellow; font-size: 70px;'>正确! </span>","null","html-keyboard-response","180","402226","0.0-7.0-1.0-1.1-0.1-1.84","3","3","4","3","3","3","4","4","3","3","4","4","3","5","4","4","4","3","4","4","1","2","2","2","2","2","2","2","2","1","1","0","1","0","0","0","1","0","0","0","0","1","0","1","4","4","3","2","3","3","4","4","3","3","2","792475678095319042","李","438","","","","","","","","","","","","","","","","","","","","","","","","","","","","","","feedback_test","","","","","","","","","","","",""
"993","","f","psychophysics","181","404221","0.0-7.0-1.0-1.1-0.1-0.85","3","3","4","3","3","3","4","4","3","3","4","4","3","5","4","4","4","3","4","4","1","2","2","2","2","2","2","2","2","1","1","0","1","0","0","0","1","0","0","0","0","1","0","1","4","4","3","2","3","3","4","4","3","3","2","792475678095319042","李","438","","","","match","","","","","","","","","","","","","","key","f","16.662711864406877","768","428","j","false","nonmatch","img/hexagon.png","圆形","六边","ALT1_2","prac_ALT1_2","","","","","","","","","","","",""
