"rt","stimulus","response","trial_type","trial_index","time_elapsed","internal_node_id","ses_1","ses_2","ses_3","ses_4","ses_5","ses_6","ses_7","ses_8","ses_9","ses_10","coreself_1","coreself_2","coreself_3","coreself_4","coreself_5","coreself_6","coreself_7","coreself_8","coreself_9","coreself_10","SGPS_1","SGPS_2","SGPS_3","SGPS_4","SGPS_5","SGPS_6","SGPS_7","SGPS_8","SGPS_9","NPI1","NPI2","NPI3","NPI4","NPI5","NPI6","NPI7","NPI8","NPI9","NPI10","NPI11","NPI12","NPI13","NPI14","NPI15","hsns_1","hsns_2","hsns_3","hsns_4","hsns_5","trap1","hsns_6","hsns_7","hsns_8","hsns_9","hsns_10","subj_idx","friend_name","ParticipantID","value","success","user_agent","responses","item_order","radio_event_ids","radio_event_times","key_event_times","mouse_event_times","straightlining","zigzagging","honeypot","timeout","failed_images","failed_audio","failed_video","view_history","response_type","key_press","avg_frame_time","center_x","center_y","correct_response","correct","identity","Image","word","condition","task_id","screen_id","time_stamp","version_attrib","version_target","IAT","RT","varname","summary","version_attrib2","version_target2","question_order","correct_answer","trap1_item"
"11344","
   <p><div style = ""color: white;font-size:25px;"">您好，欢迎参加本次实验。</div> </p>
   <p><div style = ""color: white;font-size:25px;"">为充分保障您的权利，请确保您已经知晓并同意《参与实验同意书》以及《数据公开知情同意书》。</div></p>
   <p><div style = ""color: white;font-size:25px;"">如果您未见过上述内容，请咨询实验员。</div></p>
   <p><div style = ""color: white;font-size:25px;"">如果您选择继续实验，则表示您已经清楚两份知情同意书的内容并同意。</div></p>
   <p><div style = ""color: pink;font-size:30px;"">请确保您记得day0的实验编号，您将在本次实验输入该编号，若您忘记，请咨询实验员后作答。</div></p>
   <p><div style = ""color: lightblue;font-size:25px;"">请您尽可能认真地作答，我们将依据您在各问卷和按键任务中的作答质量发放报酬。</div></p>
   <p> <div style = ""color: green;font-size:25px;""><按空格键至下页></div> </p>
   "," ","html-keyboard-response","0","11350","0.0-0.0","3","4","4","3","3","4","3","2","3","4","3","2","2","2","3","3","4","5","4","4","4","4","5","4","4","3","4","4","5","1","1","0","0","1","1","1","1","0","0","0","0","0","0","1","4","5","4","3","4","4","3","5","4","2","3","796468599748435970","李","529","","","","","","","","","","","","","","","","","","","","","","","","","","","","","","","","","","","","","","","","","",""
"","","","call-function","1","11352","0.0-1.0-0.0","3","4","4","3","3","4","3","2","3","4","3","2","2","2","3","3","4","5","4","4","4","4","5","4","4","3","4","4","5","1","1","0","0","1","1","1","1","0","0","0","0","0","0","1","4","5","4","3","4","4","3","5","4","2","3","796468599748435970","李","529","","","","","","","","","","","","","","","","","","","","","","","","","","","","","","","","","","","","","","","","","",""
"40108","","{""friend_name"":""李"",""ParticipantID"":""529""}","survey-html-form","2","51461","0.0-1.0-1.0","3","4","4","3","3","4","3","2","3","4","3","2","2","2","3","3","4","5","4","4","4","4","5","4","4","3","4","4","5","1","1","0","0","1","1","1","1","0","0","0","0","0","0","1","4","5","4","3","4","4","3","5","4","2","3","796468599748435970","李","529","","","","","","","","","","","","","","","","","","","","","","","","","","","","","","","","","","","","","","","","","",""
"","","","fullscreen","3","53078","0.0-2.0","3","4","4","3","3","4","3","2","3","4","3","2","2","2","3","3","4","5","4","4","4","4","5","4","4","3","4","4","5","1","1","0","0","1","1","1","1","0","0","0","0","0","0","1","4","5","4","3","4","4","3","5","4","2","3","796468599748435970","李","529","","true","{}","","","","","","","","","","","","","","","","","","","","","","","","","","","","","","","","","","","","","","",""
"24070.5","","{""Q01"":""3"",""Q02"":""4"",""Q03"":""4"",""Q04"":""3"",""Q05"":""3"",""Q06"":""4"",""Q07"":""3"",""Q08"":""2"",""Q09"":""3"",""Q10"":""4""}","survey-template","4","77151","0.0-3.0","3","4","4","3","3","4","3","2","3","4","3","2","2","2","3","3","4","5","4","4","4","4","5","4","4","3","4","4","5","1","1","0","0","1","1","1","1","0","0","0","0","0","0","1","4","5","4","3","4","4","3","5","4","2","3","796468599748435970","李","529","","","","{""Q01"":""3"",""Q02"":""4"",""Q03"":""4"",""Q04"":""3"",""Q05"":""3"",""Q06"":""4"",""Q07"":""3"",""Q08"":""2"",""Q09"":""3"",""Q10"":""4""}","[0,1,2,3,4,5,6,7,8,9]","[""Q01"",""Q02"",""Q03"",""Q05"",""Q06"",""Q06"",""Q07"",""Q08"",""Q09"",""Q10"",""Q04""]","[3819.89999999851,4805.19999999553,6508,9436.29999999702,10804.19999999553,12174.29999999702,13500.39999999851,15076.59999999404,18329.19999999553,19340.69999999553,23029]","[]","[3819.89999999851,4805.19999999553,6508,7998.0999999940395,9436.29999999702,10804.19999999553,12174.29999999702,13500.39999999851,15076.59999999404,18329.19999999553,19340.69999999553,20052.5,23029,24068.5]","0.4","0.6666666666666666","0","","","","","","","","","","","","","","","","","","","","","","","","","","","","","",""
"25677.19999999553","","{""Q01"":""3"",""Q02"":""2"",""Q03"":""2"",""Q04"":""2"",""Q05"":""3"",""Q06"":""3"",""Q07"":""4"",""Q08"":""5"",""Q09"":""4"",""Q10"":""4""}","survey-template","5","102839","0.0-4.0","3","4","4","3","3","4","3","2","3","4","3","2","2","2","3","3","4","5","4","4","4","4","5","4","4","3","4","4","5","1","1","0","0","1","1","1","1","0","0","0","0","0","0","1","4","5","4","3","4","4","3","5","4","2","3","796468599748435970","李","529","","","","{""Q01"":""3"",""Q02"":""2"",""Q03"":""2"",""Q04"":""2"",""Q05"":""3"",""Q06"":""3"",""Q07"":""4"",""Q08"":""5"",""Q09"":""4"",""Q10"":""4""}","[0,1,2,3,4,5,6,7,8,9]","[""Q01"",""Q02"",""Q03"",""Q04"",""Q05"",""Q06"",""Q07"",""Q08"",""Q09"",""Q10""]","[3010.1999999955297,8194.29999999702,10563.29999999702,12338.89999999851,15198,16362.59999999404,19083.19999999553,20588.29999999702,22594.19999999553,24814.79999999702]","[]","[3010.1999999955297,8194.29999999702,10563.29999999702,12338.89999999851,15198,16362.59999999404,17883.19999999553,18323,19083.19999999553,20588.29999999702,22594.19999999553,24814.79999999702,25674.89999999851]","0.3","0.4444444444444444","0","","","","","","","","","","","","","","","","","","","","","","","","","","","","","",""
"","","","preload","6","103172","0.0-5.0","3","4","4","3","3","4","3","2","3","4","3","2","2","2","3","3","4","5","4","4","4","4","5","4","4","3","4","4","5","1","1","0","0","1","1","1","1","0","0","0","0","0","0","1","4","5","4","3","4","4","3","5","4","2","3","796468599748435970","李","529","","true","","","","","","","","","","","false","[]","[]","[]","","","","","","","","","","","","","","","","","","","","","","","","","",""
"8703","","","instructions","7","111875","0.0-6.0","3","4","4","3","3","4","3","2","3","4","3","2","2","2","3","3","4","5","4","4","4","4","5","4","4","3","4","4","5","1","1","0","0","1","1","1","1","0","0","0","0","0","0","1","4","5","4","3","4","4","3","5","4","2","3","796468599748435970","李","529","","","","","","","","","","","","","","","","","[{""page_index"":0,""viewing_time"":8703}]","","","","","","","","","","","","","","","","","","","","","","","","",""
"30814","","","instructions","8","142692","0.0-7.0-0.0-0.0","3","4","4","3","3","4","3","2","3","4","3","2","2","2","3","3","4","5","4","4","4","4","5","4","4","3","4","4","5","1","1","0","0","1","1","1","1","0","0","0","0","0","0","1","4","5","4","3","4","4","3","5","4","2","3","796468599748435970","李","529","","","","","","","","","","","","","","","","","[{""page_index"":0,""viewing_time"":25909},{""page_index"":1,""viewing_time"":2736},{""page_index"":2,""viewing_time"":2169}]","","","","","","","","","","","","","","","","","","","","","","","","",""
"768","","f","psychophysics","9","144468","0.0-7.0-0.0-1.0-0.0-0.0","3","4","4","3","3","4","3","2","3","4","3","2","2","2","3","3","4","5","4","4","4","4","5","4","4","3","4","4","5","1","1","0","0","1","1","1","1","0","0","0","0","0","0","1","4","5","4","3","4","4","3","5","4","2","3","796468599748435970","李","529","","","","nonmatch","","","","","","","","","","","","","","key","f","16.670754716981186","768","428","j","false","match","img/circle.png","圆形","圆形","ALT1_1","prac_ALT1_1","","","","","","","","","","","",""
"null","<span style='color:red; font-size: 70px;'>错误! </span>","null","html-keyboard-response","10","144978","0.0-7.0-0.0-1.0-0.0-1.0","3","4","4","3","3","4","3","2","3","4","3","2","2","2","3","3","4","5","4","4","4","4","5","4","4","3","4","4","5","1","1","0","0","1","1","1","1","0","0","0","0","0","0","1","4","5","4","3","4","4","3","5","4","2","3","796468599748435970","李","529","","","","","","","","","","","","","","","","","","","","","","","","","","","","","","feedback_test","","","","","","","","","","","",""
"612","","j","psychophysics","11","146593","0.0-7.0-0.0-1.0-0.0-0.1","3","4","4","3","3","4","3","2","3","4","3","2","2","2","3","3","4","5","4","4","4","4","5","4","4","3","4","4","5","1","1","0","0","1","1","1","1","0","0","0","0","0","0","1","4","5","4","3","4","4","3","5","4","2","3","796468599748435970","李","529","","","","match","","","","","","","","","","","","","","key","j","16.674736842105325","768","428","j","true","match","img/diamond.png","菱形","菱形","ALT1_1","prac_ALT1_1","","","","","","","","","","","",""
"null","<span style='color:GreenYellow; font-size: 70px;'>正确! </span>","null","html-keyboard-response","12","147095","0.0-7.0-0.0-1.0-0.0-1.1","3","4","4","3","3","4","3","2","3","4","3","2","2","2","3","3","4","5","4","4","4","4","5","4","4","3","4","4","5","1","1","0","0","1","1","1","1","0","0","0","0","0","0","1","4","5","4","3","4","4","3","5","4","2","3","796468599748435970","李","529","","","","","","","","","","","","","","","","","","","","","","","","","","","","","","feedback_test","","","","","","","","","","","",""
"470","","j","psychophysics","13","148566","0.0-7.0-0.0-1.0-0.0-0.2","3","4","4","3","3","4","3","2","3","4","3","2","2","2","3","3","4","5","4","4","4","4","5","4","4","3","4","4","5","1","1","0","0","1","1","1","1","0","0","0","0","0","0","1","4","5","4","3","4","4","3","5","4","2","3","796468599748435970","李","529","","","","match","","","","","","","","","","","","","","key","j","16.67356321839087","768","428","j","true","match","img/diamond.png","菱形","菱形","ALT1_1","prac_ALT1_1","","","","","","","","","","","",""
"null","<span style='color:GreenYellow; font-size: 70px;'>正确! </span>","null","html-keyboard-response","14","149067","0.0-7.0-0.0-1.0-0.0-1.2","3","4","4","3","3","4","3","2","3","4","3","2","2","2","3","3","4","5","4","4","4","4","5","4","4","3","4","4","5","1","1","0","0","1","1","1","1","0","0","0","0","0","0","1","4","5","4","3","4","4","3","5","4","2","3","796468599748435970","李","529","","","","","","","","","","","","","","","","","","","","","","","","","","","","","","feedback_test","","","","","","","","","","","",""
"492","","j","psychophysics","15","150561","0.0-7.0-0.0-1.0-0.0-0.3","3","4","4","3","3","4","3","2","3","4","3","2","2","2","3","3","4","5","4","4","4","4","5","4","4","3","4","4","5","1","1","0","0","1","1","1","1","0","0","0","0","0","0","1","4","5","4","3","4","4","3","5","4","2","3","796468599748435970","李","529","","","","match","","","","","","","","","","","","","","key","j","16.673863636363503","768","428","f","false","nonmatch","img/diamond.png","梯形","菱形","ALT1_1","prac_ALT1_1","","","","","","","","","","","",""
"null","<span style='color:red; font-size: 70px;'>错误! </span>","null","html-keyboard-response","16","151063","0.0-7.0-0.0-1.0-0.0-1.3","3","4","4","3","3","4","3","2","3","4","3","2","2","2","3","3","4","5","4","4","4","4","5","4","4","3","4","4","5","1","1","0","0","1","1","1","1","0","0","0","0","0","0","1","4","5","4","3","4","4","3","5","4","2","3","796468599748435970","李","529","","","","","","","","","","","","","","","","","","","","","","","","","","","","","","feedback_test","","","","","","","","","","","",""
"801","","f","psychophysics","17","152866","0.0-7.0-0.0-1.0-0.0-0.4","3","4","4","3","3","4","3","2","3","4","3","2","2","2","3","3","4","5","4","4","4","4","5","4","4","3","4","4","5","1","1","0","0","1","1","1","1","0","0","0","0","0","0","1","4","5","4","3","4","4","3","5","4","2","3","796468599748435970","李","529","","","","nonmatch","","","","","","","","","","","","","","key","f","16.671962616822377","768","428","f","true","nonmatch","img/pentagon.png","菱形","五边","ALT1_1","prac_ALT1_1","","","","","","","","","","","",""
"null","<span style='color:GreenYellow; font-size: 70px;'>正确! </span>","null","html-keyboard-response","18","153370","0.0-7.0-0.0-1.0-0.0-1.4","3","4","4","3","3","4","3","2","3","4","3","2","2","2","3","3","4","5","4","4","4","4","5","4","4","3","4","4","5","1","1","0","0","1","1","1","1","0","0","0","0","0","0","1","4","5","4","3","4","4","3","5","4","2","3","796468599748435970","李","529","","","","","","","","","","","","","","","","","","","","","","","","","","","","","","feedback_test","","","","","","","","","","","",""
"515","","j","psychophysics","19","154887","0.0-7.0-0.0-1.0-0.0-0.5","3","4","4","3","3","4","3","2","3","4","3","2","2","2","3","3","4","5","4","4","4","4","5","4","4","3","4","4","5","1","1","0","0","1","1","1","1","0","0","0","0","0","0","1","4","5","4","3","4","4","3","5","4","2","3","796468599748435970","李","529","","","","match","","","","","","","","","","","","","","key","j","16.671111111111045","768","428","j","true","match","img/trapezoid.png","梯形","梯形","ALT1_1","prac_ALT1_1","","","","","","","","","","","",""
"null","<span style='color:GreenYellow; font-size: 70px;'>正确! </span>","null","html-keyboard-response","20","155388","0.0-7.0-0.0-1.0-0.0-1.5","3","4","4","3","3","4","3","2","3","4","3","2","2","2","3","3","4","5","4","4","4","4","5","4","4","3","4","4","5","1","1","0","0","1","1","1","1","0","0","0","0","0","0","1","4","5","4","3","4","4","3","5","4","2","3","796468599748435970","李","529","","","","","","","","","","","","","","","","","","","","","","","","","","","","","","feedback_test","","","","","","","","","","","",""
"746","","j","psychophysics","21","157137","0.0-7.0-0.0-1.0-0.0-0.6","3","4","4","3","3","4","3","2","3","4","3","2","2","2","3","3","4","5","4","4","4","4","5","4","4","3","4","4","5","1","1","0","0","1","1","1","1","0","0","0","0","0","0","1","4","5","4","3","4","4","3","5","4","2","3","796468599748435970","李","529","","","","match","","","","","","","","","","","","","","key","j","16.672115384615328","768","428","f","false","nonmatch","img/diamond.png","五边","菱形","ALT1_1","prac_ALT1_1","","","","","","","","","","","",""
"null","<span style='color:red; font-size: 70px;'>错误! </span>","null","html-keyboard-response","22","157639","0.0-7.0-0.0-1.0-0.0-1.6","3","4","4","3","3","4","3","2","3","4","3","2","2","2","3","3","4","5","4","4","4","4","5","4","4","3","4","4","5","1","1","0","0","1","1","1","1","0","0","0","0","0","0","1","4","5","4","3","4","4","3","5","4","2","3","796468599748435970","李","529","","","","","","","","","","","","","","","","","","","","","","","","","","","","","","feedback_test","","","","","","","","","","","",""
"549","","j","psychophysics","23","159190","0.0-7.0-0.0-1.0-0.0-0.7","3","4","4","3","3","4","3","2","3","4","3","2","2","2","3","3","4","5","4","4","4","4","5","4","4","3","4","4","5","1","1","0","0","1","1","1","1","0","0","0","0","0","0","1","4","5","4","3","4","4","3","5","4","2","3","796468599748435970","李","529","","","","match","","","","","","","","","","","","","","key","j","16.676086956521864","768","428","j","true","match","img/trapezoid.png","梯形","梯形","ALT1_1","prac_ALT1_1","","","","","","","","","","","",""
"null","<span style='color:GreenYellow; font-size: 70px;'>正确! </span>","null","html-keyboard-response","24","159703","0.0-7.0-0.0-1.0-0.0-1.7","3","4","4","3","3","4","3","2","3","4","3","2","2","2","3","3","4","5","4","4","4","4","5","4","4","3","4","4","5","1","1","0","0","1","1","1","1","0","0","0","0","0","0","1","4","5","4","3","4","4","3","5","4","2","3","796468599748435970","李","529","","","","","","","","","","","","","","","","","","","","","","","","","","","","","","feedback_test","","","","","","","","","","","",""
"719","","f","psychophysics","25","161425","0.0-7.0-0.0-1.0-0.0-0.8","3","4","4","3","3","4","3","2","3","4","3","2","2","2","3","3","4","5","4","4","4","4","5","4","4","3","4","4","5","1","1","0","0","1","1","1","1","0","0","0","0","0","0","1","4","5","4","3","4","4","3","5","4","2","3","796468599748435970","李","529","","","","nonmatch","","","","","","","","","","","","","","key","f","16.677450980391928","768","428","f","true","nonmatch","img/circle.png","梯形","圆形","ALT1_1","prac_ALT1_1","","","","","","","","","","","",""
"null","<span style='color:GreenYellow; font-size: 70px;'>正确! </span>","null","html-keyboard-response","26","161927","0.0-7.0-0.0-1.0-0.0-1.8","3","4","4","3","3","4","3","2","3","4","3","2","2","2","3","3","4","5","4","4","4","4","5","4","4","3","4","4","5","1","1","0","0","1","1","1","1","0","0","0","0","0","0","1","4","5","4","3","4","4","3","5","4","2","3","796468599748435970","李","529","","","","","","","","","","","","","","","","","","","","","","","","","","","","","","feedback_test","","","","","","","","","","","",""
"717","","f","psychophysics","27","163647","0.0-7.0-0.0-1.0-0.0-0.9","3","4","4","3","3","4","3","2","3","4","3","2","2","2","3","3","4","5","4","4","4","4","5","4","4","3","4","4","5","1","1","0","0","1","1","1","1","0","0","0","0","0","0","1","4","5","4","3","4","4","3","5","4","2","3","796468599748435970","李","529","","","","nonmatch","","","","","","","","","","","","","","key","f","16.67156862745098","768","428","f","true","nonmatch","img/pentagon.png","梯形","五边","ALT1_1","prac_ALT1_1","","","","","","","","","","","",""
"null","<span style='color:GreenYellow; font-size: 70px;'>正确! </span>","null","html-keyboard-response","28","164150","0.0-7.0-0.0-1.0-0.0-1.9","3","4","4","3","3","4","3","2","3","4","3","2","2","2","3","3","4","5","4","4","4","4","5","4","4","3","4","4","5","1","1","0","0","1","1","1","1","0","0","0","0","0","0","1","4","5","4","3","4","4","3","5","4","2","3","796468599748435970","李","529","","","","","","","","","","","","","","","","","","","","","","","","","","","","","","feedback_test","","","","","","","","","","","",""
"602","","f","psychophysics","29","165755","0.0-7.0-0.0-1.0-0.0-0.10","3","4","4","3","3","4","3","2","3","4","3","2","2","2","3","3","4","5","4","4","4","4","5","4","4","3","4","4","5","1","1","0","0","1","1","1","1","0","0","0","0","0","0","1","4","5","4","3","4","4","3","5","4","2","3","796468599748435970","李","529","","","","nonmatch","","","","","","","","","","","","","","key","f","16.671578947368605","768","428","f","true","nonmatch","img/circle.png","菱形","圆形","ALT1_1","prac_ALT1_1","","","","","","","","","","","",""
"null","<span style='color:GreenYellow; font-size: 70px;'>正确! </span>","null","html-keyboard-response","30","166256","0.0-7.0-0.0-1.0-0.0-1.10","3","4","4","3","3","4","3","2","3","4","3","2","2","2","3","3","4","5","4","4","4","4","5","4","4","3","4","4","5","1","1","0","0","1","1","1","1","0","0","0","0","0","0","1","4","5","4","3","4","4","3","5","4","2","3","796468599748435970","李","529","","","","","","","","","","","","","","","","","","","","","","","","","","","","","","feedback_test","","","","","","","","","","","",""
"737","","f","psychophysics","31","167997","0.0-7.0-0.0-1.0-0.0-0.11","3","4","4","3","3","4","3","2","3","4","3","2","2","2","3","3","4","5","4","4","4","4","5","4","4","3","4","4","5","1","1","0","0","1","1","1","1","0","0","0","0","0","0","1","4","5","4","3","4","4","3","5","4","2","3","796468599748435970","李","529","","","","nonmatch","","","","","","","","","","","","","","key","f","16.672815533980753","768","428","f","true","nonmatch","img/trapezoid.png","菱形","梯形","ALT1_1","prac_ALT1_1","","","","","","","","","","","",""
"null","<span style='color:GreenYellow; font-size: 70px;'>正确! </span>","null","html-keyboard-response","32","168500","0.0-7.0-0.0-1.0-0.0-1.11","3","4","4","3","3","4","3","2","3","4","3","2","2","2","3","3","4","5","4","4","4","4","5","4","4","3","4","4","5","1","1","0","0","1","1","1","1","0","0","0","0","0","0","1","4","5","4","3","4","4","3","5","4","2","3","796468599748435970","李","529","","","","","","","","","","","","","","","","","","","","","","","","","","","","","","feedback_test","","","","","","","","","","","",""
"543","","f","psychophysics","33","170044","0.0-7.0-0.0-1.0-0.0-0.12","3","4","4","3","3","4","3","2","3","4","3","2","2","2","3","3","4","5","4","4","4","4","5","4","4","3","4","4","5","1","1","0","0","1","1","1","1","0","0","0","0","0","0","1","4","5","4","3","4","4","3","5","4","2","3","796468599748435970","李","529","","","","nonmatch","","","","","","","","","","","","","","key","f","16.66813186813206","768","428","f","true","nonmatch","img/circle.png","五边","圆形","ALT1_1","prac_ALT1_1","","","","","","","","","","","",""
"null","<span style='color:GreenYellow; font-size: 70px;'>正确! </span>","null","html-keyboard-response","34","170547","0.0-7.0-0.0-1.0-0.0-1.12","3","4","4","3","3","4","3","2","3","4","3","2","2","2","3","3","4","5","4","4","4","4","5","4","4","3","4","4","5","1","1","0","0","1","1","1","1","0","0","0","0","0","0","1","4","5","4","3","4","4","3","5","4","2","3","796468599748435970","李","529","","","","","","","","","","","","","","","","","","","","","","","","","","","","","","feedback_test","","","","","","","","","","","",""
"593","","f","psychophysics","35","172143","0.0-7.0-0.0-1.0-0.0-0.13","3","4","4","3","3","4","3","2","3","4","3","2","2","2","3","3","4","5","4","4","4","4","5","4","4","3","4","4","5","1","1","0","0","1","1","1","1","0","0","0","0","0","0","1","4","5","4","3","4","4","3","5","4","2","3","796468599748435970","李","529","","","","nonmatch","","","","","","","","","","","","","","key","f","16.671578947368605","768","428","f","true","nonmatch","img/trapezoid.png","五边","梯形","ALT1_1","prac_ALT1_1","","","","","","","","","","","",""
"null","<span style='color:GreenYellow; font-size: 70px;'>正确! </span>","null","html-keyboard-response","36","172644","0.0-7.0-0.0-1.0-0.0-1.13","3","4","4","3","3","4","3","2","3","4","3","2","2","2","3","3","4","5","4","4","4","4","5","4","4","3","4","4","5","1","1","0","0","1","1","1","1","0","0","0","0","0","0","1","4","5","4","3","4","4","3","5","4","2","3","796468599748435970","李","529","","","","","","","","","","","","","","","","","","","","","","","","","","","","","","feedback_test","","","","","","","","","","","",""
"456","","f","psychophysics","37","174104","0.0-7.0-0.0-1.0-0.0-0.14","3","4","4","3","3","4","3","2","3","4","3","2","2","2","3","3","4","5","4","4","4","4","5","4","4","3","4","4","5","1","1","0","0","1","1","1","1","0","0","0","0","0","0","1","4","5","4","3","4","4","3","5","4","2","3","796468599748435970","李","529","","","","nonmatch","","","","","","","","","","","","","","key","f","16.671264367816025","768","428","j","false","match","img/circle.png","圆形","圆形","ALT1_1","prac_ALT1_1","","","","","","","","","","","",""
"null","<span style='color:red; font-size: 70px;'>错误! </span>","null","html-keyboard-response","38","174606","0.0-7.0-0.0-1.0-0.0-1.14","3","4","4","3","3","4","3","2","3","4","3","2","2","2","3","3","4","5","4","4","4","4","5","4","4","3","4","4","5","1","1","0","0","1","1","1","1","0","0","0","0","0","0","1","4","5","4","3","4","4","3","5","4","2","3","796468599748435970","李","529","","","","","","","","","","","","","","","","","","","","","","","","","","","","","","feedback_test","","","","","","","","","","","",""
"560","","j","psychophysics","39","176167","0.0-7.0-0.0-1.0-0.0-0.15","3","4","4","3","3","4","3","2","3","4","3","2","2","2","3","3","4","5","4","4","4","4","5","4","4","3","4","4","5","1","1","0","0","1","1","1","1","0","0","0","0","0","0","1","4","5","4","3","4","4","3","5","4","2","3","796468599748435970","李","529","","","","match","","","","","","","","","","","","","","key","j","16.670652173912853","768","428","j","true","match","img/circle.png","圆形","圆形","ALT1_1","prac_ALT1_1","","","","","","","","","","","",""
"null","<span style='color:GreenYellow; font-size: 70px;'>正确! </span>","null","html-keyboard-response","40","176668","0.0-7.0-0.0-1.0-0.0-1.15","3","4","4","3","3","4","3","2","3","4","3","2","2","2","3","3","4","5","4","4","4","4","5","4","4","3","4","4","5","1","1","0","0","1","1","1","1","0","0","0","0","0","0","1","4","5","4","3","4","4","3","5","4","2","3","796468599748435970","李","529","","","","","","","","","","","","","","","","","","","","","","","","","","","","","","feedback_test","","","","","","","","","","","",""
"790","","j","psychophysics","41","178460","0.0-7.0-0.0-1.0-0.0-0.16","3","4","4","3","3","4","3","2","3","4","3","2","2","2","3","3","4","5","4","4","4","4","5","4","4","3","4","4","5","1","1","0","0","1","1","1","1","0","0","0","0","0","0","1","4","5","4","3","4","4","3","5","4","2","3","796468599748435970","李","529","","","","match","","","","","","","","","","","","","","key","j","16.662264150943507","768","428","j","true","match","img/pentagon.png","五边","五边","ALT1_1","prac_ALT1_1","","","","","","","","","","","",""
"null","<span style='color:GreenYellow; font-size: 70px;'>正确! </span>","null","html-keyboard-response","42","178961","0.0-7.0-0.0-1.0-0.0-1.16","3","4","4","3","3","4","3","2","3","4","3","2","2","2","3","3","4","5","4","4","4","4","5","4","4","3","4","4","5","1","1","0","0","1","1","1","1","0","0","0","0","0","0","1","4","5","4","3","4","4","3","5","4","2","3","796468599748435970","李","529","","","","","","","","","","","","","","","","","","","","","","","","","","","","","","feedback_test","","","","","","","","","","","",""
"506","","j","psychophysics","43","180467","0.0-7.0-0.0-1.0-0.0-0.17","3","4","4","3","3","4","3","2","3","4","3","2","2","2","3","3","4","5","4","4","4","4","5","4","4","3","4","4","5","1","1","0","0","1","1","1","1","0","0","0","0","0","0","1","4","5","4","3","4","4","3","5","4","2","3","796468599748435970","李","529","","","","match","","","","","","","","","","","","","","key","j","16.670786516854065","768","428","j","true","match","img/pentagon.png","五边","五边","ALT1_1","prac_ALT1_1","","","","","","","","","","","",""
"null","<span style='color:GreenYellow; font-size: 70px;'>正确! </span>","null","html-keyboard-response","44","180969","0.0-7.0-0.0-1.0-0.0-1.17","3","4","4","3","3","4","3","2","3","4","3","2","2","2","3","3","4","5","4","4","4","4","5","4","4","3","4","4","5","1","1","0","0","1","1","1","1","0","0","0","0","0","0","1","4","5","4","3","4","4","3","5","4","2","3","796468599748435970","李","529","","","","","","","","","","","","","","","","","","","","","","","","","","","","","","feedback_test","","","","","","","","","","","",""
"518","","j","psychophysics","45","182489","0.0-7.0-0.0-1.0-0.0-0.18","3","4","4","3","3","4","3","2","3","4","3","2","2","2","3","3","4","5","4","4","4","4","5","4","4","3","4","4","5","1","1","0","0","1","1","1","1","0","0","0","0","0","0","1","4","5","4","3","4","4","3","5","4","2","3","796468599748435970","李","529","","","","match","","","","","","","","","","","","","","key","j","16.667777777777843","768","428","j","true","match","img/trapezoid.png","梯形","梯形","ALT1_1","prac_ALT1_1","","","","","","","","","","","",""
"null","<span style='color:GreenYellow; font-size: 70px;'>正确! </span>","null","html-keyboard-response","46","182991","0.0-7.0-0.0-1.0-0.0-1.18","3","4","4","3","3","4","3","2","3","4","3","2","2","2","3","3","4","5","4","4","4","4","5","4","4","3","4","4","5","1","1","0","0","1","1","1","1","0","0","0","0","0","0","1","4","5","4","3","4","4","3","5","4","2","3","796468599748435970","李","529","","","","","","","","","","","","","","","","","","","","","","","","","","","","","","feedback_test","","","","","","","","","","","",""
"444","","f","psychophysics","47","184437","0.0-7.0-0.0-1.0-0.0-0.19","3","4","4","3","3","4","3","2","3","4","3","2","2","2","3","3","4","5","4","4","4","4","5","4","4","3","4","4","5","1","1","0","0","1","1","1","1","0","0","0","0","0","0","1","4","5","4","3","4","4","3","5","4","2","3","796468599748435970","李","529","","","","nonmatch","","","","","","","","","","","","","","key","f","16.677647058823254","768","428","f","true","nonmatch","img/pentagon.png","圆形","五边","ALT1_1","prac_ALT1_1","","","","","","","","","","","",""
"null","<span style='color:GreenYellow; font-size: 70px;'>正确! </span>","null","html-keyboard-response","48","184938","0.0-7.0-0.0-1.0-0.0-1.19","3","4","4","3","3","4","3","2","3","4","3","2","2","2","3","3","4","5","4","4","4","4","5","4","4","3","4","4","5","1","1","0","0","1","1","1","1","0","0","0","0","0","0","1","4","5","4","3","4","4","3","5","4","2","3","796468599748435970","李","529","","","","","","","","","","","","","","","","","","","","","","","","","","","","","","feedback_test","","","","","","","","","","","",""
"643","","f","psychophysics","49","186584","0.0-7.0-0.0-1.0-0.0-0.20","3","4","4","3","3","4","3","2","3","4","3","2","2","2","3","3","4","5","4","4","4","4","5","4","4","3","4","4","5","1","1","0","0","1","1","1","1","0","0","0","0","0","0","1","4","5","4","3","4","4","3","5","4","2","3","796468599748435970","李","529","","","","nonmatch","","","","","","","","","","","","","","key","f","16.676288659793574","768","428","f","true","nonmatch","img/diamond.png","圆形","菱形","ALT1_1","prac_ALT1_1","","","","","","","","","","","",""
"null","<span style='color:GreenYellow; font-size: 70px;'>正确! </span>","null","html-keyboard-response","50","187086","0.0-7.0-0.0-1.0-0.0-1.20","3","4","4","3","3","4","3","2","3","4","3","2","2","2","3","3","4","5","4","4","4","4","5","4","4","3","4","4","5","1","1","0","0","1","1","1","1","0","0","0","0","0","0","1","4","5","4","3","4","4","3","5","4","2","3","796468599748435970","李","529","","","","","","","","","","","","","","","","","","","","","","","","","","","","","","feedback_test","","","","","","","","","","","",""
"822","","f","psychophysics","51","188912","0.0-7.0-0.0-1.0-0.0-0.21","3","4","4","3","3","4","3","2","3","4","3","2","2","2","3","3","4","5","4","4","4","4","5","4","4","3","4","4","5","1","1","0","0","1","1","1","1","0","0","0","0","0","0","1","4","5","4","3","4","4","3","5","4","2","3","796468599748435970","李","529","","","","nonmatch","","","","","","","","","","","","","","key","f","16.672477064220075","768","428","f","true","nonmatch","img/trapezoid.png","圆形","梯形","ALT1_1","prac_ALT1_1","","","","","","","","","","","",""
"null","<span style='color:GreenYellow; font-size: 70px;'>正确! </span>","null","html-keyboard-response","52","189414","0.0-7.0-0.0-1.0-0.0-1.21","3","4","4","3","3","4","3","2","3","4","3","2","2","2","3","3","4","5","4","4","4","4","5","4","4","3","4","4","5","1","1","0","0","1","1","1","1","0","0","0","0","0","0","1","4","5","4","3","4","4","3","5","4","2","3","796468599748435970","李","529","","","","","","","","","","","","","","","","","","","","","","","","","","","","","","feedback_test","","","","","","","","","","","",""
"564","","j","psychophysics","53","190980","0.0-7.0-0.0-1.0-0.0-0.22","3","4","4","3","3","4","3","2","3","4","3","2","2","2","3","3","4","5","4","4","4","4","5","4","4","3","4","4","5","1","1","0","0","1","1","1","1","0","0","0","0","0","0","1","4","5","4","3","4","4","3","5","4","2","3","796468599748435970","李","529","","","","match","","","","","","","","","","","","","","key","j","16.67096774193542","768","428","j","true","match","img/pentagon.png","五边","五边","ALT1_1","prac_ALT1_1","","","","","","","","","","","",""
"null","<span style='color:GreenYellow; font-size: 70px;'>正确! </span>","null","html-keyboard-response","54","191481","0.0-7.0-0.0-1.0-0.0-1.22","3","4","4","3","3","4","3","2","3","4","3","2","2","2","3","3","4","5","4","4","4","4","5","4","4","3","4","4","5","1","1","0","0","1","1","1","1","0","0","0","0","0","0","1","4","5","4","3","4","4","3","5","4","2","3","796468599748435970","李","529","","","","","","","","","","","","","","","","","","","","","","","","","","","","","","feedback_test","","","","","","","","","","","",""
"641","","j","psychophysics","55","193125","0.0-7.0-0.0-1.0-0.0-0.23","3","4","4","3","3","4","3","2","3","4","3","2","2","2","3","3","4","5","4","4","4","4","5","4","4","3","4","4","5","1","1","0","0","1","1","1","1","0","0","0","0","0","0","1","4","5","4","3","4","4","3","5","4","2","3","796468599748435970","李","529","","","","match","","","","","","","","","","","","","","key","j","16.670408163265424","768","428","j","true","match","img/diamond.png","菱形","菱形","ALT1_1","prac_ALT1_1","","","","","","","","","","","",""
"null","<span style='color:GreenYellow; font-size: 70px;'>正确! </span>","null","html-keyboard-response","56","193627","0.0-7.0-0.0-1.0-0.0-1.23","3","4","4","3","3","4","3","2","3","4","3","2","2","2","3","3","4","5","4","4","4","4","5","4","4","3","4","4","5","1","1","0","0","1","1","1","1","0","0","0","0","0","0","1","4","5","4","3","4","4","3","5","4","2","3","796468599748435970","李","529","","","","","","","","","","","","","","","","","","","","","","","","","","","","","","feedback_test","","","","","","","","","","","",""
"605","","j","psychophysics","57","195235","0.0-7.0-0.0-1.0-0.0-0.24","3","4","4","3","3","4","3","2","3","4","3","2","2","2","3","3","4","5","4","4","4","4","5","4","4","3","4","4","5","1","1","0","0","1","1","1","1","0","0","0","0","0","0","1","4","5","4","3","4","4","3","5","4","2","3","796468599748435970","李","529","","","","match","","","","","","","","","","","","","","key","j","16.673684210526314","768","428","j","true","match","img/circle.png","圆形","圆形","ALT1_1","prac_ALT1_1","","","","","","","","","","","",""
"null","<span style='color:GreenYellow; font-size: 70px;'>正确! </span>","null","html-keyboard-response","58","195737","0.0-7.0-0.0-1.0-0.0-1.24","3","4","4","3","3","4","3","2","3","4","3","2","2","2","3","3","4","5","4","4","4","4","5","4","4","3","4","4","5","1","1","0","0","1","1","1","1","0","0","0","0","0","0","1","4","5","4","3","4","4","3","5","4","2","3","796468599748435970","李","529","","","","","","","","","","","","","","","","","","","","","","","","","","","","","","feedback_test","","","","","","","","","","","",""
"546","","j","psychophysics","59","197285","0.0-7.0-0.0-1.0-0.0-0.25","3","4","4","3","3","4","3","2","3","4","3","2","2","2","3","3","4","5","4","4","4","4","5","4","4","3","4","4","5","1","1","0","0","1","1","1","1","0","0","0","0","0","0","1","4","5","4","3","4","4","3","5","4","2","3","796468599748435970","李","529","","","","match","","","","","","","","","","","","","","key","j","16.67282608695646","768","428","j","true","match","img/trapezoid.png","梯形","梯形","ALT1_1","prac_ALT1_1","","","","","","","","","","","",""
"null","<span style='color:GreenYellow; font-size: 70px;'>正确! </span>","null","html-keyboard-response","60","197787","0.0-7.0-0.0-1.0-0.0-1.25","3","4","4","3","3","4","3","2","3","4","3","2","2","2","3","3","4","5","4","4","4","4","5","4","4","3","4","4","5","1","1","0","0","1","1","1","1","0","0","0","0","0","0","1","4","5","4","3","4","4","3","5","4","2","3","796468599748435970","李","529","","","","","","","","","","","","","","","","","","","","","","","","","","","","","","feedback_test","","","","","","","","","","","",""
"600","","f","psychophysics","61","199390","0.0-7.0-0.0-1.0-0.0-0.26","3","4","4","3","3","4","3","2","3","4","3","2","2","2","3","3","4","5","4","4","4","4","5","4","4","3","4","4","5","1","1","0","0","1","1","1","1","0","0","0","0","0","0","1","4","5","4","3","4","4","3","5","4","2","3","796468599748435970","李","529","","","","nonmatch","","","","","","","","","","","","","","key","f","16.670526315789598","768","428","f","true","nonmatch","img/circle.png","五边","圆形","ALT1_1","prac_ALT1_1","","","","","","","","","","","",""
"null","<span style='color:GreenYellow; font-size: 70px;'>正确! </span>","null","html-keyboard-response","62","199892","0.0-7.0-0.0-1.0-0.0-1.26","3","4","4","3","3","4","3","2","3","4","3","2","2","2","3","3","4","5","4","4","4","4","5","4","4","3","4","4","5","1","1","0","0","1","1","1","1","0","0","0","0","0","0","1","4","5","4","3","4","4","3","5","4","2","3","796468599748435970","李","529","","","","","","","","","","","","","","","","","","","","","","","","","","","","","","feedback_test","","","","","","","","","","","",""
"585","","f","psychophysics","63","201480","0.0-7.0-0.0-1.0-0.0-0.27","3","4","4","3","3","4","3","2","3","4","3","2","2","2","3","3","4","5","4","4","4","4","5","4","4","3","4","4","5","1","1","0","0","1","1","1","1","0","0","0","0","0","0","1","4","5","4","3","4","4","3","5","4","2","3","796468599748435970","李","529","","","","nonmatch","","","","","","","","","","","","","","key","f","16.671276595744434","768","428","j","false","match","img/circle.png","圆形","圆形","ALT1_1","prac_ALT1_1","","","","","","","","","","","",""
"null","<span style='color:red; font-size: 70px;'>错误! </span>","null","html-keyboard-response","64","201981","0.0-7.0-0.0-1.0-0.0-1.27","3","4","4","3","3","4","3","2","3","4","3","2","2","2","3","3","4","5","4","4","4","4","5","4","4","3","4","4","5","1","1","0","0","1","1","1","1","0","0","0","0","0","0","1","4","5","4","3","4","4","3","5","4","2","3","796468599748435970","李","529","","","","","","","","","","","","","","","","","","","","","","","","","","","","","","feedback_test","","","","","","","","","","","",""
"546","","j","psychophysics","65","203529","0.0-7.0-0.0-1.0-0.0-0.28","3","4","4","3","3","4","3","2","3","4","3","2","2","2","3","3","4","5","4","4","4","4","5","4","4","3","4","4","5","1","1","0","0","1","1","1","1","0","0","0","0","0","0","1","4","5","4","3","4","4","3","5","4","2","3","796468599748435970","李","529","","","","match","","","","","","","","","","","","","","key","j","16.670652173912853","768","428","j","true","match","img/trapezoid.png","梯形","梯形","ALT1_1","prac_ALT1_1","","","","","","","","","","","",""
"null","<span style='color:GreenYellow; font-size: 70px;'>正确! </span>","null","html-keyboard-response","66","204031","0.0-7.0-0.0-1.0-0.0-1.28","3","4","4","3","3","4","3","2","3","4","3","2","2","2","3","3","4","5","4","4","4","4","5","4","4","3","4","4","5","1","1","0","0","1","1","1","1","0","0","0","0","0","0","1","4","5","4","3","4","4","3","5","4","2","3","796468599748435970","李","529","","","","","","","","","","","","","","","","","","","","","","","","","","","","","","feedback_test","","","","","","","","","","","",""
"539","","j","psychophysics","67","205574","0.0-7.0-0.0-1.0-0.0-0.29","3","4","4","3","3","4","3","2","3","4","3","2","2","2","3","3","4","5","4","4","4","4","5","4","4","3","4","4","5","1","1","0","0","1","1","1","1","0","0","0","0","0","0","1","4","5","4","3","4","4","3","5","4","2","3","796468599748435970","李","529","","","","match","","","","","","","","","","","","","","key","j","16.671428571428635","768","428","j","true","match","img/diamond.png","菱形","菱形","ALT1_1","prac_ALT1_1","","","","","","","","","","","",""
"null","<span style='color:GreenYellow; font-size: 70px;'>正确! </span>","null","html-keyboard-response","68","206075","0.0-7.0-0.0-1.0-0.0-1.29","3","4","4","3","3","4","3","2","3","4","3","2","2","2","3","3","4","5","4","4","4","4","5","4","4","3","4","4","5","1","1","0","0","1","1","1","1","0","0","0","0","0","0","1","4","5","4","3","4","4","3","5","4","2","3","796468599748435970","李","529","","","","","","","","","","","","","","","","","","","","","","","","","","","","","","feedback_test","","","","","","","","","","","",""
"759","","f","psychophysics","69","207837","0.0-7.0-0.0-1.0-0.0-0.30","3","4","4","3","3","4","3","2","3","4","3","2","2","2","3","3","4","5","4","4","4","4","5","4","4","3","4","4","5","1","1","0","0","1","1","1","1","0","0","0","0","0","0","1","4","5","4","3","4","4","3","5","4","2","3","796468599748435970","李","529","","","","nonmatch","","","","","","","","","","","","","","key","f","16.66346153846154","768","428","f","true","nonmatch","img/diamond.png","五边","菱形","ALT1_1","prac_ALT1_1","","","","","","","","","","","",""
"null","<span style='color:GreenYellow; font-size: 70px;'>正确! </span>","null","html-keyboard-response","70","208339","0.0-7.0-0.0-1.0-0.0-1.30","3","4","4","3","3","4","3","2","3","4","3","2","2","2","3","3","4","5","4","4","4","4","5","4","4","3","4","4","5","1","1","0","0","1","1","1","1","0","0","0","0","0","0","1","4","5","4","3","4","4","3","5","4","2","3","796468599748435970","李","529","","","","","","","","","","","","","","","","","","","","","","","","","","","","","","feedback_test","","","","","","","","","","","",""
"543","","j","psychophysics","71","209883","0.0-7.0-0.0-1.0-0.0-0.31","3","4","4","3","3","4","3","2","3","4","3","2","2","2","3","3","4","5","4","4","4","4","5","4","4","3","4","4","5","1","1","0","0","1","1","1","1","0","0","0","0","0","0","1","4","5","4","3","4","4","3","5","4","2","3","796468599748435970","李","529","","","","match","","","","","","","","","","","","","","key","j","16.67282608695646","768","428","j","true","match","img/pentagon.png","五边","五边","ALT1_1","prac_ALT1_1","","","","","","","","","","","",""
"null","<span style='color:GreenYellow; font-size: 70px;'>正确! </span>","null","html-keyboard-response","72","210383","0.0-7.0-0.0-1.0-0.0-1.31","3","4","4","3","3","4","3","2","3","4","3","2","2","2","3","3","4","5","4","4","4","4","5","4","4","3","4","4","5","1","1","0","0","1","1","1","1","0","0","0","0","0","0","1","4","5","4","3","4","4","3","5","4","2","3","796468599748435970","李","529","","","","","","","","","","","","","","","","","","","","","","","","","","","","","","feedback_test","","","","","","","","","","","",""
"537","","f","psychophysics","73","211923","0.0-7.0-0.0-1.0-0.0-0.32","3","4","4","3","3","4","3","2","3","4","3","2","2","2","3","3","4","5","4","4","4","4","5","4","4","3","4","4","5","1","1","0","0","1","1","1","1","0","0","0","0","0","0","1","4","5","4","3","4","4","3","5","4","2","3","796468599748435970","李","529","","","","nonmatch","","","","","","","","","","","","","","key","f","16.676923076923142","768","428","f","true","nonmatch","img/diamond.png","圆形","菱形","ALT1_1","prac_ALT1_1","","","","","","","","","","","",""
"null","<span style='color:GreenYellow; font-size: 70px;'>正确! </span>","null","html-keyboard-response","74","212425","0.0-7.0-0.0-1.0-0.0-1.32","3","4","4","3","3","4","3","2","3","4","3","2","2","2","3","3","4","5","4","4","4","4","5","4","4","3","4","4","5","1","1","0","0","1","1","1","1","0","0","0","0","0","0","1","4","5","4","3","4","4","3","5","4","2","3","796468599748435970","李","529","","","","","","","","","","","","","","","","","","","","","","","","","","","","","","feedback_test","","","","","","","","","","","",""
"728","","f","psychophysics","75","214155","0.0-7.0-0.0-1.0-0.0-0.33","3","4","4","3","3","4","3","2","3","4","3","2","2","2","3","3","4","5","4","4","4","4","5","4","4","3","4","4","5","1","1","0","0","1","1","1","1","0","0","0","0","0","0","1","4","5","4","3","4","4","3","5","4","2","3","796468599748435970","李","529","","","","nonmatch","","","","","","","","","","","","","","key","f","16.67087378640754","768","428","j","false","match","img/circle.png","圆形","圆形","ALT1_1","prac_ALT1_1","","","","","","","","","","","",""
"null","<span style='color:red; font-size: 70px;'>错误! </span>","null","html-keyboard-response","76","214657","0.0-7.0-0.0-1.0-0.0-1.33","3","4","4","3","3","4","3","2","3","4","3","2","2","2","3","3","4","5","4","4","4","4","5","4","4","3","4","4","5","1","1","0","0","1","1","1","1","0","0","0","0","0","0","1","4","5","4","3","4","4","3","5","4","2","3","796468599748435970","李","529","","","","","","","","","","","","","","","","","","","","","","","","","","","","","","feedback_test","","","","","","","","","","","",""
"706","","f","psychophysics","77","216365","0.0-7.0-0.0-1.0-0.0-0.34","3","4","4","3","3","4","3","2","3","4","3","2","2","2","3","3","4","5","4","4","4","4","5","4","4","3","4","4","5","1","1","0","0","1","1","1","1","0","0","0","0","0","0","1","4","5","4","3","4","4","3","5","4","2","3","796468599748435970","李","529","","","","nonmatch","","","","","","","","","","","","","","key","f","16.6725490196079","768","428","f","true","nonmatch","img/diamond.png","梯形","菱形","ALT1_1","prac_ALT1_1","","","","","","","","","","","",""
"null","<span style='color:GreenYellow; font-size: 70px;'>正确! </span>","null","html-keyboard-response","78","216867","0.0-7.0-0.0-1.0-0.0-1.34","3","4","4","3","3","4","3","2","3","4","3","2","2","2","3","3","4","5","4","4","4","4","5","4","4","3","4","4","5","1","1","0","0","1","1","1","1","0","0","0","0","0","0","1","4","5","4","3","4","4","3","5","4","2","3","796468599748435970","李","529","","","","","","","","","","","","","","","","","","","","","","","","","","","","","","feedback_test","","","","","","","","","","","",""
"735","","j","psychophysics","79","218605","0.0-7.0-0.0-1.0-0.0-0.35","3","4","4","3","3","4","3","2","3","4","3","2","2","2","3","3","4","5","4","4","4","4","5","4","4","3","4","4","5","1","1","0","0","1","1","1","1","0","0","0","0","0","0","1","4","5","4","3","4","4","3","5","4","2","3","796468599748435970","李","529","","","","match","","","","","","","","","","","","","","key","j","16.67184466019429","768","428","f","false","nonmatch","img/pentagon.png","圆形","五边","ALT1_1","prac_ALT1_1","","","","","","","","","","","",""
"null","<span style='color:red; font-size: 70px;'>错误! </span>","null","html-keyboard-response","80","219106","0.0-7.0-0.0-1.0-0.0-1.35","3","4","4","3","3","4","3","2","3","4","3","2","2","2","3","3","4","5","4","4","4","4","5","4","4","3","4","4","5","1","1","0","0","1","1","1","1","0","0","0","0","0","0","1","4","5","4","3","4","4","3","5","4","2","3","796468599748435970","李","529","","","","","","","","","","","","","","","","","","","","","","","","","","","","","","feedback_test","","","","","","","","","","","",""
"784","","f","psychophysics","81","220893","0.0-7.0-0.0-1.0-0.0-0.36","3","4","4","3","3","4","3","2","3","4","3","2","2","2","3","3","4","5","4","4","4","4","5","4","4","3","4","4","5","1","1","0","0","1","1","1","1","0","0","0","0","0","0","1","4","5","4","3","4","4","3","5","4","2","3","796468599748435970","李","529","","","","nonmatch","","","","","","","","","","","","","","key","f","16.670754716981186","768","428","f","true","nonmatch","img/trapezoid.png","菱形","梯形","ALT1_1","prac_ALT1_1","","","","","","","","","","","",""
"null","<span style='color:GreenYellow; font-size: 70px;'>正确! </span>","null","html-keyboard-response","82","221394","0.0-7.0-0.0-1.0-0.0-1.36","3","4","4","3","3","4","3","2","3","4","3","2","2","2","3","3","4","5","4","4","4","4","5","4","4","3","4","4","5","1","1","0","0","1","1","1","1","0","0","0","0","0","0","1","4","5","4","3","4","4","3","5","4","2","3","796468599748435970","李","529","","","","","","","","","","","","","","","","","","","","","","","","","","","","","","feedback_test","","","","","","","","","","","",""
"670","","f","psychophysics","83","223065","0.0-7.0-0.0-1.0-0.0-0.37","3","4","4","3","3","4","3","2","3","4","3","2","2","2","3","3","4","5","4","4","4","4","5","4","4","3","4","4","5","1","1","0","0","1","1","1","1","0","0","0","0","0","0","1","4","5","4","3","4","4","3","5","4","2","3","796468599748435970","李","529","","","","nonmatch","","","","","","","","","","","","","","key","f","16.671717171717173","768","428","f","true","nonmatch","img/trapezoid.png","圆形","梯形","ALT1_1","prac_ALT1_1","","","","","","","","","","","",""
"null","<span style='color:GreenYellow; font-size: 70px;'>正确! </span>","null","html-keyboard-response","84","223568","0.0-7.0-0.0-1.0-0.0-1.37","3","4","4","3","3","4","3","2","3","4","3","2","2","2","3","3","4","5","4","4","4","4","5","4","4","3","4","4","5","1","1","0","0","1","1","1","1","0","0","0","0","0","0","1","4","5","4","3","4","4","3","5","4","2","3","796468599748435970","李","529","","","","","","","","","","","","","","","","","","","","","","","","","","","","","","feedback_test","","","","","","","","","","","",""
"654","","f","psychophysics","85","225223","0.0-7.0-0.0-1.0-0.0-0.38","3","4","4","3","3","4","3","2","3","4","3","2","2","2","3","3","4","5","4","4","4","4","5","4","4","3","4","4","5","1","1","0","0","1","1","1","1","0","0","0","0","0","0","1","4","5","4","3","4","4","3","5","4","2","3","796468599748435970","李","529","","","","nonmatch","","","","","","","","","","","","","","key","f","16.670408163265424","768","428","f","true","nonmatch","img/trapezoid.png","五边","梯形","ALT1_1","prac_ALT1_1","","","","","","","","","","","",""
"null","<span style='color:GreenYellow; font-size: 70px;'>正确! </span>","null","html-keyboard-response","86","225725","0.0-7.0-0.0-1.0-0.0-1.38","3","4","4","3","3","4","3","2","3","4","3","2","2","2","3","3","4","5","4","4","4","4","5","4","4","3","4","4","5","1","1","0","0","1","1","1","1","0","0","0","0","0","0","1","4","5","4","3","4","4","3","5","4","2","3","796468599748435970","李","529","","","","","","","","","","","","","","","","","","","","","","","","","","","","","","feedback_test","","","","","","","","","","","",""
"723","","f","psychophysics","87","227450","0.0-7.0-0.0-1.0-0.0-0.39","3","4","4","3","3","4","3","2","3","4","3","2","2","2","3","3","4","5","4","4","4","4","5","4","4","3","4","4","5","1","1","0","0","1","1","1","1","0","0","0","0","0","0","1","4","5","4","3","4","4","3","5","4","2","3","796468599748435970","李","529","","","","nonmatch","","","","","","","","","","","","","","key","f","16.67087378640754","768","428","f","true","nonmatch","img/circle.png","菱形","圆形","ALT1_1","prac_ALT1_1","","","","","","","","","","","",""
"null","<span style='color:GreenYellow; font-size: 70px;'>正确! </span>","null","html-keyboard-response","88","227952","0.0-7.0-0.0-1.0-0.0-1.39","3","4","4","3","3","4","3","2","3","4","3","2","2","2","3","3","4","5","4","4","4","4","5","4","4","3","4","4","5","1","1","0","0","1","1","1","1","0","0","0","0","0","0","1","4","5","4","3","4","4","3","5","4","2","3","796468599748435970","李","529","","","","","","","","","","","","","","","","","","","","","","","","","","","","","","feedback_test","","","","","","","","","","","",""
"643","","j","psychophysics","89","229596","0.0-7.0-0.0-1.0-0.0-0.40","3","4","4","3","3","4","3","2","3","4","3","2","2","2","3","3","4","5","4","4","4","4","5","4","4","3","4","4","5","1","1","0","0","1","1","1","1","0","0","0","0","0","0","1","4","5","4","3","4","4","3","5","4","2","3","796468599748435970","李","529","","","","match","","","","","","","","","","","","","","key","j","16.671134020618616","768","428","j","true","match","img/pentagon.png","五边","五边","ALT1_1","prac_ALT1_1","","","","","","","","","","","",""
"null","<span style='color:GreenYellow; font-size: 70px;'>正确! </span>","null","html-keyboard-response","90","230097","0.0-7.0-0.0-1.0-0.0-1.40","3","4","4","3","3","4","3","2","3","4","3","2","2","2","3","3","4","5","4","4","4","4","5","4","4","3","4","4","5","1","1","0","0","1","1","1","1","0","0","0","0","0","0","1","4","5","4","3","4","4","3","5","4","2","3","796468599748435970","李","529","","","","","","","","","","","","","","","","","","","","","","","","","","","","","","feedback_test","","","","","","","","","","","",""
"525","","j","psychophysics","91","231625","0.0-7.0-0.0-1.0-0.0-0.41","3","4","4","3","3","4","3","2","3","4","3","2","2","2","3","3","4","5","4","4","4","4","5","4","4","3","4","4","5","1","1","0","0","1","1","1","1","0","0","0","0","0","0","1","4","5","4","3","4","4","3","5","4","2","3","796468599748435970","李","529","","","","match","","","","","","","","","","","","","","key","j","16.6725274725276","768","428","j","true","match","img/trapezoid.png","梯形","梯形","ALT1_1","prac_ALT1_1","","","","","","","","","","","",""
"null","<span style='color:GreenYellow; font-size: 70px;'>正确! </span>","null","html-keyboard-response","92","232128","0.0-7.0-0.0-1.0-0.0-1.41","3","4","4","3","3","4","3","2","3","4","3","2","2","2","3","3","4","5","4","4","4","4","5","4","4","3","4","4","5","1","1","0","0","1","1","1","1","0","0","0","0","0","0","1","4","5","4","3","4","4","3","5","4","2","3","796468599748435970","李","529","","","","","","","","","","","","","","","","","","","","","","","","","","","","","","feedback_test","","","","","","","","","","","",""
"569","","j","psychophysics","93","233699","0.0-7.0-0.0-1.0-0.0-0.42","3","4","4","3","3","4","3","2","3","4","3","2","2","2","3","3","4","5","4","4","4","4","5","4","4","3","4","4","5","1","1","0","0","1","1","1","1","0","0","0","0","0","0","1","4","5","4","3","4","4","3","5","4","2","3","796468599748435970","李","529","","","","match","","","","","","","","","","","","","","key","j","16.669892473118153","768","428","j","true","match","img/diamond.png","菱形","菱形","ALT1_1","prac_ALT1_1","","","","","","","","","","","",""
"null","<span style='color:GreenYellow; font-size: 70px;'>正确! </span>","null","html-keyboard-response","94","234200","0.0-7.0-0.0-1.0-0.0-1.42","3","4","4","3","3","4","3","2","3","4","3","2","2","2","3","3","4","5","4","4","4","4","5","4","4","3","4","4","5","1","1","0","0","1","1","1","1","0","0","0","0","0","0","1","4","5","4","3","4","4","3","5","4","2","3","796468599748435970","李","529","","","","","","","","","","","","","","","","","","","","","","","","","","","","","","feedback_test","","","","","","","","","","","",""
"707","","f","psychophysics","95","235907","0.0-7.0-0.0-1.0-0.0-0.43","3","4","4","3","3","4","3","2","3","4","3","2","2","2","3","3","4","5","4","4","4","4","5","4","4","3","4","4","5","1","1","0","0","1","1","1","1","0","0","0","0","0","0","1","4","5","4","3","4","4","3","5","4","2","3","796468599748435970","李","529","","","","nonmatch","","","","","","","","","","","","","","key","f","16.661386138613747","768","428","f","true","nonmatch","img/circle.png","梯形","圆形","ALT1_1","prac_ALT1_1","","","","","","","","","","","",""
"null","<span style='color:GreenYellow; font-size: 70px;'>正确! </span>","null","html-keyboard-response","96","236410","0.0-7.0-0.0-1.0-0.0-1.43","3","4","4","3","3","4","3","2","3","4","3","2","2","2","3","3","4","5","4","4","4","4","5","4","4","3","4","4","5","1","1","0","0","1","1","1","1","0","0","0","0","0","0","1","4","5","4","3","4","4","3","5","4","2","3","796468599748435970","李","529","","","","","","","","","","","","","","","","","","","","","","","","","","","","","","feedback_test","","","","","","","","","","","",""
"819","","f","psychophysics","97","238232","0.0-7.0-0.0-1.0-0.0-0.44","3","4","4","3","3","4","3","2","3","4","3","2","2","2","3","3","4","5","4","4","4","4","5","4","4","3","4","4","5","1","1","0","0","1","1","1","1","0","0","0","0","0","0","1","4","5","4","3","4","4","3","5","4","2","3","796468599748435970","李","529","","","","nonmatch","","","","","","","","","","","","","","key","f","16.673148148148258","768","428","f","true","nonmatch","img/pentagon.png","梯形","五边","ALT1_1","prac_ALT1_1","","","","","","","","","","","",""
"null","<span style='color:GreenYellow; font-size: 70px;'>正确! </span>","null","html-keyboard-response","98","238733","0.0-7.0-0.0-1.0-0.0-1.44","3","4","4","3","3","4","3","2","3","4","3","2","2","2","3","3","4","5","4","4","4","4","5","4","4","3","4","4","5","1","1","0","0","1","1","1","1","0","0","0","0","0","0","1","4","5","4","3","4","4","3","5","4","2","3","796468599748435970","李","529","","","","","","","","","","","","","","","","","","","","","","","","","","","","","","feedback_test","","","","","","","","","","","",""
"750","","j","psychophysics","99","240484","0.0-7.0-0.0-1.0-0.0-0.45","3","4","4","3","3","4","3","2","3","4","3","2","2","2","3","3","4","5","4","4","4","4","5","4","4","3","4","4","5","1","1","0","0","1","1","1","1","0","0","0","0","0","0","1","4","5","4","3","4","4","3","5","4","2","3","796468599748435970","李","529","","","","match","","","","","","","","","","","","","","key","j","16.671153846153736","768","428","j","true","match","img/diamond.png","菱形","菱形","ALT1_1","prac_ALT1_1","","","","","","","","","","","",""
"null","<span style='color:GreenYellow; font-size: 70px;'>正确! </span>","null","html-keyboard-response","100","240985","0.0-7.0-0.0-1.0-0.0-1.45","3","4","4","3","3","4","3","2","3","4","3","2","2","2","3","3","4","5","4","4","4","4","5","4","4","3","4","4","5","1","1","0","0","1","1","1","1","0","0","0","0","0","0","1","4","5","4","3","4","4","3","5","4","2","3","796468599748435970","李","529","","","","","","","","","","","","","","","","","","","","","","","","","","","","","","feedback_test","","","","","","","","","","","",""
"590","","j","psychophysics","101","242577","0.0-7.0-0.0-1.0-0.0-0.46","3","4","4","3","3","4","3","2","3","4","3","2","2","2","3","3","4","5","4","4","4","4","5","4","4","3","4","4","5","1","1","0","0","1","1","1","1","0","0","0","0","0","0","1","4","5","4","3","4","4","3","5","4","2","3","796468599748435970","李","529","","","","match","","","","","","","","","","","","","","key","j","16.667021276595868","768","428","j","true","match","img/pentagon.png","五边","五边","ALT1_1","prac_ALT1_1","","","","","","","","","","","",""
"null","<span style='color:GreenYellow; font-size: 70px;'>正确! </span>","null","html-keyboard-response","102","243078","0.0-7.0-0.0-1.0-0.0-1.46","3","4","4","3","3","4","3","2","3","4","3","2","2","2","3","3","4","5","4","4","4","4","5","4","4","3","4","4","5","1","1","0","0","1","1","1","1","0","0","0","0","0","0","1","4","5","4","3","4","4","3","5","4","2","3","796468599748435970","李","529","","","","","","","","","","","","","","","","","","","","","","","","","","","","","","feedback_test","","","","","","","","","","","",""
"534","","j","psychophysics","103","244616","0.0-7.0-0.0-1.0-0.0-0.47","3","4","4","3","3","4","3","2","3","4","3","2","2","2","3","3","4","5","4","4","4","4","5","4","4","3","4","4","5","1","1","0","0","1","1","1","1","0","0","0","0","0","0","1","4","5","4","3","4","4","3","5","4","2","3","796468599748435970","李","529","","","","match","","","","","","","","","","","","","","key","j","16.676923076923142","768","428","f","false","nonmatch","img/pentagon.png","菱形","五边","ALT1_1","prac_ALT1_1","","","","","","","","","","","",""
"null","<span style='color:red; font-size: 70px;'>错误! </span>","null","html-keyboard-response","104","245125","0.0-7.0-0.0-1.0-0.0-1.47","3","4","4","3","3","4","3","2","3","4","3","2","2","2","3","3","4","5","4","4","4","4","5","4","4","3","4","4","5","1","1","0","0","1","1","1","1","0","0","0","0","0","0","1","4","5","4","3","4","4","3","5","4","2","3","796468599748435970","李","529","","","","","","","","","","","","","","","","","","","","","","","","","","","","","","feedback_test","","","","","","","","","","","",""
"86872","<style>.context{color:white; font-size: 35px; line-height:40px}</style>                            <div><p class='context'>您正确回答了83% 的试次。</p><p class='context'>您的平均反应时为629毫秒。</p><p class='context'>恭喜您完成练习。按空格键进入正式实验。</p><p class='footer' style='font-size: 35px; line-height:40px;'>请在进入正式实验之前将您的<span style='color: lightgreen;'>食指</span>放在电脑键盘的相应键位上进行按键。</p>"," ","html-keyboard-response","105","332001","0.0-7.0-0.0-2.0","3","4","4","3","3","4","3","2","3","4","3","2","2","2","3","3","4","5","4","4","4","4","5","4","4","3","4","4","5","1","1","0","0","1","1","1","1","0","0","0","0","0","0","1","4","5","4","3","4","4","3","5","4","2","3","796468599748435970","李","529","","","","","","","","","","","","","","","","","","","","","","","","","","","","","","","","","","","","","","","","","",""
"2353","
    <p style='color: white; font-size: 22px'>请您将手指放在按键上，准备进入正式的匹配任务。</p>
    <p> <div style = ""color: green""><按空格键进入下一阶段的匹配任务></div></p>
    "," ","html-keyboard-response","106","334356","0.0-7.0-0.0-3.0","3","4","4","3","3","4","3","2","3","4","3","2","2","2","3","3","4","5","4","4","4","4","5","4","4","3","4","4","5","1","1","0","0","1","1","1","1","0","0","0","0","0","0","1","4","5","4","3","4","4","3","5","4","2","3","796468599748435970","李","529","","","","","","","","","","","","","","","","","","","","","","","","","","","","","","","","","","","","","","","","","",""
"640","","j","psychophysics","107","335999","0.0-7.0-0.0-4.0-0.0-0.0","3","4","4","3","3","4","3","2","3","4","3","2","2","2","3","3","4","5","4","4","4","4","5","4","4","3","4","4","5","1","1","0","0","1","1","1","1","0","0","0","0","0","0","1","4","5","4","3","4","4","3","5","4","2","3","796468599748435970","李","529","","","","match","","","","","","","","","","","","","","key","j","16.671428571428454","768","428","j","true","match","img/circle.png","圆形","圆形","ALT1","formal_ALT1_1","","","","","","","","","","","",""
"null","<span style='color:GreenYellow; font-size: 70px;'>正确! </span>","null","html-keyboard-response","108","336501","0.0-7.0-0.0-4.0-0.0-1.0","3","4","4","3","3","4","3","2","3","4","3","2","2","2","3","3","4","5","4","4","4","4","5","4","4","3","4","4","5","1","1","0","0","1","1","1","1","0","0","0","0","0","0","1","4","5","4","3","4","4","3","5","4","2","3","796468599748435970","李","529","","","","","","","","","","","","","","","","","","","","","","","","","","","","","","feedback_test","","","","","","","","","","","",""
"793","","f","psychophysics","109","338297","0.0-7.0-0.0-4.0-0.0-0.1","3","4","4","3","3","4","3","2","3","4","3","2","2","2","3","3","4","5","4","4","4","4","5","4","4","3","4","4","5","1","1","0","0","1","1","1","1","0","0","0","0","0","0","1","4","5","4","3","4","4","3","5","4","2","3","796468599748435970","李","529","","","","nonmatch","","","","","","","","","","","","","","key","f","16.671028037383067","768","428","f","true","nonmatch","img/circle.png","五边","圆形","ALT1","formal_ALT1_1","","","","","","","","","","","",""
"null","<span style='color:GreenYellow; font-size: 70px;'>正确! </span>","null","html-keyboard-response","110","338797","0.0-7.0-0.0-4.0-0.0-1.1","3","4","4","3","3","4","3","2","3","4","3","2","2","2","3","3","4","5","4","4","4","4","5","4","4","3","4","4","5","1","1","0","0","1","1","1","1","0","0","0","0","0","0","1","4","5","4","3","4","4","3","5","4","2","3","796468599748435970","李","529","","","","","","","","","","","","","","","","","","","","","","","","","","","","","","feedback_test","","","","","","","","","","","",""
"487","","j","psychophysics","111","340287","0.0-7.0-0.0-4.0-0.0-0.2","3","4","4","3","3","4","3","2","3","4","3","2","2","2","3","3","4","5","4","4","4","4","5","4","4","3","4","4","5","1","1","0","0","1","1","1","1","0","0","0","0","0","0","1","4","5","4","3","4","4","3","5","4","2","3","796468599748435970","李","529","","","","match","","","","","","","","","","","","","","key","j","16.677272727273124","768","428","j","true","match","img/trapezoid.png","梯形","梯形","ALT1","formal_ALT1_1","","","","","","","","","","","",""
"null","<span style='color:GreenYellow; font-size: 70px;'>正确! </span>","null","html-keyboard-response","112","340789","0.0-7.0-0.0-4.0-0.0-1.2","3","4","4","3","3","4","3","2","3","4","3","2","2","2","3","3","4","5","4","4","4","4","5","4","4","3","4","4","5","1","1","0","0","1","1","1","1","0","0","0","0","0","0","1","4","5","4","3","4","4","3","5","4","2","3","796468599748435970","李","529","","","","","","","","","","","","","","","","","","","","","","","","","","","","","","feedback_test","","","","","","","","","","","",""
"581","","f","psychophysics","113","342372","0.0-7.0-0.0-4.0-0.0-0.3","3","4","4","3","3","4","3","2","3","4","3","2","2","2","3","3","4","5","4","4","4","4","5","4","4","3","4","4","5","1","1","0","0","1","1","1","1","0","0","0","0","0","0","1","4","5","4","3","4","4","3","5","4","2","3","796468599748435970","李","529","","","","nonmatch","","","","","","","","","","","","","","key","f","16.673404255319024","768","428","f","true","nonmatch","img/pentagon.png","圆形","五边","ALT1","formal_ALT1_1","","","","","","","","","","","",""
"null","<span style='color:GreenYellow; font-size: 70px;'>正确! </span>","null","html-keyboard-response","114","342882","0.0-7.0-0.0-4.0-0.0-1.3","3","4","4","3","3","4","3","2","3","4","3","2","2","2","3","3","4","5","4","4","4","4","5","4","4","3","4","4","5","1","1","0","0","1","1","1","1","0","0","0","0","0","0","1","4","5","4","3","4","4","3","5","4","2","3","796468599748435970","李","529","","","","","","","","","","","","","","","","","","","","","","","","","","","","","","feedback_test","","","","","","","","","","","",""
"588","","j","psychophysics","115","344473","0.0-7.0-0.0-4.0-0.0-0.4","3","4","4","3","3","4","3","2","3","4","3","2","2","2","3","3","4","5","4","4","4","4","5","4","4","3","4","4","5","1","1","0","0","1","1","1","1","0","0","0","0","0","0","1","4","5","4","3","4","4","3","5","4","2","3","796468599748435970","李","529","","","","match","","","","","","","","","","","","","","key","j","16.671276595745052","768","428","j","true","match","img/pentagon.png","五边","五边","ALT1","formal_ALT1_1","","","","","","","","","","","",""
"null","<span style='color:GreenYellow; font-size: 70px;'>正确! </span>","null","html-keyboard-response","116","344974","0.0-7.0-0.0-4.0-0.0-1.4","3","4","4","3","3","4","3","2","3","4","3","2","2","2","3","3","4","5","4","4","4","4","5","4","4","3","4","4","5","1","1","0","0","1","1","1","1","0","0","0","0","0","0","1","4","5","4","3","4","4","3","5","4","2","3","796468599748435970","李","529","","","","","","","","","","","","","","","","","","","","","","","","","","","","","","feedback_test","","","","","","","","","","","",""
"642","","f","psychophysics","117","346618","0.0-7.0-0.0-4.0-0.0-0.5","3","4","4","3","3","4","3","2","3","4","3","2","2","2","3","3","4","5","4","4","4","4","5","4","4","3","4","4","5","1","1","0","0","1","1","1","1","0","0","0","0","0","0","1","4","5","4","3","4","4","3","5","4","2","3","796468599748435970","李","529","","","","nonmatch","","","","","","","","","","","","","","key","f","16.67244897959148","768","428","f","true","nonmatch","img/trapezoid.png","五边","梯形","ALT1","formal_ALT1_1","","","","","","","","","","","",""
"null","<span style='color:GreenYellow; font-size: 70px;'>正确! </span>","null","html-keyboard-response","118","347129","0.0-7.0-0.0-4.0-0.0-1.5","3","4","4","3","3","4","3","2","3","4","3","2","2","2","3","3","4","5","4","4","4","4","5","4","4","3","4","4","5","1","1","0","0","1","1","1","1","0","0","0","0","0","0","1","4","5","4","3","4","4","3","5","4","2","3","796468599748435970","李","529","","","","","","","","","","","","","","","","","","","","","","","","","","","","","","feedback_test","","","","","","","","","","","",""
"614","","f","psychophysics","119","348744","0.0-7.0-0.0-4.0-0.0-0.6","3","4","4","3","3","4","3","2","3","4","3","2","2","2","3","3","4","5","4","4","4","4","5","4","4","3","4","4","5","1","1","0","0","1","1","1","1","0","0","0","0","0","0","1","4","5","4","3","4","4","3","5","4","2","3","796468599748435970","李","529","","","","nonmatch","","","","","","","","","","","","","","key","f","16.66875000000012","768","428","f","true","nonmatch","img/circle.png","梯形","圆形","ALT1","formal_ALT1_1","","","","","","","","","","","",""
"null","<span style='color:GreenYellow; font-size: 70px;'>正确! </span>","null","html-keyboard-response","120","349245","0.0-7.0-0.0-4.0-0.0-1.6","3","4","4","3","3","4","3","2","3","4","3","2","2","2","3","3","4","5","4","4","4","4","5","4","4","3","4","4","5","1","1","0","0","1","1","1","1","0","0","0","0","0","0","1","4","5","4","3","4","4","3","5","4","2","3","796468599748435970","李","529","","","","","","","","","","","","","","","","","","","","","","","","","","","","","","feedback_test","","","","","","","","","","","",""
"626","","j","psychophysics","121","350873","0.0-7.0-0.0-4.0-0.0-0.7","3","4","4","3","3","4","3","2","3","4","3","2","2","2","3","3","4","5","4","4","4","4","5","4","4","3","4","4","5","1","1","0","0","1","1","1","1","0","0","0","0","0","0","1","4","5","4","3","4","4","3","5","4","2","3","796468599748435970","李","529","","","","match","","","","","","","","","","","","","","key","j","16.670103092783506","768","428","j","true","match","img/diamond.png","菱形","菱形","ALT1","formal_ALT1_1","","","","","","","","","","","",""
"null","<span style='color:GreenYellow; font-size: 70px;'>正确! </span>","null","html-keyboard-response","122","351376","0.0-7.0-0.0-4.0-0.0-1.7","3","4","4","3","3","4","3","2","3","4","3","2","2","2","3","3","4","5","4","4","4","4","5","4","4","3","4","4","5","1","1","0","0","1","1","1","1","0","0","0","0","0","0","1","4","5","4","3","4","4","3","5","4","2","3","796468599748435970","李","529","","","","","","","","","","","","","","","","","","","","","","","","","","","","","","feedback_test","","","","","","","","","","","",""
"588","","f","psychophysics","123","352966","0.0-7.0-0.0-4.0-0.0-0.8","3","4","4","3","3","4","3","2","3","4","3","2","2","2","3","3","4","5","4","4","4","4","5","4","4","3","4","4","5","1","1","0","0","1","1","1","1","0","0","0","0","0","0","1","4","5","4","3","4","4","3","5","4","2","3","796468599748435970","李","529","","","","nonmatch","","","","","","","","","","","","","","key","f","16.672631578947612","768","428","j","false","match","img/circle.png","圆形","圆形","ALT1","formal_ALT1_1","","","","","","","","","","","",""
"null","<span style='color:red; font-size: 70px;'>错误! </span>","null","html-keyboard-response","124","353478","0.0-7.0-0.0-4.0-0.0-1.8","3","4","4","3","3","4","3","2","3","4","3","2","2","2","3","3","4","5","4","4","4","4","5","4","4","3","4","4","5","1","1","0","0","1","1","1","1","0","0","0","0","0","0","1","4","5","4","3","4","4","3","5","4","2","3","796468599748435970","李","529","","","","","","","","","","","","","","","","","","","","","","","","","","","","","","feedback_test","","","","","","","","","","","",""
"566","","j","psychophysics","125","355046","0.0-7.0-0.0-4.0-0.0-0.9","3","4","4","3","3","4","3","2","3","4","3","2","2","2","3","3","4","5","4","4","4","4","5","4","4","3","4","4","5","1","1","0","0","1","1","1","1","0","0","0","0","0","0","1","4","5","4","3","4","4","3","5","4","2","3","796468599748435970","李","529","","","","match","","","","","","","","","","","","","","key","j","16.673118279570268","768","428","j","true","match","img/trapezoid.png","梯形","梯形","ALT1","formal_ALT1_1","","","","","","","","","","","",""
"null","<span style='color:GreenYellow; font-size: 70px;'>正确! </span>","null","html-keyboard-response","126","355547","0.0-7.0-0.0-4.0-0.0-1.9","3","4","4","3","3","4","3","2","3","4","3","2","2","2","3","3","4","5","4","4","4","4","5","4","4","3","4","4","5","1","1","0","0","1","1","1","1","0","0","0","0","0","0","1","4","5","4","3","4","4","3","5","4","2","3","796468599748435970","李","529","","","","","","","","","","","","","","","","","","","","","","","","","","","","","","feedback_test","","","","","","","","","","","",""
"549","","j","psychophysics","127","357099","0.0-7.0-0.0-4.0-0.0-0.10","3","4","4","3","3","4","3","2","3","4","3","2","2","2","3","3","4","5","4","4","4","4","5","4","4","3","4","4","5","1","1","0","0","1","1","1","1","0","0","0","0","0","0","1","4","5","4","3","4","4","3","5","4","2","3","796468599748435970","李","529","","","","match","","","","","","","","","","","","","","key","j","16.676086956521864","768","428","f","false","nonmatch","img/diamond.png","梯形","菱形","ALT1","formal_ALT1_1","","","","","","","","","","","",""
"null","<span style='color:red; font-size: 70px;'>错误! </span>","null","html-keyboard-response","128","357609","0.0-7.0-0.0-4.0-0.0-1.10","3","4","4","3","3","4","3","2","3","4","3","2","2","2","3","3","4","5","4","4","4","4","5","4","4","3","4","4","5","1","1","0","0","1","1","1","1","0","0","0","0","0","0","1","4","5","4","3","4","4","3","5","4","2","3","796468599748435970","李","529","","","","","","","","","","","","","","","","","","","","","","","","","","","","","","feedback_test","","","","","","","","","","","",""
"660","","f","psychophysics","129","359271","0.0-7.0-0.0-4.0-0.0-0.11","3","4","4","3","3","4","3","2","3","4","3","2","2","2","3","3","4","5","4","4","4","4","5","4","4","3","4","4","5","1","1","0","0","1","1","1","1","0","0","0","0","0","0","1","4","5","4","3","4","4","3","5","4","2","3","796468599748435970","李","529","","","","nonmatch","","","","","","","","","","","","","","key","f","16.671717171717173","768","428","f","true","nonmatch","img/diamond.png","五边","菱形","ALT1","formal_ALT1_1","","","","","","","","","","","",""
"null","<span style='color:GreenYellow; font-size: 70px;'>正确! </span>","null","html-keyboard-response","130","359773","0.0-7.0-0.0-4.0-0.0-1.11","3","4","4","3","3","4","3","2","3","4","3","2","2","2","3","3","4","5","4","4","4","4","5","4","4","3","4","4","5","1","1","0","0","1","1","1","1","0","0","0","0","0","0","1","4","5","4","3","4","4","3","5","4","2","3","796468599748435970","李","529","","","","","","","","","","","","","","","","","","","","","","","","","","","","","","feedback_test","","","","","","","","","","","",""
"742","","f","psychophysics","131","361517","0.0-7.0-0.0-4.0-0.0-0.12","3","4","4","3","3","4","3","2","3","4","3","2","2","2","3","3","4","5","4","4","4","4","5","4","4","3","4","4","5","1","1","0","0","1","1","1","1","0","0","0","0","0","0","1","4","5","4","3","4","4","3","5","4","2","3","796468599748435970","李","529","","","","nonmatch","","","","","","","","","","","","","","key","f","16.67184466019429","768","428","f","true","nonmatch","img/circle.png","菱形","圆形","ALT1","formal_ALT1_1","","","","","","","","","","","",""
"null","<span style='color:GreenYellow; font-size: 70px;'>正确! </span>","null","html-keyboard-response","132","362018","0.0-7.0-0.0-4.0-0.0-1.12","3","4","4","3","3","4","3","2","3","4","3","2","2","2","3","3","4","5","4","4","4","4","5","4","4","3","4","4","5","1","1","0","0","1","1","1","1","0","0","0","0","0","0","1","4","5","4","3","4","4","3","5","4","2","3","796468599748435970","李","529","","","","","","","","","","","","","","","","","","","","","","","","","","","","","","feedback_test","","","","","","","","","","","",""
"622","","f","psychophysics","133","363641","0.0-7.0-0.0-4.0-0.0-0.13","3","4","4","3","3","4","3","2","3","4","3","2","2","2","3","3","4","5","4","4","4","4","5","4","4","3","4","4","5","1","1","0","0","1","1","1","1","0","0","0","0","0","0","1","4","5","4","3","4","4","3","5","4","2","3","796468599748435970","李","529","","","","nonmatch","","","","","","","","","","","","","","key","f","16.671875","768","428","f","true","nonmatch","img/trapezoid.png","圆形","梯形","ALT1","formal_ALT1_1","","","","","","","","","","","",""
"null","<span style='color:GreenYellow; font-size: 70px;'>正确! </span>","null","html-keyboard-response","134","364143","0.0-7.0-0.0-4.0-0.0-1.13","3","4","4","3","3","4","3","2","3","4","3","2","2","2","3","3","4","5","4","4","4","4","5","4","4","3","4","4","5","1","1","0","0","1","1","1","1","0","0","0","0","0","0","1","4","5","4","3","4","4","3","5","4","2","3","796468599748435970","李","529","","","","","","","","","","","","","","","","","","","","","","","","","","","","","","feedback_test","","","","","","","","","","","",""
"615","","j","psychophysics","135","365762","0.0-7.0-0.0-4.0-0.0-0.14","3","4","4","3","3","4","3","2","3","4","3","2","2","2","3","3","4","5","4","4","4","4","5","4","4","3","4","4","5","1","1","0","0","1","1","1","1","0","0","0","0","0","0","1","4","5","4","3","4","4","3","5","4","2","3","796468599748435970","李","529","","","","match","","","","","","","","","","","","","","key","j","16.672916666666424","768","428","j","true","match","img/pentagon.png","五边","五边","ALT1","formal_ALT1_1","","","","","","","","","","","",""
"null","<span style='color:GreenYellow; font-size: 70px;'>正确! </span>","null","html-keyboard-response","136","366263","0.0-7.0-0.0-4.0-0.0-1.14","3","4","4","3","3","4","3","2","3","4","3","2","2","2","3","3","4","5","4","4","4","4","5","4","4","3","4","4","5","1","1","0","0","1","1","1","1","0","0","0","0","0","0","1","4","5","4","3","4","4","3","5","4","2","3","796468599748435970","李","529","","","","","","","","","","","","","","","","","","","","","","","","","","","","","","feedback_test","","","","","","","","","","","",""
"605","","j","psychophysics","137","367870","0.0-7.0-0.0-4.0-0.0-0.15","3","4","4","3","3","4","3","2","3","4","3","2","2","2","3","3","4","5","4","4","4","4","5","4","4","3","4","4","5","1","1","0","0","1","1","1","1","0","0","0","0","0","0","1","4","5","4","3","4","4","3","5","4","2","3","796468599748435970","李","529","","","","match","","","","","","","","","","","","","","key","j","16.670833333333576","768","428","j","true","match","img/diamond.png","菱形","菱形","ALT1","formal_ALT1_1","","","","","","","","","","","",""
"null","<span style='color:GreenYellow; font-size: 70px;'>正确! </span>","null","html-keyboard-response","138","368371","0.0-7.0-0.0-4.0-0.0-1.15","3","4","4","3","3","4","3","2","3","4","3","2","2","2","3","3","4","5","4","4","4","4","5","4","4","3","4","4","5","1","1","0","0","1","1","1","1","0","0","0","0","0","0","1","4","5","4","3","4","4","3","5","4","2","3","796468599748435970","李","529","","","","","","","","","","","","","","","","","","","","","","","","","","","","","","feedback_test","","","","","","","","","","","",""
"601","","j","psychophysics","139","369974","0.0-7.0-0.0-4.0-0.0-0.16","3","4","4","3","3","4","3","2","3","4","3","2","2","2","3","3","4","5","4","4","4","4","5","4","4","3","4","4","5","1","1","0","0","1","1","1","1","0","0","0","0","0","0","1","4","5","4","3","4","4","3","5","4","2","3","796468599748435970","李","529","","","","match","","","","","","","","","","","","","","key","j","16.66526315789486","768","428","j","true","match","img/diamond.png","菱形","菱形","ALT1","formal_ALT1_1","","","","","","","","","","","",""
"null","<span style='color:GreenYellow; font-size: 70px;'>正确! </span>","null","html-keyboard-response","140","370475","0.0-7.0-0.0-4.0-0.0-1.16","3","4","4","3","3","4","3","2","3","4","3","2","2","2","3","3","4","5","4","4","4","4","5","4","4","3","4","4","5","1","1","0","0","1","1","1","1","0","0","0","0","0","0","1","4","5","4","3","4","4","3","5","4","2","3","796468599748435970","李","529","","","","","","","","","","","","","","","","","","","","","","","","","","","","","","feedback_test","","","","","","","","","","","",""
"541","","j","psychophysics","141","372018","0.0-7.0-0.0-4.0-0.0-0.17","3","4","4","3","3","4","3","2","3","4","3","2","2","2","3","3","4","5","4","4","4","4","5","4","4","3","4","4","5","1","1","0","0","1","1","1","1","0","0","0","0","0","0","1","4","5","4","3","4","4","3","5","4","2","3","796468599748435970","李","529","","","","match","","","","","","","","","","","","","","key","j","16.678021978022105","768","428","j","true","match","img/trapezoid.png","梯形","梯形","ALT1","formal_ALT1_1","","","","","","","","","","","",""
"null","<span style='color:GreenYellow; font-size: 70px;'>正确! </span>","null","html-keyboard-response","142","372527","0.0-7.0-0.0-4.0-0.0-1.17","3","4","4","3","3","4","3","2","3","4","3","2","2","2","3","3","4","5","4","4","4","4","5","4","4","3","4","4","5","1","1","0","0","1","1","1","1","0","0","0","0","0","0","1","4","5","4","3","4","4","3","5","4","2","3","796468599748435970","李","529","","","","","","","","","","","","","","","","","","","","","","","","","","","","","","feedback_test","","","","","","","","","","","",""
"539","","j","psychophysics","143","374068","0.0-7.0-0.0-4.0-0.0-0.18","3","4","4","3","3","4","3","2","3","4","3","2","2","2","3","3","4","5","4","4","4","4","5","4","4","3","4","4","5","1","1","0","0","1","1","1","1","0","0","0","0","0","0","1","4","5","4","3","4","4","3","5","4","2","3","796468599748435970","李","529","","","","match","","","","","","","","","","","","","","key","j","16.674725274724892","768","428","j","true","match","img/pentagon.png","五边","五边","ALT1","formal_ALT1_1","","","","","","","","","","","",""
"null","<span style='color:GreenYellow; font-size: 70px;'>正确! </span>","null","html-keyboard-response","144","374571","0.0-7.0-0.0-4.0-0.0-1.18","3","4","4","3","3","4","3","2","3","4","3","2","2","2","3","3","4","5","4","4","4","4","5","4","4","3","4","4","5","1","1","0","0","1","1","1","1","0","0","0","0","0","0","1","4","5","4","3","4","4","3","5","4","2","3","796468599748435970","李","529","","","","","","","","","","","","","","","","","","","","","","","","","","","","","","feedback_test","","","","","","","","","","","",""
"770","","f","psychophysics","145","376343","0.0-7.0-0.0-4.0-0.0-0.19","3","4","4","3","3","4","3","2","3","4","3","2","2","2","3","3","4","5","4","4","4","4","5","4","4","3","4","4","5","1","1","0","0","1","1","1","1","0","0","0","0","0","0","1","4","5","4","3","4","4","3","5","4","2","3","796468599748435970","李","529","","","","nonmatch","","","","","","","","","","","","","","key","f","16.67047619047641","768","428","f","true","nonmatch","img/diamond.png","圆形","菱形","ALT1","formal_ALT1_1","","","","","","","","","","","",""
"null","<span style='color:GreenYellow; font-size: 70px;'>正确! </span>","null","html-keyboard-response","146","376845","0.0-7.0-0.0-4.0-0.0-1.19","3","4","4","3","3","4","3","2","3","4","3","2","2","2","3","3","4","5","4","4","4","4","5","4","4","3","4","4","5","1","1","0","0","1","1","1","1","0","0","0","0","0","0","1","4","5","4","3","4","4","3","5","4","2","3","796468599748435970","李","529","","","","","","","","","","","","","","","","","","","","","","","","","","","","","","feedback_test","","","","","","","","","","","",""
"603","","f","psychophysics","147","378451","0.0-7.0-0.0-4.0-0.0-0.20","3","4","4","3","3","4","3","2","3","4","3","2","2","2","3","3","4","5","4","4","4","4","5","4","4","3","4","4","5","1","1","0","0","1","1","1","1","0","0","0","0","0","0","1","4","5","4","3","4","4","3","5","4","2","3","796468599748435970","李","529","","","","nonmatch","","","","","","","","","","","","","","key","f","16.673684210526314","768","428","j","false","match","img/circle.png","圆形","圆形","ALT1","formal_ALT1_1","","","","","","","","","","","",""
"null","<span style='color:red; font-size: 70px;'>错误! </span>","null","html-keyboard-response","148","378952","0.0-7.0-0.0-4.0-0.0-1.20","3","4","4","3","3","4","3","2","3","4","3","2","2","2","3","3","4","5","4","4","4","4","5","4","4","3","4","4","5","1","1","0","0","1","1","1","1","0","0","0","0","0","0","1","4","5","4","3","4","4","3","5","4","2","3","796468599748435970","李","529","","","","","","","","","","","","","","","","","","","","","","","","","","","","","","feedback_test","","","","","","","","","","","",""
"817","","f","psychophysics","149","380771","0.0-7.0-0.0-4.0-0.0-0.21","3","4","4","3","3","4","3","2","3","4","3","2","2","2","3","3","4","5","4","4","4","4","5","4","4","3","4","4","5","1","1","0","0","1","1","1","1","0","0","0","0","0","0","1","4","5","4","3","4","4","3","5","4","2","3","796468599748435970","李","529","","","","nonmatch","","","","","","","","","","","","","","key","f","16.670370370370588","768","428","f","true","nonmatch","img/pentagon.png","菱形","五边","ALT1","formal_ALT1_1","","","","","","","","","","","",""
"null","<span style='color:GreenYellow; font-size: 70px;'>正确! </span>","null","html-keyboard-response","150","381272","0.0-7.0-0.0-4.0-0.0-1.21","3","4","4","3","3","4","3","2","3","4","3","2","2","2","3","3","4","5","4","4","4","4","5","4","4","3","4","4","5","1","1","0","0","1","1","1","1","0","0","0","0","0","0","1","4","5","4","3","4","4","3","5","4","2","3","796468599748435970","李","529","","","","","","","","","","","","","","","","","","","","","","","","","","","","","","feedback_test","","","","","","","","","","","",""
"711","","f","psychophysics","151","382985","0.0-7.0-0.0-4.0-0.0-0.22","3","4","4","3","3","4","3","2","3","4","3","2","2","2","3","3","4","5","4","4","4","4","5","4","4","3","4","4","5","1","1","0","0","1","1","1","1","0","0","0","0","0","0","1","4","5","4","3","4","4","3","5","4","2","3","796468599748435970","李","529","","","","nonmatch","","","","","","","","","","","","","","key","f","16.667326732673498","768","428","f","true","nonmatch","img/pentagon.png","梯形","五边","ALT1","formal_ALT1_1","","","","","","","","","","","",""
"null","<span style='color:GreenYellow; font-size: 70px;'>正确! </span>","null","html-keyboard-response","152","383486","0.0-7.0-0.0-4.0-0.0-1.22","3","4","4","3","3","4","3","2","3","4","3","2","2","2","3","3","4","5","4","4","4","4","5","4","4","3","4","4","5","1","1","0","0","1","1","1","1","0","0","0","0","0","0","1","4","5","4","3","4","4","3","5","4","2","3","796468599748435970","李","529","","","","","","","","","","","","","","","","","","","","","","","","","","","","","","feedback_test","","","","","","","","","","","",""
"722","","f","psychophysics","153","385211","0.0-7.0-0.0-4.0-0.0-0.23","3","4","4","3","3","4","3","2","3","4","3","2","2","2","3","3","4","5","4","4","4","4","5","4","4","3","4","4","5","1","1","0","0","1","1","1","1","0","0","0","0","0","0","1","4","5","4","3","4","4","3","5","4","2","3","796468599748435970","李","529","","","","nonmatch","","","","","","","","","","","","","","key","f","16.67087378640754","768","428","f","true","nonmatch","img/trapezoid.png","菱形","梯形","ALT1","formal_ALT1_1","","","","","","","","","","","",""
"null","<span style='color:GreenYellow; font-size: 70px;'>正确! </span>","null","html-keyboard-response","154","385712","0.0-7.0-0.0-4.0-0.0-1.23","3","4","4","3","3","4","3","2","3","4","3","2","2","2","3","3","4","5","4","4","4","4","5","4","4","3","4","4","5","1","1","0","0","1","1","1","1","0","0","0","0","0","0","1","4","5","4","3","4","4","3","5","4","2","3","796468599748435970","李","529","","","","","","","","","","","","","","","","","","","","","","","","","","","","","","feedback_test","","","","","","","","","","","",""
"523","","j","psychophysics","155","387237","0.0-7.0-0.0-4.0-0.0-0.24","3","4","4","3","3","4","3","2","3","4","3","2","2","2","3","3","4","5","4","4","4","4","5","4","4","3","4","4","5","1","1","0","0","1","1","1","1","0","0","0","0","0","0","1","4","5","4","3","4","4","3","5","4","2","3","796468599748435970","李","529","","","","match","","","","","","","","","","","","","","key","j","16.675555555556073","768","428","j","true","match","img/trapezoid.png","梯形","梯形","ALT1","formal_ALT1_1","","","","","","","","","","","",""
"null","<span style='color:GreenYellow; font-size: 70px;'>正确! </span>","null","html-keyboard-response","156","387739","0.0-7.0-0.0-4.0-0.0-1.24","3","4","4","3","3","4","3","2","3","4","3","2","2","2","3","3","4","5","4","4","4","4","5","4","4","3","4","4","5","1","1","0","0","1","1","1","1","0","0","0","0","0","0","1","4","5","4","3","4","4","3","5","4","2","3","796468599748435970","李","529","","","","","","","","","","","","","","","","","","","","","","","","","","","","","","feedback_test","","","","","","","","","","","",""
"553","","j","psychophysics","157","389294","0.0-7.0-0.0-4.0-0.0-0.25","3","4","4","3","3","4","3","2","3","4","3","2","2","2","3","3","4","5","4","4","4","4","5","4","4","3","4","4","5","1","1","0","0","1","1","1","1","0","0","0","0","0","0","1","4","5","4","3","4","4","3","5","4","2","3","796468599748435970","李","529","","","","match","","","","","","","","","","","","","","key","j","16.670967741935108","768","428","j","true","match","img/circle.png","圆形","圆形","ALT1","formal_ALT1_1","","","","","","","","","","","",""
"null","<span style='color:GreenYellow; font-size: 70px;'>正确! </span>","null","html-keyboard-response","158","389796","0.0-7.0-0.0-4.0-0.0-1.25","3","4","4","3","3","4","3","2","3","4","3","2","2","2","3","3","4","5","4","4","4","4","5","4","4","3","4","4","5","1","1","0","0","1","1","1","1","0","0","0","0","0","0","1","4","5","4","3","4","4","3","5","4","2","3","796468599748435970","李","529","","","","","","","","","","","","","","","","","","","","","","","","","","","","","","feedback_test","","","","","","","","","","","",""
"654","","f","psychophysics","159","391450","0.0-7.0-0.0-4.0-0.0-0.26","3","4","4","3","3","4","3","2","3","4","3","2","2","2","3","3","4","5","4","4","4","4","5","4","4","3","4","4","5","1","1","0","0","1","1","1","1","0","0","0","0","0","0","1","4","5","4","3","4","4","3","5","4","2","3","796468599748435970","李","529","","","","nonmatch","","","","","","","","","","","","","","key","f","16.670408163265424","768","428","f","true","nonmatch","img/circle.png","梯形","圆形","ALT1","formal_ALT1_1","","","","","","","","","","","",""
"null","<span style='color:GreenYellow; font-size: 70px;'>正确! </span>","null","html-keyboard-response","160","391951","0.0-7.0-0.0-4.0-0.0-1.26","3","4","4","3","3","4","3","2","3","4","3","2","2","2","3","3","4","5","4","4","4","4","5","4","4","3","4","4","5","1","1","0","0","1","1","1","1","0","0","0","0","0","0","1","4","5","4","3","4","4","3","5","4","2","3","796468599748435970","李","529","","","","","","","","","","","","","","","","","","","","","","","","","","","","","","feedback_test","","","","","","","","","","","",""
"591","","j","psychophysics","161","393545","0.0-7.0-0.0-4.0-0.0-0.27","3","4","4","3","3","4","3","2","3","4","3","2","2","2","3","3","4","5","4","4","4","4","5","4","4","3","4","4","5","1","1","0","0","1","1","1","1","0","0","0","0","0","0","1","4","5","4","3","4","4","3","5","4","2","3","796468599748435970","李","529","","","","match","","","","","","","","","","","","","","key","j","16.67157894736891","768","428","j","true","match","img/diamond.png","菱形","菱形","ALT1","formal_ALT1_1","","","","","","","","","","","",""
"null","<span style='color:GreenYellow; font-size: 70px;'>正确! </span>","null","html-keyboard-response","162","394052","0.0-7.0-0.0-4.0-0.0-1.27","3","4","4","3","3","4","3","2","3","4","3","2","2","2","3","3","4","5","4","4","4","4","5","4","4","3","4","4","5","1","1","0","0","1","1","1","1","0","0","0","0","0","0","1","4","5","4","3","4","4","3","5","4","2","3","796468599748435970","李","529","","","","","","","","","","","","","","","","","","","","","","","","","","","","","","feedback_test","","","","","","","","","","","",""
"572","","j","psychophysics","163","395627","0.0-7.0-0.0-4.0-0.0-0.28","3","4","4","3","3","4","3","2","3","4","3","2","2","2","3","3","4","5","4","4","4","4","5","4","4","3","4","4","5","1","1","0","0","1","1","1","1","0","0","0","0","0","0","1","4","5","4","3","4","4","3","5","4","2","3","796468599748435970","李","529","","","","match","","","","","","","","","","","","","","key","j","16.672043010752688","768","428","j","true","match","img/pentagon.png","五边","五边","ALT1","formal_ALT1_1","","","","","","","","","","","",""
"null","<span style='color:GreenYellow; font-size: 70px;'>正确! </span>","null","html-keyboard-response","164","396128","0.0-7.0-0.0-4.0-0.0-1.28","3","4","4","3","3","4","3","2","3","4","3","2","2","2","3","3","4","5","4","4","4","4","5","4","4","3","4","4","5","1","1","0","0","1","1","1","1","0","0","0","0","0","0","1","4","5","4","3","4","4","3","5","4","2","3","796468599748435970","李","529","","","","","","","","","","","","","","","","","","","","","","","","","","","","","","feedback_test","","","","","","","","","","","",""
"541","","j","psychophysics","165","397670","0.0-7.0-0.0-4.0-0.0-0.29","3","4","4","3","3","4","3","2","3","4","3","2","2","2","3","3","4","5","4","4","4","4","5","4","4","3","4","4","5","1","1","0","0","1","1","1","1","0","0","0","0","0","0","1","4","5","4","3","4","4","3","5","4","2","3","796468599748435970","李","529","","","","match","","","","","","","","","","","","","","key","j","16.672527472526962","768","428","j","true","match","img/pentagon.png","五边","五边","ALT1","formal_ALT1_1","","","","","","","","","","","",""
"null","<span style='color:GreenYellow; font-size: 70px;'>正确! </span>","null","html-keyboard-response","166","398171","0.0-7.0-0.0-4.0-0.0-1.29","3","4","4","3","3","4","3","2","3","4","3","2","2","2","3","3","4","5","4","4","4","4","5","4","4","3","4","4","5","1","1","0","0","1","1","1","1","0","0","0","0","0","0","1","4","5","4","3","4","4","3","5","4","2","3","796468599748435970","李","529","","","","","","","","","","","","","","","","","","","","","","","","","","","","","","feedback_test","","","","","","","","","","","",""
"917","","j","psychophysics","167","400091","0.0-7.0-0.0-4.0-0.0-0.30","3","4","4","3","3","4","3","2","3","4","3","2","2","2","3","3","4","5","4","4","4","4","5","4","4","3","4","4","5","1","1","0","0","1","1","1","1","0","0","0","0","0","0","1","4","5","4","3","4","4","3","5","4","2","3","796468599748435970","李","529","","","","match","","","","","","","","","","","","","","key","j","16.670175438596186","768","428","f","false","nonmatch","img/diamond.png","梯形","菱形","ALT1","formal_ALT1_1","","","","","","","","","","","",""
"null","<span style='color:red; font-size: 70px;'>错误! </span>","null","html-keyboard-response","168","400593","0.0-7.0-0.0-4.0-0.0-1.30","3","4","4","3","3","4","3","2","3","4","3","2","2","2","3","3","4","5","4","4","4","4","5","4","4","3","4","4","5","1","1","0","0","1","1","1","1","0","0","0","0","0","0","1","4","5","4","3","4","4","3","5","4","2","3","796468599748435970","李","529","","","","","","","","","","","","","","","","","","","","","","","","","","","","","","feedback_test","","","","","","","","","","","",""
"698","","f","psychophysics","169","402293","0.0-7.0-0.0-4.0-0.0-0.31","3","4","4","3","3","4","3","2","3","4","3","2","2","2","3","3","4","5","4","4","4","4","5","4","4","3","4","4","5","1","1","0","0","1","1","1","1","0","0","0","0","0","0","1","4","5","4","3","4","4","3","5","4","2","3","796468599748435970","李","529","","","","nonmatch","","","","","","","","","","","","","","key","f","16.66399999999965","768","428","f","true","nonmatch","img/diamond.png","圆形","菱形","ALT1","formal_ALT1_1","","","","","","","","","","","",""
"null","<span style='color:GreenYellow; font-size: 70px;'>正确! </span>","null","html-keyboard-response","170","402795","0.0-7.0-0.0-4.0-0.0-1.31","3","4","4","3","3","4","3","2","3","4","3","2","2","2","3","3","4","5","4","4","4","4","5","4","4","3","4","4","5","1","1","0","0","1","1","1","1","0","0","0","0","0","0","1","4","5","4","3","4","4","3","5","4","2","3","796468599748435970","李","529","","","","","","","","","","","","","","","","","","","","","","","","","","","","","","feedback_test","","","","","","","","","","","",""
"656","","f","psychophysics","171","404453","0.0-7.0-0.0-4.0-0.0-0.32","3","4","4","3","3","4","3","2","3","4","3","2","2","2","3","3","4","5","4","4","4","4","5","4","4","3","4","4","5","1","1","0","0","1","1","1","1","0","0","0","0","0","0","1","4","5","4","3","4","4","3","5","4","2","3","796468599748435970","李","529","","","","nonmatch","","","","","","","","","","","","","","key","f","16.671428571428454","768","428","f","true","nonmatch","img/diamond.png","五边","菱形","ALT1","formal_ALT1_1","","","","","","","","","","","",""
"null","<span style='color:GreenYellow; font-size: 70px;'>正确! </span>","null","html-keyboard-response","172","404955","0.0-7.0-0.0-4.0-0.0-1.32","3","4","4","3","3","4","3","2","3","4","3","2","2","2","3","3","4","5","4","4","4","4","5","4","4","3","4","4","5","1","1","0","0","1","1","1","1","0","0","0","0","0","0","1","4","5","4","3","4","4","3","5","4","2","3","796468599748435970","李","529","","","","","","","","","","","","","","","","","","","","","","","","","","","","","","feedback_test","","","","","","","","","","","",""
"772","","f","psychophysics","173","406729","0.0-7.0-0.0-4.0-0.0-0.33","3","4","4","3","3","4","3","2","3","4","3","2","2","2","3","3","4","5","4","4","4","4","5","4","4","3","4","4","5","1","1","0","0","1","1","1","1","0","0","0","0","0","0","1","4","5","4","3","4","4","3","5","4","2","3","796468599748435970","李","529","","","","nonmatch","","","","","","","","","","","","","","key","f","16.67238095238073","768","428","f","true","nonmatch","img/pentagon.png","菱形","五边","ALT1","formal_ALT1_1","","","","","","","","","","","",""
"null","<span style='color:GreenYellow; font-size: 70px;'>正确! </span>","null","html-keyboard-response","174","407230","0.0-7.0-0.0-4.0-0.0-1.33","3","4","4","3","3","4","3","2","3","4","3","2","2","2","3","3","4","5","4","4","4","4","5","4","4","3","4","4","5","1","1","0","0","1","1","1","1","0","0","0","0","0","0","1","4","5","4","3","4","4","3","5","4","2","3","796468599748435970","李","529","","","","","","","","","","","","","","","","","","","","","","","","","","","","","","feedback_test","","","","","","","","","","","",""
"661","","f","psychophysics","175","408893","0.0-7.0-0.0-4.0-0.0-0.34","3","4","4","3","3","4","3","2","3","4","3","2","2","2","3","3","4","5","4","4","4","4","5","4","4","3","4","4","5","1","1","0","0","1","1","1","1","0","0","0","0","0","0","1","4","5","4","3","4","4","3","5","4","2","3","796468599748435970","李","529","","","","nonmatch","","","","","","","","","","","","","","key","f","16.675510204081156","768","428","f","true","nonmatch","img/circle.png","菱形","圆形","ALT1","formal_ALT1_1","","","","","","","","","","","",""
"null","<span style='color:GreenYellow; font-size: 70px;'>正确! </span>","null","html-keyboard-response","176","409395","0.0-7.0-0.0-4.0-0.0-1.34","3","4","4","3","3","4","3","2","3","4","3","2","2","2","3","3","4","5","4","4","4","4","5","4","4","3","4","4","5","1","1","0","0","1","1","1","1","0","0","0","0","0","0","1","4","5","4","3","4","4","3","5","4","2","3","796468599748435970","李","529","","","","","","","","","","","","","","","","","","","","","","","","","","","","","","feedback_test","","","","","","","","","","","",""
"613","","f","psychophysics","177","411010","0.0-7.0-0.0-4.0-0.0-0.35","3","4","4","3","3","4","3","2","3","4","3","2","2","2","3","3","4","5","4","4","4","4","5","4","4","3","4","4","5","1","1","0","0","1","1","1","1","0","0","0","0","0","0","1","4","5","4","3","4","4","3","5","4","2","3","796468599748435970","李","529","","","","nonmatch","","","","","","","","","","","","","","key","f","16.66000000000012","768","428","f","true","nonmatch","img/trapezoid.png","圆形","梯形","ALT1","formal_ALT1_1","","","","","","","","","","","",""
"null","<span style='color:GreenYellow; font-size: 70px;'>正确! </span>","null","html-keyboard-response","178","411512","0.0-7.0-0.0-4.0-0.0-1.35","3","4","4","3","3","4","3","2","3","4","3","2","2","2","3","3","4","5","4","4","4","4","5","4","4","3","4","4","5","1","1","0","0","1","1","1","1","0","0","0","0","0","0","1","4","5","4","3","4","4","3","5","4","2","3","796468599748435970","李","529","","","","","","","","","","","","","","","","","","","","","","","","","","","","","","feedback_test","","","","","","","","","","","",""
"656","","f","psychophysics","179","413171","0.0-7.0-0.0-4.0-0.0-0.36","3","4","4","3","3","4","3","2","3","4","3","2","2","2","3","3","4","5","4","4","4","4","5","4","4","3","4","4","5","1","1","0","0","1","1","1","1","0","0","0","0","0","0","1","4","5","4","3","4","4","3","5","4","2","3","796468599748435970","李","529","","","","nonmatch","","","","","","","","","","","","","","key","f","16.67070707070672","768","428","f","true","nonmatch","img/trapezoid.png","五边","梯形","ALT1","formal_ALT1_1","","","","","","","","","","","",""
"null","<span style='color:GreenYellow; font-size: 70px;'>正确! </span>","null","html-keyboard-response","180","413671","0.0-7.0-0.0-4.0-0.0-1.36","3","4","4","3","3","4","3","2","3","4","3","2","2","2","3","3","4","5","4","4","4","4","5","4","4","3","4","4","5","1","1","0","0","1","1","1","1","0","0","0","0","0","0","1","4","5","4","3","4","4","3","5","4","2","3","796468599748435970","李","529","","","","","","","","","","","","","","","","","","","","","","","","","","","","","","feedback_test","","","","","","","","","","","",""
"597","","j","psychophysics","181","415270","0.0-7.0-0.0-4.0-0.0-0.37","3","4","4","3","3","4","3","2","3","4","3","2","2","2","3","3","4","5","4","4","4","4","5","4","4","3","4","4","5","1","1","0","0","1","1","1","1","0","0","0","0","0","0","1","4","5","4","3","4","4","3","5","4","2","3","796468599748435970","李","529","","","","match","","","","","","","","","","","","","","key","j","16.6715789473683","768","428","j","true","match","img/diamond.png","菱形","菱形","ALT1","formal_ALT1_1","","","","","","","","","","","",""
