"rt","stimulus","response","trial_type","trial_index","time_elapsed","internal_node_id","ses_1","ses_2","ses_3","ses_4","ses_5","ses_6","ses_7","ses_8","ses_9","ses_10","coreself_1","coreself_2","coreself_3","coreself_4","coreself_5","coreself_6","coreself_7","coreself_8","coreself_9","coreself_10","SGPS_1","SGPS_2","SGPS_3","SGPS_4","SGPS_5","SGPS_6","SGPS_7","SGPS_8","SGPS_9","NPI1","NPI2","NPI3","NPI4","NPI5","NPI6","NPI7","NPI8","NPI9","NPI10","NPI11","NPI12","NPI13","NPI14","NPI15","hsns_1","hsns_2","hsns_3","hsns_4","hsns_5","trap1","hsns_6","hsns_7","hsns_8","hsns_9","hsns_10","subj_idx","friend_name","ParticipantID","value","success","user_agent","responses","item_order","radio_event_ids","radio_event_times","key_event_times","mouse_event_times","straightlining","zigzagging","honeypot","timeout","failed_images","failed_audio","failed_video","view_history","response_type","key_press","avg_frame_time","center_x","center_y","correct_response","correct","identity","Image","word","condition","task_id","screen_id","time_stamp","version_attrib","version_target","IAT","RT","varname","summary","version_attrib2","version_target2","question_order","correct_answer","trap1_item"
"4667","
   <p><div style = ""color: white;font-size:25px;"">您好，欢迎参加本次实验。</div> </p>
   <p><div style = ""color: white;font-size:25px;"">为充分保障您的权利，请确保您已经知晓并同意《参与实验同意书》以及《数据公开知情同意书》。</div></p>
   <p><div style = ""color: white;font-size:25px;"">如果您未见过上述内容，请咨询实验员。</div></p>
   <p><div style = ""color: white;font-size:25px;"">如果您选择继续实验，则表示您已经清楚两份知情同意书的内容并同意。</div></p>
   <p><div style = ""color: pink;font-size:30px;"">请确保您记得day0的实验编号，您将在本次实验输入该编号，若您忘记，请咨询实验员后作答。</div></p>
   <p><div style = ""color: lightblue;font-size:25px;"">请您尽可能认真地作答，我们将依据您在各问卷和按键任务中的作答质量发放报酬。</div></p>
   <p> <div style = ""color: green;font-size:25px;""><按空格键至下页></div> </p>
   "," ","html-keyboard-response","0","4669","0.0-0.0","4","4","4","4","4","4","4","4","4","4","5","5","5","5","5","5","5","5","5","5","1","1","1","1","1","1","1","1","1","0","0","1","1","0","0","0","1","0","1","1","0","1","0","1","5","1","1","1","2","2","1","2","2","5","1","621680854329982976","胡","569","","","","","","","","","","","","","","","","","","","","","","","","","","","","","","","","","","","","","","","","","",""
"","","","call-function","1","4670","0.0-1.0-0.0","4","4","4","4","4","4","4","4","4","4","5","5","5","5","5","5","5","5","5","5","1","1","1","1","1","1","1","1","1","0","0","1","1","0","0","0","1","0","1","1","0","1","0","1","5","1","1","1","2","2","1","2","2","5","1","621680854329982976","胡","569","","","","","","","","","","","","","","","","","","","","","","","","","","","","","","","","","","","","","","","","","",""
"40140","","{""friend_name"":""胡"",""ParticipantID"":""569""}","survey-html-form","2","44811","0.0-1.0-1.0","4","4","4","4","4","4","4","4","4","4","5","5","5","5","5","5","5","5","5","5","1","1","1","1","1","1","1","1","1","0","0","1","1","0","0","0","1","0","1","1","0","1","0","1","5","1","1","1","2","2","1","2","2","5","1","621680854329982976","胡","569","","","","","","","","","","","","","","","","","","","","","","","","","","","","","","","","","","","","","","","","","",""
"","","","fullscreen","3","45689","0.0-2.0","4","4","4","4","4","4","4","4","4","4","5","5","5","5","5","5","5","5","5","5","1","1","1","1","1","1","1","1","1","0","0","1","1","0","0","0","1","0","1","1","0","1","0","1","5","1","1","1","2","2","1","2","2","5","1","621680854329982976","胡","569","","true","{}","","","","","","","","","","","","","","","","","","","","","","","","","","","","","","","","","","","","","","",""
"20224.89999961853","","{""Q01"":""4"",""Q02"":""4"",""Q03"":""4"",""Q04"":""4"",""Q05"":""4"",""Q06"":""4"",""Q07"":""4"",""Q08"":""4"",""Q09"":""4"",""Q10"":""4""}","survey-template","4","65916","0.0-3.0","4","4","4","4","4","4","4","4","4","4","5","5","5","5","5","5","5","5","5","5","1","1","1","1","1","1","1","1","1","0","0","1","1","0","0","0","1","0","1","1","0","1","0","1","5","1","1","1","2","2","1","2","2","5","1","621680854329982976","胡","569","","","","{""Q01"":""4"",""Q02"":""4"",""Q03"":""4"",""Q04"":""4"",""Q05"":""4"",""Q06"":""4"",""Q07"":""4"",""Q08"":""4"",""Q09"":""4"",""Q10"":""4""}","[0,1,2,3,4,5,6,7,8,9]","[""Q01"",""Q02"",""Q03"",""Q04"",""Q04"",""Q05"",""Q06"",""Q07"",""Q08"",""Q09"",""Q10""]","[1087.6999998092651,3463.699999809265,4696.099999904633,5207.699999809265,11311.699999809265,12135.599999904633,13407.699999809265,14007.599999904633,15529.199999809265,17615.699999809265,18039.599999904633]","[]","[1087.6999998092651,3463.699999809265,4696.099999904633,5207.699999809265,8615.799999713898,10279.699999809265,11311.699999809265,12135.599999904633,13407.699999809265,14007.599999904633,15529.199999809265,15943.599999904633,16327.5,17256.599999904633,17615.699999809265,18039.599999904633,20223.599999904633]","0.5","0.5555555555555556","0","","","","","","","","","","","","","","","","","","","","","","","","","","","","","",""
"43010.5","","{""Q01"":""5"",""Q02"":""5"",""Q03"":""5"",""Q04"":""5"",""Q05"":""5"",""Q06"":""5"",""Q07"":""5"",""Q08"":""5"",""Q09"":""5"",""Q10"":""5""}","survey-template","5","108932","0.0-4.0","4","4","4","4","4","4","4","4","4","4","5","5","5","5","5","5","5","5","5","5","1","1","1","1","1","1","1","1","1","0","0","1","1","0","0","0","1","0","1","1","0","1","0","1","5","1","1","1","2","2","1","2","2","5","1","621680854329982976","胡","569","","","","{""Q01"":""5"",""Q02"":""5"",""Q03"":""5"",""Q04"":""5"",""Q05"":""5"",""Q06"":""5"",""Q07"":""5"",""Q08"":""5"",""Q09"":""5"",""Q10"":""5""}","[0,1,2,3,4,5,6,7,8,9]","[""Q01"",""Q02"",""Q03"",""Q03"",""Q04"",""Q06"",""Q05"",""Q07"",""Q08"",""Q09"",""Q10""]","[1553.1999998092651,2625.199999809265,3289.199999809265,3625.2999997138977,4730.299999713898,14201.099999904633,15961.099999904633,16849.099999904633,17825.099999904633,23321.099999904633,24849]","[]","[1553.1999998092651,2625.199999809265,3289.199999809265,3625.2999997138977,4730.299999713898,11369.099999904633,12113.099999904633,13129.299999713898,14201.099999904633,15961.099999904633,16849.099999904633,17825.099999904633,23321.099999904633,24849,43009.09999990463]","0.6","0.7777777777777778","0","","","","","","","","","","","","","","","","","","","","","","","","","","","","","",""
"","","","preload","6","109123","0.0-5.0","4","4","4","4","4","4","4","4","4","4","5","5","5","5","5","5","5","5","5","5","1","1","1","1","1","1","1","1","1","0","0","1","1","0","0","0","1","0","1","1","0","1","0","1","5","1","1","1","2","2","1","2","2","5","1","621680854329982976","胡","569","","true","","","","","","","","","","","false","[]","[]","[]","","","","","","","","","","","","","","","","","","","","","","","","","",""
"1342","","","instructions","7","110466","0.0-6.0","4","4","4","4","4","4","4","4","4","4","5","5","5","5","5","5","5","5","5","5","1","1","1","1","1","1","1","1","1","0","0","1","1","0","0","0","1","0","1","1","0","1","0","1","5","1","1","1","2","2","1","2","2","5","1","621680854329982976","胡","569","","","","","","","","","","","","","","","","","[{""page_index"":0,""viewing_time"":1342}]","","","","","","","","","","","","","","","","","","","","","","","","",""
"53807","","","instructions","8","164274","0.0-7.0-1.0-0.0","4","4","4","4","4","4","4","4","4","4","5","5","5","5","5","5","5","5","5","5","1","1","1","1","1","1","1","1","1","0","0","1","1","0","0","0","1","0","1","1","0","1","0","1","5","1","1","1","2","2","1","2","2","5","1","621680854329982976","胡","569","","","","","","","","","","","","","","","","","[{""page_index"":0,""viewing_time"":50671},{""page_index"":1,""viewing_time"":1664},{""page_index"":2,""viewing_time"":1472}]","","","","","","","","","","","","","","","","","","","","","","","","",""
"701","","j","psychophysics","9","165979","0.0-7.0-1.0-1.0-0.0-0.0","4","4","4","4","4","4","4","4","4","4","5","5","5","5","5","5","5","5","5","5","1","1","1","1","1","1","1","1","1","0","0","1","1","0","0","0","1","0","1","1","0","1","0","1","5","1","1","1","2","2","1","2","2","5","1","621680854329982976","胡","569","","","","match","","","","","","","","","","","","","","key","j","16.664356435643622","768","428","j","true","match","img/trapezoid.png","梯形","梯形","ALT1_2","prac_ALT1_2","","","","","","","","","","","",""
"null","<span style='color:GreenYellow; font-size: 70px;'>正确! </span>","null","html-keyboard-response","10","166481","0.0-7.0-1.0-1.0-0.0-1.0","4","4","4","4","4","4","4","4","4","4","5","5","5","5","5","5","5","5","5","5","1","1","1","1","1","1","1","1","1","0","0","1","1","0","0","0","1","0","1","1","0","1","0","1","5","1","1","1","2","2","1","2","2","5","1","621680854329982976","胡","569","","","","","","","","","","","","","","","","","","","","","","","","","","","","","","feedback_test","","","","","","","","","","","",""
"743","","j","psychophysics","11","168226","0.0-7.0-1.0-1.0-0.0-0.1","4","4","4","4","4","4","4","4","4","4","5","5","5","5","5","5","5","5","5","5","1","1","1","1","1","1","1","1","1","0","0","1","1","0","0","0","1","0","1","1","0","1","0","1","5","1","1","1","2","2","1","2","2","5","1","621680854329982976","胡","569","","","","match","","","","","","","","","","","","","","key","j","16.6533980582526","768","428","j","true","match","img/circle.png","圆形","圆形","ALT1_2","prac_ALT1_2","","","","","","","","","","","",""
"null","<span style='color:GreenYellow; font-size: 70px;'>正确! </span>","null","html-keyboard-response","12","168726","0.0-7.0-1.0-1.0-0.0-1.1","4","4","4","4","4","4","4","4","4","4","5","5","5","5","5","5","5","5","5","5","1","1","1","1","1","1","1","1","1","0","0","1","1","0","0","0","1","0","1","1","0","1","0","1","5","1","1","1","2","2","1","2","2","5","1","621680854329982976","胡","569","","","","","","","","","","","","","","","","","","","","","","","","","","","","","","feedback_test","","","","","","","","","","","",""
"714","","j","psychophysics","13","170442","0.0-7.0-1.0-1.0-0.0-0.2","4","4","4","4","4","4","4","4","4","4","5","5","5","5","5","5","5","5","5","5","1","1","1","1","1","1","1","1","1","0","0","1","1","0","0","0","1","0","1","1","0","1","0","1","5","1","1","1","2","2","1","2","2","5","1","621680854329982976","胡","569","","","","match","","","","","","","","","","","","","","key","j","16.665686274509746","768","428","j","true","match","img/diamond.png","菱形","菱形","ALT1_2","prac_ALT1_2","","","","","","","","","","","",""
"null","<span style='color:GreenYellow; font-size: 70px;'>正确! </span>","null","html-keyboard-response","14","170944","0.0-7.0-1.0-1.0-0.0-1.2","4","4","4","4","4","4","4","4","4","4","5","5","5","5","5","5","5","5","5","5","1","1","1","1","1","1","1","1","1","0","0","1","1","0","0","0","1","0","1","1","0","1","0","1","5","1","1","1","2","2","1","2","2","5","1","621680854329982976","胡","569","","","","","","","","","","","","","","","","","","","","","","","","","","","","","","feedback_test","","","","","","","","","","","",""
"684","","f","psychophysics","15","172630","0.0-7.0-1.0-1.0-0.0-0.3","4","4","4","4","4","4","4","4","4","4","5","5","5","5","5","5","5","5","5","5","1","1","1","1","1","1","1","1","1","0","0","1","1","0","0","0","1","0","1","1","0","1","0","1","5","1","1","1","2","2","1","2","2","5","1","621680854329982976","胡","569","","","","nonmatch","","","","","","","","","","","","","","key","f","16.666000000000057","768","428","j","false","match","img/diamond.png","菱形","菱形","ALT1_2","prac_ALT1_2","","","","","","","","","","","",""
"null","<span style='color:red; font-size: 70px;'>错误! </span>","null","html-keyboard-response","16","173131","0.0-7.0-1.0-1.0-0.0-1.3","4","4","4","4","4","4","4","4","4","4","5","5","5","5","5","5","5","5","5","5","1","1","1","1","1","1","1","1","1","0","0","1","1","0","0","0","1","0","1","1","0","1","0","1","5","1","1","1","2","2","1","2","2","5","1","621680854329982976","胡","569","","","","","","","","","","","","","","","","","","","","","","","","","","","","","","feedback_test","","","","","","","","","","","",""
"834","","f","psychophysics","17","174966","0.0-7.0-1.0-1.0-0.0-0.4","4","4","4","4","4","4","4","4","4","4","5","5","5","5","5","5","5","5","5","5","1","1","1","1","1","1","1","1","1","0","0","1","1","0","0","0","1","0","1","1","0","1","0","1","5","1","1","1","2","2","1","2","2","5","1","621680854329982976","胡","569","","","","nonmatch","","","","","","","","","","","","","","key","f","16.659633027522883","768","428","f","true","nonmatch","img/trapezoid.png","圆形","梯形","ALT1_2","prac_ALT1_2","","","","","","","","","","","",""
"null","<span style='color:GreenYellow; font-size: 70px;'>正确! </span>","null","html-keyboard-response","18","175467","0.0-7.0-1.0-1.0-0.0-1.4","4","4","4","4","4","4","4","4","4","4","5","5","5","5","5","5","5","5","5","5","1","1","1","1","1","1","1","1","1","0","0","1","1","0","0","0","1","0","1","1","0","1","0","1","5","1","1","1","2","2","1","2","2","5","1","621680854329982976","胡","569","","","","","","","","","","","","","","","","","","","","","","","","","","","","","","feedback_test","","","","","","","","","","","",""
"635","","f","psychophysics","19","177103","0.0-7.0-1.0-1.0-0.0-0.5","4","4","4","4","4","4","4","4","4","4","5","5","5","5","5","5","5","5","5","5","1","1","1","1","1","1","1","1","1","0","0","1","1","0","0","0","1","0","1","1","0","1","0","1","5","1","1","1","2","2","1","2","2","5","1","621680854329982976","胡","569","","","","nonmatch","","","","","","","","","","","","","","key","f","16.664948453608247","768","428","f","true","nonmatch","img/diamond.png","五边","菱形","ALT1_2","prac_ALT1_2","","","","","","","","","","","",""
"null","<span style='color:GreenYellow; font-size: 70px;'>正确! </span>","null","html-keyboard-response","20","177605","0.0-7.0-1.0-1.0-0.0-1.5","4","4","4","4","4","4","4","4","4","4","5","5","5","5","5","5","5","5","5","5","1","1","1","1","1","1","1","1","1","0","0","1","1","0","0","0","1","0","1","1","0","1","0","1","5","1","1","1","2","2","1","2","2","5","1","621680854329982976","胡","569","","","","","","","","","","","","","","","","","","","","","","","","","","","","","","feedback_test","","","","","","","","","","","",""
"749","","f","psychophysics","21","179356","0.0-7.0-1.0-1.0-0.0-0.6","4","4","4","4","4","4","4","4","4","4","5","5","5","5","5","5","5","5","5","5","1","1","1","1","1","1","1","1","1","0","0","1","1","0","0","0","1","0","1","1","0","1","0","1","5","1","1","1","2","2","1","2","2","5","1","621680854329982976","胡","569","","","","nonmatch","","","","","","","","","","","","","","key","f","16.665384615384728","768","428","f","true","nonmatch","img/circle.png","菱形","圆形","ALT1_2","prac_ALT1_2","","","","","","","","","","","",""
"null","<span style='color:GreenYellow; font-size: 70px;'>正确! </span>","null","html-keyboard-response","22","179859","0.0-7.0-1.0-1.0-0.0-1.6","4","4","4","4","4","4","4","4","4","4","5","5","5","5","5","5","5","5","5","5","1","1","1","1","1","1","1","1","1","0","0","1","1","0","0","0","1","0","1","1","0","1","0","1","5","1","1","1","2","2","1","2","2","5","1","621680854329982976","胡","569","","","","","","","","","","","","","","","","","","","","","","","","","","","","","","feedback_test","","","","","","","","","","","",""
"816","","j","psychophysics","23","181676","0.0-7.0-1.0-1.0-0.0-0.7","4","4","4","4","4","4","4","4","4","4","5","5","5","5","5","5","5","5","5","5","1","1","1","1","1","1","1","1","1","0","0","1","1","0","0","0","1","0","1","1","0","1","0","1","5","1","1","1","2","2","1","2","2","5","1","621680854329982976","胡","569","","","","match","","","","","","","","","","","","","","key","j","16.664814814814978","768","428","j","true","match","img/trapezoid.png","梯形","梯形","ALT1_2","prac_ALT1_2","","","","","","","","","","","",""
"null","<span style='color:GreenYellow; font-size: 70px;'>正确! </span>","null","html-keyboard-response","24","182176","0.0-7.0-1.0-1.0-0.0-1.7","4","4","4","4","4","4","4","4","4","4","5","5","5","5","5","5","5","5","5","5","1","1","1","1","1","1","1","1","1","0","0","1","1","0","0","0","1","0","1","1","0","1","0","1","5","1","1","1","2","2","1","2","2","5","1","621680854329982976","胡","569","","","","","","","","","","","","","","","","","","","","","","","","","","","","","","feedback_test","","","","","","","","","","","",""
"871","","f","psychophysics","25","184048","0.0-7.0-1.0-1.0-0.0-0.8","4","4","4","4","4","4","4","4","4","4","5","5","5","5","5","5","5","5","5","5","1","1","1","1","1","1","1","1","1","0","0","1","1","0","0","0","1","0","1","1","0","1","0","1","5","1","1","1","2","2","1","2","2","5","1","621680854329982976","胡","569","","","","nonmatch","","","","","","","","","","","","","","key","f","16.66428571428566","768","428","f","true","nonmatch","img/diamond.png","圆形","菱形","ALT1_2","prac_ALT1_2","","","","","","","","","","","",""
"null","<span style='color:GreenYellow; font-size: 70px;'>正确! </span>","null","html-keyboard-response","26","184550","0.0-7.0-1.0-1.0-0.0-1.8","4","4","4","4","4","4","4","4","4","4","5","5","5","5","5","5","5","5","5","5","1","1","1","1","1","1","1","1","1","0","0","1","1","0","0","0","1","0","1","1","0","1","0","1","5","1","1","1","2","2","1","2","2","5","1","621680854329982976","胡","569","","","","","","","","","","","","","","","","","","","","","","","","","","","","","","feedback_test","","","","","","","","","","","",""
"839","","j","psychophysics","27","186392","0.0-7.0-1.0-1.0-0.0-0.9","4","4","4","4","4","4","4","4","4","4","5","5","5","5","5","5","5","5","5","5","1","1","1","1","1","1","1","1","1","0","0","1","1","0","0","0","1","0","1","1","0","1","0","1","5","1","1","1","2","2","1","2","2","5","1","621680854329982976","胡","569","","","","match","","","","","","","","","","","","","","key","j","16.664220183486453","768","428","j","true","match","img/circle.png","圆形","圆形","ALT1_2","prac_ALT1_2","","","","","","","","","","","",""
"null","<span style='color:GreenYellow; font-size: 70px;'>正确! </span>","null","html-keyboard-response","28","186894","0.0-7.0-1.0-1.0-0.0-1.9","4","4","4","4","4","4","4","4","4","4","5","5","5","5","5","5","5","5","5","5","1","1","1","1","1","1","1","1","1","0","0","1","1","0","0","0","1","0","1","1","0","1","0","1","5","1","1","1","2","2","1","2","2","5","1","621680854329982976","胡","569","","","","","","","","","","","","","","","","","","","","","","","","","","","","","","feedback_test","","","","","","","","","","","",""
"731","","f","psychophysics","29","188627","0.0-7.0-1.0-1.0-0.0-0.10","4","4","4","4","4","4","4","4","4","4","5","5","5","5","5","5","5","5","5","5","1","1","1","1","1","1","1","1","1","0","0","1","1","0","0","0","1","0","1","1","0","1","0","1","5","1","1","1","2","2","1","2","2","5","1","621680854329982976","胡","569","","","","nonmatch","","","","","","","","","","","","","","key","f","16.66407766990314","768","428","f","true","nonmatch","img/circle.png","梯形","圆形","ALT1_2","prac_ALT1_2","","","","","","","","","","","",""
"null","<span style='color:GreenYellow; font-size: 70px;'>正确! </span>","null","html-keyboard-response","30","189129","0.0-7.0-1.0-1.0-0.0-1.10","4","4","4","4","4","4","4","4","4","4","5","5","5","5","5","5","5","5","5","5","1","1","1","1","1","1","1","1","1","0","0","1","1","0","0","0","1","0","1","1","0","1","0","1","5","1","1","1","2","2","1","2","2","5","1","621680854329982976","胡","569","","","","","","","","","","","","","","","","","","","","","","","","","","","","","","feedback_test","","","","","","","","","","","",""
"852","","j","psychophysics","31","190981","0.0-7.0-1.0-1.0-0.0-0.11","4","4","4","4","4","4","4","4","4","4","5","5","5","5","5","5","5","5","5","5","1","1","1","1","1","1","1","1","1","0","0","1","1","0","0","0","1","0","1","1","0","1","0","1","5","1","1","1","2","2","1","2","2","5","1","621680854329982976","胡","569","","","","match","","","","","","","","","","","","","","key","j","16.65909090909091","768","428","j","true","match","img/circle.png","圆形","圆形","ALT1_2","prac_ALT1_2","","","","","","","","","","","",""
"null","<span style='color:GreenYellow; font-size: 70px;'>正确! </span>","null","html-keyboard-response","32","191482","0.0-7.0-1.0-1.0-0.0-1.11","4","4","4","4","4","4","4","4","4","4","5","5","5","5","5","5","5","5","5","5","1","1","1","1","1","1","1","1","1","0","0","1","1","0","0","0","1","0","1","1","0","1","0","1","5","1","1","1","2","2","1","2","2","5","1","621680854329982976","胡","569","","","","","","","","","","","","","","","","","","","","","","","","","","","","","","feedback_test","","","","","","","","","","","",""
"740","","j","psychophysics","33","193223","0.0-7.0-1.0-1.0-0.0-0.12","4","4","4","4","4","4","4","4","4","4","5","5","5","5","5","5","5","5","5","5","1","1","1","1","1","1","1","1","1","0","0","1","1","0","0","0","1","0","1","1","0","1","0","1","5","1","1","1","2","2","1","2","2","5","1","621680854329982976","胡","569","","","","match","","","","","","","","","","","","","","key","j","16.66407766990314","768","428","f","false","nonmatch","img/trapezoid.png","菱形","梯形","ALT1_2","prac_ALT1_2","","","","","","","","","","","",""
"null","<span style='color:red; font-size: 70px;'>错误! </span>","null","html-keyboard-response","34","193724","0.0-7.0-1.0-1.0-0.0-1.12","4","4","4","4","4","4","4","4","4","4","5","5","5","5","5","5","5","5","5","5","1","1","1","1","1","1","1","1","1","0","0","1","1","0","0","0","1","0","1","1","0","1","0","1","5","1","1","1","2","2","1","2","2","5","1","621680854329982976","胡","569","","","","","","","","","","","","","","","","","","","","","","","","","","","","","","feedback_test","","","","","","","","","","","",""
"694","","f","psychophysics","35","195420","0.0-7.0-1.0-1.0-0.0-0.13","4","4","4","4","4","4","4","4","4","4","5","5","5","5","5","5","5","5","5","5","1","1","1","1","1","1","1","1","1","0","0","1","1","0","0","0","1","0","1","1","0","1","0","1","5","1","1","1","2","2","1","2","2","5","1","621680854329982976","胡","569","","","","nonmatch","","","","","","","","","","","","","","key","f","16.664356435643622","768","428","f","true","nonmatch","img/diamond.png","梯形","菱形","ALT1_2","prac_ALT1_2","","","","","","","","","","","",""
"null","<span style='color:GreenYellow; font-size: 70px;'>正确! </span>","null","html-keyboard-response","36","195920","0.0-7.0-1.0-1.0-0.0-1.13","4","4","4","4","4","4","4","4","4","4","5","5","5","5","5","5","5","5","5","5","1","1","1","1","1","1","1","1","1","0","0","1","1","0","0","0","1","0","1","1","0","1","0","1","5","1","1","1","2","2","1","2","2","5","1","621680854329982976","胡","569","","","","","","","","","","","","","","","","","","","","","","","","","","","","","","feedback_test","","","","","","","","","","","",""
"791","","f","psychophysics","37","197713","0.0-7.0-1.0-1.0-0.0-0.14","4","4","4","4","4","4","4","4","4","4","5","5","5","5","5","5","5","5","5","5","1","1","1","1","1","1","1","1","1","0","0","1","1","0","0","0","1","0","1","1","0","1","0","1","5","1","1","1","2","2","1","2","2","5","1","621680854329982976","胡","569","","","","nonmatch","","","","","","","","","","","","","","key","f","16.66355140186916","768","428","f","true","nonmatch","img/trapezoid.png","五边","梯形","ALT1_2","prac_ALT1_2","","","","","","","","","","","",""
"null","<span style='color:GreenYellow; font-size: 70px;'>正确! </span>","null","html-keyboard-response","38","198213","0.0-7.0-1.0-1.0-0.0-1.14","4","4","4","4","4","4","4","4","4","4","5","5","5","5","5","5","5","5","5","5","1","1","1","1","1","1","1","1","1","0","0","1","1","0","0","0","1","0","1","1","0","1","0","1","5","1","1","1","2","2","1","2","2","5","1","621680854329982976","胡","569","","","","","","","","","","","","","","","","","","","","","","","","","","","","","","feedback_test","","","","","","","","","","","",""
"590","","f","psychophysics","39","199804","0.0-7.0-1.0-1.0-0.0-0.15","4","4","4","4","4","4","4","4","4","4","5","5","5","5","5","5","5","5","5","5","1","1","1","1","1","1","1","1","1","0","0","1","1","0","0","0","1","0","1","1","0","1","0","1","5","1","1","1","2","2","1","2","2","5","1","621680854329982976","胡","569","","","","nonmatch","","","","","","","","","","","","","","key","f","16.664893617021278","768","428","f","true","nonmatch","img/pentagon.png","圆形","五边","ALT1_2","prac_ALT1_2","","","","","","","","","","","",""
"null","<span style='color:GreenYellow; font-size: 70px;'>正确! </span>","null","html-keyboard-response","40","200315","0.0-7.0-1.0-1.0-0.0-1.15","4","4","4","4","4","4","4","4","4","4","5","5","5","5","5","5","5","5","5","5","1","1","1","1","1","1","1","1","1","0","0","1","1","0","0","0","1","0","1","1","0","1","0","1","5","1","1","1","2","2","1","2","2","5","1","621680854329982976","胡","569","","","","","","","","","","","","","","","","","","","","","","","","","","","","","","feedback_test","","","","","","","","","","","",""
"704","","j","psychophysics","41","202021","0.0-7.0-1.0-1.0-0.0-0.16","4","4","4","4","4","4","4","4","4","4","5","5","5","5","5","5","5","5","5","5","1","1","1","1","1","1","1","1","1","0","0","1","1","0","0","0","1","0","1","1","0","1","0","1","5","1","1","1","2","2","1","2","2","5","1","621680854329982976","胡","569","","","","match","","","","","","","","","","","","","","key","j","16.665346534653292","768","428","j","true","match","img/diamond.png","菱形","菱形","ALT1_2","prac_ALT1_2","","","","","","","","","","","",""
"null","<span style='color:GreenYellow; font-size: 70px;'>正确! </span>","null","html-keyboard-response","42","202523","0.0-7.0-1.0-1.0-0.0-1.16","4","4","4","4","4","4","4","4","4","4","5","5","5","5","5","5","5","5","5","5","1","1","1","1","1","1","1","1","1","0","0","1","1","0","0","0","1","0","1","1","0","1","0","1","5","1","1","1","2","2","1","2","2","5","1","621680854329982976","胡","569","","","","","","","","","","","","","","","","","","","","","","","","","","","","","","feedback_test","","","","","","","","","","","",""
"579","","f","psychophysics","43","204104","0.0-7.0-1.0-1.0-0.0-0.17","4","4","4","4","4","4","4","4","4","4","5","5","5","5","5","5","5","5","5","5","1","1","1","1","1","1","1","1","1","0","0","1","1","0","0","0","1","0","1","1","0","1","0","1","5","1","1","1","2","2","1","2","2","5","1","621680854329982976","胡","569","","","","nonmatch","","","","","","","","","","","","","","key","f","16.664893617021278","768","428","f","true","nonmatch","img/pentagon.png","菱形","五边","ALT1_2","prac_ALT1_2","","","","","","","","","","","",""
"null","<span style='color:GreenYellow; font-size: 70px;'>正确! </span>","null","html-keyboard-response","44","204606","0.0-7.0-1.0-1.0-0.0-1.17","4","4","4","4","4","4","4","4","4","4","5","5","5","5","5","5","5","5","5","5","1","1","1","1","1","1","1","1","1","0","0","1","1","0","0","0","1","0","1","1","0","1","0","1","5","1","1","1","2","2","1","2","2","5","1","621680854329982976","胡","569","","","","","","","","","","","","","","","","","","","","","","","","","","","","","","feedback_test","","","","","","","","","","","",""
"568","","j","psychophysics","45","206176","0.0-7.0-1.0-1.0-0.0-0.18","4","4","4","4","4","4","4","4","4","4","5","5","5","5","5","5","5","5","5","5","1","1","1","1","1","1","1","1","1","0","0","1","1","0","0","0","1","0","1","1","0","1","0","1","5","1","1","1","2","2","1","2","2","5","1","621680854329982976","胡","569","","","","match","","","","","","","","","","","","","","key","j","16.6655913978494","768","428","j","true","match","img/pentagon.png","五边","五边","ALT1_2","prac_ALT1_2","","","","","","","","","","","",""
"null","<span style='color:GreenYellow; font-size: 70px;'>正确! </span>","null","html-keyboard-response","46","206677","0.0-7.0-1.0-1.0-0.0-1.18","4","4","4","4","4","4","4","4","4","4","5","5","5","5","5","5","5","5","5","5","1","1","1","1","1","1","1","1","1","0","0","1","1","0","0","0","1","0","1","1","0","1","0","1","5","1","1","1","2","2","1","2","2","5","1","621680854329982976","胡","569","","","","","","","","","","","","","","","","","","","","","","","","","","","","","","feedback_test","","","","","","","","","","","",""
"632","","j","psychophysics","47","208310","0.0-7.0-1.0-1.0-0.0-0.19","4","4","4","4","4","4","4","4","4","4","5","5","5","5","5","5","5","5","5","5","1","1","1","1","1","1","1","1","1","0","0","1","1","0","0","0","1","0","1","1","0","1","0","1","5","1","1","1","2","2","1","2","2","5","1","621680854329982976","胡","569","","","","match","","","","","","","","","","","","","","key","j","16.651041666666668","768","428","j","true","match","img/pentagon.png","五边","五边","ALT1_2","prac_ALT1_2","","","","","","","","","","","",""
"null","<span style='color:GreenYellow; font-size: 70px;'>正确! </span>","null","html-keyboard-response","48","208812","0.0-7.0-1.0-1.0-0.0-1.19","4","4","4","4","4","4","4","4","4","4","5","5","5","5","5","5","5","5","5","5","1","1","1","1","1","1","1","1","1","0","0","1","1","0","0","0","1","0","1","1","0","1","0","1","5","1","1","1","2","2","1","2","2","5","1","621680854329982976","胡","569","","","","","","","","","","","","","","","","","","","","","","","","","","","","","","feedback_test","","","","","","","","","","","",""
"520","","j","psychophysics","49","210341","0.0-7.0-1.0-1.0-0.0-0.20","4","4","4","4","4","4","4","4","4","4","5","5","5","5","5","5","5","5","5","5","1","1","1","1","1","1","1","1","1","0","0","1","1","0","0","0","1","0","1","1","0","1","0","1","5","1","1","1","2","2","1","2","2","5","1","621680854329982976","胡","569","","","","match","","","","","","","","","","","","","","key","j","16.664444444444637","768","428","j","true","match","img/pentagon.png","五边","五边","ALT1_2","prac_ALT1_2","","","","","","","","","","","",""
"null","<span style='color:GreenYellow; font-size: 70px;'>正确! </span>","null","html-keyboard-response","50","210841","0.0-7.0-1.0-1.0-0.0-1.20","4","4","4","4","4","4","4","4","4","4","5","5","5","5","5","5","5","5","5","5","1","1","1","1","1","1","1","1","1","0","0","1","1","0","0","0","1","0","1","1","0","1","0","1","5","1","1","1","2","2","1","2","2","5","1","621680854329982976","胡","569","","","","","","","","","","","","","","","","","","","","","","","","","","","","","","feedback_test","","","","","","","","","","","",""
"654","","f","psychophysics","51","212497","0.0-7.0-1.0-1.0-0.0-0.21","4","4","4","4","4","4","4","4","4","4","5","5","5","5","5","5","5","5","5","5","1","1","1","1","1","1","1","1","1","0","0","1","1","0","0","0","1","0","1","1","0","1","0","1","5","1","1","1","2","2","1","2","2","5","1","621680854329982976","胡","569","","","","nonmatch","","","","","","","","","","","","","","key","f","16.66565656565651","768","428","f","true","nonmatch","img/pentagon.png","梯形","五边","ALT1_2","prac_ALT1_2","","","","","","","","","","","",""
"null","<span style='color:GreenYellow; font-size: 70px;'>正确! </span>","null","html-keyboard-response","52","212998","0.0-7.0-1.0-1.0-0.0-1.21","4","4","4","4","4","4","4","4","4","4","5","5","5","5","5","5","5","5","5","5","1","1","1","1","1","1","1","1","1","0","0","1","1","0","0","0","1","0","1","1","0","1","0","1","5","1","1","1","2","2","1","2","2","5","1","621680854329982976","胡","569","","","","","","","","","","","","","","","","","","","","","","","","","","","","","","feedback_test","","","","","","","","","","","",""
"865","","j","psychophysics","53","214864","0.0-7.0-1.0-1.0-0.0-0.22","4","4","4","4","4","4","4","4","4","4","5","5","5","5","5","5","5","5","5","5","1","1","1","1","1","1","1","1","1","0","0","1","1","0","0","0","1","0","1","1","0","1","0","1","5","1","1","1","2","2","1","2","2","5","1","621680854329982976","胡","569","","","","match","","","","","","","","","","","","","","key","j","16.666666666666668","768","428","j","true","match","img/trapezoid.png","梯形","梯形","ALT1_2","prac_ALT1_2","","","","","","","","","","","",""
"null","<span style='color:GreenYellow; font-size: 70px;'>正确! </span>","null","html-keyboard-response","54","215365","0.0-7.0-1.0-1.0-0.0-1.22","4","4","4","4","4","4","4","4","4","4","5","5","5","5","5","5","5","5","5","5","1","1","1","1","1","1","1","1","1","0","0","1","1","0","0","0","1","0","1","1","0","1","0","1","5","1","1","1","2","2","1","2","2","5","1","621680854329982976","胡","569","","","","","","","","","","","","","","","","","","","","","","","","","","","","","","feedback_test","","","","","","","","","","","",""
"727","","f","psychophysics","55","217095","0.0-7.0-1.0-1.0-0.0-0.23","4","4","4","4","4","4","4","4","4","4","5","5","5","5","5","5","5","5","5","5","1","1","1","1","1","1","1","1","1","0","0","1","1","0","0","0","1","0","1","1","0","1","0","1","5","1","1","1","2","2","1","2","2","5","1","621680854329982976","胡","569","","","","nonmatch","","","","","","","","","","","","","","key","f","16.666019417475784","768","428","f","true","nonmatch","img/circle.png","五边","圆形","ALT1_2","prac_ALT1_2","","","","","","","","","","","",""
"null","<span style='color:GreenYellow; font-size: 70px;'>正确! </span>","null","html-keyboard-response","56","217596","0.0-7.0-1.0-1.0-0.0-1.23","4","4","4","4","4","4","4","4","4","4","5","5","5","5","5","5","5","5","5","5","1","1","1","1","1","1","1","1","1","0","0","1","1","0","0","0","1","0","1","1","0","1","0","1","5","1","1","1","2","2","1","2","2","5","1","621680854329982976","胡","569","","","","","","","","","","","","","","","","","","","","","","","","","","","","","","feedback_test","","","","","","","","","","","",""
"612","","f","psychophysics","57","219210","0.0-7.0-1.0-1.0-0.0-0.24","4","4","4","4","4","4","4","4","4","4","5","5","5","5","5","5","5","5","5","5","1","1","1","1","1","1","1","1","1","0","0","1","1","0","0","0","1","0","1","1","0","1","0","1","5","1","1","1","2","2","1","2","2","5","1","621680854329982976","胡","569","","","","nonmatch","","","","","","","","","","","","","","key","f","16.667708333333394","768","428","f","true","nonmatch","img/pentagon.png","菱形","五边","ALT1_2","prac_ALT1_2","","","","","","","","","","","",""
"null","<span style='color:GreenYellow; font-size: 70px;'>正确! </span>","null","html-keyboard-response","58","219712","0.0-7.0-1.0-1.0-0.0-1.24","4","4","4","4","4","4","4","4","4","4","5","5","5","5","5","5","5","5","5","5","1","1","1","1","1","1","1","1","1","0","0","1","1","0","0","0","1","0","1","1","0","1","0","1","5","1","1","1","2","2","1","2","2","5","1","621680854329982976","胡","569","","","","","","","","","","","","","","","","","","","","","","","","","","","","","","feedback_test","","","","","","","","","","","",""
"603","","j","psychophysics","59","221316","0.0-7.0-1.0-1.0-0.0-0.25","4","4","4","4","4","4","4","4","4","4","5","5","5","5","5","5","5","5","5","5","1","1","1","1","1","1","1","1","1","0","0","1","1","0","0","0","1","0","1","1","0","1","0","1","5","1","1","1","2","2","1","2","2","5","1","621680854329982976","胡","569","","","","match","","","","","","","","","","","","","","key","j","16.66526315789486","768","428","f","false","nonmatch","img/circle.png","菱形","圆形","ALT1_2","prac_ALT1_2","","","","","","","","","","","",""
"null","<span style='color:red; font-size: 70px;'>错误! </span>","null","html-keyboard-response","60","221818","0.0-7.0-1.0-1.0-0.0-1.25","4","4","4","4","4","4","4","4","4","4","5","5","5","5","5","5","5","5","5","5","1","1","1","1","1","1","1","1","1","0","0","1","1","0","0","0","1","0","1","1","0","1","0","1","5","1","1","1","2","2","1","2","2","5","1","621680854329982976","胡","569","","","","","","","","","","","","","","","","","","","","","","","","","","","","","","feedback_test","","","","","","","","","","","",""
"573","","j","psychophysics","61","223392","0.0-7.0-1.0-1.0-0.0-0.26","4","4","4","4","4","4","4","4","4","4","5","5","5","5","5","5","5","5","5","5","1","1","1","1","1","1","1","1","1","0","0","1","1","0","0","0","1","0","1","1","0","1","0","1","5","1","1","1","2","2","1","2","2","5","1","621680854329982976","胡","569","","","","match","","","","","","","","","","","","","","key","j","16.666666666666668","768","428","j","true","match","img/circle.png","圆形","圆形","ALT1_2","prac_ALT1_2","","","","","","","","","","","",""
"null","<span style='color:GreenYellow; font-size: 70px;'>正确! </span>","null","html-keyboard-response","62","223893","0.0-7.0-1.0-1.0-0.0-1.26","4","4","4","4","4","4","4","4","4","4","5","5","5","5","5","5","5","5","5","5","1","1","1","1","1","1","1","1","1","0","0","1","1","0","0","0","1","0","1","1","0","1","0","1","5","1","1","1","2","2","1","2","2","5","1","621680854329982976","胡","569","","","","","","","","","","","","","","","","","","","","","","","","","","","","","","feedback_test","","","","","","","","","","","",""
"631","","f","psychophysics","63","225526","0.0-7.0-1.0-1.0-0.0-0.27","4","4","4","4","4","4","4","4","4","4","5","5","5","5","5","5","5","5","5","5","1","1","1","1","1","1","1","1","1","0","0","1","1","0","0","0","1","0","1","1","0","1","0","1","5","1","1","1","2","2","1","2","2","5","1","621680854329982976","胡","569","","","","nonmatch","","","","","","","","","","","","","","key","f","16.664583333333514","768","428","f","true","nonmatch","img/pentagon.png","梯形","五边","ALT1_2","prac_ALT1_2","","","","","","","","","","","",""
"null","<span style='color:GreenYellow; font-size: 70px;'>正确! </span>","null","html-keyboard-response","64","226027","0.0-7.0-1.0-1.0-0.0-1.27","4","4","4","4","4","4","4","4","4","4","5","5","5","5","5","5","5","5","5","5","1","1","1","1","1","1","1","1","1","0","0","1","1","0","0","0","1","0","1","1","0","1","0","1","5","1","1","1","2","2","1","2","2","5","1","621680854329982976","胡","569","","","","","","","","","","","","","","","","","","","","","","","","","","","","","","feedback_test","","","","","","","","","","","",""
"779","","f","psychophysics","65","227808","0.0-7.0-1.0-1.0-0.0-0.28","4","4","4","4","4","4","4","4","4","4","5","5","5","5","5","5","5","5","5","5","1","1","1","1","1","1","1","1","1","0","0","1","1","0","0","0","1","0","1","1","0","1","0","1","5","1","1","1","2","2","1","2","2","5","1","621680854329982976","胡","569","","","","nonmatch","","","","","","","","","","","","","","key","f","16.665714285714508","768","428","f","true","nonmatch","img/circle.png","梯形","圆形","ALT1_2","prac_ALT1_2","","","","","","","","","","","",""
"null","<span style='color:GreenYellow; font-size: 70px;'>正确! </span>","null","html-keyboard-response","66","228309","0.0-7.0-1.0-1.0-0.0-1.28","4","4","4","4","4","4","4","4","4","4","5","5","5","5","5","5","5","5","5","5","1","1","1","1","1","1","1","1","1","0","0","1","1","0","0","0","1","0","1","1","0","1","0","1","5","1","1","1","2","2","1","2","2","5","1","621680854329982976","胡","569","","","","","","","","","","","","","","","","","","","","","","","","","","","","","","feedback_test","","","","","","","","","","","",""
"557","","j","psychophysics","67","229868","0.0-7.0-1.0-1.0-0.0-0.29","4","4","4","4","4","4","4","4","4","4","5","5","5","5","5","5","5","5","5","5","1","1","1","1","1","1","1","1","1","0","0","1","1","0","0","0","1","0","1","1","0","1","0","1","5","1","1","1","2","2","1","2","2","5","1","621680854329982976","胡","569","","","","match","","","","","","","","","","","","","","key","j","16.66413043478267","768","428","j","true","match","img/diamond.png","菱形","菱形","ALT1_2","prac_ALT1_2","","","","","","","","","","","",""
"null","<span style='color:GreenYellow; font-size: 70px;'>正确! </span>","null","html-keyboard-response","68","230370","0.0-7.0-1.0-1.0-0.0-1.29","4","4","4","4","4","4","4","4","4","4","5","5","5","5","5","5","5","5","5","5","1","1","1","1","1","1","1","1","1","0","0","1","1","0","0","0","1","0","1","1","0","1","0","1","5","1","1","1","2","2","1","2","2","5","1","621680854329982976","胡","569","","","","","","","","","","","","","","","","","","","","","","","","","","","","","","feedback_test","","","","","","","","","","","",""
"723","","j","psychophysics","69","232096","0.0-7.0-1.0-1.0-0.0-0.30","4","4","4","4","4","4","4","4","4","4","5","5","5","5","5","5","5","5","5","5","1","1","1","1","1","1","1","1","1","0","0","1","1","0","0","0","1","0","1","1","0","1","0","1","5","1","1","1","2","2","1","2","2","5","1","621680854329982976","胡","569","","","","match","","","","","","","","","","","","","","key","j","16.66407766990314","768","428","j","true","match","img/circle.png","圆形","圆形","ALT1_2","prac_ALT1_2","","","","","","","","","","","",""
"null","<span style='color:GreenYellow; font-size: 70px;'>正确! </span>","null","html-keyboard-response","70","232597","0.0-7.0-1.0-1.0-0.0-1.30","4","4","4","4","4","4","4","4","4","4","5","5","5","5","5","5","5","5","5","5","1","1","1","1","1","1","1","1","1","0","0","1","1","0","0","0","1","0","1","1","0","1","0","1","5","1","1","1","2","2","1","2","2","5","1","621680854329982976","胡","569","","","","","","","","","","","","","","","","","","","","","","","","","","","","","","feedback_test","","","","","","","","","","","",""
"928","","f","psychophysics","71","234525","0.0-7.0-1.0-1.0-0.0-0.31","4","4","4","4","4","4","4","4","4","4","5","5","5","5","5","5","5","5","5","5","1","1","1","1","1","1","1","1","1","0","0","1","1","0","0","0","1","0","1","1","0","1","0","1","5","1","1","1","2","2","1","2","2","5","1","621680854329982976","胡","569","","","","nonmatch","","","","","","","","","","","","","","key","f","16.66434782608716","768","428","f","true","nonmatch","img/trapezoid.png","菱形","梯形","ALT1_2","prac_ALT1_2","","","","","","","","","","","",""
"null","<span style='color:GreenYellow; font-size: 70px;'>正确! </span>","null","html-keyboard-response","72","235026","0.0-7.0-1.0-1.0-0.0-1.31","4","4","4","4","4","4","4","4","4","4","5","5","5","5","5","5","5","5","5","5","1","1","1","1","1","1","1","1","1","0","0","1","1","0","0","0","1","0","1","1","0","1","0","1","5","1","1","1","2","2","1","2","2","5","1","621680854329982976","胡","569","","","","","","","","","","","","","","","","","","","","","","","","","","","","","","feedback_test","","","","","","","","","","","",""
"700","","f","psychophysics","73","236728","0.0-7.0-1.0-1.0-0.0-0.32","4","4","4","4","4","4","4","4","4","4","5","5","5","5","5","5","5","5","5","5","1","1","1","1","1","1","1","1","1","0","0","1","1","0","0","0","1","0","1","1","0","1","0","1","5","1","1","1","2","2","1","2","2","5","1","621680854329982976","胡","569","","","","nonmatch","","","","","","","","","","","","","","key","f","16.66534653465358","768","428","f","true","nonmatch","img/pentagon.png","圆形","五边","ALT1_2","prac_ALT1_2","","","","","","","","","","","",""
"null","<span style='color:GreenYellow; font-size: 70px;'>正确! </span>","null","html-keyboard-response","74","237229","0.0-7.0-1.0-1.0-0.0-1.32","4","4","4","4","4","4","4","4","4","4","5","5","5","5","5","5","5","5","5","5","1","1","1","1","1","1","1","1","1","0","0","1","1","0","0","0","1","0","1","1","0","1","0","1","5","1","1","1","2","2","1","2","2","5","1","621680854329982976","胡","569","","","","","","","","","","","","","","","","","","","","","","","","","","","","","","feedback_test","","","","","","","","","","","",""
"656","","j","psychophysics","75","238887","0.0-7.0-1.0-1.0-0.0-0.33","4","4","4","4","4","4","4","4","4","4","5","5","5","5","5","5","5","5","5","5","1","1","1","1","1","1","1","1","1","0","0","1","1","0","0","0","1","0","1","1","0","1","0","1","5","1","1","1","2","2","1","2","2","5","1","621680854329982976","胡","569","","","","match","","","","","","","","","","","","","","key","j","16.6653061224488","768","428","j","true","match","img/pentagon.png","五边","五边","ALT1_2","prac_ALT1_2","","","","","","","","","","","",""
"null","<span style='color:GreenYellow; font-size: 70px;'>正确! </span>","null","html-keyboard-response","76","239389","0.0-7.0-1.0-1.0-0.0-1.33","4","4","4","4","4","4","4","4","4","4","5","5","5","5","5","5","5","5","5","5","1","1","1","1","1","1","1","1","1","0","0","1","1","0","0","0","1","0","1","1","0","1","0","1","5","1","1","1","2","2","1","2","2","5","1","621680854329982976","胡","569","","","","","","","","","","","","","","","","","","","","","","","","","","","","","","feedback_test","","","","","","","","","","","",""
"850","","f","psychophysics","77","241241","0.0-7.0-1.0-1.0-0.0-0.34","4","4","4","4","4","4","4","4","4","4","5","5","5","5","5","5","5","5","5","5","1","1","1","1","1","1","1","1","1","0","0","1","1","0","0","0","1","0","1","1","0","1","0","1","5","1","1","1","2","2","1","2","2","5","1","621680854329982976","胡","569","","","","nonmatch","","","","","","","","","","","","","","key","f","16.66396396396407","768","428","f","true","nonmatch","img/diamond.png","五边","菱形","ALT1_2","prac_ALT1_2","","","","","","","","","","","",""
"null","<span style='color:GreenYellow; font-size: 70px;'>正确! </span>","null","html-keyboard-response","78","241742","0.0-7.0-1.0-1.0-0.0-1.34","4","4","4","4","4","4","4","4","4","4","5","5","5","5","5","5","5","5","5","5","1","1","1","1","1","1","1","1","1","0","0","1","1","0","0","0","1","0","1","1","0","1","0","1","5","1","1","1","2","2","1","2","2","5","1","621680854329982976","胡","569","","","","","","","","","","","","","","","","","","","","","","","","","","","","","","feedback_test","","","","","","","","","","","",""
"755","","j","psychophysics","79","243499","0.0-7.0-1.0-1.0-0.0-0.35","4","4","4","4","4","4","4","4","4","4","5","5","5","5","5","5","5","5","5","5","1","1","1","1","1","1","1","1","1","0","0","1","1","0","0","0","1","0","1","1","0","1","0","1","5","1","1","1","2","2","1","2","2","5","1","621680854329982976","胡","569","","","","match","","","","","","","","","","","","","","key","j","16.665384615384728","768","428","j","true","match","img/pentagon.png","五边","五边","ALT1_2","prac_ALT1_2","","","","","","","","","","","",""
"null","<span style='color:GreenYellow; font-size: 70px;'>正确! </span>","null","html-keyboard-response","80","244000","0.0-7.0-1.0-1.0-0.0-1.35","4","4","4","4","4","4","4","4","4","4","5","5","5","5","5","5","5","5","5","5","1","1","1","1","1","1","1","1","1","0","0","1","1","0","0","0","1","0","1","1","0","1","0","1","5","1","1","1","2","2","1","2","2","5","1","621680854329982976","胡","569","","","","","","","","","","","","","","","","","","","","","","","","","","","","","","feedback_test","","","","","","","","","","","",""
"703","","j","psychophysics","81","245705","0.0-7.0-1.0-1.0-0.0-0.36","4","4","4","4","4","4","4","4","4","4","5","5","5","5","5","5","5","5","5","5","1","1","1","1","1","1","1","1","1","0","0","1","1","0","0","0","1","0","1","1","0","1","0","1","5","1","1","1","2","2","1","2","2","5","1","621680854329982976","胡","569","","","","match","","","","","","","","","","","","","","key","j","16.66633663366354","768","428","j","true","match","img/diamond.png","菱形","菱形","ALT1_2","prac_ALT1_2","","","","","","","","","","","",""
"null","<span style='color:GreenYellow; font-size: 70px;'>正确! </span>","null","html-keyboard-response","82","246206","0.0-7.0-1.0-1.0-0.0-1.36","4","4","4","4","4","4","4","4","4","4","5","5","5","5","5","5","5","5","5","5","1","1","1","1","1","1","1","1","1","0","0","1","1","0","0","0","1","0","1","1","0","1","0","1","5","1","1","1","2","2","1","2","2","5","1","621680854329982976","胡","569","","","","","","","","","","","","","","","","","","","","","","","","","","","","","","feedback_test","","","","","","","","","","","",""
"706","","j","psychophysics","83","247912","0.0-7.0-1.0-1.0-0.0-0.37","4","4","4","4","4","4","4","4","4","4","5","5","5","5","5","5","5","5","5","5","1","1","1","1","1","1","1","1","1","0","0","1","1","0","0","0","1","0","1","1","0","1","0","1","5","1","1","1","2","2","1","2","2","5","1","621680854329982976","胡","569","","","","match","","","","","","","","","","","","","","key","j","16.6574257425742","768","428","j","true","match","img/diamond.png","菱形","菱形","ALT1_2","prac_ALT1_2","","","","","","","","","","","",""
"null","<span style='color:GreenYellow; font-size: 70px;'>正确! </span>","null","html-keyboard-response","84","248414","0.0-7.0-1.0-1.0-0.0-1.37","4","4","4","4","4","4","4","4","4","4","5","5","5","5","5","5","5","5","5","5","1","1","1","1","1","1","1","1","1","0","0","1","1","0","0","0","1","0","1","1","0","1","0","1","5","1","1","1","2","2","1","2","2","5","1","621680854329982976","胡","569","","","","","","","","","","","","","","","","","","","","","","","","","","","","","","feedback_test","","","","","","","","","","","",""
"605","","j","psychophysics","85","250020","0.0-7.0-1.0-1.0-0.0-0.38","4","4","4","4","4","4","4","4","4","4","5","5","5","5","5","5","5","5","5","5","1","1","1","1","1","1","1","1","1","0","0","1","1","0","0","0","1","0","1","1","0","1","0","1","5","1","1","1","2","2","1","2","2","5","1","621680854329982976","胡","569","","","","match","","","","","","","","","","","","","","key","j","16.664210526315543","768","428","j","true","match","img/trapezoid.png","梯形","梯形","ALT1_2","prac_ALT1_2","","","","","","","","","","","",""
"null","<span style='color:GreenYellow; font-size: 70px;'>正确! </span>","null","html-keyboard-response","86","250521","0.0-7.0-1.0-1.0-0.0-1.38","4","4","4","4","4","4","4","4","4","4","5","5","5","5","5","5","5","5","5","5","1","1","1","1","1","1","1","1","1","0","0","1","1","0","0","0","1","0","1","1","0","1","0","1","5","1","1","1","2","2","1","2","2","5","1","621680854329982976","胡","569","","","","","","","","","","","","","","","","","","","","","","","","","","","","","","feedback_test","","","","","","","","","","","",""
"546","","j","psychophysics","87","252069","0.0-7.0-1.0-1.0-0.0-0.39","4","4","4","4","4","4","4","4","4","4","5","5","5","5","5","5","5","5","5","5","1","1","1","1","1","1","1","1","1","0","0","1","1","0","0","0","1","0","1","1","0","1","0","1","5","1","1","1","2","2","1","2","2","5","1","621680854329982976","胡","569","","","","match","","","","","","","","","","","","","","key","j","16.66413043478267","768","428","j","true","match","img/pentagon.png","五边","五边","ALT1_2","prac_ALT1_2","","","","","","","","","","","",""
"null","<span style='color:GreenYellow; font-size: 70px;'>正确! </span>","null","html-keyboard-response","88","252570","0.0-7.0-1.0-1.0-0.0-1.39","4","4","4","4","4","4","4","4","4","4","5","5","5","5","5","5","5","5","5","5","1","1","1","1","1","1","1","1","1","0","0","1","1","0","0","0","1","0","1","1","0","1","0","1","5","1","1","1","2","2","1","2","2","5","1","621680854329982976","胡","569","","","","","","","","","","","","","","","","","","","","","","","","","","","","","","feedback_test","","","","","","","","","","","",""
"603","","j","psychophysics","89","254174","0.0-7.0-1.0-1.0-0.0-0.40","4","4","4","4","4","4","4","4","4","4","5","5","5","5","5","5","5","5","5","5","1","1","1","1","1","1","1","1","1","0","0","1","1","0","0","0","1","0","1","1","0","1","0","1","5","1","1","1","2","2","1","2","2","5","1","621680854329982976","胡","569","","","","match","","","","","","","","","","","","","","key","j","16.665624999999938","768","428","j","true","match","img/trapezoid.png","梯形","梯形","ALT1_2","prac_ALT1_2","","","","","","","","","","","",""
"null","<span style='color:GreenYellow; font-size: 70px;'>正确! </span>","null","html-keyboard-response","90","254677","0.0-7.0-1.0-1.0-0.0-1.40","4","4","4","4","4","4","4","4","4","4","5","5","5","5","5","5","5","5","5","5","1","1","1","1","1","1","1","1","1","0","0","1","1","0","0","0","1","0","1","1","0","1","0","1","5","1","1","1","2","2","1","2","2","5","1","621680854329982976","胡","569","","","","","","","","","","","","","","","","","","","","","","","","","","","","","","feedback_test","","","","","","","","","","","",""
"720","","f","psychophysics","91","256398","0.0-7.0-1.0-1.0-0.0-0.41","4","4","4","4","4","4","4","4","4","4","5","5","5","5","5","5","5","5","5","5","1","1","1","1","1","1","1","1","1","0","0","1","1","0","0","0","1","0","1","1","0","1","0","1","5","1","1","1","2","2","1","2","2","5","1","621680854329982976","胡","569","","","","nonmatch","","","","","","","","","","","","","","key","f","16.666666666666668","768","428","f","true","nonmatch","img/trapezoid.png","五边","梯形","ALT1_2","prac_ALT1_2","","","","","","","","","","","",""
"null","<span style='color:GreenYellow; font-size: 70px;'>正确! </span>","null","html-keyboard-response","92","256901","0.0-7.0-1.0-1.0-0.0-1.41","4","4","4","4","4","4","4","4","4","4","5","5","5","5","5","5","5","5","5","5","1","1","1","1","1","1","1","1","1","0","0","1","1","0","0","0","1","0","1","1","0","1","0","1","5","1","1","1","2","2","1","2","2","5","1","621680854329982976","胡","569","","","","","","","","","","","","","","","","","","","","","","","","","","","","","","feedback_test","","","","","","","","","","","",""
"639","","j","psychophysics","93","258542","0.0-7.0-1.0-1.0-0.0-0.42","4","4","4","4","4","4","4","4","4","4","5","5","5","5","5","5","5","5","5","5","1","1","1","1","1","1","1","1","1","0","0","1","1","0","0","0","1","0","1","1","0","1","0","1","5","1","1","1","2","2","1","2","2","5","1","621680854329982976","胡","569","","","","match","","","","","","","","","","","","","","key","j","16.666326530612125","768","428","j","true","match","img/circle.png","圆形","圆形","ALT1_2","prac_ALT1_2","","","","","","","","","","","",""
"null","<span style='color:GreenYellow; font-size: 70px;'>正确! </span>","null","html-keyboard-response","94","259043","0.0-7.0-1.0-1.0-0.0-1.42","4","4","4","4","4","4","4","4","4","4","5","5","5","5","5","5","5","5","5","5","1","1","1","1","1","1","1","1","1","0","0","1","1","0","0","0","1","0","1","1","0","1","0","1","5","1","1","1","2","2","1","2","2","5","1","621680854329982976","胡","569","","","","","","","","","","","","","","","","","","","","","","","","","","","","","","feedback_test","","","","","","","","","","","",""
"699","","f","psychophysics","95","260744","0.0-7.0-1.0-1.0-0.0-0.43","4","4","4","4","4","4","4","4","4","4","5","5","5","5","5","5","5","5","5","5","1","1","1","1","1","1","1","1","1","0","0","1","1","0","0","0","1","0","1","1","0","1","0","1","5","1","1","1","2","2","1","2","2","5","1","621680854329982976","胡","569","","","","nonmatch","","","","","","","","","","","","","","key","f","16.66633663366354","768","428","f","true","nonmatch","img/diamond.png","圆形","菱形","ALT1_2","prac_ALT1_2","","","","","","","","","","","",""
"null","<span style='color:GreenYellow; font-size: 70px;'>正确! </span>","null","html-keyboard-response","96","261244","0.0-7.0-1.0-1.0-0.0-1.43","4","4","4","4","4","4","4","4","4","4","5","5","5","5","5","5","5","5","5","5","1","1","1","1","1","1","1","1","1","0","0","1","1","0","0","0","1","0","1","1","0","1","0","1","5","1","1","1","2","2","1","2","2","5","1","621680854329982976","胡","569","","","","","","","","","","","","","","","","","","","","","","","","","","","","","","feedback_test","","","","","","","","","","","",""
"623","","f","psychophysics","97","262869","0.0-7.0-1.0-1.0-0.0-0.44","4","4","4","4","4","4","4","4","4","4","5","5","5","5","5","5","5","5","5","5","1","1","1","1","1","1","1","1","1","0","0","1","1","0","0","0","1","0","1","1","0","1","0","1","5","1","1","1","2","2","1","2","2","5","1","621680854329982976","胡","569","","","","nonmatch","","","","","","","","","","","","","","key","f","16.665625000000244","768","428","f","true","nonmatch","img/trapezoid.png","圆形","梯形","ALT1_2","prac_ALT1_2","","","","","","","","","","","",""
"null","<span style='color:GreenYellow; font-size: 70px;'>正确! </span>","null","html-keyboard-response","98","263370","0.0-7.0-1.0-1.0-0.0-1.44","4","4","4","4","4","4","4","4","4","4","5","5","5","5","5","5","5","5","5","5","1","1","1","1","1","1","1","1","1","0","0","1","1","0","0","0","1","0","1","1","0","1","0","1","5","1","1","1","2","2","1","2","2","5","1","621680854329982976","胡","569","","","","","","","","","","","","","","","","","","","","","","","","","","","","","","feedback_test","","","","","","","","","","","",""
"781","","f","psychophysics","99","265151","0.0-7.0-1.0-1.0-0.0-0.45","4","4","4","4","4","4","4","4","4","4","5","5","5","5","5","5","5","5","5","5","1","1","1","1","1","1","1","1","1","0","0","1","1","0","0","0","1","0","1","1","0","1","0","1","5","1","1","1","2","2","1","2","2","5","1","621680854329982976","胡","569","","","","nonmatch","","","","","","","","","","","","","","key","f","16.658095238095015","768","428","f","true","nonmatch","img/diamond.png","梯形","菱形","ALT1_2","prac_ALT1_2","","","","","","","","","","","",""
"null","<span style='color:GreenYellow; font-size: 70px;'>正确! </span>","null","html-keyboard-response","100","265666","0.0-7.0-1.0-1.0-0.0-1.45","4","4","4","4","4","4","4","4","4","4","5","5","5","5","5","5","5","5","5","5","1","1","1","1","1","1","1","1","1","0","0","1","1","0","0","0","1","0","1","1","0","1","0","1","5","1","1","1","2","2","1","2","2","5","1","621680854329982976","胡","569","","","","","","","","","","","","","","","","","","","","","","","","","","","","","","feedback_test","","","","","","","","","","","",""
"652","","j","psychophysics","101","267320","0.0-7.0-1.0-1.0-0.0-0.46","4","4","4","4","4","4","4","4","4","4","5","5","5","5","5","5","5","5","5","5","1","1","1","1","1","1","1","1","1","0","0","1","1","0","0","0","1","0","1","1","0","1","0","1","5","1","1","1","2","2","1","2","2","5","1","621680854329982976","胡","569","","","","match","","","","","","","","","","","","","","key","j","16.66428571428607","768","428","j","true","match","img/trapezoid.png","梯形","梯形","ALT1_2","prac_ALT1_2","","","","","","","","","","","",""
"null","<span style='color:GreenYellow; font-size: 70px;'>正确! </span>","null","html-keyboard-response","102","267820","0.0-7.0-1.0-1.0-0.0-1.46","4","4","4","4","4","4","4","4","4","4","5","5","5","5","5","5","5","5","5","5","1","1","1","1","1","1","1","1","1","0","0","1","1","0","0","0","1","0","1","1","0","1","0","1","5","1","1","1","2","2","1","2","2","5","1","621680854329982976","胡","569","","","","","","","","","","","","","","","","","","","","","","","","","","","","","","feedback_test","","","","","","","","","","","",""
"610","","f","psychophysics","103","269431","0.0-7.0-1.0-1.0-0.0-0.47","4","4","4","4","4","4","4","4","4","4","5","5","5","5","5","5","5","5","5","5","1","1","1","1","1","1","1","1","1","0","0","1","1","0","0","0","1","0","1","1","0","1","0","1","5","1","1","1","2","2","1","2","2","5","1","621680854329982976","胡","569","","","","nonmatch","","","","","","","","","","","","","","key","f","16.654736842105386","768","428","f","true","nonmatch","img/circle.png","五边","圆形","ALT1_2","prac_ALT1_2","","","","","","","","","","","",""
"null","<span style='color:GreenYellow; font-size: 70px;'>正确! </span>","null","html-keyboard-response","104","269944","0.0-7.0-1.0-1.0-0.0-1.47","4","4","4","4","4","4","4","4","4","4","5","5","5","5","5","5","5","5","5","5","1","1","1","1","1","1","1","1","1","0","0","1","1","0","0","0","1","0","1","1","0","1","0","1","5","1","1","1","2","2","1","2","2","5","1","621680854329982976","胡","569","","","","","","","","","","","","","","","","","","","","","","","","","","","","","","feedback_test","","","","","","","","","","","",""
"168927","<style>.context{color:white; font-size: 35px; line-height:40px}</style>                          <div><p class='context'>您正确回答了94% 的试次。</p><p class='context'>您的平均反应时为699毫秒。</p><p class='context'>恭喜您完成练习。按空格键进入正式实验。</p><p class='footer' style='font-size: 35px; line-height:40px;'>请在进入正式实验实验之前将您的<span style='color: lightgreen;'>食指</span>放在电脑键盘的相应键位上进行按键。</p>"," ","html-keyboard-response","105","438874","0.0-7.0-1.0-2.0","4","4","4","4","4","4","4","4","4","4","5","5","5","5","5","5","5","5","5","5","1","1","1","1","1","1","1","1","1","0","0","1","1","0","0","0","1","0","1","1","0","1","0","1","5","1","1","1","2","2","1","2","2","5","1","621680854329982976","胡","569","","","","","","","","","","","","","","","","","","","","","","","","","","","","","","","","","","","","","","","","","",""
"1498","
  <p style='color: white; font-size: 22px'>请您将手指放在按键上，准备进入正式的匹配任务。</p>
  <p> <div style = ""color: green""><按空格键进入下一阶段的匹配任务></div></p>
  "," ","html-keyboard-response","106","440375","0.0-7.0-1.0-3.0","4","4","4","4","4","4","4","4","4","4","5","5","5","5","5","5","5","5","5","5","1","1","1","1","1","1","1","1","1","0","0","1","1","0","0","0","1","0","1","1","0","1","0","1","5","1","1","1","2","2","1","2","2","5","1","621680854329982976","胡","569","","","","","","","","","","","","","","","","","","","","","","","","","","","","","","","","","","","","","","","","","",""
"599","","j","psychophysics","107","441975","0.0-7.0-1.0-4.0-0.0-0.0","4","4","4","4","4","4","4","4","4","4","5","5","5","5","5","5","5","5","5","5","1","1","1","1","1","1","1","1","1","0","0","1","1","0","0","0","1","0","1","1","0","1","0","1","5","1","1","1","2","2","1","2","2","5","1","621680854329982976","胡","569","","","","match","","","","","","","","","","","","","","key","j","16.66631578947356","768","428","j","true","match","img/trapezoid.png","梯形","梯形","ALT1","formal_ALT1_2","","","","","","","","","","","",""
"null","<span style='color:GreenYellow; font-size: 70px;'>正确! </span>","null","html-keyboard-response","108","442477","0.0-7.0-1.0-4.0-0.0-1.0","4","4","4","4","4","4","4","4","4","4","5","5","5","5","5","5","5","5","5","5","1","1","1","1","1","1","1","1","1","0","0","1","1","0","0","0","1","0","1","1","0","1","0","1","5","1","1","1","2","2","1","2","2","5","1","621680854329982976","胡","569","","","","","","","","","","","","","","","","","","","","","","","","","","","","","","feedback_test","","","","","","","","","","","",""
"777","","f","psychophysics","109","444257","0.0-7.0-1.0-4.0-0.0-0.1","4","4","4","4","4","4","4","4","4","4","5","5","5","5","5","5","5","5","5","5","1","1","1","1","1","1","1","1","1","0","0","1","1","0","0","0","1","0","1","1","0","1","0","1","5","1","1","1","2","2","1","2","2","5","1","621680854329982976","胡","569","","","","nonmatch","","","","","","","","","","","","","","key","f","16.66509433962264","768","428","f","true","nonmatch","img/diamond.png","圆形","菱形","ALT1","formal_ALT1_2","","","","","","","","","","","",""
"null","<span style='color:GreenYellow; font-size: 70px;'>正确! </span>","null","html-keyboard-response","110","444758","0.0-7.0-1.0-4.0-0.0-1.1","4","4","4","4","4","4","4","4","4","4","5","5","5","5","5","5","5","5","5","5","1","1","1","1","1","1","1","1","1","0","0","1","1","0","0","0","1","0","1","1","0","1","0","1","5","1","1","1","2","2","1","2","2","5","1","621680854329982976","胡","569","","","","","","","","","","","","","","","","","","","","","","","","","","","","","","feedback_test","","","","","","","","","","","",""
"587","","j","psychophysics","111","446347","0.0-7.0-1.0-4.0-0.0-0.2","4","4","4","4","4","4","4","4","4","4","5","5","5","5","5","5","5","5","5","5","1","1","1","1","1","1","1","1","1","0","0","1","1","0","0","0","1","0","1","1","0","1","0","1","5","1","1","1","2","2","1","2","2","5","1","621680854329982976","胡","569","","","","match","","","","","","","","","","","","","","key","j","16.662765957446684","768","428","j","true","match","img/diamond.png","菱形","菱形","ALT1","formal_ALT1_2","","","","","","","","","","","",""
"null","<span style='color:GreenYellow; font-size: 70px;'>正确! </span>","null","html-keyboard-response","112","446848","0.0-7.0-1.0-4.0-0.0-1.2","4","4","4","4","4","4","4","4","4","4","5","5","5","5","5","5","5","5","5","5","1","1","1","1","1","1","1","1","1","0","0","1","1","0","0","0","1","0","1","1","0","1","0","1","5","1","1","1","2","2","1","2","2","5","1","621680854329982976","胡","569","","","","","","","","","","","","","","","","","","","","","","","","","","","","","","feedback_test","","","","","","","","","","","",""
"649","","j","psychophysics","113","448497","0.0-7.0-1.0-4.0-0.0-0.3","4","4","4","4","4","4","4","4","4","4","5","5","5","5","5","5","5","5","5","5","1","1","1","1","1","1","1","1","1","0","0","1","1","0","0","0","1","0","1","1","0","1","0","1","5","1","1","1","2","2","1","2","2","5","1","621680854329982976","胡","569","","","","match","","","","","","","","","","","","","","key","j","16.66428571428607","768","428","j","true","match","img/pentagon.png","五边","五边","ALT1","formal_ALT1_2","","","","","","","","","","","",""
"null","<span style='color:GreenYellow; font-size: 70px;'>正确! </span>","null","html-keyboard-response","114","448999","0.0-7.0-1.0-4.0-0.0-1.3","4","4","4","4","4","4","4","4","4","4","5","5","5","5","5","5","5","5","5","5","1","1","1","1","1","1","1","1","1","0","0","1","1","0","0","0","1","0","1","1","0","1","0","1","5","1","1","1","2","2","1","2","2","5","1","621680854329982976","胡","569","","","","","","","","","","","","","","","","","","","","","","","","","","","","","","feedback_test","","","","","","","","","","","",""
"621","","j","psychophysics","115","450622","0.0-7.0-1.0-4.0-0.0-0.4","4","4","4","4","4","4","4","4","4","4","5","5","5","5","5","5","5","5","5","5","1","1","1","1","1","1","1","1","1","0","0","1","1","0","0","0","1","0","1","1","0","1","0","1","5","1","1","1","2","2","1","2","2","5","1","621680854329982976","胡","569","","","","match","","","","","","","","","","","","","","key","j","16.663917525773435","768","428","j","true","match","img/diamond.png","菱形","菱形","ALT1","formal_ALT1_2","","","","","","","","","","","",""
"null","<span style='color:GreenYellow; font-size: 70px;'>正确! </span>","null","html-keyboard-response","116","451123","0.0-7.0-1.0-4.0-0.0-1.4","4","4","4","4","4","4","4","4","4","4","5","5","5","5","5","5","5","5","5","5","1","1","1","1","1","1","1","1","1","0","0","1","1","0","0","0","1","0","1","1","0","1","0","1","5","1","1","1","2","2","1","2","2","5","1","621680854329982976","胡","569","","","","","","","","","","","","","","","","","","","","","","","","","","","","","","feedback_test","","","","","","","","","","","",""
"717","","j","psychophysics","117","452841","0.0-7.0-1.0-4.0-0.0-0.5","4","4","4","4","4","4","4","4","4","4","5","5","5","5","5","5","5","5","5","5","1","1","1","1","1","1","1","1","1","0","0","1","1","0","0","0","1","0","1","1","0","1","0","1","5","1","1","1","2","2","1","2","2","5","1","621680854329982976","胡","569","","","","match","","","","","","","","","","","","","","key","j","16.665686274510033","768","428","j","true","match","img/trapezoid.png","梯形","梯形","ALT1","formal_ALT1_2","","","","","","","","","","","",""
"null","<span style='color:GreenYellow; font-size: 70px;'>正确! </span>","null","html-keyboard-response","118","453342","0.0-7.0-1.0-4.0-0.0-1.5","4","4","4","4","4","4","4","4","4","4","5","5","5","5","5","5","5","5","5","5","1","1","1","1","1","1","1","1","1","0","0","1","1","0","0","0","1","0","1","1","0","1","0","1","5","1","1","1","2","2","1","2","2","5","1","621680854329982976","胡","569","","","","","","","","","","","","","","","","","","","","","","","","","","","","","","feedback_test","","","","","","","","","","","",""
"692","","j","psychophysics","119","455036","0.0-7.0-1.0-4.0-0.0-0.6","4","4","4","4","4","4","4","4","4","4","5","5","5","5","5","5","5","5","5","5","1","1","1","1","1","1","1","1","1","0","0","1","1","0","0","0","1","0","1","1","0","1","0","1","5","1","1","1","2","2","1","2","2","5","1","621680854329982976","胡","569","","","","match","","","","","","","","","","","","","","key","j","16.66534653465358","768","428","f","false","nonmatch","img/diamond.png","梯形","菱形","ALT1","formal_ALT1_2","","","","","","","","","","","",""
"null","<span style='color:red; font-size: 70px;'>错误! </span>","null","html-keyboard-response","120","455538","0.0-7.0-1.0-4.0-0.0-1.6","4","4","4","4","4","4","4","4","4","4","5","5","5","5","5","5","5","5","5","5","1","1","1","1","1","1","1","1","1","0","0","1","1","0","0","0","1","0","1","1","0","1","0","1","5","1","1","1","2","2","1","2","2","5","1","621680854329982976","胡","569","","","","","","","","","","","","","","","","","","","","","","","","","","","","","","feedback_test","","","","","","","","","","","",""
"733","","f","psychophysics","121","457273","0.0-7.0-1.0-4.0-0.0-0.7","4","4","4","4","4","4","4","4","4","4","5","5","5","5","5","5","5","5","5","5","1","1","1","1","1","1","1","1","1","0","0","1","1","0","0","0","1","0","1","1","0","1","0","1","5","1","1","1","2","2","1","2","2","5","1","621680854329982976","胡","569","","","","nonmatch","","","","","","","","","","","","","","key","f","16.66504854368932","768","428","f","true","nonmatch","img/pentagon.png","梯形","五边","ALT1","formal_ALT1_2","","","","","","","","","","","",""
"null","<span style='color:GreenYellow; font-size: 70px;'>正确! </span>","null","html-keyboard-response","122","457775","0.0-7.0-1.0-4.0-0.0-1.7","4","4","4","4","4","4","4","4","4","4","5","5","5","5","5","5","5","5","5","5","1","1","1","1","1","1","1","1","1","0","0","1","1","0","0","0","1","0","1","1","0","1","0","1","5","1","1","1","2","2","1","2","2","5","1","621680854329982976","胡","569","","","","","","","","","","","","","","","","","","","","","","","","","","","","","","feedback_test","","","","","","","","","","","",""
"560","","f","psychophysics","123","459336","0.0-7.0-1.0-4.0-0.0-0.8","4","4","4","4","4","4","4","4","4","4","5","5","5","5","5","5","5","5","5","5","1","1","1","1","1","1","1","1","1","0","0","1","1","0","0","0","1","0","1","1","0","1","0","1","5","1","1","1","2","2","1","2","2","5","1","621680854329982976","胡","569","","","","nonmatch","","","","","","","","","","","","","","key","f","16.665591397849713","768","428","f","true","nonmatch","img/circle.png","五边","圆形","ALT1","formal_ALT1_2","","","","","","","","","","","",""
"null","<span style='color:GreenYellow; font-size: 70px;'>正确! </span>","null","html-keyboard-response","124","459838","0.0-7.0-1.0-4.0-0.0-1.8","4","4","4","4","4","4","4","4","4","4","5","5","5","5","5","5","5","5","5","5","1","1","1","1","1","1","1","1","1","0","0","1","1","0","0","0","1","0","1","1","0","1","0","1","5","1","1","1","2","2","1","2","2","5","1","621680854329982976","胡","569","","","","","","","","","","","","","","","","","","","","","","","","","","","","","","feedback_test","","","","","","","","","","","",""
"537","","j","psychophysics","125","461377","0.0-7.0-1.0-4.0-0.0-0.9","4","4","4","4","4","4","4","4","4","4","5","5","5","5","5","5","5","5","5","5","1","1","1","1","1","1","1","1","1","0","0","1","1","0","0","0","1","0","1","1","0","1","0","1","5","1","1","1","2","2","1","2","2","5","1","621680854329982976","胡","569","","","","match","","","","","","","","","","","","","","key","j","16.664835164835164","768","428","j","true","match","img/pentagon.png","五边","五边","ALT1","formal_ALT1_2","","","","","","","","","","","",""
"null","<span style='color:GreenYellow; font-size: 70px;'>正确! </span>","null","html-keyboard-response","126","461878","0.0-7.0-1.0-4.0-0.0-1.9","4","4","4","4","4","4","4","4","4","4","5","5","5","5","5","5","5","5","5","5","1","1","1","1","1","1","1","1","1","0","0","1","1","0","0","0","1","0","1","1","0","1","0","1","5","1","1","1","2","2","1","2","2","5","1","621680854329982976","胡","569","","","","","","","","","","","","","","","","","","","","","","","","","","","","","","feedback_test","","","","","","","","","","","",""
"545","","j","psychophysics","127","463424","0.0-7.0-1.0-4.0-0.0-0.10","4","4","4","4","4","4","4","4","4","4","5","5","5","5","5","5","5","5","5","5","1","1","1","1","1","1","1","1","1","0","0","1","1","0","0","0","1","0","1","1","0","1","0","1","5","1","1","1","2","2","1","2","2","5","1","621680854329982976","胡","569","","","","match","","","","","","","","","","","","","","key","j","16.66630434782596","768","428","j","true","match","img/pentagon.png","五边","五边","ALT1","formal_ALT1_2","","","","","","","","","","","",""
"null","<span style='color:GreenYellow; font-size: 70px;'>正确! </span>","null","html-keyboard-response","128","463925","0.0-7.0-1.0-4.0-0.0-1.10","4","4","4","4","4","4","4","4","4","4","5","5","5","5","5","5","5","5","5","5","1","1","1","1","1","1","1","1","1","0","0","1","1","0","0","0","1","0","1","1","0","1","0","1","5","1","1","1","2","2","1","2","2","5","1","621680854329982976","胡","569","","","","","","","","","","","","","","","","","","","","","","","","","","","","","","feedback_test","","","","","","","","","","","",""
"563","","j","psychophysics","129","465491","0.0-7.0-1.0-4.0-0.0-0.11","4","4","4","4","4","4","4","4","4","4","5","5","5","5","5","5","5","5","5","5","1","1","1","1","1","1","1","1","1","0","0","1","1","0","0","0","1","0","1","1","0","1","0","1","5","1","1","1","2","2","1","2","2","5","1","621680854329982976","胡","569","","","","match","","","","","","","","","","","","","","key","j","16.666666666666668","768","428","j","true","match","img/circle.png","圆形","圆形","ALT1","formal_ALT1_2","","","","","","","","","","","",""
"null","<span style='color:GreenYellow; font-size: 70px;'>正确! </span>","null","html-keyboard-response","130","465993","0.0-7.0-1.0-4.0-0.0-1.11","4","4","4","4","4","4","4","4","4","4","5","5","5","5","5","5","5","5","5","5","1","1","1","1","1","1","1","1","1","0","0","1","1","0","0","0","1","0","1","1","0","1","0","1","5","1","1","1","2","2","1","2","2","5","1","621680854329982976","胡","569","","","","","","","","","","","","","","","","","","","","","","","","","","","","","","feedback_test","","","","","","","","","","","",""
"693","","f","psychophysics","131","467688","0.0-7.0-1.0-4.0-0.0-0.12","4","4","4","4","4","4","4","4","4","4","5","5","5","5","5","5","5","5","5","5","1","1","1","1","1","1","1","1","1","0","0","1","1","0","0","0","1","0","1","1","0","1","0","1","5","1","1","1","2","2","1","2","2","5","1","621680854329982976","胡","569","","","","nonmatch","","","","","","","","","","","","","","key","f","16.666336633663253","768","428","f","true","nonmatch","img/circle.png","菱形","圆形","ALT1","formal_ALT1_2","","","","","","","","","","","",""
"null","<span style='color:GreenYellow; font-size: 70px;'>正确! </span>","null","html-keyboard-response","132","468189","0.0-7.0-1.0-4.0-0.0-1.12","4","4","4","4","4","4","4","4","4","4","5","5","5","5","5","5","5","5","5","5","1","1","1","1","1","1","1","1","1","0","0","1","1","0","0","0","1","0","1","1","0","1","0","1","5","1","1","1","2","2","1","2","2","5","1","621680854329982976","胡","569","","","","","","","","","","","","","","","","","","","","","","","","","","","","","","feedback_test","","","","","","","","","","","",""
"625","","f","psychophysics","133","469815","0.0-7.0-1.0-4.0-0.0-0.13","4","4","4","4","4","4","4","4","4","4","5","5","5","5","5","5","5","5","5","5","1","1","1","1","1","1","1","1","1","0","0","1","1","0","0","0","1","0","1","1","0","1","0","1","5","1","1","1","2","2","1","2","2","5","1","621680854329982976","胡","569","","","","nonmatch","","","","","","","","","","","","","","key","f","16.66597938144366","768","428","f","true","nonmatch","img/trapezoid.png","五边","梯形","ALT1","formal_ALT1_2","","","","","","","","","","","",""
"null","<span style='color:GreenYellow; font-size: 70px;'>正确! </span>","null","html-keyboard-response","134","470316","0.0-7.0-1.0-4.0-0.0-1.13","4","4","4","4","4","4","4","4","4","4","5","5","5","5","5","5","5","5","5","5","1","1","1","1","1","1","1","1","1","0","0","1","1","0","0","0","1","0","1","1","0","1","0","1","5","1","1","1","2","2","1","2","2","5","1","621680854329982976","胡","569","","","","","","","","","","","","","","","","","","","","","","","","","","","","","","feedback_test","","","","","","","","","","","",""
"583","","f","psychophysics","135","471900","0.0-7.0-1.0-4.0-0.0-0.14","4","4","4","4","4","4","4","4","4","4","5","5","5","5","5","5","5","5","5","5","1","1","1","1","1","1","1","1","1","0","0","1","1","0","0","0","1","0","1","1","0","1","0","1","5","1","1","1","2","2","1","2","2","5","1","621680854329982976","胡","569","","","","nonmatch","","","","","","","","","","","","","","key","f","16.665957446808882","768","428","f","true","nonmatch","img/trapezoid.png","圆形","梯形","ALT1","formal_ALT1_2","","","","","","","","","","","",""
"null","<span style='color:GreenYellow; font-size: 70px;'>正确! </span>","null","html-keyboard-response","136","472401","0.0-7.0-1.0-4.0-0.0-1.14","4","4","4","4","4","4","4","4","4","4","5","5","5","5","5","5","5","5","5","5","1","1","1","1","1","1","1","1","1","0","0","1","1","0","0","0","1","0","1","1","0","1","0","1","5","1","1","1","2","2","1","2","2","5","1","621680854329982976","胡","569","","","","","","","","","","","","","","","","","","","","","","","","","","","","","","feedback_test","","","","","","","","","","","",""
"677","","f","psychophysics","137","474080","0.0-7.0-1.0-4.0-0.0-0.15","4","4","4","4","4","4","4","4","4","4","5","5","5","5","5","5","5","5","5","5","1","1","1","1","1","1","1","1","1","0","0","1","1","0","0","0","1","0","1","1","0","1","0","1","5","1","1","1","2","2","1","2","2","5","1","621680854329982976","胡","569","","","","nonmatch","","","","","","","","","","","","","","key","f","16.6656565656568","768","428","f","true","nonmatch","img/diamond.png","五边","菱形","ALT1","formal_ALT1_2","","","","","","","","","","","",""
"null","<span style='color:GreenYellow; font-size: 70px;'>正确! </span>","null","html-keyboard-response","138","474580","0.0-7.0-1.0-4.0-0.0-1.15","4","4","4","4","4","4","4","4","4","4","5","5","5","5","5","5","5","5","5","5","1","1","1","1","1","1","1","1","1","0","0","1","1","0","0","0","1","0","1","1","0","1","0","1","5","1","1","1","2","2","1","2","2","5","1","621680854329982976","胡","569","","","","","","","","","","","","","","","","","","","","","","","","","","","","","","feedback_test","","","","","","","","","","","",""
"597","","f","psychophysics","139","476178","0.0-7.0-1.0-4.0-0.0-0.16","4","4","4","4","4","4","4","4","4","4","5","5","5","5","5","5","5","5","5","5","1","1","1","1","1","1","1","1","1","0","0","1","1","0","0","0","1","0","1","1","0","1","0","1","5","1","1","1","2","2","1","2","2","5","1","621680854329982976","胡","569","","","","nonmatch","","","","","","","","","","","","","","key","f","16.656382978723528","768","428","f","true","nonmatch","img/pentagon.png","菱形","五边","ALT1","formal_ALT1_2","","","","","","","","","","","",""
"null","<span style='color:GreenYellow; font-size: 70px;'>正确! </span>","null","html-keyboard-response","140","476678","0.0-7.0-1.0-4.0-0.0-1.16","4","4","4","4","4","4","4","4","4","4","5","5","5","5","5","5","5","5","5","5","1","1","1","1","1","1","1","1","1","0","0","1","1","0","0","0","1","0","1","1","0","1","0","1","5","1","1","1","2","2","1","2","2","5","1","621680854329982976","胡","569","","","","","","","","","","","","","","","","","","","","","","","","","","","","","","feedback_test","","","","","","","","","","","",""
"527","","f","psychophysics","141","478206","0.0-7.0-1.0-4.0-0.0-0.17","4","4","4","4","4","4","4","4","4","4","5","5","5","5","5","5","5","5","5","5","1","1","1","1","1","1","1","1","1","0","0","1","1","0","0","0","1","0","1","1","0","1","0","1","5","1","1","1","2","2","1","2","2","5","1","621680854329982976","胡","569","","","","nonmatch","","","","","","","","","","","","","","key","f","16.66593406593445","768","428","f","true","nonmatch","img/pentagon.png","圆形","五边","ALT1","formal_ALT1_2","","","","","","","","","","","",""
"null","<span style='color:GreenYellow; font-size: 70px;'>正确! </span>","null","html-keyboard-response","142","478707","0.0-7.0-1.0-4.0-0.0-1.17","4","4","4","4","4","4","4","4","4","4","5","5","5","5","5","5","5","5","5","5","1","1","1","1","1","1","1","1","1","0","0","1","1","0","0","0","1","0","1","1","0","1","0","1","5","1","1","1","2","2","1","2","2","5","1","621680854329982976","胡","569","","","","","","","","","","","","","","","","","","","","","","","","","","","","","","feedback_test","","","","","","","","","","","",""
"580","","j","psychophysics","143","480288","0.0-7.0-1.0-4.0-0.0-0.18","4","4","4","4","4","4","4","4","4","4","5","5","5","5","5","5","5","5","5","5","1","1","1","1","1","1","1","1","1","0","0","1","1","0","0","0","1","0","1","1","0","1","0","1","5","1","1","1","2","2","1","2","2","5","1","621680854329982976","胡","569","","","","match","","","","","","","","","","","","","","key","j","16.667021276595868","768","428","j","true","match","img/circle.png","圆形","圆形","ALT1","formal_ALT1_2","","","","","","","","","","","",""
"null","<span style='color:GreenYellow; font-size: 70px;'>正确! </span>","null","html-keyboard-response","144","480789","0.0-7.0-1.0-4.0-0.0-1.18","4","4","4","4","4","4","4","4","4","4","5","5","5","5","5","5","5","5","5","5","1","1","1","1","1","1","1","1","1","0","0","1","1","0","0","0","1","0","1","1","0","1","0","1","5","1","1","1","2","2","1","2","2","5","1","621680854329982976","胡","569","","","","","","","","","","","","","","","","","","","","","","","","","","","","","","feedback_test","","","","","","","","","","","",""
"678","","j","psychophysics","145","482469","0.0-7.0-1.0-4.0-0.0-0.19","4","4","4","4","4","4","4","4","4","4","5","5","5","5","5","5","5","5","5","5","1","1","1","1","1","1","1","1","1","0","0","1","1","0","0","0","1","0","1","1","0","1","0","1","5","1","1","1","2","2","1","2","2","5","1","621680854329982976","胡","569","","","","match","","","","","","","","","","","","","","key","j","16.66600000000035","768","428","j","true","match","img/trapezoid.png","梯形","梯形","ALT1","formal_ALT1_2","","","","","","","","","","","",""
"null","<span style='color:GreenYellow; font-size: 70px;'>正确! </span>","null","html-keyboard-response","146","482970","0.0-7.0-1.0-4.0-0.0-1.19","4","4","4","4","4","4","4","4","4","4","5","5","5","5","5","5","5","5","5","5","1","1","1","1","1","1","1","1","1","0","0","1","1","0","0","0","1","0","1","1","0","1","0","1","5","1","1","1","2","2","1","2","2","5","1","621680854329982976","胡","569","","","","","","","","","","","","","","","","","","","","","","","","","","","","","","feedback_test","","","","","","","","","","","",""
"567","","j","psychophysics","147","484539","0.0-7.0-1.0-4.0-0.0-0.20","4","4","4","4","4","4","4","4","4","4","5","5","5","5","5","5","5","5","5","5","1","1","1","1","1","1","1","1","1","0","0","1","1","0","0","0","1","0","1","1","0","1","0","1","5","1","1","1","2","2","1","2","2","5","1","621680854329982976","胡","569","","","","match","","","","","","","","","","","","","","key","j","16.666666666666668","768","428","j","true","match","img/diamond.png","菱形","菱形","ALT1","formal_ALT1_2","","","","","","","","","","","",""
"null","<span style='color:GreenYellow; font-size: 70px;'>正确! </span>","null","html-keyboard-response","148","485040","0.0-7.0-1.0-4.0-0.0-1.20","4","4","4","4","4","4","4","4","4","4","5","5","5","5","5","5","5","5","5","5","1","1","1","1","1","1","1","1","1","0","0","1","1","0","0","0","1","0","1","1","0","1","0","1","5","1","1","1","2","2","1","2","2","5","1","621680854329982976","胡","569","","","","","","","","","","","","","","","","","","","","","","","","","","","","","","feedback_test","","","","","","","","","","","",""
"591","","f","psychophysics","149","486633","0.0-7.0-1.0-4.0-0.0-0.21","4","4","4","4","4","4","4","4","4","4","5","5","5","5","5","5","5","5","5","5","1","1","1","1","1","1","1","1","1","0","0","1","1","0","0","0","1","0","1","1","0","1","0","1","5","1","1","1","2","2","1","2","2","5","1","621680854329982976","胡","569","","","","nonmatch","","","","","","","","","","","","","","key","f","16.66526315789425","768","428","f","true","nonmatch","img/circle.png","梯形","圆形","ALT1","formal_ALT1_2","","","","","","","","","","","",""
"null","<span style='color:GreenYellow; font-size: 70px;'>正确! </span>","null","html-keyboard-response","150","487133","0.0-7.0-1.0-4.0-0.0-1.21","4","4","4","4","4","4","4","4","4","4","5","5","5","5","5","5","5","5","5","5","1","1","1","1","1","1","1","1","1","0","0","1","1","0","0","0","1","0","1","1","0","1","0","1","5","1","1","1","2","2","1","2","2","5","1","621680854329982976","胡","569","","","","","","","","","","","","","","","","","","","","","","","","","","","","","","feedback_test","","","","","","","","","","","",""
"557","","j","psychophysics","151","488691","0.0-7.0-1.0-4.0-0.0-0.22","4","4","4","4","4","4","4","4","4","4","5","5","5","5","5","5","5","5","5","5","1","1","1","1","1","1","1","1","1","0","0","1","1","0","0","0","1","0","1","1","0","1","0","1","5","1","1","1","2","2","1","2","2","5","1","621680854329982976","胡","569","","","","match","","","","","","","","","","","","","","key","j","16.666304347826593","768","428","j","true","match","img/circle.png","圆形","圆形","ALT1","formal_ALT1_2","","","","","","","","","","","",""
"null","<span style='color:GreenYellow; font-size: 70px;'>正确! </span>","null","html-keyboard-response","152","489193","0.0-7.0-1.0-4.0-0.0-1.22","4","4","4","4","4","4","4","4","4","4","5","5","5","5","5","5","5","5","5","5","1","1","1","1","1","1","1","1","1","0","0","1","1","0","0","0","1","0","1","1","0","1","0","1","5","1","1","1","2","2","1","2","2","5","1","621680854329982976","胡","569","","","","","","","","","","","","","","","","","","","","","","","","","","","","","","feedback_test","","","","","","","","","","","",""
"768","","f","psychophysics","153","490962","0.0-7.0-1.0-4.0-0.0-0.23","4","4","4","4","4","4","4","4","4","4","5","5","5","5","5","5","5","5","5","5","1","1","1","1","1","1","1","1","1","0","0","1","1","0","0","0","1","0","1","1","0","1","0","1","5","1","1","1","2","2","1","2","2","5","1","621680854329982976","胡","569","","","","nonmatch","","","","","","","","","","","","","","key","f","16.664761904761793","768","428","f","true","nonmatch","img/trapezoid.png","菱形","梯形","ALT1","formal_ALT1_2","","","","","","","","","","","",""
"null","<span style='color:GreenYellow; font-size: 70px;'>正确! </span>","null","html-keyboard-response","154","491463","0.0-7.0-1.0-4.0-0.0-1.23","4","4","4","4","4","4","4","4","4","4","5","5","5","5","5","5","5","5","5","5","1","1","1","1","1","1","1","1","1","0","0","1","1","0","0","0","1","0","1","1","0","1","0","1","5","1","1","1","2","2","1","2","2","5","1","621680854329982976","胡","569","","","","","","","","","","","","","","","","","","","","","","","","","","","","","","feedback_test","","","","","","","","","","","",""
"588","","f","psychophysics","155","493052","0.0-7.0-1.0-4.0-0.0-0.24","4","4","4","4","4","4","4","4","4","4","5","5","5","5","5","5","5","5","5","5","1","1","1","1","1","1","1","1","1","0","0","1","1","0","0","0","1","0","1","1","0","1","0","1","5","1","1","1","2","2","1","2","2","5","1","621680854329982976","胡","569","","","","nonmatch","","","","","","","","","","","","","","key","f","16.664893617021278","768","428","f","true","nonmatch","img/diamond.png","五边","菱形","ALT1","formal_ALT1_2","","","","","","","","","","","",""
"null","<span style='color:GreenYellow; font-size: 70px;'>正确! </span>","null","html-keyboard-response","156","493553","0.0-7.0-1.0-4.0-0.0-1.24","4","4","4","4","4","4","4","4","4","4","5","5","5","5","5","5","5","5","5","5","1","1","1","1","1","1","1","1","1","0","0","1","1","0","0","0","1","0","1","1","0","1","0","1","5","1","1","1","2","2","1","2","2","5","1","621680854329982976","胡","569","","","","","","","","","","","","","","","","","","","","","","","","","","","","","","feedback_test","","","","","","","","","","","",""
"647","","j","psychophysics","157","495202","0.0-7.0-1.0-4.0-0.0-0.25","4","4","4","4","4","4","4","4","4","4","5","5","5","5","5","5","5","5","5","5","1","1","1","1","1","1","1","1","1","0","0","1","1","0","0","0","1","0","1","1","0","1","0","1","5","1","1","1","2","2","1","2","2","5","1","621680854329982976","胡","569","","","","match","","","","","","","","","","","","","","key","j","16.666326530612125","768","428","j","true","match","img/trapezoid.png","梯形","梯形","ALT1","formal_ALT1_2","","","","","","","","","","","",""
"null","<span style='color:GreenYellow; font-size: 70px;'>正确! </span>","null","html-keyboard-response","158","495703","0.0-7.0-1.0-4.0-0.0-1.25","4","4","4","4","4","4","4","4","4","4","5","5","5","5","5","5","5","5","5","5","1","1","1","1","1","1","1","1","1","0","0","1","1","0","0","0","1","0","1","1","0","1","0","1","5","1","1","1","2","2","1","2","2","5","1","621680854329982976","胡","569","","","","","","","","","","","","","","","","","","","","","","","","","","","","","","feedback_test","","","","","","","","","","","",""
"542","","f","psychophysics","159","497246","0.0-7.0-1.0-4.0-0.0-0.26","4","4","4","4","4","4","4","4","4","4","5","5","5","5","5","5","5","5","5","5","1","1","1","1","1","1","1","1","1","0","0","1","1","0","0","0","1","0","1","1","0","1","0","1","5","1","1","1","2","2","1","2","2","5","1","621680854329982976","胡","569","","","","nonmatch","","","","","","","","","","","","","","key","f","16.667391304347447","768","428","f","true","nonmatch","img/pentagon.png","圆形","五边","ALT1","formal_ALT1_2","","","","","","","","","","","",""
"null","<span style='color:GreenYellow; font-size: 70px;'>正确! </span>","null","html-keyboard-response","160","497748","0.0-7.0-1.0-4.0-0.0-1.26","4","4","4","4","4","4","4","4","4","4","5","5","5","5","5","5","5","5","5","5","1","1","1","1","1","1","1","1","1","0","0","1","1","0","0","0","1","0","1","1","0","1","0","1","5","1","1","1","2","2","1","2","2","5","1","621680854329982976","胡","569","","","","","","","","","","","","","","","","","","","","","","","","","","","","","","feedback_test","","","","","","","","","","","",""
"609","","f","psychophysics","161","499360","0.0-7.0-1.0-4.0-0.0-0.27","4","4","4","4","4","4","4","4","4","4","5","5","5","5","5","5","5","5","5","5","1","1","1","1","1","1","1","1","1","0","0","1","1","0","0","0","1","0","1","1","0","1","0","1","5","1","1","1","2","2","1","2","2","5","1","621680854329982976","胡","569","","","","nonmatch","","","","","","","","","","","","","","key","f","16.66526315789486","768","428","f","true","nonmatch","img/diamond.png","圆形","菱形","ALT1","formal_ALT1_2","","","","","","","","","","","",""
"null","<span style='color:GreenYellow; font-size: 70px;'>正确! </span>","null","html-keyboard-response","162","499861","0.0-7.0-1.0-4.0-0.0-1.27","4","4","4","4","4","4","4","4","4","4","5","5","5","5","5","5","5","5","5","5","1","1","1","1","1","1","1","1","1","0","0","1","1","0","0","0","1","0","1","1","0","1","0","1","5","1","1","1","2","2","1","2","2","5","1","621680854329982976","胡","569","","","","","","","","","","","","","","","","","","","","","","","","","","","","","","feedback_test","","","","","","","","","","","",""
"728","","f","psychophysics","163","501590","0.0-7.0-1.0-4.0-0.0-0.28","4","4","4","4","4","4","4","4","4","4","5","5","5","5","5","5","5","5","5","5","1","1","1","1","1","1","1","1","1","0","0","1","1","0","0","0","1","0","1","1","0","1","0","1","5","1","1","1","2","2","1","2","2","5","1","621680854329982976","胡","569","","","","nonmatch","","","","","","","","","","","","","","key","f","16.6647058823534","768","428","f","true","nonmatch","img/pentagon.png","梯形","五边","ALT1","formal_ALT1_2","","","","","","","","","","","",""
"null","<span style='color:GreenYellow; font-size: 70px;'>正确! </span>","null","html-keyboard-response","164","502091","0.0-7.0-1.0-4.0-0.0-1.28","4","4","4","4","4","4","4","4","4","4","5","5","5","5","5","5","5","5","5","5","1","1","1","1","1","1","1","1","1","0","0","1","1","0","0","0","1","0","1","1","0","1","0","1","5","1","1","1","2","2","1","2","2","5","1","621680854329982976","胡","569","","","","","","","","","","","","","","","","","","","","","","","","","","","","","","feedback_test","","","","","","","","","","","",""
"752","","f","psychophysics","165","503844","0.0-7.0-1.0-4.0-0.0-0.29","4","4","4","4","4","4","4","4","4","4","5","5","5","5","5","5","5","5","5","5","1","1","1","1","1","1","1","1","1","0","0","1","1","0","0","0","1","0","1","1","0","1","0","1","5","1","1","1","2","2","1","2","2","5","1","621680854329982976","胡","569","","","","nonmatch","","","","","","","","","","","","","","key","f","16.665384615384728","768","428","f","true","nonmatch","img/trapezoid.png","菱形","梯形","ALT1","formal_ALT1_2","","","","","","","","","","","",""
"null","<span style='color:GreenYellow; font-size: 70px;'>正确! </span>","null","html-keyboard-response","166","504345","0.0-7.0-1.0-4.0-0.0-1.29","4","4","4","4","4","4","4","4","4","4","5","5","5","5","5","5","5","5","5","5","1","1","1","1","1","1","1","1","1","0","0","1","1","0","0","0","1","0","1","1","0","1","0","1","5","1","1","1","2","2","1","2","2","5","1","621680854329982976","胡","569","","","","","","","","","","","","","","","","","","","","","","","","","","","","","","feedback_test","","","","","","","","","","","",""
"566","","j","psychophysics","167","505912","0.0-7.0-1.0-4.0-0.0-0.30","4","4","4","4","4","4","4","4","4","4","5","5","5","5","5","5","5","5","5","5","1","1","1","1","1","1","1","1","1","0","0","1","1","0","0","0","1","0","1","1","0","1","0","1","5","1","1","1","2","2","1","2","2","5","1","621680854329982976","胡","569","","","","match","","","","","","","","","","","","","","key","j","16.664516129032133","768","428","j","true","match","img/pentagon.png","五边","五边","ALT1","formal_ALT1_2","","","","","","","","","","","",""
"null","<span style='color:GreenYellow; font-size: 70px;'>正确! </span>","null","html-keyboard-response","168","506413","0.0-7.0-1.0-4.0-0.0-1.30","4","4","4","4","4","4","4","4","4","4","5","5","5","5","5","5","5","5","5","5","1","1","1","1","1","1","1","1","1","0","0","1","1","0","0","0","1","0","1","1","0","1","0","1","5","1","1","1","2","2","1","2","2","5","1","621680854329982976","胡","569","","","","","","","","","","","","","","","","","","","","","","","","","","","","","","feedback_test","","","","","","","","","","","",""
"698","","j","psychophysics","169","508113","0.0-7.0-1.0-4.0-0.0-0.31","4","4","4","4","4","4","4","4","4","4","5","5","5","5","5","5","5","5","5","5","1","1","1","1","1","1","1","1","1","0","0","1","1","0","0","0","1","0","1","1","0","1","0","1","5","1","1","1","2","2","1","2","2","5","1","621680854329982976","胡","569","","","","match","","","","","","","","","","","","","","key","j","16.666336633663253","768","428","j","true","match","img/trapezoid.png","梯形","梯形","ALT1","formal_ALT1_2","","","","","","","","","","","",""
"null","<span style='color:GreenYellow; font-size: 70px;'>正确! </span>","null","html-keyboard-response","170","508615","0.0-7.0-1.0-4.0-0.0-1.31","4","4","4","4","4","4","4","4","4","4","5","5","5","5","5","5","5","5","5","5","1","1","1","1","1","1","1","1","1","0","0","1","1","0","0","0","1","0","1","1","0","1","0","1","5","1","1","1","2","2","1","2","2","5","1","621680854329982976","胡","569","","","","","","","","","","","","","","","","","","","","","","","","","","","","","","feedback_test","","","","","","","","","","","",""
"828","","f","psychophysics","171","510447","0.0-7.0-1.0-4.0-0.0-0.32","4","4","4","4","4","4","4","4","4","4","5","5","5","5","5","5","5","5","5","5","1","1","1","1","1","1","1","1","1","0","0","1","1","0","0","0","1","0","1","1","0","1","0","1","5","1","1","1","2","2","1","2","2","5","1","621680854329982976","胡","569","","","","nonmatch","","","","","","","","","","","","","","key","f","16.666055045871346","768","428","j","false","match","img/pentagon.png","五边","五边","ALT1","formal_ALT1_2","","","","","","","","","","","",""
"null","<span style='color:red; font-size: 70px;'>错误! </span>","null","html-keyboard-response","172","510948","0.0-7.0-1.0-4.0-0.0-1.32","4","4","4","4","4","4","4","4","4","4","5","5","5","5","5","5","5","5","5","5","1","1","1","1","1","1","1","1","1","0","0","1","1","0","0","0","1","0","1","1","0","1","0","1","5","1","1","1","2","2","1","2","2","5","1","621680854329982976","胡","569","","","","","","","","","","","","","","","","","","","","","","","","","","","","","","feedback_test","","","","","","","","","","","",""
"635","","j","psychophysics","173","512585","0.0-7.0-1.0-4.0-0.0-0.33","4","4","4","4","4","4","4","4","4","4","5","5","5","5","5","5","5","5","5","5","1","1","1","1","1","1","1","1","1","0","0","1","1","0","0","0","1","0","1","1","0","1","0","1","5","1","1","1","2","2","1","2","2","5","1","621680854329982976","胡","569","","","","match","","","","","","","","","","","","","","key","j","16.66597938144306","768","428","j","true","match","img/pentagon.png","五边","五边","ALT1","formal_ALT1_2","","","","","","","","","","","",""
"null","<span style='color:GreenYellow; font-size: 70px;'>正确! </span>","null","html-keyboard-response","174","513086","0.0-7.0-1.0-4.0-0.0-1.33","4","4","4","4","4","4","4","4","4","4","5","5","5","5","5","5","5","5","5","5","1","1","1","1","1","1","1","1","1","0","0","1","1","0","0","0","1","0","1","1","0","1","0","1","5","1","1","1","2","2","1","2","2","5","1","621680854329982976","胡","569","","","","","","","","","","","","","","","","","","","","","","","","","","","","","","feedback_test","","","","","","","","","","","",""
"651","","f","psychophysics","175","514738","0.0-7.0-1.0-4.0-0.0-0.34","4","4","4","4","4","4","4","4","4","4","5","5","5","5","5","5","5","5","5","5","1","1","1","1","1","1","1","1","1","0","0","1","1","0","0","0","1","0","1","1","0","1","0","1","5","1","1","1","2","2","1","2","2","5","1","621680854329982976","胡","569","","","","nonmatch","","","","","","","","","","","","","","key","f","16.667346938775747","768","428","f","true","nonmatch","img/circle.png","菱形","圆形","ALT1","formal_ALT1_2","","","","","","","","","","","",""
"null","<span style='color:GreenYellow; font-size: 70px;'>正确! </span>","null","html-keyboard-response","176","515239","0.0-7.0-1.0-4.0-0.0-1.34","4","4","4","4","4","4","4","4","4","4","5","5","5","5","5","5","5","5","5","5","1","1","1","1","1","1","1","1","1","0","0","1","1","0","0","0","1","0","1","1","0","1","0","1","5","1","1","1","2","2","1","2","2","5","1","621680854329982976","胡","569","","","","","","","","","","","","","","","","","","","","","","","","","","","","","","feedback_test","","","","","","","","","","","",""
"663","","f","psychophysics","177","516904","0.0-7.0-1.0-4.0-0.0-0.35","4","4","4","4","4","4","4","4","4","4","5","5","5","5","5","5","5","5","5","5","1","1","1","1","1","1","1","1","1","0","0","1","1","0","0","0","1","0","1","1","0","1","0","1","5","1","1","1","2","2","1","2","2","5","1","621680854329982976","胡","569","","","","nonmatch","","","","","","","","","","","","","","key","f","16.665656565656214","768","428","f","true","nonmatch","img/trapezoid.png","圆形","梯形","ALT1","formal_ALT1_2","","","","","","","","","","","",""
"null","<span style='color:GreenYellow; font-size: 70px;'>正确! </span>","null","html-keyboard-response","178","517406","0.0-7.0-1.0-4.0-0.0-1.35","4","4","4","4","4","4","4","4","4","4","5","5","5","5","5","5","5","5","5","5","1","1","1","1","1","1","1","1","1","0","0","1","1","0","0","0","1","0","1","1","0","1","0","1","5","1","1","1","2","2","1","2","2","5","1","621680854329982976","胡","569","","","","","","","","","","","","","","","","","","","","","","","","","","","","","","feedback_test","","","","","","","","","","","",""
"684","","f","psychophysics","179","519091","0.0-7.0-1.0-4.0-0.0-0.36","4","4","4","4","4","4","4","4","4","4","5","5","5","5","5","5","5","5","5","5","1","1","1","1","1","1","1","1","1","0","0","1","1","0","0","0","1","0","1","1","0","1","0","1","5","1","1","1","2","2","1","2","2","5","1","621680854329982976","胡","569","","","","nonmatch","","","","","","","","","","","","","","key","f","16.667000000000115","768","428","f","true","nonmatch","img/pentagon.png","菱形","五边","ALT1","formal_ALT1_2","","","","","","","","","","","",""
"null","<span style='color:GreenYellow; font-size: 70px;'>正确! </span>","null","html-keyboard-response","180","519594","0.0-7.0-1.0-4.0-0.0-1.36","4","4","4","4","4","4","4","4","4","4","5","5","5","5","5","5","5","5","5","5","1","1","1","1","1","1","1","1","1","0","0","1","1","0","0","0","1","0","1","1","0","1","0","1","5","1","1","1","2","2","1","2","2","5","1","621680854329982976","胡","569","","","","","","","","","","","","","","","","","","","","","","","","","","","","","","feedback_test","","","","","","","","","","","",""
