"rt","stimulus","response","trial_type","trial_index","time_elapsed","internal_node_id","ses_1","ses_2","ses_3","ses_4","ses_5","ses_6","ses_7","ses_8","ses_9","ses_10","coreself_1","coreself_2","coreself_3","coreself_4","coreself_5","coreself_6","coreself_7","coreself_8","coreself_9","coreself_10","SGPS_1","SGPS_2","SGPS_3","SGPS_4","SGPS_5","SGPS_6","SGPS_7","SGPS_8","SGPS_9","NPI1","NPI2","NPI3","NPI4","NPI5","NPI6","NPI7","NPI8","NPI9","NPI10","NPI11","NPI12","NPI13","NPI14","NPI15","hsns_1","hsns_2","hsns_3","hsns_4","hsns_5","trap1","hsns_6","hsns_7","hsns_8","hsns_9","hsns_10","subj_idx","friend_name","ParticipantID","value","success","user_agent","responses","item_order","radio_event_ids","radio_event_times","key_event_times","mouse_event_times","straightlining","zigzagging","honeypot","timeout","failed_images","failed_audio","failed_video","view_history","response_type","key_press","avg_frame_time","center_x","center_y","correct_response","correct","identity","Image","word","condition","task_id","screen_id","time_stamp","version_attrib","version_target","IAT","RT","varname","summary","version_attrib2","version_target2","question_order","correct_answer","trap1_item"
"20869","
   <p><div style = ""color: white;font-size:25px;"">您好，欢迎参加本次实验。</div> </p>
   <p><div style = ""color: white;font-size:25px;"">为充分保障您的权利，请确保您已经知晓并同意《参与实验同意书》以及《数据公开知情同意书》。</div></p>
   <p><div style = ""color: white;font-size:25px;"">如果您未见过上述内容，请咨询实验员。</div></p>
   <p><div style = ""color: white;font-size:25px;"">如果您选择继续实验，则表示您已经清楚两份知情同意书的内容并同意。</div></p>
   <p><div style = ""color: pink;font-size:30px;"">请确保您记得day0的实验编号，您将在本次实验输入该编号，若您忘记，请咨询实验员后作答。</div></p>
   <p><div style = ""color: lightblue;font-size:25px;"">请您尽可能认真地作答，我们将依据您在各问卷和按键任务中的作答质量发放报酬。</div></p>
   <p> <div style = ""color: green;font-size:25px;""><按空格键至下页></div> </p>
   "," ","html-keyboard-response","0","20873","0.0-0.0","3","3","4","3","3","4","3","3","4","3","4","3","2","3","4","4","4","5","4","4","4","5","3","4","3","2","2","4","2","1","0","1","0","0","0","1","1","0","1","0","0","1","0","1","4","4","3","5","2","1","4","2","4","4","2","775105837449613314","赵","651","","","","","","","","","","","","","","","","","","","","","","","","","","","","","","","","","","","","","","","","","",""
"","","","call-function","1","20875","0.0-1.0-0.0","3","3","4","3","3","4","3","3","4","3","4","3","2","3","4","4","4","5","4","4","4","5","3","4","3","2","2","4","2","1","0","1","0","0","0","1","1","0","1","0","0","1","0","1","4","4","3","5","2","1","4","2","4","4","2","775105837449613314","赵","651","","","","","","","","","","","","","","","","","","","","","","","","","","","","","","","","","","","","","","","","","",""
"18477","","{""friend_name"":""赵"",""ParticipantID"":""651""}","survey-html-form","2","39354","0.0-1.0-1.0","3","3","4","3","3","4","3","3","4","3","4","3","2","3","4","4","4","5","4","4","4","5","3","4","3","2","2","4","2","1","0","1","0","0","0","1","1","0","1","0","0","1","0","1","4","4","3","5","2","1","4","2","4","4","2","775105837449613314","赵","651","","","","","","","","","","","","","","","","","","","","","","","","","","","","","","","","","","","","","","","","","",""
"","","","fullscreen","3","56574","0.0-2.0","3","3","4","3","3","4","3","3","4","3","4","3","2","3","4","4","4","5","4","4","4","5","3","4","3","2","2","4","2","1","0","1","0","0","0","1","1","0","1","0","0","1","0","1","4","4","3","5","2","1","4","2","4","4","2","775105837449613314","赵","651","","true","{}","","","","","","","","","","","","","","","","","","","","","","","","","","","","","","","","","","","","","","",""
"37413.29999998212","","{""Q01"":""3"",""Q02"":""3"",""Q03"":""4"",""Q04"":""3"",""Q05"":""3"",""Q06"":""4"",""Q07"":""3"",""Q08"":""3"",""Q09"":""4"",""Q10"":""3""}","survey-template","4","94092","0.0-3.0","3","3","4","3","3","4","3","3","4","3","4","3","2","3","4","4","4","5","4","4","4","5","3","4","3","2","2","4","2","1","0","1","0","0","0","1","1","0","1","0","0","1","0","1","4","4","3","5","2","1","4","2","4","4","2","775105837449613314","赵","651","","","","{""Q01"":""3"",""Q02"":""3"",""Q03"":""4"",""Q04"":""3"",""Q05"":""3"",""Q06"":""4"",""Q07"":""3"",""Q08"":""3"",""Q09"":""4"",""Q10"":""3""}","[0,1,2,3,4,5,6,7,8,9]","[""Q01"",""Q02"",""Q03"",""Q02"",""Q04"",""Q05"",""Q06"",""Q07"",""Q08"",""Q09"",""Q10""]","[4510.199999988079,6027.199999988079,7693.799999982119,10660.5,14493.09999999404,17010,19709.899999976158,22493.79999998212,25394.29999998212,29293.59999999404,34027.69999998808]","[]","[4510.199999988079,6027.199999988079,7693.799999982119,10660.5,14493.09999999404,17010,19709.899999976158,22493.79999998212,25394.29999998212,29293.59999999404,34027.69999998808,37410.79999998212]","0.4","0.5555555555555556","0","","","","","","","","","","","","","","","","","","","","","","","","","","","","","",""
"33072.40000000596","","{""Q01"":""4"",""Q02"":""3"",""Q03"":""2"",""Q04"":""3"",""Q05"":""4"",""Q06"":""4"",""Q07"":""4"",""Q08"":""5"",""Q09"":""4"",""Q10"":""4""}","survey-template","5","127175","0.0-4.0","3","3","4","3","3","4","3","3","4","3","4","3","2","3","4","4","4","5","4","4","4","5","3","4","3","2","2","4","2","1","0","1","0","0","0","1","1","0","1","0","0","1","0","1","4","4","3","5","2","1","4","2","4","4","2","775105837449613314","赵","651","","","","{""Q01"":""4"",""Q02"":""3"",""Q03"":""2"",""Q04"":""3"",""Q05"":""4"",""Q06"":""4"",""Q07"":""4"",""Q08"":""5"",""Q09"":""4"",""Q10"":""4""}","[0,1,2,3,4,5,6,7,8,9]","[""Q01"",""Q01"",""Q02"",""Q03"",""Q04"",""Q05"",""Q06"",""Q07"",""Q08"",""Q09"",""Q10""]","[3952.0999999940395,10036.5,11552.59999999404,14602.700000017881,16319.700000017881,18786.09999999404,21069.70000001788,26218.90000000596,28469.90000000596,30219.5,31786.20000001788]","[]","[3952.0999999940395,10036.5,11552.59999999404,14602.700000017881,16319.700000017881,18786.09999999404,21069.70000001788,26218.90000000596,28469.90000000596,30219.5,31786.20000001788,33070.20000001788]","0.4","0.5555555555555556","0","","","","","","","","","","","","","","","","","","","","","","","","","","","","","",""
"","","","preload","6","128069","0.0-5.0","3","3","4","3","3","4","3","3","4","3","4","3","2","3","4","4","4","5","4","4","4","5","3","4","3","2","2","4","2","1","0","1","0","0","0","1","1","0","1","0","0","1","0","1","4","4","3","5","2","1","4","2","4","4","2","775105837449613314","赵","651","","true","","","","","","","","","","","false","[]","[]","[]","","","","","","","","","","","","","","","","","","","","","","","","","",""
"14186","","","instructions","7","142257","0.0-6.0","3","3","4","3","3","4","3","3","4","3","4","3","2","3","4","4","4","5","4","4","4","5","3","4","3","2","2","4","2","1","0","1","0","0","0","1","1","0","1","0","0","1","0","1","4","4","3","5","2","1","4","2","4","4","2","775105837449613314","赵","651","","","","","","","","","","","","","","","","","[{""page_index"":0,""viewing_time"":14186}]","","","","","","","","","","","","","","","","","","","","","","","","",""
"80814","","","instructions","8","223073","0.0-7.0-1.0-0.0","3","3","4","3","3","4","3","3","4","3","4","3","2","3","4","4","4","5","4","4","4","5","3","4","3","2","2","4","2","1","0","1","0","0","0","1","1","0","1","0","0","1","0","1","4","4","3","5","2","1","4","2","4","4","2","775105837449613314","赵","651","","","","","","","","","","","","","","","","","[{""page_index"":0,""viewing_time"":63681},{""page_index"":1,""viewing_time"":13398},{""page_index"":2,""viewing_time"":3735}]","","","","","","","","","","","","","","","","","","","","","","","","",""
"null","","null","psychophysics","9","225408","0.0-7.0-1.0-1.0-0.0-0.0","3","3","4","3","3","4","3","3","4","3","4","3","2","3","4","4","4","5","4","4","4","5","3","4","3","2","2","4","2","1","0","1","0","0","0","1","1","0","1","0","0","1","0","1","4","4","3","5","2","1","4","2","4","4","2","775105837449613314","赵","651","","","","null","","","","","","","","","","","","","","key","null","17.740322580645067","720","446","j","false","match","img/circle.png","圆形","圆形","ALT1_2","prac_ALT1_2","","","","","","","","","","","",""
"null","<span class='add_' style='color:yellow; font-size: 70px;'> 太慢! </span>","null","html-keyboard-response","10","225913","0.0-7.0-1.0-1.0-0.0-1.0","3","3","4","3","3","4","3","3","4","3","4","3","2","3","4","4","4","5","4","4","4","5","3","4","3","2","2","4","2","1","0","1","0","0","0","1","1","0","1","0","0","1","0","1","4","4","3","5","2","1","4","2","4","4","2","775105837449613314","赵","651","","","","","","","","","","","","","","","","","","","","","","","","","","","","","","feedback_test","","","","","","","","","","","",""
"719","","j","psychophysics","11","227636","0.0-7.0-1.0-1.0-0.0-0.1","3","3","4","3","3","4","3","3","4","3","4","3","2","3","4","4","4","5","4","4","4","5","3","4","3","2","2","4","2","1","0","1","0","0","0","1","1","0","1","0","0","1","0","1","4","4","3","5","2","1","4","2","4","4","2","775105837449613314","赵","651","","","","match","","","","","","","","","","","","","","key","j","16.67156862745098","720","446","f","false","nonmatch","img/circle.png","方形","圆形","ALT1_2","prac_ALT1_2","","","","","","","","","","","",""
"null","<span style='color:red; font-size: 70px;'>错误! </span>","null","html-keyboard-response","12","228138","0.0-7.0-1.0-1.0-0.0-1.1","3","3","4","3","3","4","3","3","4","3","4","3","2","3","4","4","4","5","4","4","4","5","3","4","3","2","2","4","2","1","0","1","0","0","0","1","1","0","1","0","0","1","0","1","4","4","3","5","2","1","4","2","4","4","2","775105837449613314","赵","651","","","","","","","","","","","","","","","","","","","","","","","","","","","","","","feedback_test","","","","","","","","","","","",""
"885","","f","psychophysics","13","230027","0.0-7.0-1.0-1.0-0.0-0.2","3","3","4","3","3","4","3","3","4","3","4","3","2","3","4","4","4","5","4","4","4","5","3","4","3","2","2","4","2","1","0","1","0","0","0","1","1","0","1","0","0","1","0","1","4","4","3","5","2","1","4","2","4","4","2","775105837449613314","赵","651","","","","nonmatch","","","","","","","","","","","","","","key","f","16.665178571428573","720","446","f","true","nonmatch","img/square.png","六边","方形","ALT1_2","prac_ALT1_2","","","","","","","","","","","",""
"null","<span style='color:GreenYellow; font-size: 70px;'>正确! </span>","null","html-keyboard-response","14","230529","0.0-7.0-1.0-1.0-0.0-1.2","3","3","4","3","3","4","3","3","4","3","4","3","2","3","4","4","4","5","4","4","4","5","3","4","3","2","2","4","2","1","0","1","0","0","0","1","1","0","1","0","0","1","0","1","4","4","3","5","2","1","4","2","4","4","2","775105837449613314","赵","651","","","","","","","","","","","","","","","","","","","","","","","","","","","","","","feedback_test","","","","","","","","","","","",""
"663","","f","psychophysics","15","232196","0.0-7.0-1.0-1.0-0.0-0.3","3","3","4","3","3","4","3","3","4","3","4","3","2","3","4","4","4","5","4","4","4","5","3","4","3","2","2","4","2","1","0","1","0","0","0","1","1","0","1","0","0","1","0","1","4","4","3","5","2","1","4","2","4","4","2","775105837449613314","赵","651","","","","nonmatch","","","","","","","","","","","","","","key","f","16.666666666666668","720","446","f","true","nonmatch","img/circle.png","六边","圆形","ALT1_2","prac_ALT1_2","","","","","","","","","","","",""
"null","<span style='color:GreenYellow; font-size: 70px;'>正确! </span>","null","html-keyboard-response","16","232699","0.0-7.0-1.0-1.0-0.0-1.3","3","3","4","3","3","4","3","3","4","3","4","3","2","3","4","4","4","5","4","4","4","5","3","4","3","2","2","4","2","1","0","1","0","0","0","1","1","0","1","0","0","1","0","1","4","4","3","5","2","1","4","2","4","4","2","775105837449613314","赵","651","","","","","","","","","","","","","","","","","","","","","","","","","","","","","","feedback_test","","","","","","","","","","","",""
"639","","f","psychophysics","17","234341","0.0-7.0-1.0-1.0-0.0-0.4","3","3","4","3","3","4","3","3","4","3","4","3","2","3","4","4","4","5","4","4","4","5","3","4","3","2","2","4","2","1","0","1","0","0","0","1","1","0","1","0","0","1","0","1","4","4","3","5","2","1","4","2","4","4","2","775105837449613314","赵","651","","","","nonmatch","","","","","","","","","","","","","","key","f","16.66597938144336","720","446","f","true","nonmatch","img/trapezoid.png","圆形","梯形","ALT1_2","prac_ALT1_2","","","","","","","","","","","",""
"null","<span style='color:GreenYellow; font-size: 70px;'>正确! </span>","null","html-keyboard-response","18","234845","0.0-7.0-1.0-1.0-0.0-1.4","3","3","4","3","3","4","3","3","4","3","4","3","2","3","4","4","4","5","4","4","4","5","3","4","3","2","2","4","2","1","0","1","0","0","0","1","1","0","1","0","0","1","0","1","4","4","3","5","2","1","4","2","4","4","2","775105837449613314","赵","651","","","","","","","","","","","","","","","","","","","","","","","","","","","","","","feedback_test","","","","","","","","","","","",""
"710","","j","psychophysics","19","236558","0.0-7.0-1.0-1.0-0.0-0.5","3","3","4","3","3","4","3","3","4","3","4","3","2","3","4","4","4","5","4","4","4","5","3","4","3","2","2","4","2","1","0","1","0","0","0","1","1","0","1","0","0","1","0","1","4","4","3","5","2","1","4","2","4","4","2","775105837449613314","赵","651","","","","match","","","","","","","","","","","","","","key","j","16.666666666666668","720","446","j","true","match","img/square.png","方形","方形","ALT1_2","prac_ALT1_2","","","","","","","","","","","",""
"null","<span style='color:GreenYellow; font-size: 70px;'>正确! </span>","null","html-keyboard-response","20","237061","0.0-7.0-1.0-1.0-0.0-1.5","3","3","4","3","3","4","3","3","4","3","4","3","2","3","4","4","4","5","4","4","4","5","3","4","3","2","2","4","2","1","0","1","0","0","0","1","1","0","1","0","0","1","0","1","4","4","3","5","2","1","4","2","4","4","2","775105837449613314","赵","651","","","","","","","","","","","","","","","","","","","","","","","","","","","","","","feedback_test","","","","","","","","","","","",""
"578","","f","psychophysics","21","238642","0.0-7.0-1.0-1.0-0.0-0.6","3","3","4","3","3","4","3","3","4","3","4","3","2","3","4","4","4","5","4","4","4","5","3","4","3","2","2","4","2","1","0","1","0","0","0","1","1","0","1","0","0","1","0","1","4","4","3","5","2","1","4","2","4","4","2","775105837449613314","赵","651","","","","nonmatch","","","","","","","","","","","","","","key","f","16.672340425532038","720","446","f","true","nonmatch","img/hexagon.png","圆形","六边","ALT1_2","prac_ALT1_2","","","","","","","","","","","",""
"null","<span style='color:GreenYellow; font-size: 70px;'>正确! </span>","null","html-keyboard-response","22","239146","0.0-7.0-1.0-1.0-0.0-1.6","3","3","4","3","3","4","3","3","4","3","4","3","2","3","4","4","4","5","4","4","4","5","3","4","3","2","2","4","2","1","0","1","0","0","0","1","1","0","1","0","0","1","0","1","4","4","3","5","2","1","4","2","4","4","2","775105837449613314","赵","651","","","","","","","","","","","","","","","","","","","","","","","","","","","","","","feedback_test","","","","","","","","","","","",""
"618","","j","psychophysics","23","240767","0.0-7.0-1.0-1.0-0.0-0.7","3","3","4","3","3","4","3","3","4","3","4","3","2","3","4","4","4","5","4","4","4","5","3","4","3","2","2","4","2","1","0","1","0","0","0","1","1","0","1","0","0","1","0","1","4","4","3","5","2","1","4","2","4","4","2","775105837449613314","赵","651","","","","match","","","","","","","","","","","","","","key","j","16.665624999999938","720","446","f","false","nonmatch","img/square.png","梯形","方形","ALT1_2","prac_ALT1_2","","","","","","","","","","","",""
"null","<span style='color:red; font-size: 70px;'>错误! </span>","null","html-keyboard-response","24","241268","0.0-7.0-1.0-1.0-0.0-1.7","3","3","4","3","3","4","3","3","4","3","4","3","2","3","4","4","4","5","4","4","4","5","3","4","3","2","2","4","2","1","0","1","0","0","0","1","1","0","1","0","0","1","0","1","4","4","3","5","2","1","4","2","4","4","2","775105837449613314","赵","651","","","","","","","","","","","","","","","","","","","","","","","","","","","","","","feedback_test","","","","","","","","","","","",""
"729","","f","psychophysics","25","243000","0.0-7.0-1.0-1.0-0.0-0.8","3","3","4","3","3","4","3","3","4","3","4","3","2","3","4","4","4","5","4","4","4","5","3","4","3","2","2","4","2","1","0","1","0","0","0","1","1","0","1","0","0","1","0","1","4","4","3","5","2","1","4","2","4","4","2","775105837449613314","赵","651","","","","nonmatch","","","","","","","","","","","","","","key","f","16.666666666666668","720","446","j","false","match","img/hexagon.png","六边","六边","ALT1_2","prac_ALT1_2","","","","","","","","","","","",""
"null","<span style='color:red; font-size: 70px;'>错误! </span>","null","html-keyboard-response","26","243502","0.0-7.0-1.0-1.0-0.0-1.8","3","3","4","3","3","4","3","3","4","3","4","3","2","3","4","4","4","5","4","4","4","5","3","4","3","2","2","4","2","1","0","1","0","0","0","1","1","0","1","0","0","1","0","1","4","4","3","5","2","1","4","2","4","4","2","775105837449613314","赵","651","","","","","","","","","","","","","","","","","","","","","","","","","","","","","","feedback_test","","","","","","","","","","","",""
"746","","j","psychophysics","27","245251","0.0-7.0-1.0-1.0-0.0-0.9","3","3","4","3","3","4","3","3","4","3","4","3","2","3","4","4","4","5","4","4","4","5","3","4","3","2","2","4","2","1","0","1","0","0","0","1","1","0","1","0","0","1","0","1","4","4","3","5","2","1","4","2","4","4","2","775105837449613314","赵","651","","","","match","","","","","","","","","","","","","","key","j","16.666990291261968","720","446","f","false","nonmatch","img/hexagon.png","方形","六边","ALT1_2","prac_ALT1_2","","","","","","","","","","","",""
"null","<span style='color:red; font-size: 70px;'>错误! </span>","null","html-keyboard-response","28","245753","0.0-7.0-1.0-1.0-0.0-1.9","3","3","4","3","3","4","3","3","4","3","4","3","2","3","4","4","4","5","4","4","4","5","3","4","3","2","2","4","2","1","0","1","0","0","0","1","1","0","1","0","0","1","0","1","4","4","3","5","2","1","4","2","4","4","2","775105837449613314","赵","651","","","","","","","","","","","","","","","","","","","","","","","","","","","","","","feedback_test","","","","","","","","","","","",""
"1000","","j","psychophysics","29","247757","0.0-7.0-1.0-1.0-0.0-0.10","3","3","4","3","3","4","3","3","4","3","4","3","2","3","4","4","4","5","4","4","4","5","3","4","3","2","2","4","2","1","0","1","0","0","0","1","1","0","1","0","0","1","0","1","4","4","3","5","2","1","4","2","4","4","2","775105837449613314","赵","651","","","","match","","","","","","","","","","","","","","key","j","16.67142857142852","720","446","j","true","match","img/trapezoid.png","梯形","梯形","ALT1_2","prac_ALT1_2","","","","","","","","","","","",""
"null","<span style='color:GreenYellow; font-size: 70px;'>正确! </span>","null","html-keyboard-response","30","248260","0.0-7.0-1.0-1.0-0.0-1.10","3","3","4","3","3","4","3","3","4","3","4","3","2","3","4","4","4","5","4","4","4","5","3","4","3","2","2","4","2","1","0","1","0","0","0","1","1","0","1","0","0","1","0","1","4","4","3","5","2","1","4","2","4","4","2","775105837449613314","赵","651","","","","","","","","","","","","","","","","","","","","","","","","","","","","","","feedback_test","","","","","","","","","","","",""
"871","","f","psychophysics","31","250134","0.0-7.0-1.0-1.0-0.0-0.11","3","3","4","3","3","4","3","3","4","3","4","3","2","3","4","4","4","5","4","4","4","5","3","4","3","2","2","4","2","1","0","1","0","0","0","1","1","0","1","0","0","1","0","1","4","4","3","5","2","1","4","2","4","4","2","775105837449613314","赵","651","","","","nonmatch","","","","","","","","","","","","","","key","f","16.666666666666668","720","446","j","false","match","img/hexagon.png","六边","六边","ALT1_2","prac_ALT1_2","","","","","","","","","","","",""
"null","<span style='color:red; font-size: 70px;'>错误! </span>","null","html-keyboard-response","32","250637","0.0-7.0-1.0-1.0-0.0-1.11","3","3","4","3","3","4","3","3","4","3","4","3","2","3","4","4","4","5","4","4","4","5","3","4","3","2","2","4","2","1","0","1","0","0","0","1","1","0","1","0","0","1","0","1","4","4","3","5","2","1","4","2","4","4","2","775105837449613314","赵","651","","","","","","","","","","","","","","","","","","","","","","","","","","","","","","feedback_test","","","","","","","","","","","",""
"918","","j","psychophysics","33","252559","0.0-7.0-1.0-1.0-0.0-0.12","3","3","4","3","3","4","3","3","4","3","4","3","2","3","4","4","4","5","4","4","4","5","3","4","3","2","2","4","2","1","0","1","0","0","0","1","1","0","1","0","0","1","0","1","4","4","3","5","2","1","4","2","4","4","2","775105837449613314","赵","651","","","","match","","","","","","","","","","","","","","key","j","16.665789473684416","720","446","f","false","nonmatch","img/circle.png","梯形","圆形","ALT1_2","prac_ALT1_2","","","","","","","","","","","",""
"null","<span style='color:red; font-size: 70px;'>错误! </span>","null","html-keyboard-response","34","253060","0.0-7.0-1.0-1.0-0.0-1.12","3","3","4","3","3","4","3","3","4","3","4","3","2","3","4","4","4","5","4","4","4","5","3","4","3","2","2","4","2","1","0","1","0","0","0","1","1","0","1","0","0","1","0","1","4","4","3","5","2","1","4","2","4","4","2","775105837449613314","赵","651","","","","","","","","","","","","","","","","","","","","","","","","","","","","","","feedback_test","","","","","","","","","","","",""
"1063","","f","psychophysics","35","255126","0.0-7.0-1.0-1.0-0.0-0.13","3","3","4","3","3","4","3","3","4","3","4","3","2","3","4","4","4","5","4","4","4","5","3","4","3","2","2","4","2","1","0","1","0","0","0","1","1","0","1","0","0","1","0","1","4","4","3","5","2","1","4","2","4","4","2","775105837449613314","赵","651","","","","nonmatch","","","","","","","","","","","","","","key","f","16.666666666666668","720","446","j","false","match","img/square.png","方形","方形","ALT1_2","prac_ALT1_2","","","","","","","","","","","",""
"null","<span style='color:red; font-size: 70px;'>错误! </span>","null","html-keyboard-response","36","255628","0.0-7.0-1.0-1.0-0.0-1.13","3","3","4","3","3","4","3","3","4","3","4","3","2","3","4","4","4","5","4","4","4","5","3","4","3","2","2","4","2","1","0","1","0","0","0","1","1","0","1","0","0","1","0","1","4","4","3","5","2","1","4","2","4","4","2","775105837449613314","赵","651","","","","","","","","","","","","","","","","","","","","","","","","","","","","","","feedback_test","","","","","","","","","","","",""
"956","","f","psychophysics","37","257588","0.0-7.0-1.0-1.0-0.0-0.14","3","3","4","3","3","4","3","3","4","3","4","3","2","3","4","4","4","5","4","4","4","5","3","4","3","2","2","4","2","1","0","1","0","0","0","1","1","0","1","0","0","1","0","1","4","4","3","5","2","1","4","2","4","4","2","775105837449613314","赵","651","","","","nonmatch","","","","","","","","","","","","","","key","f","16.67008547008542","720","446","f","true","nonmatch","img/trapezoid.png","方形","梯形","ALT1_2","prac_ALT1_2","","","","","","","","","","","",""
"null","<span style='color:GreenYellow; font-size: 70px;'>正确! </span>","null","html-keyboard-response","38","258090","0.0-7.0-1.0-1.0-0.0-1.14","3","3","4","3","3","4","3","3","4","3","4","3","2","3","4","4","4","5","4","4","4","5","3","4","3","2","2","4","2","1","0","1","0","0","0","1","1","0","1","0","0","1","0","1","4","4","3","5","2","1","4","2","4","4","2","775105837449613314","赵","651","","","","","","","","","","","","","","","","","","","","","","","","","","","","","","feedback_test","","","","","","","","","","","",""
"836","","f","psychophysics","39","259928","0.0-7.0-1.0-1.0-0.0-0.15","3","3","4","3","3","4","3","3","4","3","4","3","2","3","4","4","4","5","4","4","4","5","3","4","3","2","2","4","2","1","0","1","0","0","0","1","1","0","1","0","0","1","0","1","4","4","3","5","2","1","4","2","4","4","2","775105837449613314","赵","651","","","","nonmatch","","","","","","","","","","","","","","key","f","16.665137614678898","720","446","j","false","match","img/trapezoid.png","梯形","梯形","ALT1_2","prac_ALT1_2","","","","","","","","","","","",""
"null","<span style='color:red; font-size: 70px;'>错误! </span>","null","html-keyboard-response","40","260431","0.0-7.0-1.0-1.0-0.0-1.15","3","3","4","3","3","4","3","3","4","3","4","3","2","3","4","4","4","5","4","4","4","5","3","4","3","2","2","4","2","1","0","1","0","0","0","1","1","0","1","0","0","1","0","1","4","4","3","5","2","1","4","2","4","4","2","775105837449613314","赵","651","","","","","","","","","","","","","","","","","","","","","","","","","","","","","","feedback_test","","","","","","","","","","","",""
"752","","j","psychophysics","41","262185","0.0-7.0-1.0-1.0-0.0-0.16","3","3","4","3","3","4","3","3","4","3","4","3","2","3","4","4","4","5","4","4","4","5","3","4","3","2","2","4","2","1","0","1","0","0","0","1","1","0","1","0","0","1","0","1","4","4","3","5","2","1","4","2","4","4","2","775105837449613314","赵","651","","","","match","","","","","","","","","","","","","","key","j","16.666666666666668","720","446","j","true","match","img/circle.png","圆形","圆形","ALT1_2","prac_ALT1_2","","","","","","","","","","","",""
"null","<span style='color:GreenYellow; font-size: 70px;'>正确! </span>","null","html-keyboard-response","42","262688","0.0-7.0-1.0-1.0-0.0-1.16","3","3","4","3","3","4","3","3","4","3","4","3","2","3","4","4","4","5","4","4","4","5","3","4","3","2","2","4","2","1","0","1","0","0","0","1","1","0","1","0","0","1","0","1","4","4","3","5","2","1","4","2","4","4","2","775105837449613314","赵","651","","","","","","","","","","","","","","","","","","","","","","","","","","","","","","feedback_test","","","","","","","","","","","",""
"741","","f","psychophysics","43","264432","0.0-7.0-1.0-1.0-0.0-0.17","3","3","4","3","3","4","3","3","4","3","4","3","2","3","4","4","4","5","4","4","4","5","3","4","3","2","2","4","2","1","0","1","0","0","0","1","1","0","1","0","0","1","0","1","4","4","3","5","2","1","4","2","4","4","2","775105837449613314","赵","651","","","","nonmatch","","","","","","","","","","","","","","key","f","16.66601941747607","720","446","f","true","nonmatch","img/trapezoid.png","六边","梯形","ALT1_2","prac_ALT1_2","","","","","","","","","","","",""
"null","<span style='color:GreenYellow; font-size: 70px;'>正确! </span>","null","html-keyboard-response","44","264933","0.0-7.0-1.0-1.0-0.0-1.17","3","3","4","3","3","4","3","3","4","3","4","3","2","3","4","4","4","5","4","4","4","5","3","4","3","2","2","4","2","1","0","1","0","0","0","1","1","0","1","0","0","1","0","1","4","4","3","5","2","1","4","2","4","4","2","775105837449613314","赵","651","","","","","","","","","","","","","","","","","","","","","","","","","","","","","","feedback_test","","","","","","","","","","","",""
"889","","j","psychophysics","45","266824","0.0-7.0-1.0-1.0-0.0-0.18","3","3","4","3","3","4","3","3","4","3","4","3","2","3","4","4","4","5","4","4","4","5","3","4","3","2","2","4","2","1","0","1","0","0","0","1","1","0","1","0","0","1","0","1","4","4","3","5","2","1","4","2","4","4","2","775105837449613314","赵","651","","","","match","","","","","","","","","","","","","","key","j","16.66696428571439","720","446","f","false","nonmatch","img/square.png","圆形","方形","ALT1_2","prac_ALT1_2","","","","","","","","","","","",""
"null","<span style='color:red; font-size: 70px;'>错误! </span>","null","html-keyboard-response","46","267326","0.0-7.0-1.0-1.0-0.0-1.18","3","3","4","3","3","4","3","3","4","3","4","3","2","3","4","4","4","5","4","4","4","5","3","4","3","2","2","4","2","1","0","1","0","0","0","1","1","0","1","0","0","1","0","1","4","4","3","5","2","1","4","2","4","4","2","775105837449613314","赵","651","","","","","","","","","","","","","","","","","","","","","","","","","","","","","","feedback_test","","","","","","","","","","","",""
"829","","j","psychophysics","47","269158","0.0-7.0-1.0-1.0-0.0-0.19","3","3","4","3","3","4","3","3","4","3","4","3","2","3","4","4","4","5","4","4","4","5","3","4","3","2","2","4","2","1","0","1","0","0","0","1","1","0","1","0","0","1","0","1","4","4","3","5","2","1","4","2","4","4","2","775105837449613314","赵","651","","","","match","","","","","","","","","","","","","","key","j","16.671559633027094","720","446","j","true","match","img/square.png","方形","方形","ALT1_2","prac_ALT1_2","","","","","","","","","","","",""
"null","<span style='color:GreenYellow; font-size: 70px;'>正确! </span>","null","html-keyboard-response","48","269661","0.0-7.0-1.0-1.0-0.0-1.19","3","3","4","3","3","4","3","3","4","3","4","3","2","3","4","4","4","5","4","4","4","5","3","4","3","2","2","4","2","1","0","1","0","0","0","1","1","0","1","0","0","1","0","1","4","4","3","5","2","1","4","2","4","4","2","775105837449613314","赵","651","","","","","","","","","","","","","","","","","","","","","","","","","","","","","","feedback_test","","","","","","","","","","","",""
"980","","f","psychophysics","49","271643","0.0-7.0-1.0-1.0-0.0-0.20","3","3","4","3","3","4","3","3","4","3","4","3","2","3","4","4","4","5","4","4","4","5","3","4","3","2","2","4","2","1","0","1","0","0","0","1","1","0","1","0","0","1","0","1","4","4","3","5","2","1","4","2","4","4","2","775105837449613314","赵","651","","","","nonmatch","","","","","","","","","","","","","","key","f","16.666101694915056","720","446","j","false","match","img/hexagon.png","六边","六边","ALT1_2","prac_ALT1_2","","","","","","","","","","","",""
"null","<span style='color:red; font-size: 70px;'>错误! </span>","null","html-keyboard-response","50","272145","0.0-7.0-1.0-1.0-0.0-1.20","3","3","4","3","3","4","3","3","4","3","4","3","2","3","4","4","4","5","4","4","4","5","3","4","3","2","2","4","2","1","0","1","0","0","0","1","1","0","1","0","0","1","0","1","4","4","3","5","2","1","4","2","4","4","2","775105837449613314","赵","651","","","","","","","","","","","","","","","","","","","","","","","","","","","","","","feedback_test","","","","","","","","","","","",""
"null","","null","psychophysics","51","274361","0.0-7.0-1.0-1.0-0.0-0.21","3","3","4","3","3","4","3","3","4","3","4","3","2","3","4","4","4","5","4","4","4","5","3","4","3","2","2","4","2","1","0","1","0","0","0","1","1","0","1","0","0","1","0","1","4","4","3","5","2","1","4","2","4","4","2","775105837449613314","赵","651","","","","null","","","","","","","","","","","","","","key","null","16.665909090909267","720","446","j","false","match","img/circle.png","圆形","圆形","ALT1_2","prac_ALT1_2","","","","","","","","","","","",""
"null","<span class='add_' style='color:yellow; font-size: 70px;'> 太慢! </span>","null","html-keyboard-response","52","274863","0.0-7.0-1.0-1.0-0.0-1.21","3","3","4","3","3","4","3","3","4","3","4","3","2","3","4","4","4","5","4","4","4","5","3","4","3","2","2","4","2","1","0","1","0","0","0","1","1","0","1","0","0","1","0","1","4","4","3","5","2","1","4","2","4","4","2","775105837449613314","赵","651","","","","","","","","","","","","","","","","","","","","","","","","","","","","","","feedback_test","","","","","","","","","","","",""
"712","","f","psychophysics","53","276579","0.0-7.0-1.0-1.0-0.0-0.22","3","3","4","3","3","4","3","3","4","3","4","3","2","3","4","4","4","5","4","4","4","5","3","4","3","2","2","4","2","1","0","1","0","0","0","1","1","0","1","0","0","1","0","1","4","4","3","5","2","1","4","2","4","4","2","775105837449613314","赵","651","","","","nonmatch","","","","","","","","","","","","","","key","f","16.665686274510033","720","446","j","false","match","img/trapezoid.png","梯形","梯形","ALT1_2","prac_ALT1_2","","","","","","","","","","","",""
"null","<span style='color:red; font-size: 70px;'>错误! </span>","null","html-keyboard-response","54","277081","0.0-7.0-1.0-1.0-0.0-1.22","3","3","4","3","3","4","3","3","4","3","4","3","2","3","4","4","4","5","4","4","4","5","3","4","3","2","2","4","2","1","0","1","0","0","0","1","1","0","1","0","0","1","0","1","4","4","3","5","2","1","4","2","4","4","2","775105837449613314","赵","651","","","","","","","","","","","","","","","","","","","","","","","","","","","","","","feedback_test","","","","","","","","","","","",""
"958","","j","psychophysics","55","279042","0.0-7.0-1.0-1.0-0.0-0.23","3","3","4","3","3","4","3","3","4","3","4","3","2","3","4","4","4","5","4","4","4","5","3","4","3","2","2","4","2","1","0","1","0","0","0","1","1","0","1","0","0","1","0","1","4","4","3","5","2","1","4","2","4","4","2","775105837449613314","赵","651","","","","match","","","","","","","","","","","","","","key","j","16.670085470085173","720","446","f","false","nonmatch","img/hexagon.png","梯形","六边","ALT1_2","prac_ALT1_2","","","","","","","","","","","",""
"null","<span style='color:red; font-size: 70px;'>错误! </span>","null","html-keyboard-response","56","279544","0.0-7.0-1.0-1.0-0.0-1.23","3","3","4","3","3","4","3","3","4","3","4","3","2","3","4","4","4","5","4","4","4","5","3","4","3","2","2","4","2","1","0","1","0","0","0","1","1","0","1","0","0","1","0","1","4","4","3","5","2","1","4","2","4","4","2","775105837449613314","赵","651","","","","","","","","","","","","","","","","","","","","","","","","","","","","","","feedback_test","","","","","","","","","","","",""
"845","","f","psychophysics","57","281394","0.0-7.0-1.0-1.0-0.0-0.24","3","3","4","3","3","4","3","3","4","3","4","3","2","3","4","4","4","5","4","4","4","5","3","4","3","2","2","4","2","1","0","1","0","0","0","1","1","0","1","0","0","1","0","1","4","4","3","5","2","1","4","2","4","4","2","775105837449613314","赵","651","","","","nonmatch","","","","","","","","","","","","","","key","f","16.66636363636353","720","446","j","false","match","img/trapezoid.png","梯形","梯形","ALT1_2","prac_ALT1_2","","","","","","","","","","","",""
"null","<span style='color:red; font-size: 70px;'>错误! </span>","null","html-keyboard-response","58","281895","0.0-7.0-1.0-1.0-0.0-1.24","3","3","4","3","3","4","3","3","4","3","4","3","2","3","4","4","4","5","4","4","4","5","3","4","3","2","2","4","2","1","0","1","0","0","0","1","1","0","1","0","0","1","0","1","4","4","3","5","2","1","4","2","4","4","2","775105837449613314","赵","651","","","","","","","","","","","","","","","","","","","","","","","","","","","","","","feedback_test","","","","","","","","","","","",""
"692","","j","psychophysics","59","283592","0.0-7.0-1.0-1.0-0.0-0.25","3","3","4","3","3","4","3","3","4","3","4","3","2","3","4","4","4","5","4","4","4","5","3","4","3","2","2","4","2","1","0","1","0","0","0","1","1","0","1","0","0","1","0","1","4","4","3","5","2","1","4","2","4","4","2","775105837449613314","赵","651","","","","match","","","","","","","","","","","","","","key","j","16.66534653465358","720","446","j","true","match","img/hexagon.png","六边","六边","ALT1_2","prac_ALT1_2","","","","","","","","","","","",""
"null","<span style='color:GreenYellow; font-size: 70px;'>正确! </span>","null","html-keyboard-response","60","284094","0.0-7.0-1.0-1.0-0.0-1.25","3","3","4","3","3","4","3","3","4","3","4","3","2","3","4","4","4","5","4","4","4","5","3","4","3","2","2","4","2","1","0","1","0","0","0","1","1","0","1","0","0","1","0","1","4","4","3","5","2","1","4","2","4","4","2","775105837449613314","赵","651","","","","","","","","","","","","","","","","","","","","","","","","","","","","","","feedback_test","","","","","","","","","","","",""
"883","","f","psychophysics","61","285981","0.0-7.0-1.0-1.0-0.0-0.26","3","3","4","3","3","4","3","3","4","3","4","3","2","3","4","4","4","5","4","4","4","5","3","4","3","2","2","4","2","1","0","1","0","0","0","1","1","0","1","0","0","1","0","1","4","4","3","5","2","1","4","2","4","4","2","775105837449613314","赵","651","","","","nonmatch","","","","","","","","","","","","","","key","f","16.66607142857174","720","446","f","true","nonmatch","img/trapezoid.png","六边","梯形","ALT1_2","prac_ALT1_2","","","","","","","","","","","",""
"null","<span style='color:GreenYellow; font-size: 70px;'>正确! </span>","null","html-keyboard-response","62","286483","0.0-7.0-1.0-1.0-0.0-1.26","3","3","4","3","3","4","3","3","4","3","4","3","2","3","4","4","4","5","4","4","4","5","3","4","3","2","2","4","2","1","0","1","0","0","0","1","1","0","1","0","0","1","0","1","4","4","3","5","2","1","4","2","4","4","2","775105837449613314","赵","651","","","","","","","","","","","","","","","","","","","","","","","","","","","","","","feedback_test","","","","","","","","","","","",""
"700","","j","psychophysics","63","288185","0.0-7.0-1.0-1.0-0.0-0.27","3","3","4","3","3","4","3","3","4","3","4","3","2","3","4","4","4","5","4","4","4","5","3","4","3","2","2","4","2","1","0","1","0","0","0","1","1","0","1","0","0","1","0","1","4","4","3","5","2","1","4","2","4","4","2","775105837449613314","赵","651","","","","match","","","","","","","","","","","","","","key","j","17.365625000000364","720","446","f","false","nonmatch","img/circle.png","梯形","圆形","ALT1_2","prac_ALT1_2","","","","","","","","","","","",""
"null","<span style='color:red; font-size: 70px;'>错误! </span>","null","html-keyboard-response","64","288687","0.0-7.0-1.0-1.0-0.0-1.27","3","3","4","3","3","4","3","3","4","3","4","3","2","3","4","4","4","5","4","4","4","5","3","4","3","2","2","4","2","1","0","1","0","0","0","1","1","0","1","0","0","1","0","1","4","4","3","5","2","1","4","2","4","4","2","775105837449613314","赵","651","","","","","","","","","","","","","","","","","","","","","","","","","","","","","","feedback_test","","","","","","","","","","","",""
"1002","","j","psychophysics","65","290691","0.0-7.0-1.0-1.0-0.0-0.28","3","3","4","3","3","4","3","3","4","3","4","3","2","3","4","4","4","5","4","4","4","5","3","4","3","2","2","4","2","1","0","1","0","0","0","1","1","0","1","0","0","1","0","1","4","4","3","5","2","1","4","2","4","4","2","775105837449613314","赵","651","","","","match","","","","","","","","","","","","","","key","j","16.666386554621752","720","446","j","true","match","img/square.png","方形","方形","ALT1_2","prac_ALT1_2","","","","","","","","","","","",""
"null","<span style='color:GreenYellow; font-size: 70px;'>正确! </span>","null","html-keyboard-response","66","291193","0.0-7.0-1.0-1.0-0.0-1.28","3","3","4","3","3","4","3","3","4","3","4","3","2","3","4","4","4","5","4","4","4","5","3","4","3","2","2","4","2","1","0","1","0","0","0","1","1","0","1","0","0","1","0","1","4","4","3","5","2","1","4","2","4","4","2","775105837449613314","赵","651","","","","","","","","","","","","","","","","","","","","","","","","","","","","","","feedback_test","","","","","","","","","","","",""
"729","","j","psychophysics","67","292926","0.0-7.0-1.0-1.0-0.0-0.29","3","3","4","3","3","4","3","3","4","3","4","3","2","3","4","4","4","5","4","4","4","5","3","4","3","2","2","4","2","1","0","1","0","0","0","1","1","0","1","0","0","1","0","1","4","4","3","5","2","1","4","2","4","4","2","775105837449613314","赵","651","","","","match","","","","","","","","","","","","","","key","j","16.66699029126225","720","446","j","true","match","img/square.png","方形","方形","ALT1_2","prac_ALT1_2","","","","","","","","","","","",""
"null","<span style='color:GreenYellow; font-size: 70px;'>正确! </span>","null","html-keyboard-response","68","293429","0.0-7.0-1.0-1.0-0.0-1.29","3","3","4","3","3","4","3","3","4","3","4","3","2","3","4","4","4","5","4","4","4","5","3","4","3","2","2","4","2","1","0","1","0","0","0","1","1","0","1","0","0","1","0","1","4","4","3","5","2","1","4","2","4","4","2","775105837449613314","赵","651","","","","","","","","","","","","","","","","","","","","","","","","","","","","","","feedback_test","","","","","","","","","","","",""
"653","","f","psychophysics","69","295086","0.0-7.0-1.0-1.0-0.0-0.30","3","3","4","3","3","4","3","3","4","3","4","3","2","3","4","4","4","5","4","4","4","5","3","4","3","2","2","4","2","1","0","1","0","0","0","1","1","0","1","0","0","1","0","1","4","4","3","5","2","1","4","2","4","4","2","775105837449613314","赵","651","","","","nonmatch","","","","","","","","","","","","","","key","f","16.6653061224491","720","446","f","true","nonmatch","img/hexagon.png","方形","六边","ALT1_2","prac_ALT1_2","","","","","","","","","","","",""
"null","<span style='color:GreenYellow; font-size: 70px;'>正确! </span>","null","html-keyboard-response","70","295588","0.0-7.0-1.0-1.0-0.0-1.30","3","3","4","3","3","4","3","3","4","3","4","3","2","3","4","4","4","5","4","4","4","5","3","4","3","2","2","4","2","1","0","1","0","0","0","1","1","0","1","0","0","1","0","1","4","4","3","5","2","1","4","2","4","4","2","775105837449613314","赵","651","","","","","","","","","","","","","","","","","","","","","","","","","","","","","","feedback_test","","","","","","","","","","","",""
"801","","f","psychophysics","71","297392","0.0-7.0-1.0-1.0-0.0-0.31","3","3","4","3","3","4","3","3","4","3","4","3","2","3","4","4","4","5","4","4","4","5","3","4","3","2","2","4","2","1","0","1","0","0","0","1","1","0","1","0","0","1","0","1","4","4","3","5","2","1","4","2","4","4","2","775105837449613314","赵","651","","","","nonmatch","","","","","","","","","","","","","","key","f","16.665420560747773","720","446","f","true","nonmatch","img/hexagon.png","圆形","六边","ALT1_2","prac_ALT1_2","","","","","","","","","","","",""
"null","<span style='color:GreenYellow; font-size: 70px;'>正确! </span>","null","html-keyboard-response","72","297893","0.0-7.0-1.0-1.0-0.0-1.31","3","3","4","3","3","4","3","3","4","3","4","3","2","3","4","4","4","5","4","4","4","5","3","4","3","2","2","4","2","1","0","1","0","0","0","1","1","0","1","0","0","1","0","1","4","4","3","5","2","1","4","2","4","4","2","775105837449613314","赵","651","","","","","","","","","","","","","","","","","","","","","","","","","","","","","","feedback_test","","","","","","","","","","","",""
"818","","j","psychophysics","73","299715","0.0-7.0-1.0-1.0-0.0-0.32","3","3","4","3","3","4","3","3","4","3","4","3","2","3","4","4","4","5","4","4","4","5","3","4","3","2","2","4","2","1","0","1","0","0","0","1","1","0","1","0","0","1","0","1","4","4","3","5","2","1","4","2","4","4","2","775105837449613314","赵","651","","","","match","","","","","","","","","","","","","","key","j","16.666666666666668","720","446","j","true","match","img/hexagon.png","六边","六边","ALT1_2","prac_ALT1_2","","","","","","","","","","","",""
"null","<span style='color:GreenYellow; font-size: 70px;'>正确! </span>","null","html-keyboard-response","74","300218","0.0-7.0-1.0-1.0-0.0-1.32","3","3","4","3","3","4","3","3","4","3","4","3","2","3","4","4","4","5","4","4","4","5","3","4","3","2","2","4","2","1","0","1","0","0","0","1","1","0","1","0","0","1","0","1","4","4","3","5","2","1","4","2","4","4","2","775105837449613314","赵","651","","","","","","","","","","","","","","","","","","","","","","","","","","","","","","feedback_test","","","","","","","","","","","",""
"676","","j","psychophysics","75","301896","0.0-7.0-1.0-1.0-0.0-0.33","3","3","4","3","3","4","3","3","4","3","4","3","2","3","4","4","4","5","4","4","4","5","3","4","3","2","2","4","2","1","0","1","0","0","0","1","1","0","1","0","0","1","0","1","4","4","3","5","2","1","4","2","4","4","2","775105837449613314","赵","651","","","","match","","","","","","","","","","","","","","key","j","16.664646464646346","720","446","j","true","match","img/square.png","方形","方形","ALT1_2","prac_ALT1_2","","","","","","","","","","","",""
"null","<span style='color:GreenYellow; font-size: 70px;'>正确! </span>","null","html-keyboard-response","76","302398","0.0-7.0-1.0-1.0-0.0-1.33","3","3","4","3","3","4","3","3","4","3","4","3","2","3","4","4","4","5","4","4","4","5","3","4","3","2","2","4","2","1","0","1","0","0","0","1","1","0","1","0","0","1","0","1","4","4","3","5","2","1","4","2","4","4","2","775105837449613314","赵","651","","","","","","","","","","","","","","","","","","","","","","","","","","","","","","feedback_test","","","","","","","","","","","",""
"601","","j","psychophysics","77","304003","0.0-7.0-1.0-1.0-0.0-0.34","3","3","4","3","3","4","3","3","4","3","4","3","2","3","4","4","4","5","4","4","4","5","3","4","3","2","2","4","2","1","0","1","0","0","0","1","1","0","1","0","0","1","0","1","4","4","3","5","2","1","4","2","4","4","2","775105837449613314","赵","651","","","","match","","","","","","","","","","","","","","key","j","16.666666666666668","720","446","f","false","nonmatch","img/square.png","圆形","方形","ALT1_2","prac_ALT1_2","","","","","","","","","","","",""
"null","<span style='color:red; font-size: 70px;'>错误! </span>","null","html-keyboard-response","78","304505","0.0-7.0-1.0-1.0-0.0-1.34","3","3","4","3","3","4","3","3","4","3","4","3","2","3","4","4","4","5","4","4","4","5","3","4","3","2","2","4","2","1","0","1","0","0","0","1","1","0","1","0","0","1","0","1","4","4","3","5","2","1","4","2","4","4","2","775105837449613314","赵","651","","","","","","","","","","","","","","","","","","","","","","","","","","","","","","feedback_test","","","","","","","","","","","",""
"741","","j","psychophysics","79","306249","0.0-7.0-1.0-1.0-0.0-0.35","3","3","4","3","3","4","3","3","4","3","4","3","2","3","4","4","4","5","4","4","4","5","3","4","3","2","2","4","2","1","0","1","0","0","0","1","1","0","1","0","0","1","0","1","4","4","3","5","2","1","4","2","4","4","2","775105837449613314","赵","651","","","","match","","","","","","","","","","","","","","key","j","16.66699029126225","720","446","j","true","match","img/circle.png","圆形","圆形","ALT1_2","prac_ALT1_2","","","","","","","","","","","",""
"null","<span style='color:GreenYellow; font-size: 70px;'>正确! </span>","null","html-keyboard-response","80","306751","0.0-7.0-1.0-1.0-0.0-1.35","3","3","4","3","3","4","3","3","4","3","4","3","2","3","4","4","4","5","4","4","4","5","3","4","3","2","2","4","2","1","0","1","0","0","0","1","1","0","1","0","0","1","0","1","4","4","3","5","2","1","4","2","4","4","2","775105837449613314","赵","651","","","","","","","","","","","","","","","","","","","","","","","","","","","","","","feedback_test","","","","","","","","","","","",""
"638","","j","psychophysics","81","308392","0.0-7.0-1.0-1.0-0.0-0.36","3","3","4","3","3","4","3","3","4","3","4","3","2","3","4","4","4","5","4","4","4","5","3","4","3","2","2","4","2","1","0","1","0","0","0","1","1","0","1","0","0","1","0","1","4","4","3","5","2","1","4","2","4","4","2","775105837449613314","赵","651","","","","match","","","","","","","","","","","","","","key","j","16.671134020618318","720","446","j","true","match","img/circle.png","圆形","圆形","ALT1_2","prac_ALT1_2","","","","","","","","","","","",""
"null","<span style='color:GreenYellow; font-size: 70px;'>正确! </span>","null","html-keyboard-response","82","308894","0.0-7.0-1.0-1.0-0.0-1.36","3","3","4","3","3","4","3","3","4","3","4","3","2","3","4","4","4","5","4","4","4","5","3","4","3","2","2","4","2","1","0","1","0","0","0","1","1","0","1","0","0","1","0","1","4","4","3","5","2","1","4","2","4","4","2","775105837449613314","赵","651","","","","","","","","","","","","","","","","","","","","","","","","","","","","","","feedback_test","","","","","","","","","","","",""
"921","","f","psychophysics","83","310818","0.0-7.0-1.0-1.0-0.0-0.37","3","3","4","3","3","4","3","3","4","3","4","3","2","3","4","4","4","5","4","4","4","5","3","4","3","2","2","4","2","1","0","1","0","0","0","1","1","0","1","0","0","1","0","1","4","4","3","5","2","1","4","2","4","4","2","775105837449613314","赵","651","","","","nonmatch","","","","","","","","","","","","","","key","f","16.665789473684416","720","446","j","false","match","img/hexagon.png","六边","六边","ALT1_2","prac_ALT1_2","","","","","","","","","","","",""
"null","<span style='color:red; font-size: 70px;'>错误! </span>","null","html-keyboard-response","84","311321","0.0-7.0-1.0-1.0-0.0-1.37","3","3","4","3","3","4","3","3","4","3","4","3","2","3","4","4","4","5","4","4","4","5","3","4","3","2","2","4","2","1","0","1","0","0","0","1","1","0","1","0","0","1","0","1","4","4","3","5","2","1","4","2","4","4","2","775105837449613314","赵","651","","","","","","","","","","","","","","","","","","","","","","","","","","","","","","feedback_test","","","","","","","","","","","",""
"883","","f","psychophysics","85","313207","0.0-7.0-1.0-1.0-0.0-0.38","3","3","4","3","3","4","3","3","4","3","4","3","2","3","4","4","4","5","4","4","4","5","3","4","3","2","2","4","2","1","0","1","0","0","0","1","1","0","1","0","0","1","0","1","4","4","3","5","2","1","4","2","4","4","2","775105837449613314","赵","651","","","","nonmatch","","","","","","","","","","","","","","key","f","16.66607142857122","720","446","j","false","match","img/trapezoid.png","梯形","梯形","ALT1_2","prac_ALT1_2","","","","","","","","","","","",""
"null","<span style='color:red; font-size: 70px;'>错误! </span>","null","html-keyboard-response","86","313708","0.0-7.0-1.0-1.0-0.0-1.38","3","3","4","3","3","4","3","3","4","3","4","3","2","3","4","4","4","5","4","4","4","5","3","4","3","2","2","4","2","1","0","1","0","0","0","1","1","0","1","0","0","1","0","1","4","4","3","5","2","1","4","2","4","4","2","775105837449613314","赵","651","","","","","","","","","","","","","","","","","","","","","","","","","","","","","","feedback_test","","","","","","","","","","","",""
"901","","f","psychophysics","87","315613","0.0-7.0-1.0-1.0-0.0-0.39","3","3","4","3","3","4","3","3","4","3","4","3","2","3","4","4","4","5","4","4","4","5","3","4","3","2","2","4","2","1","0","1","0","0","0","1","1","0","1","0","0","1","0","1","4","4","3","5","2","1","4","2","4","4","2","775105837449613314","赵","651","","","","nonmatch","","","","","","","","","","","","","","key","f","16.666371681415825","720","446","f","true","nonmatch","img/trapezoid.png","方形","梯形","ALT1_2","prac_ALT1_2","","","","","","","","","","","",""
"null","<span style='color:GreenYellow; font-size: 70px;'>正确! </span>","null","html-keyboard-response","88","316114","0.0-7.0-1.0-1.0-0.0-1.39","3","3","4","3","3","4","3","3","4","3","4","3","2","3","4","4","4","5","4","4","4","5","3","4","3","2","2","4","2","1","0","1","0","0","0","1","1","0","1","0","0","1","0","1","4","4","3","5","2","1","4","2","4","4","2","775105837449613314","赵","651","","","","","","","","","","","","","","","","","","","","","","","","","","","","","","feedback_test","","","","","","","","","","","",""
"891","","j","psychophysics","89","318009","0.0-7.0-1.0-1.0-0.0-0.40","3","3","4","3","3","4","3","3","4","3","4","3","2","3","4","4","4","5","4","4","4","5","3","4","3","2","2","4","2","1","0","1","0","0","0","1","1","0","1","0","0","1","0","1","4","4","3","5","2","1","4","2","4","4","2","775105837449613314","赵","651","","","","match","","","","","","","","","","","","","","key","j","16.670796460176888","720","446","j","true","match","img/trapezoid.png","梯形","梯形","ALT1_2","prac_ALT1_2","","","","","","","","","","","",""
"null","<span style='color:GreenYellow; font-size: 70px;'>正确! </span>","null","html-keyboard-response","90","318511","0.0-7.0-1.0-1.0-0.0-1.40","3","3","4","3","3","4","3","3","4","3","4","3","2","3","4","4","4","5","4","4","4","5","3","4","3","2","2","4","2","1","0","1","0","0","0","1","1","0","1","0","0","1","0","1","4","4","3","5","2","1","4","2","4","4","2","775105837449613314","赵","651","","","","","","","","","","","","","","","","","","","","","","","","","","","","","","feedback_test","","","","","","","","","","","",""
"878","","f","psychophysics","91","320393","0.0-7.0-1.0-1.0-0.0-0.41","3","3","4","3","3","4","3","3","4","3","4","3","2","3","4","4","4","5","4","4","4","5","3","4","3","2","2","4","2","1","0","1","0","0","0","1","1","0","1","0","0","1","0","1","4","4","3","5","2","1","4","2","4","4","2","775105837449613314","赵","651","","","","nonmatch","","","","","","","","","","","","","","key","f","16.66696428571439","720","446","f","true","nonmatch","img/trapezoid.png","圆形","梯形","ALT1_2","prac_ALT1_2","","","","","","","","","","","",""
"null","<span style='color:GreenYellow; font-size: 70px;'>正确! </span>","null","html-keyboard-response","92","320895","0.0-7.0-1.0-1.0-0.0-1.41","3","3","4","3","3","4","3","3","4","3","4","3","2","3","4","4","4","5","4","4","4","5","3","4","3","2","2","4","2","1","0","1","0","0","0","1","1","0","1","0","0","1","0","1","4","4","3","5","2","1","4","2","4","4","2","775105837449613314","赵","651","","","","","","","","","","","","","","","","","","","","","","","","","","","","","","feedback_test","","","","","","","","","","","",""
"584","","j","psychophysics","93","322483","0.0-7.0-1.0-1.0-0.0-0.42","3","3","4","3","3","4","3","3","4","3","4","3","2","3","4","4","4","5","4","4","4","5","3","4","3","2","2","4","2","1","0","1","0","0","0","1","1","0","1","0","0","1","0","1","4","4","3","5","2","1","4","2","4","4","2","775105837449613314","赵","651","","","","match","","","","","","","","","","","","","","key","j","16.667021276595868","720","446","f","false","nonmatch","img/circle.png","六边","圆形","ALT1_2","prac_ALT1_2","","","","","","","","","","","",""
"null","<span style='color:red; font-size: 70px;'>错误! </span>","null","html-keyboard-response","94","322985","0.0-7.0-1.0-1.0-0.0-1.42","3","3","4","3","3","4","3","3","4","3","4","3","2","3","4","4","4","5","4","4","4","5","3","4","3","2","2","4","2","1","0","1","0","0","0","1","1","0","1","0","0","1","0","1","4","4","3","5","2","1","4","2","4","4","2","775105837449613314","赵","651","","","","","","","","","","","","","","","","","","","","","","","","","","","","","","feedback_test","","","","","","","","","","","",""
"422","","j","psychophysics","95","324410","0.0-7.0-1.0-1.0-0.0-0.43","3","3","4","3","3","4","3","3","4","3","4","3","2","3","4","4","4","5","4","4","4","5","3","4","3","2","2","4","2","1","0","1","0","0","0","1","1","0","1","0","0","1","0","1","4","4","3","5","2","1","4","2","4","4","2","775105837449613314","赵","651","","","","match","","","","","","","","","","","","","","key","j","16.66547619047647","720","446","f","false","nonmatch","img/circle.png","方形","圆形","ALT1_2","prac_ALT1_2","","","","","","","","","","","",""
"null","<span style='color:red; font-size: 70px;'>错误! </span>","null","html-keyboard-response","96","324912","0.0-7.0-1.0-1.0-0.0-1.43","3","3","4","3","3","4","3","3","4","3","4","3","2","3","4","4","4","5","4","4","4","5","3","4","3","2","2","4","2","1","0","1","0","0","0","1","1","0","1","0","0","1","0","1","4","4","3","5","2","1","4","2","4","4","2","775105837449613314","赵","651","","","","","","","","","","","","","","","","","","","","","","","","","","","","","","feedback_test","","","","","","","","","","","",""
"473","","f","psychophysics","97","326390","0.0-7.0-1.0-1.0-0.0-0.44","3","3","4","3","3","4","3","3","4","3","4","3","2","3","4","4","4","5","4","4","4","5","3","4","3","2","2","4","2","1","0","1","0","0","0","1","1","0","1","0","0","1","0","1","4","4","3","5","2","1","4","2","4","4","2","775105837449613314","赵","651","","","","nonmatch","","","","","","","","","","","","","","key","f","16.665909090908826","720","446","j","false","match","img/circle.png","圆形","圆形","ALT1_2","prac_ALT1_2","","","","","","","","","","","",""
"null","<span style='color:red; font-size: 70px;'>错误! </span>","null","html-keyboard-response","98","326892","0.0-7.0-1.0-1.0-0.0-1.44","3","3","4","3","3","4","3","3","4","3","4","3","2","3","4","4","4","5","4","4","4","5","3","4","3","2","2","4","2","1","0","1","0","0","0","1","1","0","1","0","0","1","0","1","4","4","3","5","2","1","4","2","4","4","2","775105837449613314","赵","651","","","","","","","","","","","","","","","","","","","","","","","","","","","","","","feedback_test","","","","","","","","","","","",""
"699","","j","psychophysics","99","328594","0.0-7.0-1.0-1.0-0.0-0.45","3","3","4","3","3","4","3","3","4","3","4","3","2","3","4","4","4","5","4","4","4","5","3","4","3","2","2","4","2","1","0","1","0","0","0","1","1","0","1","0","0","1","0","1","4","4","3","5","2","1","4","2","4","4","2","775105837449613314","赵","651","","","","match","","","","","","","","","","","","","","key","j","16.67128712871333","720","446","f","false","nonmatch","img/square.png","梯形","方形","ALT1_2","prac_ALT1_2","","","","","","","","","","","",""
"null","<span style='color:red; font-size: 70px;'>错误! </span>","null","html-keyboard-response","100","329096","0.0-7.0-1.0-1.0-0.0-1.45","3","3","4","3","3","4","3","3","4","3","4","3","2","3","4","4","4","5","4","4","4","5","3","4","3","2","2","4","2","1","0","1","0","0","0","1","1","0","1","0","0","1","0","1","4","4","3","5","2","1","4","2","4","4","2","775105837449613314","赵","651","","","","","","","","","","","","","","","","","","","","","","","","","","","","","","feedback_test","","","","","","","","","","","",""
"646","","f","psychophysics","101","330744","0.0-7.0-1.0-1.0-0.0-0.46","3","3","4","3","3","4","3","3","4","3","4","3","2","3","4","4","4","5","4","4","4","5","3","4","3","2","2","4","2","1","0","1","0","0","0","1","1","0","1","0","0","1","0","1","4","4","3","5","2","1","4","2","4","4","2","775105837449613314","赵","651","","","","nonmatch","","","","","","","","","","","","","","key","f","16.6653061224491","720","446","f","true","nonmatch","img/square.png","六边","方形","ALT1_2","prac_ALT1_2","","","","","","","","","","","",""
"null","<span style='color:GreenYellow; font-size: 70px;'>正确! </span>","null","html-keyboard-response","102","331245","0.0-7.0-1.0-1.0-0.0-1.46","3","3","4","3","3","4","3","3","4","3","4","3","2","3","4","4","4","5","4","4","4","5","3","4","3","2","2","4","2","1","0","1","0","0","0","1","1","0","1","0","0","1","0","1","4","4","3","5","2","1","4","2","4","4","2","775105837449613314","赵","651","","","","","","","","","","","","","","","","","","","","","","","","","","","","","","feedback_test","","","","","","","","","","","",""
"775","","f","psychophysics","103","333024","0.0-7.0-1.0-1.0-0.0-0.47","3","3","4","3","3","4","3","3","4","3","4","3","2","3","4","4","4","5","4","4","4","5","3","4","3","2","2","4","2","1","0","1","0","0","0","1","1","0","1","0","0","1","0","1","4","4","3","5","2","1","4","2","4","4","2","775105837449613314","赵","651","","","","nonmatch","","","","","","","","","","","","","","key","f","16.66698113207558","720","446","f","true","nonmatch","img/hexagon.png","梯形","六边","ALT1_2","prac_ALT1_2","","","","","","","","","","","",""
"null","<span style='color:GreenYellow; font-size: 70px;'>正确! </span>","null","html-keyboard-response","104","333525","0.0-7.0-1.0-1.0-0.0-1.47","3","3","4","3","3","4","3","3","4","3","4","3","2","3","4","4","4","5","4","4","4","5","3","4","3","2","2","4","2","1","0","1","0","0","0","1","1","0","1","0","0","1","0","1","4","4","3","5","2","1","4","2","4","4","2","775105837449613314","赵","651","","","","","","","","","","","","","","","","","","","","","","","","","","","","","","feedback_test","","","","","","","","","","","",""
"7798","<style>.context{color:white; font-size: 35px; line-height:40px}</style>                          <div><p class='context'>您正确回答了52% 的试次。</p><p class='context'>您的平均反应时为779毫秒。</p><p class='context'>恭喜您完成练习。按空格键继续。</p></div>"," ","html-keyboard-response","105","341327","0.0-7.0-1.0-1.0-1.0-0.0","3","3","4","3","3","4","3","3","4","3","4","3","2","3","4","4","4","5","4","4","4","5","3","4","3","2","2","4","2","1","0","1","0","0","0","1","1","0","1","0","0","1","0","1","4","4","3","5","2","1","4","2","4","4","2","775105837449613314","赵","651","","","","","","","","","","","","","","","","","","","","","","","","","","","","","","","","","","","","","","","","","",""
"13660","","","instructions","106","354992","0.0-7.0-1.0-1.0-1.0-1.0","3","3","4","3","3","4","3","3","4","3","4","3","2","3","4","4","4","5","4","4","4","5","3","4","3","2","2","4","2","1","0","1","0","0","0","1","1","0","1","0","0","1","0","1","4","4","3","5","2","1","4","2","4","4","2","775105837449613314","赵","651","","","","","","","","","","","","","","","","","[{""page_index"":0,""viewing_time"":3259},{""page_index"":1,""viewing_time"":7966},{""page_index"":2,""viewing_time"":2434}]","","","","","","","","","","","","","","","","","","","","","","","","",""
"730","","f","psychophysics","107","356727","0.0-7.0-1.0-1.1-0.1-0.48","3","3","4","3","3","4","3","3","4","3","4","3","2","3","4","4","4","5","4","4","4","5","3","4","3","2","2","4","2","1","0","1","0","0","0","1","1","0","1","0","0","1","0","1","4","4","3","5","2","1","4","2","4","4","2","775105837449613314","赵","651","","","","nonmatch","","","","","","","","","","","","","","key","f","16.666019417475503","720","446","f","true","nonmatch","img/circle.png","梯形","圆形","ALT1_2","prac_ALT1_2","","","","","","","","","","","",""
"null","<span style='color:GreenYellow; font-size: 70px;'>正确! </span>","null","html-keyboard-response","108","357228","0.0-7.0-1.0-1.1-0.1-1.48","3","3","4","3","3","4","3","3","4","3","4","3","2","3","4","4","4","5","4","4","4","5","3","4","3","2","2","4","2","1","0","1","0","0","0","1","1","0","1","0","0","1","0","1","4","4","3","5","2","1","4","2","4","4","2","775105837449613314","赵","651","","","","","","","","","","","","","","","","","","","","","","","","","","","","","","feedback_test","","","","","","","","","","","",""
"1145","","j","psychophysics","109","359377","0.0-7.0-1.0-1.1-0.1-0.49","3","3","4","3","3","4","3","3","4","3","4","3","2","3","4","4","4","5","4","4","4","5","3","4","3","2","2","4","2","1","0","1","0","0","0","1","1","0","1","0","0","1","0","1","4","4","3","5","2","1","4","2","4","4","2","775105837449613314","赵","651","","","","match","","","","","","","","","","","","","","key","j","16.666406250000364","720","446","j","true","match","img/trapezoid.png","梯形","梯形","ALT1_2","prac_ALT1_2","","","","","","","","","","","",""
"null","<span style='color:GreenYellow; font-size: 70px;'>正确! </span>","null","html-keyboard-response","110","359879","0.0-7.0-1.0-1.1-0.1-1.49","3","3","4","3","3","4","3","3","4","3","4","3","2","3","4","4","4","5","4","4","4","5","3","4","3","2","2","4","2","1","0","1","0","0","0","1","1","0","1","0","0","1","0","1","4","4","3","5","2","1","4","2","4","4","2","775105837449613314","赵","651","","","","","","","","","","","","","","","","","","","","","","","","","","","","","","feedback_test","","","","","","","","","","","",""
"693","","f","psychophysics","111","361577","0.0-7.0-1.0-1.1-0.1-0.50","3","3","4","3","3","4","3","3","4","3","4","3","2","3","4","4","4","5","4","4","4","5","3","4","3","2","2","4","2","1","0","1","0","0","0","1","1","0","1","0","0","1","0","1","4","4","3","5","2","1","4","2","4","4","2","775105837449613314","赵","651","","","","nonmatch","","","","","","","","","","","","","","key","f","16.66534653465358","720","446","f","true","nonmatch","img/circle.png","六边","圆形","ALT1_2","prac_ALT1_2","","","","","","","","","","","",""
"null","<span style='color:GreenYellow; font-size: 70px;'>正确! </span>","null","html-keyboard-response","112","362079","0.0-7.0-1.0-1.1-0.1-1.50","3","3","4","3","3","4","3","3","4","3","4","3","2","3","4","4","4","5","4","4","4","5","3","4","3","2","2","4","2","1","0","1","0","0","0","1","1","0","1","0","0","1","0","1","4","4","3","5","2","1","4","2","4","4","2","775105837449613314","赵","651","","","","","","","","","","","","","","","","","","","","","","","","","","","","","","feedback_test","","","","","","","","","","","",""
"743","","f","psychophysics","113","363826","0.0-7.0-1.0-1.1-0.1-0.51","3","3","4","3","3","4","3","3","4","3","4","3","2","3","4","4","4","5","4","4","4","5","3","4","3","2","2","4","2","1","0","1","0","0","0","1","1","0","1","0","0","1","0","1","4","4","3","5","2","1","4","2","4","4","2","775105837449613314","赵","651","","","","nonmatch","","","","","","","","","","","","","","key","f","16.666346153846042","720","446","j","false","match","img/trapezoid.png","梯形","梯形","ALT1_2","prac_ALT1_2","","","","","","","","","","","",""
"null","<span style='color:red; font-size: 70px;'>错误! </span>","null","html-keyboard-response","114","364328","0.0-7.0-1.0-1.1-0.1-1.51","3","3","4","3","3","4","3","3","4","3","4","3","2","3","4","4","4","5","4","4","4","5","3","4","3","2","2","4","2","1","0","1","0","0","0","1","1","0","1","0","0","1","0","1","4","4","3","5","2","1","4","2","4","4","2","775105837449613314","赵","651","","","","","","","","","","","","","","","","","","","","","","","","","","","","","","feedback_test","","","","","","","","","","","",""
"685","","j","psychophysics","115","366016","0.0-7.0-1.0-1.1-0.1-0.52","3","3","4","3","3","4","3","3","4","3","4","3","2","3","4","4","4","5","4","4","4","5","3","4","3","2","2","4","2","1","0","1","0","0","0","1","1","0","1","0","0","1","0","1","4","4","3","5","2","1","4","2","4","4","2","775105837449613314","赵","651","","","","match","","","","","","","","","","","","","","key","j","16.665999999999766","720","446","j","true","match","img/circle.png","圆形","圆形","ALT1_2","prac_ALT1_2","","","","","","","","","","","",""
"null","<span style='color:GreenYellow; font-size: 70px;'>正确! </span>","null","html-keyboard-response","116","366518","0.0-7.0-1.0-1.1-0.1-1.52","3","3","4","3","3","4","3","3","4","3","4","3","2","3","4","4","4","5","4","4","4","5","3","4","3","2","2","4","2","1","0","1","0","0","0","1","1","0","1","0","0","1","0","1","4","4","3","5","2","1","4","2","4","4","2","775105837449613314","赵","651","","","","","","","","","","","","","","","","","","","","","","","","","","","","","","feedback_test","","","","","","","","","","","",""
"681","","j","psychophysics","117","368201","0.0-7.0-1.0-1.1-0.1-0.53","3","3","4","3","3","4","3","3","4","3","4","3","2","3","4","4","4","5","4","4","4","5","3","4","3","2","2","4","2","1","0","1","0","0","0","1","1","0","1","0","0","1","0","1","4","4","3","5","2","1","4","2","4","4","2","775105837449613314","赵","651","","","","match","","","","","","","","","","","","","","key","j","16.665656565656214","720","446","j","true","match","img/square.png","方形","方形","ALT1_2","prac_ALT1_2","","","","","","","","","","","",""
"null","<span style='color:GreenYellow; font-size: 70px;'>正确! </span>","null","html-keyboard-response","118","368704","0.0-7.0-1.0-1.1-0.1-1.53","3","3","4","3","3","4","3","3","4","3","4","3","2","3","4","4","4","5","4","4","4","5","3","4","3","2","2","4","2","1","0","1","0","0","0","1","1","0","1","0","0","1","0","1","4","4","3","5","2","1","4","2","4","4","2","775105837449613314","赵","651","","","","","","","","","","","","","","","","","","","","","","","","","","","","","","feedback_test","","","","","","","","","","","",""
"852","","j","psychophysics","119","370559","0.0-7.0-1.0-1.1-0.1-0.54","3","3","4","3","3","4","3","3","4","3","4","3","2","3","4","4","4","5","4","4","4","5","3","4","3","2","2","4","2","1","0","1","0","0","0","1","1","0","1","0","0","1","0","1","4","4","3","5","2","1","4","2","4","4","2","775105837449613314","赵","651","","","","match","","","","","","","","","","","","","","key","j","16.66545454545465","720","446","j","true","match","img/circle.png","圆形","圆形","ALT1_2","prac_ALT1_2","","","","","","","","","","","",""
"null","<span style='color:GreenYellow; font-size: 70px;'>正确! </span>","null","html-keyboard-response","120","371061","0.0-7.0-1.0-1.1-0.1-1.54","3","3","4","3","3","4","3","3","4","3","4","3","2","3","4","4","4","5","4","4","4","5","3","4","3","2","2","4","2","1","0","1","0","0","0","1","1","0","1","0","0","1","0","1","4","4","3","5","2","1","4","2","4","4","2","775105837449613314","赵","651","","","","","","","","","","","","","","","","","","","","","","","","","","","","","","feedback_test","","","","","","","","","","","",""
"1099","","f","psychophysics","121","373164","0.0-7.0-1.0-1.1-0.1-0.55","3","3","4","3","3","4","3","3","4","3","4","3","2","3","4","4","4","5","4","4","4","5","3","4","3","2","2","4","2","1","0","1","0","0","0","1","1","0","1","0","0","1","0","1","4","4","3","5","2","1","4","2","4","4","2","775105837449613314","赵","651","","","","nonmatch","","","","","","","","","","","","","","key","f","16.67039999999991","720","446","j","false","match","img/hexagon.png","六边","六边","ALT1_2","prac_ALT1_2","","","","","","","","","","","",""
"null","<span style='color:red; font-size: 70px;'>错误! </span>","null","html-keyboard-response","122","373667","0.0-7.0-1.0-1.1-0.1-1.55","3","3","4","3","3","4","3","3","4","3","4","3","2","3","4","4","4","5","4","4","4","5","3","4","3","2","2","4","2","1","0","1","0","0","0","1","1","0","1","0","0","1","0","1","4","4","3","5","2","1","4","2","4","4","2","775105837449613314","赵","651","","","","","","","","","","","","","","","","","","","","","","","","","","","","","","feedback_test","","","","","","","","","","","",""
"691","","j","psychophysics","123","375360","0.0-7.0-1.0-1.1-0.1-0.56","3","3","4","3","3","4","3","3","4","3","4","3","2","3","4","4","4","5","4","4","4","5","3","4","3","2","2","4","2","1","0","1","0","0","0","1","1","0","1","0","0","1","0","1","4","4","3","5","2","1","4","2","4","4","2","775105837449613314","赵","651","","","","match","","","","","","","","","","","","","","key","j","16.667000000000115","720","446","j","true","match","img/hexagon.png","六边","六边","ALT1_2","prac_ALT1_2","","","","","","","","","","","",""
"null","<span style='color:GreenYellow; font-size: 70px;'>正确! </span>","null","html-keyboard-response","124","375862","0.0-7.0-1.0-1.1-0.1-1.56","3","3","4","3","3","4","3","3","4","3","4","3","2","3","4","4","4","5","4","4","4","5","3","4","3","2","2","4","2","1","0","1","0","0","0","1","1","0","1","0","0","1","0","1","4","4","3","5","2","1","4","2","4","4","2","775105837449613314","赵","651","","","","","","","","","","","","","","","","","","","","","","","","","","","","","","feedback_test","","","","","","","","","","","",""
"809","","f","psychophysics","125","377676","0.0-7.0-1.0-1.1-0.1-0.57","3","3","4","3","3","4","3","3","4","3","4","3","2","3","4","4","4","5","4","4","4","5","3","4","3","2","2","4","2","1","0","1","0","0","0","1","1","0","1","0","0","1","0","1","4","4","3","5","2","1","4","2","4","4","2","775105837449613314","赵","651","","","","nonmatch","","","","","","","","","","","","","","key","f","16.665740740740418","720","446","f","true","nonmatch","img/square.png","圆形","方形","ALT1_2","prac_ALT1_2","","","","","","","","","","","",""
"null","<span style='color:GreenYellow; font-size: 70px;'>正确! </span>","null","html-keyboard-response","126","378178","0.0-7.0-1.0-1.1-0.1-1.57","3","3","4","3","3","4","3","3","4","3","4","3","2","3","4","4","4","5","4","4","4","5","3","4","3","2","2","4","2","1","0","1","0","0","0","1","1","0","1","0","0","1","0","1","4","4","3","5","2","1","4","2","4","4","2","775105837449613314","赵","651","","","","","","","","","","","","","","","","","","","","","","","","","","","","","","feedback_test","","","","","","","","","","","",""
"1063","","j","psychophysics","127","380245","0.0-7.0-1.0-1.1-0.1-0.58","3","3","4","3","3","4","3","3","4","3","4","3","2","3","4","4","4","5","4","4","4","5","3","4","3","2","2","4","2","1","0","1","0","0","0","1","1","0","1","0","0","1","0","1","4","4","3","5","2","1","4","2","4","4","2","775105837449613314","赵","651","","","","match","","","","","","","","","","","","","","key","j","16.666666666666668","720","446","f","false","nonmatch","img/hexagon.png","梯形","六边","ALT1_2","prac_ALT1_2","","","","","","","","","","","",""
"null","<span style='color:red; font-size: 70px;'>错误! </span>","null","html-keyboard-response","128","380746","0.0-7.0-1.0-1.1-0.1-1.58","3","3","4","3","3","4","3","3","4","3","4","3","2","3","4","4","4","5","4","4","4","5","3","4","3","2","2","4","2","1","0","1","0","0","0","1","1","0","1","0","0","1","0","1","4","4","3","5","2","1","4","2","4","4","2","775105837449613314","赵","651","","","","","","","","","","","","","","","","","","","","","","","","","","","","","","feedback_test","","","","","","","","","","","",""
"744","","j","psychophysics","129","382495","0.0-7.0-1.0-1.1-0.1-0.59","3","3","4","3","3","4","3","3","4","3","4","3","2","3","4","4","4","5","4","4","4","5","3","4","3","2","2","4","2","1","0","1","0","0","0","1","1","0","1","0","0","1","0","1","4","4","3","5","2","1","4","2","4","4","2","775105837449613314","赵","651","","","","match","","","","","","","","","","","","","","key","j","16.67211538461561","720","446","j","true","match","img/square.png","方形","方形","ALT1_2","prac_ALT1_2","","","","","","","","","","","",""
"null","<span style='color:GreenYellow; font-size: 70px;'>正确! </span>","null","html-keyboard-response","130","382998","0.0-7.0-1.0-1.1-0.1-1.59","3","3","4","3","3","4","3","3","4","3","4","3","2","3","4","4","4","5","4","4","4","5","3","4","3","2","2","4","2","1","0","1","0","0","0","1","1","0","1","0","0","1","0","1","4","4","3","5","2","1","4","2","4","4","2","775105837449613314","赵","651","","","","","","","","","","","","","","","","","","","","","","","","","","","","","","feedback_test","","","","","","","","","","","",""
"850","","f","psychophysics","131","384852","0.0-7.0-1.0-1.1-0.1-0.60","3","3","4","3","3","4","3","3","4","3","4","3","2","3","4","4","4","5","4","4","4","5","3","4","3","2","2","4","2","1","0","1","0","0","0","1","1","0","1","0","0","1","0","1","4","4","3","5","2","1","4","2","4","4","2","775105837449613314","赵","651","","","","nonmatch","","","","","","","","","","","","","","key","f","16.66545454545465","720","446","f","true","nonmatch","img/trapezoid.png","方形","梯形","ALT1_2","prac_ALT1_2","","","","","","","","","","","",""
"null","<span style='color:GreenYellow; font-size: 70px;'>正确! </span>","null","html-keyboard-response","132","385354","0.0-7.0-1.0-1.1-0.1-1.60","3","3","4","3","3","4","3","3","4","3","4","3","2","3","4","4","4","5","4","4","4","5","3","4","3","2","2","4","2","1","0","1","0","0","0","1","1","0","1","0","0","1","0","1","4","4","3","5","2","1","4","2","4","4","2","775105837449613314","赵","651","","","","","","","","","","","","","","","","","","","","","","","","","","","","","","feedback_test","","","","","","","","","","","",""
"986","","j","psychophysics","133","387342","0.0-7.0-1.0-1.1-0.1-0.61","3","3","4","3","3","4","3","3","4","3","4","3","2","3","4","4","4","5","4","4","4","5","3","4","3","2","2","4","2","1","0","1","0","0","0","1","1","0","1","0","0","1","0","1","4","4","3","5","2","1","4","2","4","4","2","775105837449613314","赵","651","","","","match","","","","","","","","","","","","","","key","j","16.666949152542472","720","446","j","true","match","img/hexagon.png","六边","六边","ALT1_2","prac_ALT1_2","","","","","","","","","","","",""
"null","<span style='color:GreenYellow; font-size: 70px;'>正确! </span>","null","html-keyboard-response","134","387844","0.0-7.0-1.0-1.1-0.1-1.61","3","3","4","3","3","4","3","3","4","3","4","3","2","3","4","4","4","5","4","4","4","5","3","4","3","2","2","4","2","1","0","1","0","0","0","1","1","0","1","0","0","1","0","1","4","4","3","5","2","1","4","2","4","4","2","775105837449613314","赵","651","","","","","","","","","","","","","","","","","","","","","","","","","","","","","","feedback_test","","","","","","","","","","","",""
"1064","","j","psychophysics","135","389911","0.0-7.0-1.0-1.1-0.1-0.62","3","3","4","3","3","4","3","3","4","3","4","3","2","3","4","4","4","5","4","4","4","5","3","4","3","2","2","4","2","1","0","1","0","0","0","1","1","0","1","0","0","1","0","1","4","4","3","5","2","1","4","2","4","4","2","775105837449613314","赵","651","","","","match","","","","","","","","","","","","","","key","j","16.665853658536776","720","446","j","true","match","img/trapezoid.png","梯形","梯形","ALT1_2","prac_ALT1_2","","","","","","","","","","","",""
"null","<span style='color:GreenYellow; font-size: 70px;'>正确! </span>","null","html-keyboard-response","136","390414","0.0-7.0-1.0-1.1-0.1-1.62","3","3","4","3","3","4","3","3","4","3","4","3","2","3","4","4","4","5","4","4","4","5","3","4","3","2","2","4","2","1","0","1","0","0","0","1","1","0","1","0","0","1","0","1","4","4","3","5","2","1","4","2","4","4","2","775105837449613314","赵","651","","","","","","","","","","","","","","","","","","","","","","","","","","","","","","feedback_test","","","","","","","","","","","",""
"826","","f","psychophysics","137","392245","0.0-7.0-1.0-1.1-0.1-0.63","3","3","4","3","3","4","3","3","4","3","4","3","2","3","4","4","4","5","4","4","4","5","3","4","3","2","2","4","2","1","0","1","0","0","0","1","1","0","1","0","0","1","0","1","4","4","3","5","2","1","4","2","4","4","2","775105837449613314","赵","651","","","","nonmatch","","","","","","","","","","","","","","key","f","16.67155963302763","720","446","f","true","nonmatch","img/circle.png","方形","圆形","ALT1_2","prac_ALT1_2","","","","","","","","","","","",""
"null","<span style='color:GreenYellow; font-size: 70px;'>正确! </span>","null","html-keyboard-response","138","392746","0.0-7.0-1.0-1.1-0.1-1.63","3","3","4","3","3","4","3","3","4","3","4","3","2","3","4","4","4","5","4","4","4","5","3","4","3","2","2","4","2","1","0","1","0","0","0","1","1","0","1","0","0","1","0","1","4","4","3","5","2","1","4","2","4","4","2","775105837449613314","赵","651","","","","","","","","","","","","","","","","","","","","","","","","","","","","","","feedback_test","","","","","","","","","","","",""
"831","","j","psychophysics","139","394583","0.0-7.0-1.0-1.1-0.1-0.64","3","3","4","3","3","4","3","3","4","3","4","3","2","3","4","4","4","5","4","4","4","5","3","4","3","2","2","4","2","1","0","1","0","0","0","1","1","0","1","0","0","1","0","1","4","4","3","5","2","1","4","2","4","4","2","775105837449613314","赵","651","","","","match","","","","","","","","","","","","","","key","j","16.666055045871346","720","446","f","false","nonmatch","img/hexagon.png","方形","六边","ALT1_2","prac_ALT1_2","","","","","","","","","","","",""
"null","<span style='color:red; font-size: 70px;'>错误! </span>","null","html-keyboard-response","140","395086","0.0-7.0-1.0-1.1-0.1-1.64","3","3","4","3","3","4","3","3","4","3","4","3","2","3","4","4","4","5","4","4","4","5","3","4","3","2","2","4","2","1","0","1","0","0","0","1","1","0","1","0","0","1","0","1","4","4","3","5","2","1","4","2","4","4","2","775105837449613314","赵","651","","","","","","","","","","","","","","","","","","","","","","","","","","","","","","feedback_test","","","","","","","","","","","",""
"740","","j","psychophysics","141","396828","0.0-7.0-1.0-1.1-0.1-0.65","3","3","4","3","3","4","3","3","4","3","4","3","2","3","4","4","4","5","4","4","4","5","3","4","3","2","2","4","2","1","0","1","0","0","0","1","1","0","1","0","0","1","0","1","4","4","3","5","2","1","4","2","4","4","2","775105837449613314","赵","651","","","","match","","","","","","","","","","","","","","key","j","16.66601941747607","720","446","j","true","match","img/circle.png","圆形","圆形","ALT1_2","prac_ALT1_2","","","","","","","","","","","",""
"null","<span style='color:GreenYellow; font-size: 70px;'>正确! </span>","null","html-keyboard-response","142","397331","0.0-7.0-1.0-1.1-0.1-1.65","3","3","4","3","3","4","3","3","4","3","4","3","2","3","4","4","4","5","4","4","4","5","3","4","3","2","2","4","2","1","0","1","0","0","0","1","1","0","1","0","0","1","0","1","4","4","3","5","2","1","4","2","4","4","2","775105837449613314","赵","651","","","","","","","","","","","","","","","","","","","","","","","","","","","","","","feedback_test","","","","","","","","","","","",""
"709","","f","psychophysics","143","399045","0.0-7.0-1.0-1.1-0.1-0.66","3","3","4","3","3","4","3","3","4","3","4","3","2","3","4","4","4","5","4","4","4","5","3","4","3","2","2","4","2","1","0","1","0","0","0","1","1","0","1","0","0","1","0","1","4","4","3","5","2","1","4","2","4","4","2","775105837449613314","赵","651","","","","nonmatch","","","","","","","","","","","","","","key","f","16.665686274510033","720","446","f","true","nonmatch","img/hexagon.png","圆形","六边","ALT1_2","prac_ALT1_2","","","","","","","","","","","",""
"null","<span style='color:GreenYellow; font-size: 70px;'>正确! </span>","null","html-keyboard-response","144","399547","0.0-7.0-1.0-1.1-0.1-1.66","3","3","4","3","3","4","3","3","4","3","4","3","2","3","4","4","4","5","4","4","4","5","3","4","3","2","2","4","2","1","0","1","0","0","0","1","1","0","1","0","0","1","0","1","4","4","3","5","2","1","4","2","4","4","2","775105837449613314","赵","651","","","","","","","","","","","","","","","","","","","","","","","","","","","","","","feedback_test","","","","","","","","","","","",""
"659","","j","psychophysics","145","401211","0.0-7.0-1.0-1.1-0.1-0.67","3","3","4","3","3","4","3","3","4","3","4","3","2","3","4","4","4","5","4","4","4","5","3","4","3","2","2","4","2","1","0","1","0","0","0","1","1","0","1","0","0","1","0","1","4","4","3","5","2","1","4","2","4","4","2","775105837449613314","赵","651","","","","match","","","","","","","","","","","","","","key","j","16.665656565656214","720","446","f","false","nonmatch","img/trapezoid.png","圆形","梯形","ALT1_2","prac_ALT1_2","","","","","","","","","","","",""
"null","<span style='color:red; font-size: 70px;'>错误! </span>","null","html-keyboard-response","146","401713","0.0-7.0-1.0-1.1-0.1-1.67","3","3","4","3","3","4","3","3","4","3","4","3","2","3","4","4","4","5","4","4","4","5","3","4","3","2","2","4","2","1","0","1","0","0","0","1","1","0","1","0","0","1","0","1","4","4","3","5","2","1","4","2","4","4","2","775105837449613314","赵","651","","","","","","","","","","","","","","","","","","","","","","","","","","","","","","feedback_test","","","","","","","","","","","",""
"965","","f","psychophysics","147","403683","0.0-7.0-1.0-1.1-0.1-0.68","3","3","4","3","3","4","3","3","4","3","4","3","2","3","4","4","4","5","4","4","4","5","3","4","3","2","2","4","2","1","0","1","0","0","0","1","1","0","1","0","0","1","0","1","4","4","3","5","2","1","4","2","4","4","2","775105837449613314","赵","651","","","","nonmatch","","","","","","","","","","","","","","key","f","16.67008547008567","720","446","f","true","nonmatch","img/square.png","六边","方形","ALT1_2","prac_ALT1_2","","","","","","","","","","","",""
"null","<span style='color:GreenYellow; font-size: 70px;'>正确! </span>","null","html-keyboard-response","148","404185","0.0-7.0-1.0-1.1-0.1-1.68","3","3","4","3","3","4","3","3","4","3","4","3","2","3","4","4","4","5","4","4","4","5","3","4","3","2","2","4","2","1","0","1","0","0","0","1","1","0","1","0","0","1","0","1","4","4","3","5","2","1","4","2","4","4","2","775105837449613314","赵","651","","","","","","","","","","","","","","","","","","","","","","","","","","","","","","feedback_test","","","","","","","","","","","",""
"1172","","j","psychophysics","149","406359","0.0-7.0-1.0-1.1-0.1-0.69","3","3","4","3","3","4","3","3","4","3","4","3","2","3","4","4","4","5","4","4","4","5","3","4","3","2","2","4","2","1","0","1","0","0","0","1","1","0","1","0","0","1","0","1","4","4","3","5","2","1","4","2","4","4","2","775105837449613314","赵","651","","","","match","","","","","","","","","","","","","","key","j","16.666666666666668","720","446","f","false","nonmatch","img/trapezoid.png","六边","梯形","ALT1_2","prac_ALT1_2","","","","","","","","","","","",""
"null","<span style='color:red; font-size: 70px;'>错误! </span>","null","html-keyboard-response","150","406862","0.0-7.0-1.0-1.1-0.1-1.69","3","3","4","3","3","4","3","3","4","3","4","3","2","3","4","4","4","5","4","4","4","5","3","4","3","2","2","4","2","1","0","1","0","0","0","1","1","0","1","0","0","1","0","1","4","4","3","5","2","1","4","2","4","4","2","775105837449613314","赵","651","","","","","","","","","","","","","","","","","","","","","","","","","","","","","","feedback_test","","","","","","","","","","","",""
"900","","f","psychophysics","151","408766","0.0-7.0-1.0-1.1-0.1-0.70","3","3","4","3","3","4","3","3","4","3","4","3","2","3","4","4","4","5","4","4","4","5","3","4","3","2","2","4","2","1","0","1","0","0","0","1","1","0","1","0","0","1","0","1","4","4","3","5","2","1","4","2","4","4","2","775105837449613314","赵","651","","","","nonmatch","","","","","","","","","","","","","","key","f","16.666371681415825","720","446","f","true","nonmatch","img/square.png","梯形","方形","ALT1_2","prac_ALT1_2","","","","","","","","","","","",""
"null","<span style='color:GreenYellow; font-size: 70px;'>正确! </span>","null","html-keyboard-response","152","409268","0.0-7.0-1.0-1.1-0.1-1.70","3","3","4","3","3","4","3","3","4","3","4","3","2","3","4","4","4","5","4","4","4","5","3","4","3","2","2","4","2","1","0","1","0","0","0","1","1","0","1","0","0","1","0","1","4","4","3","5","2","1","4","2","4","4","2","775105837449613314","赵","651","","","","","","","","","","","","","","","","","","","","","","","","","","","","","","feedback_test","","","","","","","","","","","",""
"747","","j","psychophysics","153","411018","0.0-7.0-1.0-1.1-0.1-0.71","3","3","4","3","3","4","3","3","4","3","4","3","2","3","4","4","4","5","4","4","4","5","3","4","3","2","2","4","2","1","0","1","0","0","0","1","1","0","1","0","0","1","0","1","4","4","3","5","2","1","4","2","4","4","2","775105837449613314","赵","651","","","","match","","","","","","","","","","","","","","key","j","16.66601941747607","720","446","j","true","match","img/square.png","方形","方形","ALT1_2","prac_ALT1_2","","","","","","","","","","","",""
"null","<span style='color:GreenYellow; font-size: 70px;'>正确! </span>","null","html-keyboard-response","154","411520","0.0-7.0-1.0-1.1-0.1-1.71","3","3","4","3","3","4","3","3","4","3","4","3","2","3","4","4","4","5","4","4","4","5","3","4","3","2","2","4","2","1","0","1","0","0","0","1","1","0","1","0","0","1","0","1","4","4","3","5","2","1","4","2","4","4","2","775105837449613314","赵","651","","","","","","","","","","","","","","","","","","","","","","","","","","","","","","feedback_test","","","","","","","","","","","",""
"687","","f","psychophysics","155","413211","0.0-7.0-1.0-1.1-0.1-0.72","3","3","4","3","3","4","3","3","4","3","4","3","2","3","4","4","4","5","4","4","4","5","3","4","3","2","2","4","2","1","0","1","0","0","0","1","1","0","1","0","0","1","0","1","4","4","3","5","2","1","4","2","4","4","2","775105837449613314","赵","651","","","","nonmatch","","","","","","","","","","","","","","key","f","16.671000000000348","720","446","j","false","match","img/trapezoid.png","梯形","梯形","ALT1_2","prac_ALT1_2","","","","","","","","","","","",""
"null","<span style='color:red; font-size: 70px;'>错误! </span>","null","html-keyboard-response","156","413712","0.0-7.0-1.0-1.1-0.1-1.72","3","3","4","3","3","4","3","3","4","3","4","3","2","3","4","4","4","5","4","4","4","5","3","4","3","2","2","4","2","1","0","1","0","0","0","1","1","0","1","0","0","1","0","1","4","4","3","5","2","1","4","2","4","4","2","775105837449613314","赵","651","","","","","","","","","","","","","","","","","","","","","","","","","","","","","","feedback_test","","","","","","","","","","","",""
"1095","","f","psychophysics","157","415812","0.0-7.0-1.0-1.1-0.1-0.73","3","3","4","3","3","4","3","3","4","3","4","3","2","3","4","4","4","5","4","4","4","5","3","4","3","2","2","4","2","1","0","1","0","0","0","1","1","0","1","0","0","1","0","1","4","4","3","5","2","1","4","2","4","4","2","775105837449613314","赵","651","","","","nonmatch","","","","","","","","","","","","","","key","f","16.666400000000372","720","446","f","true","nonmatch","img/square.png","梯形","方形","ALT1_2","prac_ALT1_2","","","","","","","","","","","",""
"null","<span style='color:GreenYellow; font-size: 70px;'>正确! </span>","null","html-keyboard-response","158","416313","0.0-7.0-1.0-1.1-0.1-1.73","3","3","4","3","3","4","3","3","4","3","4","3","2","3","4","4","4","5","4","4","4","5","3","4","3","2","2","4","2","1","0","1","0","0","0","1","1","0","1","0","0","1","0","1","4","4","3","5","2","1","4","2","4","4","2","775105837449613314","赵","651","","","","","","","","","","","","","","","","","","","","","","","","","","","","","","feedback_test","","","","","","","","","","","",""
"961","","j","psychophysics","159","418279","0.0-7.0-1.0-1.1-0.1-0.74","3","3","4","3","3","4","3","3","4","3","4","3","2","3","4","4","4","5","4","4","4","5","3","4","3","2","2","4","2","1","0","1","0","0","0","1","1","0","1","0","0","1","0","1","4","4","3","5","2","1","4","2","4","4","2","775105837449613314","赵","651","","","","match","","","","","","","","","","","","","","key","j","16.665811965812164","720","446","f","false","nonmatch","img/hexagon.png","方形","六边","ALT1_2","prac_ALT1_2","","","","","","","","","","","",""
"null","<span style='color:red; font-size: 70px;'>错误! </span>","null","html-keyboard-response","160","418781","0.0-7.0-1.0-1.1-0.1-1.74","3","3","4","3","3","4","3","3","4","3","4","3","2","3","4","4","4","5","4","4","4","5","3","4","3","2","2","4","2","1","0","1","0","0","0","1","1","0","1","0","0","1","0","1","4","4","3","5","2","1","4","2","4","4","2","775105837449613314","赵","651","","","","","","","","","","","","","","","","","","","","","","","","","","","","","","feedback_test","","","","","","","","","","","",""
"924","","f","psychophysics","161","420710","0.0-7.0-1.0-1.1-0.1-0.75","3","3","4","3","3","4","3","3","4","3","4","3","2","3","4","4","4","5","4","4","4","5","3","4","3","2","2","4","2","1","0","1","0","0","0","1","1","0","1","0","0","1","0","1","4","4","3","5","2","1","4","2","4","4","2","775105837449613314","赵","651","","","","nonmatch","","","","","","","","","","","","","","key","f","16.66521739130435","720","446","j","false","match","img/trapezoid.png","梯形","梯形","ALT1_2","prac_ALT1_2","","","","","","","","","","","",""
"null","<span style='color:red; font-size: 70px;'>错误! </span>","null","html-keyboard-response","162","421212","0.0-7.0-1.0-1.1-0.1-1.75","3","3","4","3","3","4","3","3","4","3","4","3","2","3","4","4","4","5","4","4","4","5","3","4","3","2","2","4","2","1","0","1","0","0","0","1","1","0","1","0","0","1","0","1","4","4","3","5","2","1","4","2","4","4","2","775105837449613314","赵","651","","","","","","","","","","","","","","","","","","","","","","","","","","","","","","feedback_test","","","","","","","","","","","",""
"717","","j","psychophysics","163","422933","0.0-7.0-1.0-1.1-0.1-0.76","3","3","4","3","3","4","3","3","4","3","4","3","2","3","4","4","4","5","4","4","4","5","3","4","3","2","2","4","2","1","0","1","0","0","0","1","1","0","1","0","0","1","0","1","4","4","3","5","2","1","4","2","4","4","2","775105837449613314","赵","651","","","","match","","","","","","","","","","","","","","key","j","16.67156862745098","720","446","j","true","match","img/circle.png","圆形","圆形","ALT1_2","prac_ALT1_2","","","","","","","","","","","",""
"null","<span style='color:GreenYellow; font-size: 70px;'>正确! </span>","null","html-keyboard-response","164","423437","0.0-7.0-1.0-1.1-0.1-1.76","3","3","4","3","3","4","3","3","4","3","4","3","2","3","4","4","4","5","4","4","4","5","3","4","3","2","2","4","2","1","0","1","0","0","0","1","1","0","1","0","0","1","0","1","4","4","3","5","2","1","4","2","4","4","2","775105837449613314","赵","651","","","","","","","","","","","","","","","","","","","","","","","","","","","","","","feedback_test","","","","","","","","","","","",""
"958","","f","psychophysics","165","425398","0.0-7.0-1.0-1.1-0.1-0.77","3","3","4","3","3","4","3","3","4","3","4","3","2","3","4","4","4","5","4","4","4","5","3","4","3","2","2","4","2","1","0","1","0","0","0","1","1","0","1","0","0","1","0","1","4","4","3","5","2","1","4","2","4","4","2","775105837449613314","赵","651","","","","nonmatch","","","","","","","","","","","","","","key","f","16.664655172413593","720","446","j","false","match","img/square.png","方形","方形","ALT1_2","prac_ALT1_2","","","","","","","","","","","",""
"null","<span style='color:red; font-size: 70px;'>错误! </span>","null","html-keyboard-response","166","425900","0.0-7.0-1.0-1.1-0.1-1.77","3","3","4","3","3","4","3","3","4","3","4","3","2","3","4","4","4","5","4","4","4","5","3","4","3","2","2","4","2","1","0","1","0","0","0","1","1","0","1","0","0","1","0","1","4","4","3","5","2","1","4","2","4","4","2","775105837449613314","赵","651","","","","","","","","","","","","","","","","","","","","","","","","","","","","","","feedback_test","","","","","","","","","","","",""
"977","","f","psychophysics","167","427880","0.0-7.0-1.0-1.1-0.1-0.78","3","3","4","3","3","4","3","3","4","3","4","3","2","3","4","4","4","5","4","4","4","5","3","4","3","2","2","4","2","1","0","1","0","0","0","1","1","0","1","0","0","1","0","1","4","4","3","5","2","1","4","2","4","4","2","775105837449613314","赵","651","","","","nonmatch","","","","","","","","","","","","","","key","f","16.666101694915056","720","446","f","true","nonmatch","img/hexagon.png","圆形","六边","ALT1_2","prac_ALT1_2","","","","","","","","","","","",""
"null","<span style='color:GreenYellow; font-size: 70px;'>正确! </span>","null","html-keyboard-response","168","428383","0.0-7.0-1.0-1.1-0.1-1.78","3","3","4","3","3","4","3","3","4","3","4","3","2","3","4","4","4","5","4","4","4","5","3","4","3","2","2","4","2","1","0","1","0","0","0","1","1","0","1","0","0","1","0","1","4","4","3","5","2","1","4","2","4","4","2","775105837449613314","赵","651","","","","","","","","","","","","","","","","","","","","","","","","","","","","","","feedback_test","","","","","","","","","","","",""
"794","","f","psychophysics","169","430180","0.0-7.0-1.0-1.1-0.1-0.79","3","3","4","3","3","4","3","3","4","3","4","3","2","3","4","4","4","5","4","4","4","5","3","4","3","2","2","4","2","1","0","1","0","0","0","1","1","0","1","0","0","1","0","1","4","4","3","5","2","1","4","2","4","4","2","775105837449613314","赵","651","","","","nonmatch","","","","","","","","","","","","","","key","f","16.665420560747773","720","446","f","true","nonmatch","img/circle.png","梯形","圆形","ALT1_2","prac_ALT1_2","","","","","","","","","","","",""
"null","<span style='color:GreenYellow; font-size: 70px;'>正确! </span>","null","html-keyboard-response","170","430683","0.0-7.0-1.0-1.1-0.1-1.79","3","3","4","3","3","4","3","3","4","3","4","3","2","3","4","4","4","5","4","4","4","5","3","4","3","2","2","4","2","1","0","1","0","0","0","1","1","0","1","0","0","1","0","1","4","4","3","5","2","1","4","2","4","4","2","775105837449613314","赵","651","","","","","","","","","","","","","","","","","","","","","","","","","","","","","","feedback_test","","","","","","","","","","","",""
"799","","j","psychophysics","171","432484","0.0-7.0-1.0-1.1-0.1-0.80","3","3","4","3","3","4","3","3","4","3","4","3","2","3","4","4","4","5","4","4","4","5","3","4","3","2","2","4","2","1","0","1","0","0","0","1","1","0","1","0","0","1","0","1","4","4","3","5","2","1","4","2","4","4","2","775105837449613314","赵","651","","","","match","","","","","","","","","","","","","","key","j","16.671962616822647","720","446","j","true","match","img/hexagon.png","六边","六边","ALT1_2","prac_ALT1_2","","","","","","","","","","","",""
"null","<span style='color:GreenYellow; font-size: 70px;'>正确! </span>","null","html-keyboard-response","172","432987","0.0-7.0-1.0-1.1-0.1-1.80","3","3","4","3","3","4","3","3","4","3","4","3","2","3","4","4","4","5","4","4","4","5","3","4","3","2","2","4","2","1","0","1","0","0","0","1","1","0","1","0","0","1","0","1","4","4","3","5","2","1","4","2","4","4","2","775105837449613314","赵","651","","","","","","","","","","","","","","","","","","","","","","","","","","","","","","feedback_test","","","","","","","","","","","",""
"1004","","j","psychophysics","173","434993","0.0-7.0-1.0-1.1-0.1-0.81","3","3","4","3","3","4","3","3","4","3","4","3","2","3","4","4","4","5","4","4","4","5","3","4","3","2","2","4","2","1","0","1","0","0","0","1","1","0","1","0","0","1","0","1","4","4","3","5","2","1","4","2","4","4","2","775105837449613314","赵","651","","","","match","","","","","","","","","","","","","","key","j","16.666386554621752","720","446","j","true","match","img/trapezoid.png","梯形","梯形","ALT1_2","prac_ALT1_2","","","","","","","","","","","",""
"null","<span style='color:GreenYellow; font-size: 70px;'>正确! </span>","null","html-keyboard-response","174","435495","0.0-7.0-1.0-1.1-0.1-1.81","3","3","4","3","3","4","3","3","4","3","4","3","2","3","4","4","4","5","4","4","4","5","3","4","3","2","2","4","2","1","0","1","0","0","0","1","1","0","1","0","0","1","0","1","4","4","3","5","2","1","4","2","4","4","2","775105837449613314","赵","651","","","","","","","","","","","","","","","","","","","","","","","","","","","","","","feedback_test","","","","","","","","","","","",""
"null","","null","psychophysics","175","437712","0.0-7.0-1.0-1.1-0.1-0.82","3","3","4","3","3","4","3","3","4","3","4","3","2","3","4","4","4","5","4","4","4","5","3","4","3","2","2","4","2","1","0","1","0","0","0","1","1","0","1","0","0","1","0","1","4","4","3","5","2","1","4","2","4","4","2","775105837449613314","赵","651","","","","null","","","","","","","","","","","","","","key","null","16.666666666666668","720","446","f","false","nonmatch","img/hexagon.png","梯形","六边","ALT1_2","prac_ALT1_2","","","","","","","","","","","",""
"null","<span class='add_' style='color:yellow; font-size: 70px;'> 太慢! </span>","null","html-keyboard-response","176","438216","0.0-7.0-1.0-1.1-0.1-1.82","3","3","4","3","3","4","3","3","4","3","4","3","2","3","4","4","4","5","4","4","4","5","3","4","3","2","2","4","2","1","0","1","0","0","0","1","1","0","1","0","0","1","0","1","4","4","3","5","2","1","4","2","4","4","2","775105837449613314","赵","651","","","","","","","","","","","","","","","","","","","","","","","","","","","","","","feedback_test","","","","","","","","","","","",""
"761","","j","psychophysics","177","439980","0.0-7.0-1.0-1.1-0.1-0.83","3","3","4","3","3","4","3","3","4","3","4","3","2","3","4","4","4","5","4","4","4","5","3","4","3","2","2","4","2","1","0","1","0","0","0","1","1","0","1","0","0","1","0","1","4","4","3","5","2","1","4","2","4","4","2","775105837449613314","赵","651","","","","match","","","","","","","","","","","","","","key","j","16.666666666666668","720","446","j","true","match","img/square.png","方形","方形","ALT1_2","prac_ALT1_2","","","","","","","","","","","",""
"null","<span style='color:GreenYellow; font-size: 70px;'>正确! </span>","null","html-keyboard-response","178","440484","0.0-7.0-1.0-1.1-0.1-1.83","3","3","4","3","3","4","3","3","4","3","4","3","2","3","4","4","4","5","4","4","4","5","3","4","3","2","2","4","2","1","0","1","0","0","0","1","1","0","1","0","0","1","0","1","4","4","3","5","2","1","4","2","4","4","2","775105837449613314","赵","651","","","","","","","","","","","","","","","","","","","","","","","","","","","","","","feedback_test","","","","","","","","","","","",""
"859","","f","psychophysics","179","442344","0.0-7.0-1.0-1.1-0.1-0.84","3","3","4","3","3","4","3","3","4","3","4","3","2","3","4","4","4","5","4","4","4","5","3","4","3","2","2","4","2","1","0","1","0","0","0","1","1","0","1","0","0","1","0","1","4","4","3","5","2","1","4","2","4","4","2","775105837449613314","赵","651","","","","nonmatch","","","","","","","","","","","","","","key","f","16.67117117117117","720","446","f","true","nonmatch","img/circle.png","方形","圆形","ALT1_2","prac_ALT1_2","","","","","","","","","","","",""
"null","<span style='color:GreenYellow; font-size: 70px;'>正确! </span>","null","html-keyboard-response","180","442847","0.0-7.0-1.0-1.1-0.1-1.84","3","3","4","3","3","4","3","3","4","3","4","3","2","3","4","4","4","5","4","4","4","5","3","4","3","2","2","4","2","1","0","1","0","0","0","1","1","0","1","0","0","1","0","1","4","4","3","5","2","1","4","2","4","4","2","775105837449613314","赵","651","","","","","","","","","","","","","","","","","","","","","","","","","","","","","","feedback_test","","","","","","","","","","","",""
"894","","f","psychophysics","181","444745","0.0-7.0-1.0-1.1-0.1-0.85","3","3","4","3","3","4","3","3","4","3","4","3","2","3","4","4","4","5","4","4","4","5","3","4","3","2","2","4","2","1","0","1","0","0","0","1","1","0","1","0","0","1","0","1","4","4","3","5","2","1","4","2","4","4","2","775105837449613314","赵","651","","","","nonmatch","","","","","","","","","","","","","","key","f","16.66548672566382","720","446","f","true","nonmatch","img/square.png","圆形","方形","ALT1_2","prac_ALT1_2","","","","","","","","","","","",""
