"rt","stimulus","response","trial_type","trial_index","time_elapsed","internal_node_id","ses_1","ses_2","ses_3","ses_4","ses_5","ses_6","ses_7","ses_8","ses_9","ses_10","coreself_1","coreself_2","coreself_3","coreself_4","coreself_5","coreself_6","coreself_7","coreself_8","coreself_9","coreself_10","SGPS_1","SGPS_2","SGPS_3","SGPS_4","SGPS_5","SGPS_6","SGPS_7","SGPS_8","SGPS_9","NPI1","NPI2","NPI3","NPI4","NPI5","NPI6","NPI7","NPI8","NPI9","NPI10","NPI11","NPI12","NPI13","NPI14","NPI15","hsns_1","hsns_2","hsns_3","hsns_4","hsns_5","trap1","hsns_6","hsns_7","hsns_8","hsns_9","hsns_10","subj_idx","friend_name","ParticipantID","value","success","user_agent","responses","item_order","radio_event_ids","radio_event_times","key_event_times","mouse_event_times","straightlining","zigzagging","honeypot","timeout","failed_images","failed_audio","failed_video","view_history","response_type","key_press","avg_frame_time","center_x","center_y","correct_response","correct","identity","Image","word","condition","task_id","screen_id","time_stamp","version_attrib","version_target","IAT","RT","varname","summary","version_attrib2","version_target2","question_order","correct_answer","trap1_item"
"10106","
   <p><div style = ""color: white;font-size:25px;"">您好，欢迎参加本次实验。</div> </p>
   <p><div style = ""color: white;font-size:25px;"">为充分保障您的权利，请确保您已经知晓并同意《参与实验同意书》以及《数据公开知情同意书》。</div></p>
   <p><div style = ""color: white;font-size:25px;"">如果您未见过上述内容，请咨询实验员。</div></p>
   <p><div style = ""color: white;font-size:25px;"">如果您选择继续实验，则表示您已经清楚两份知情同意书的内容并同意。</div></p>
   <p><div style = ""color: pink;font-size:30px;"">请确保您记得day0的实验编号，您将在本次实验输入该编号，若您忘记，请咨询实验员后作答。</div></p>
   <p><div style = ""color: lightblue;font-size:25px;"">请您尽可能认真地作答，我们将依据您在各问卷和按键任务中的作答质量发放报酬。</div></p>
   <p> <div style = ""color: green;font-size:25px;""><按空格键至下页></div> </p>
   "," ","html-keyboard-response","0","10110","0.0-0.0","4","3","4","4","4","4","3","2","4","4","5","4","1","2","5","5","4","4","5","4","2","1","2","1","1","1","1","4","1","1","0","0","0","0","0","0","1","1","1","1","0","1","0","1","5","1","2","4","2","3","4","5","2","5","2","777135417253433345","李","272","","","","","","","","","","","","","","","","","","","","","","","","","","","","","","","","","","","","","","","","","",""
"","","","call-function","1","10113","0.0-1.0-0.0","4","3","4","4","4","4","3","2","4","4","5","4","1","2","5","5","4","4","5","4","2","1","2","1","1","1","1","4","1","1","0","0","0","0","0","0","1","1","1","1","0","1","0","1","5","1","2","4","2","3","4","5","2","5","2","777135417253433345","李","272","","","","","","","","","","","","","","","","","","","","","","","","","","","","","","","","","","","","","","","","","",""
"31299","","{""friend_name"":""李"",""ParticipantID"":""272""}","survey-html-form","2","41413","0.0-1.0-1.0","4","3","4","4","4","4","3","2","4","4","5","4","1","2","5","5","4","4","5","4","2","1","2","1","1","1","1","4","1","1","0","0","0","0","0","0","1","1","1","1","0","1","0","1","5","1","2","4","2","3","4","5","2","5","2","777135417253433345","李","272","","","","","","","","","","","","","","","","","","","","","","","","","","","","","","","","","","","","","","","","","",""
"","","","fullscreen","3","70209","0.0-2.0","4","3","4","4","4","4","3","2","4","4","5","4","1","2","5","5","4","4","5","4","2","1","2","1","1","1","1","4","1","1","0","0","0","0","0","0","1","1","1","1","0","1","0","1","5","1","2","4","2","3","4","5","2","5","2","777135417253433345","李","272","","true","{}","","","","","","","","","","","","","","","","","","","","","","","","","","","","","","","","","","","","","","",""
"39866","","{""Q01"":""4"",""Q02"":""3"",""Q03"":""4"",""Q04"":""4"",""Q05"":""4"",""Q06"":""4"",""Q07"":""3"",""Q08"":""2"",""Q09"":""4"",""Q10"":""4""}","survey-template","4","110077","0.0-3.0","4","3","4","4","4","4","3","2","4","4","5","4","1","2","5","5","4","4","5","4","2","1","2","1","1","1","1","4","1","1","0","0","0","0","0","0","1","1","1","1","0","1","0","1","5","1","2","4","2","3","4","5","2","5","2","777135417253433345","李","272","","","","{""Q01"":""4"",""Q02"":""3"",""Q03"":""4"",""Q04"":""4"",""Q05"":""4"",""Q06"":""4"",""Q07"":""3"",""Q08"":""2"",""Q09"":""4"",""Q10"":""4""}","[0,1,2,3,4,5,6,7,8,9]","[""Q01"",""Q02"",""Q03"",""Q04"",""Q04"",""Q05"",""Q05"",""Q04"",""Q06"",""Q07"",""Q08"",""Q09"",""Q10""]","[6569.299999952316,8154.599999904633,10528.899999856949,12768.899999856949,17281.200000047684,19600.799999952316,25209.099999904633,26577.89999985695,28600.700000047684,29961.099999904633,33201.89999985695,37385.200000047684,38640.799999952316]","[]","[6569.299999952316,8154.599999904633,10528.899999856949,12768.899999856949,17281.200000047684,19600.799999952316,25209.099999904633,26577.89999985695,28600.700000047684,29961.099999904633,33201.89999985695,37385.200000047684,38640.799999952316,39865]","0.4","0.5555555555555556","0","","","","","","","","","","","","","","","","","","","","","","","","","","","","","",""
"31731.5","","{""Q01"":""5"",""Q02"":""4"",""Q03"":""1"",""Q04"":""2"",""Q05"":""5"",""Q06"":""5"",""Q07"":""4"",""Q08"":""4"",""Q09"":""5"",""Q10"":""4""}","survey-template","5","141814","0.0-4.0","4","3","4","4","4","4","3","2","4","4","5","4","1","2","5","5","4","4","5","4","2","1","2","1","1","1","1","4","1","1","0","0","0","0","0","0","1","1","1","1","0","1","0","1","5","1","2","4","2","3","4","5","2","5","2","777135417253433345","李","272","","","","{""Q01"":""5"",""Q02"":""4"",""Q03"":""1"",""Q04"":""2"",""Q05"":""5"",""Q06"":""5"",""Q07"":""4"",""Q08"":""4"",""Q09"":""5"",""Q10"":""4""}","[0,1,2,3,4,5,6,7,8,9]","[""Q01"",""Q02"",""Q03"",""Q04"",""Q05"",""Q05"",""Q06"",""Q07"",""Q08"",""Q09"",""Q10""]","[4042.5,5762.900000095367,7445,9683,14530.400000095367,15770.400000095367,17394.700000047684,21050.900000095367,22722.700000047684,25762.700000047684,27994.599999904633]","[]","[4042.5,5762.900000095367,7445,9683,13691.099999904633,14530.400000095367,15770.400000095367,17394.700000047684,19107.5,21050.900000095367,21875,22722.700000047684,25762.700000047684,27994.599999904633,31730.400000095367]","0.5","0.2222222222222222","0","","","","","","","","","","","","","","","","","","","","","","","","","","","","","",""
"","","","preload","6","142325","0.0-5.0","4","3","4","4","4","4","3","2","4","4","5","4","1","2","5","5","4","4","5","4","2","1","2","1","1","1","1","4","1","1","0","0","0","0","0","0","1","1","1","1","0","1","0","1","5","1","2","4","2","3","4","5","2","5","2","777135417253433345","李","272","","true","","","","","","","","","","","false","[]","[]","[]","","","","","","","","","","","","","","","","","","","","","","","","","",""
"55335","","","instructions","7","197660","0.0-6.0","4","3","4","4","4","4","3","2","4","4","5","4","1","2","5","5","4","4","5","4","2","1","2","1","1","1","1","4","1","1","0","0","0","0","0","0","1","1","1","1","0","1","0","1","5","1","2","4","2","3","4","5","2","5","2","777135417253433345","李","272","","","","","","","","","","","","","","","","","[{""page_index"":0,""viewing_time"":55335}]","","","","","","","","","","","","","","","","","","","","","","","","",""
"45864","","","instructions","8","243525","0.0-7.0-1.0-0.0","4","3","4","4","4","4","3","2","4","4","5","4","1","2","5","5","4","4","5","4","2","1","2","1","1","1","1","4","1","1","0","0","0","0","0","0","1","1","1","1","0","1","0","1","5","1","2","4","2","3","4","5","2","5","2","777135417253433345","李","272","","","","","","","","","","","","","","","","","[{""page_index"":0,""viewing_time"":26926},{""page_index"":1,""viewing_time"":16152},{""page_index"":2,""viewing_time"":2786}]","","","","","","","","","","","","","","","","","","","","","","","","",""
"981","","j","psychophysics","9","245511","0.0-7.0-1.0-1.0-0.0-0.0","4","3","4","4","4","4","3","2","4","4","5","4","1","2","5","5","4","4","5","4","2","1","2","1","1","1","1","4","1","1","0","0","0","0","0","0","1","1","1","1","0","1","0","1","5","1","2","4","2","3","4","5","2","5","2","777135417253433345","李","272","","","","nonmatch","","","","","","","","","","","","","","key","j","16.667720338983028","768","428","f","false","match","img/ellipse.png","椭圆","椭圆","ALT1_2","prac_ALT1_2","","","","","","","","","","","",""
"null","<span style='color:red; font-size: 70px;'>错误! </span>","null","html-keyboard-response","10","246014","0.0-7.0-1.0-1.0-0.0-1.0","4","3","4","4","4","4","3","2","4","4","5","4","1","2","5","5","4","4","5","4","2","1","2","1","1","1","1","4","1","1","0","0","0","0","0","0","1","1","1","1","0","1","0","1","5","1","2","4","2","3","4","5","2","5","2","777135417253433345","李","272","","","","","","","","","","","","","","","","","","","","","","","","","","","","","","feedback_test","","","","","","","","","","","",""
"898","","f","psychophysics","11","247913","0.0-7.0-1.0-1.0-0.0-0.1","4","3","4","4","4","4","3","2","4","4","5","4","1","2","5","5","4","4","5","4","2","1","2","1","1","1","1","4","1","1","0","0","0","0","0","0","1","1","1","1","0","1","0","1","5","1","2","4","2","3","4","5","2","5","2","777135417253433345","李","272","","","","match","","","","","","","","","","","","","","key","f","16.667300884955743","768","428","j","false","nonmatch","img/triangle.png","五边","三角","ALT1_2","prac_ALT1_2","","","","","","","","","","","",""
"null","<span style='color:red; font-size: 70px;'>错误! </span>","null","html-keyboard-response","12","248415","0.0-7.0-1.0-1.0-0.0-1.1","4","3","4","4","4","4","3","2","4","4","5","4","1","2","5","5","4","4","5","4","2","1","2","1","1","1","1","4","1","1","0","0","0","0","0","0","1","1","1","1","0","1","0","1","5","1","2","4","2","3","4","5","2","5","2","777135417253433345","李","272","","","","","","","","","","","","","","","","","","","","","","","","","","","","","","feedback_test","","","","","","","","","","","",""
"440","","f","psychophysics","13","249857","0.0-7.0-1.0-1.0-0.0-0.2","4","3","4","4","4","4","3","2","4","4","5","4","1","2","5","5","4","4","5","4","2","1","2","1","1","1","1","4","1","1","0","0","0","0","0","0","1","1","1","1","0","1","0","1","5","1","2","4","2","3","4","5","2","5","2","777135417253433345","李","272","","","","match","","","","","","","","","","","","","","key","f","16.66717647058814","768","428","j","false","nonmatch","img/pentagon.png","椭圆","五边","ALT1_2","prac_ALT1_2","","","","","","","","","","","",""
"null","<span style='color:red; font-size: 70px;'>错误! </span>","null","html-keyboard-response","14","250358","0.0-7.0-1.0-1.0-0.0-1.2","4","3","4","4","4","4","3","2","4","4","5","4","1","2","5","5","4","4","5","4","2","1","2","1","1","1","1","4","1","1","0","0","0","0","0","0","1","1","1","1","0","1","0","1","5","1","2","4","2","3","4","5","2","5","2","777135417253433345","李","272","","","","","","","","","","","","","","","","","","","","","","","","","","","","","","feedback_test","","","","","","","","","","","",""
"375","","j","psychophysics","15","251734","0.0-7.0-1.0-1.0-0.0-0.3","4","3","4","4","4","4","3","2","4","4","5","4","1","2","5","5","4","4","5","4","2","1","2","1","1","1","1","4","1","1","0","0","0","0","0","0","1","1","1","1","0","1","0","1","5","1","2","4","2","3","4","5","2","5","2","777135417253433345","李","272","","","","nonmatch","","","","","","","","","","","","","","key","j","16.656740740740695","768","428","f","false","match","img/diamond.png","菱形","菱形","ALT1_2","prac_ALT1_2","","","","","","","","","","","",""
"null","<span style='color:red; font-size: 70px;'>错误! </span>","null","html-keyboard-response","16","252235","0.0-7.0-1.0-1.0-0.0-1.3","4","3","4","4","4","4","3","2","4","4","5","4","1","2","5","5","4","4","5","4","2","1","2","1","1","1","1","4","1","1","0","0","0","0","0","0","1","1","1","1","0","1","0","1","5","1","2","4","2","3","4","5","2","5","2","777135417253433345","李","272","","","","","","","","","","","","","","","","","","","","","","","","","","","","","","feedback_test","","","","","","","","","","","",""
"282","","j","psychophysics","17","253518","0.0-7.0-1.0-1.0-0.0-0.4","4","3","4","4","4","4","3","2","4","4","5","4","1","2","5","5","4","4","5","4","2","1","2","1","1","1","1","4","1","1","0","0","0","0","0","0","1","1","1","1","0","1","0","1","5","1","2","4","2","3","4","5","2","5","2","777135417253433345","李","272","","","","nonmatch","","","","","","","","","","","","","","key","j","16.666842105263065","768","428","j","true","nonmatch","img/triangle.png","菱形","三角","ALT1_2","prac_ALT1_2","","","","","","","","","","","",""
"null","<span style='color:GreenYellow; font-size: 70px;'>正确! </span>","null","html-keyboard-response","18","254019","0.0-7.0-1.0-1.0-0.0-1.4","4","3","4","4","4","4","3","2","4","4","5","4","1","2","5","5","4","4","5","4","2","1","2","1","1","1","1","4","1","1","0","0","0","0","0","0","1","1","1","1","0","1","0","1","5","1","2","4","2","3","4","5","2","5","2","777135417253433345","李","272","","","","","","","","","","","","","","","","","","","","","","","","","","","","","","feedback_test","","","","","","","","","","","",""
"313","","f","psychophysics","19","255334","0.0-7.0-1.0-1.0-0.0-0.5","4","3","4","4","4","4","3","2","4","4","5","4","1","2","5","5","4","4","5","4","2","1","2","1","1","1","1","4","1","1","0","0","0","0","0","0","1","1","1","1","0","1","0","1","5","1","2","4","2","3","4","5","2","5","2","777135417253433345","李","272","","","","match","","","","","","","","","","","","","","key","f","16.666717948718144","768","428","f","true","match","img/pentagon.png","五边","五边","ALT1_2","prac_ALT1_2","","","","","","","","","","","",""
"null","<span style='color:GreenYellow; font-size: 70px;'>正确! </span>","null","html-keyboard-response","20","255835","0.0-7.0-1.0-1.0-0.0-1.5","4","3","4","4","4","4","3","2","4","4","5","4","1","2","5","5","4","4","5","4","2","1","2","1","1","1","1","4","1","1","0","0","0","0","0","0","1","1","1","1","0","1","0","1","5","1","2","4","2","3","4","5","2","5","2","777135417253433345","李","272","","","","","","","","","","","","","","","","","","","","","","","","","","","","","","feedback_test","","","","","","","","","","","",""
"271","","j","psychophysics","21","257107","0.0-7.0-1.0-1.0-0.0-0.6","4","3","4","4","4","4","3","2","4","4","5","4","1","2","5","5","4","4","5","4","2","1","2","1","1","1","1","4","1","1","0","0","0","0","0","0","1","1","1","1","0","1","0","1","5","1","2","4","2","3","4","5","2","5","2","777135417253433345","李","272","","","","nonmatch","","","","","","","","","","","","","","key","j","16.66702666666669","768","428","f","false","match","img/pentagon.png","五边","五边","ALT1_2","prac_ALT1_2","","","","","","","","","","","",""
"null","<span style='color:red; font-size: 70px;'>错误! </span>","null","html-keyboard-response","22","257608","0.0-7.0-1.0-1.0-0.0-1.6","4","3","4","4","4","4","3","2","4","4","5","4","1","2","5","5","4","4","5","4","2","1","2","1","1","1","1","4","1","1","0","0","0","0","0","0","1","1","1","1","0","1","0","1","5","1","2","4","2","3","4","5","2","5","2","777135417253433345","李","272","","","","","","","","","","","","","","","","","","","","","","","","","","","","","","feedback_test","","","","","","","","","","","",""
"278","","f","psychophysics","23","258887","0.0-7.0-1.0-1.0-0.0-0.7","4","3","4","4","4","4","3","2","4","4","5","4","1","2","5","5","4","4","5","4","2","1","2","1","1","1","1","4","1","1","0","0","0","0","0","0","1","1","1","1","0","1","0","1","5","1","2","4","2","3","4","5","2","5","2","777135417253433345","李","272","","","","match","","","","","","","","","","","","","","key","f","16.651000000000156","768","428","j","false","nonmatch","img/pentagon.png","三角","五边","ALT1_2","prac_ALT1_2","","","","","","","","","","","",""
"null","<span style='color:red; font-size: 70px;'>错误! </span>","null","html-keyboard-response","24","259388","0.0-7.0-1.0-1.0-0.0-1.7","4","3","4","4","4","4","3","2","4","4","5","4","1","2","5","5","4","4","5","4","2","1","2","1","1","1","1","4","1","1","0","0","0","0","0","0","1","1","1","1","0","1","0","1","5","1","2","4","2","3","4","5","2","5","2","777135417253433345","李","272","","","","","","","","","","","","","","","","","","","","","","","","","","","","","","feedback_test","","","","","","","","","","","",""
"388","","j","psychophysics","25","260779","0.0-7.0-1.0-1.0-0.0-0.8","4","3","4","4","4","4","3","2","4","4","5","4","1","2","5","5","4","4","5","4","2","1","2","1","1","1","1","4","1","1","0","0","0","0","0","0","1","1","1","1","0","1","0","1","5","1","2","4","2","3","4","5","2","5","2","777135417253433345","李","272","","","","nonmatch","","","","","","","","","","","","","","key","j","16.666807228915324","768","428","j","true","nonmatch","img/ellipse.png","五边","椭圆","ALT1_2","prac_ALT1_2","","","","","","","","","","","",""
"null","<span style='color:GreenYellow; font-size: 70px;'>正确! </span>","null","html-keyboard-response","26","261281","0.0-7.0-1.0-1.0-0.0-1.8","4","3","4","4","4","4","3","2","4","4","5","4","1","2","5","5","4","4","5","4","2","1","2","1","1","1","1","4","1","1","0","0","0","0","0","0","1","1","1","1","0","1","0","1","5","1","2","4","2","3","4","5","2","5","2","777135417253433345","李","272","","","","","","","","","","","","","","","","","","","","","","","","","","","","","","feedback_test","","","","","","","","","","","",""
"357","","f","psychophysics","27","262640","0.0-7.0-1.0-1.0-0.0-0.9","4","3","4","4","4","4","3","2","4","4","5","4","1","2","5","5","4","4","5","4","2","1","2","1","1","1","1","4","1","1","0","0","0","0","0","0","1","1","1","1","0","1","0","1","5","1","2","4","2","3","4","5","2","5","2","777135417253433345","李","272","","","","match","","","","","","","","","","","","","","key","f","16.666337499999646","768","428","j","false","nonmatch","img/diamond.png","椭圆","菱形","ALT1_2","prac_ALT1_2","","","","","","","","","","","",""
"null","<span style='color:red; font-size: 70px;'>错误! </span>","null","html-keyboard-response","28","263142","0.0-7.0-1.0-1.0-0.0-1.9","4","3","4","4","4","4","3","2","4","4","5","4","1","2","5","5","4","4","5","4","2","1","2","1","1","1","1","4","1","1","0","0","0","0","0","0","1","1","1","1","0","1","0","1","5","1","2","4","2","3","4","5","2","5","2","777135417253433345","李","272","","","","","","","","","","","","","","","","","","","","","","","","","","","","","","feedback_test","","","","","","","","","","","",""
"358","","j","psychophysics","29","264501","0.0-7.0-1.0-1.0-0.0-0.10","4","3","4","4","4","4","3","2","4","4","5","4","1","2","5","5","4","4","5","4","2","1","2","1","1","1","1","4","1","1","0","0","0","0","0","0","1","1","1","1","0","1","0","1","5","1","2","4","2","3","4","5","2","5","2","777135417253433345","李","272","","","","nonmatch","","","","","","","","","","","","","","key","j","16.666762500000186","768","428","j","true","nonmatch","img/diamond.png","三角","菱形","ALT1_2","prac_ALT1_2","","","","","","","","","","","",""
"null","<span style='color:GreenYellow; font-size: 70px;'>正确! </span>","null","html-keyboard-response","30","265002","0.0-7.0-1.0-1.0-0.0-1.10","4","3","4","4","4","4","3","2","4","4","5","4","1","2","5","5","4","4","5","4","2","1","2","1","1","1","1","4","1","1","0","0","0","0","0","0","1","1","1","1","0","1","0","1","5","1","2","4","2","3","4","5","2","5","2","777135417253433345","李","272","","","","","","","","","","","","","","","","","","","","","","","","","","","","","","feedback_test","","","","","","","","","","","",""
"401","","j","psychophysics","31","266405","0.0-7.0-1.0-1.0-0.0-0.11","4","3","4","4","4","4","3","2","4","4","5","4","1","2","5","5","4","4","5","4","2","1","2","1","1","1","1","4","1","1","0","0","0","0","0","0","1","1","1","1","0","1","0","1","5","1","2","4","2","3","4","5","2","5","2","777135417253433345","李","272","","","","nonmatch","","","","","","","","","","","","","","key","j","16.670530120481693","768","428","f","false","match","img/diamond.png","菱形","菱形","ALT1_2","prac_ALT1_2","","","","","","","","","","","",""
"null","<span style='color:red; font-size: 70px;'>错误! </span>","null","html-keyboard-response","32","266907","0.0-7.0-1.0-1.0-0.0-1.11","4","3","4","4","4","4","3","2","4","4","5","4","1","2","5","5","4","4","5","4","2","1","2","1","1","1","1","4","1","1","0","0","0","0","0","0","1","1","1","1","0","1","0","1","5","1","2","4","2","3","4","5","2","5","2","777135417253433345","李","272","","","","","","","","","","","","","","","","","","","","","","","","","","","","","","feedback_test","","","","","","","","","","","",""
"446","","f","psychophysics","33","268354","0.0-7.0-1.0-1.0-0.0-0.12","4","3","4","4","4","4","3","2","4","4","5","4","1","2","5","5","4","4","5","4","2","1","2","1","1","1","1","4","1","1","0","0","0","0","0","0","1","1","1","1","0","1","0","1","5","1","2","4","2","3","4","5","2","5","2","777135417253433345","李","272","","","","match","","","","","","","","","","","","","","key","f","16.666709302325575","768","428","f","true","match","img/pentagon.png","五边","五边","ALT1_2","prac_ALT1_2","","","","","","","","","","","",""
"null","<span style='color:GreenYellow; font-size: 70px;'>正确! </span>","null","html-keyboard-response","34","268856","0.0-7.0-1.0-1.0-0.0-1.12","4","3","4","4","4","4","3","2","4","4","5","4","1","2","5","5","4","4","5","4","2","1","2","1","1","1","1","4","1","1","0","0","0","0","0","0","1","1","1","1","0","1","0","1","5","1","2","4","2","3","4","5","2","5","2","777135417253433345","李","272","","","","","","","","","","","","","","","","","","","","","","","","","","","","","","feedback_test","","","","","","","","","","","",""
"388","","j","psychophysics","35","270246","0.0-7.0-1.0-1.0-0.0-0.13","4","3","4","4","4","4","3","2","4","4","5","4","1","2","5","5","4","4","5","4","2","1","2","1","1","1","1","4","1","1","0","0","0","0","0","0","1","1","1","1","0","1","0","1","5","1","2","4","2","3","4","5","2","5","2","777135417253433345","李","272","","","","nonmatch","","","","","","","","","","","","","","key","j","16.666168674698987","768","428","j","true","nonmatch","img/diamond.png","五边","菱形","ALT1_2","prac_ALT1_2","","","","","","","","","","","",""
"null","<span style='color:GreenYellow; font-size: 70px;'>正确! </span>","null","html-keyboard-response","36","270747","0.0-7.0-1.0-1.0-0.0-1.13","4","3","4","4","4","4","3","2","4","4","5","4","1","2","5","5","4","4","5","4","2","1","2","1","1","1","1","4","1","1","0","0","0","0","0","0","1","1","1","1","0","1","0","1","5","1","2","4","2","3","4","5","2","5","2","777135417253433345","李","272","","","","","","","","","","","","","","","","","","","","","","","","","","","","","","feedback_test","","","","","","","","","","","",""
"292","","f","psychophysics","37","272040","0.0-7.0-1.0-1.0-0.0-0.14","4","3","4","4","4","4","3","2","4","4","5","4","1","2","5","5","4","4","5","4","2","1","2","1","1","1","1","4","1","1","0","0","0","0","0","0","1","1","1","1","0","1","0","1","5","1","2","4","2","3","4","5","2","5","2","777135417253433345","李","272","","","","match","","","","","","","","","","","","","","key","f","16.666052631578886","768","428","f","true","match","img/diamond.png","菱形","菱形","ALT1_2","prac_ALT1_2","","","","","","","","","","","",""
"null","<span style='color:GreenYellow; font-size: 70px;'>正确! </span>","null","html-keyboard-response","38","272541","0.0-7.0-1.0-1.0-0.0-1.14","4","3","4","4","4","4","3","2","4","4","5","4","1","2","5","5","4","4","5","4","2","1","2","1","1","1","1","4","1","1","0","0","0","0","0","0","1","1","1","1","0","1","0","1","5","1","2","4","2","3","4","5","2","5","2","777135417253433345","李","272","","","","","","","","","","","","","","","","","","","","","","","","","","","","","","feedback_test","","","","","","","","","","","",""
"376","","j","psychophysics","39","273918","0.0-7.0-1.0-1.0-0.0-0.15","4","3","4","4","4","4","3","2","4","4","5","4","1","2","5","5","4","4","5","4","2","1","2","1","1","1","1","4","1","1","0","0","0","0","0","0","1","1","1","1","0","1","0","1","5","1","2","4","2","3","4","5","2","5","2","777135417253433345","李","272","","","","nonmatch","","","","","","","","","","","","","","key","j","16.668890243902997","768","428","j","true","nonmatch","img/ellipse.png","菱形","椭圆","ALT1_2","prac_ALT1_2","","","","","","","","","","","",""
"null","<span style='color:GreenYellow; font-size: 70px;'>正确! </span>","null","html-keyboard-response","40","274419","0.0-7.0-1.0-1.0-0.0-1.15","4","3","4","4","4","4","3","2","4","4","5","4","1","2","5","5","4","4","5","4","2","1","2","1","1","1","1","4","1","1","0","0","0","0","0","0","1","1","1","1","0","1","0","1","5","1","2","4","2","3","4","5","2","5","2","777135417253433345","李","272","","","","","","","","","","","","","","","","","","","","","","","","","","","","","","feedback_test","","","","","","","","","","","",""
"309","","f","psychophysics","41","275730","0.0-7.0-1.0-1.0-0.0-0.16","4","3","4","4","4","4","3","2","4","4","5","4","1","2","5","5","4","4","5","4","2","1","2","1","1","1","1","4","1","1","0","0","0","0","0","0","1","1","1","1","0","1","0","1","5","1","2","4","2","3","4","5","2","5","2","777135417253433345","李","272","","","","match","","","","","","","","","","","","","","key","f","16.664871794871615","768","428","f","true","match","img/triangle.png","三角","三角","ALT1_2","prac_ALT1_2","","","","","","","","","","","",""
"null","<span style='color:GreenYellow; font-size: 70px;'>正确! </span>","null","html-keyboard-response","42","276230","0.0-7.0-1.0-1.0-0.0-1.16","4","3","4","4","4","4","3","2","4","4","5","4","1","2","5","5","4","4","5","4","2","1","2","1","1","1","1","4","1","1","0","0","0","0","0","0","1","1","1","1","0","1","0","1","5","1","2","4","2","3","4","5","2","5","2","777135417253433345","李","272","","","","","","","","","","","","","","","","","","","","","","","","","","","","","","feedback_test","","","","","","","","","","","",""
"288","","f","psychophysics","43","277520","0.0-7.0-1.0-1.0-0.0-0.17","4","3","4","4","4","4","3","2","4","4","5","4","1","2","5","5","4","4","5","4","2","1","2","1","1","1","1","4","1","1","0","0","0","0","0","0","1","1","1","1","0","1","0","1","5","1","2","4","2","3","4","5","2","5","2","777135417253433345","李","272","","","","match","","","","","","","","","","","","","","key","f","16.6659078947368","768","428","j","false","nonmatch","img/pentagon.png","菱形","五边","ALT1_2","prac_ALT1_2","","","","","","","","","","","",""
"null","<span style='color:red; font-size: 70px;'>错误! </span>","null","html-keyboard-response","44","278020","0.0-7.0-1.0-1.0-0.0-1.17","4","3","4","4","4","4","3","2","4","4","5","4","1","2","5","5","4","4","5","4","2","1","2","1","1","1","1","4","1","1","0","0","0","0","0","0","1","1","1","1","0","1","0","1","5","1","2","4","2","3","4","5","2","5","2","777135417253433345","李","272","","","","","","","","","","","","","","","","","","","","","","","","","","","","","","feedback_test","","","","","","","","","","","",""
"312","","j","psychophysics","45","279333","0.0-7.0-1.0-1.0-0.0-0.18","4","3","4","4","4","4","3","2","4","4","5","4","1","2","5","5","4","4","5","4","2","1","2","1","1","1","1","4","1","1","0","0","0","0","0","0","1","1","1","1","0","1","0","1","5","1","2","4","2","3","4","5","2","5","2","777135417253433345","李","272","","","","nonmatch","","","","","","","","","","","","","","key","j","16.667217948718015","768","428","j","true","nonmatch","img/triangle.png","椭圆","三角","ALT1_2","prac_ALT1_2","","","","","","","","","","","",""
"null","<span style='color:GreenYellow; font-size: 70px;'>正确! </span>","null","html-keyboard-response","46","279834","0.0-7.0-1.0-1.0-0.0-1.18","4","3","4","4","4","4","3","2","4","4","5","4","1","2","5","5","4","4","5","4","2","1","2","1","1","1","1","4","1","1","0","0","0","0","0","0","1","1","1","1","0","1","0","1","5","1","2","4","2","3","4","5","2","5","2","777135417253433345","李","272","","","","","","","","","","","","","","","","","","","","","","","","","","","","","","feedback_test","","","","","","","","","","","",""
"482","","f","psychophysics","47","281317","0.0-7.0-1.0-1.0-0.0-0.19","4","3","4","4","4","4","3","2","4","4","5","4","1","2","5","5","4","4","5","4","2","1","2","1","1","1","1","4","1","1","0","0","0","0","0","0","1","1","1","1","0","1","0","1","5","1","2","4","2","3","4","5","2","5","2","777135417253433345","李","272","","","","match","","","","","","","","","","","","","","key","f","16.66830681818167","768","428","f","true","match","img/ellipse.png","椭圆","椭圆","ALT1_2","prac_ALT1_2","","","","","","","","","","","",""
"null","<span style='color:GreenYellow; font-size: 70px;'>正确! </span>","null","html-keyboard-response","48","281818","0.0-7.0-1.0-1.0-0.0-1.19","4","3","4","4","4","4","3","2","4","4","5","4","1","2","5","5","4","4","5","4","2","1","2","1","1","1","1","4","1","1","0","0","0","0","0","0","1","1","1","1","0","1","0","1","5","1","2","4","2","3","4","5","2","5","2","777135417253433345","李","272","","","","","","","","","","","","","","","","","","","","","","","","","","","","","","feedback_test","","","","","","","","","","","",""
"439","","j","psychophysics","49","283259","0.0-7.0-1.0-1.0-0.0-0.20","4","3","4","4","4","4","3","2","4","4","5","4","1","2","5","5","4","4","5","4","2","1","2","1","1","1","1","4","1","1","0","0","0","0","0","0","1","1","1","1","0","1","0","1","5","1","2","4","2","3","4","5","2","5","2","777135417253433345","李","272","","","","nonmatch","","","","","","","","","","","","","","key","j","16.66855294117704","768","428","j","true","nonmatch","img/ellipse.png","三角","椭圆","ALT1_2","prac_ALT1_2","","","","","","","","","","","",""
"null","<span style='color:GreenYellow; font-size: 70px;'>正确! </span>","null","html-keyboard-response","50","283760","0.0-7.0-1.0-1.0-0.0-1.20","4","3","4","4","4","4","3","2","4","4","5","4","1","2","5","5","4","4","5","4","2","1","2","1","1","1","1","4","1","1","0","0","0","0","0","0","1","1","1","1","0","1","0","1","5","1","2","4","2","3","4","5","2","5","2","777135417253433345","李","272","","","","","","","","","","","","","","","","","","","","","","","","","","","","","","feedback_test","","","","","","","","","","","",""
"599","","j","psychophysics","51","285360","0.0-7.0-1.0-1.0-0.0-0.21","4","3","4","4","4","4","3","2","4","4","5","4","1","2","5","5","4","4","5","4","2","1","2","1","1","1","1","4","1","1","0","0","0","0","0","0","1","1","1","1","0","1","0","1","5","1","2","4","2","3","4","5","2","5","2","777135417253433345","李","272","","","","nonmatch","","","","","","","","","","","","","","key","j","16.665810526315564","768","428","f","false","match","img/triangle.png","三角","三角","ALT1_2","prac_ALT1_2","","","","","","","","","","","",""
"null","<span style='color:red; font-size: 70px;'>错误! </span>","null","html-keyboard-response","52","285861","0.0-7.0-1.0-1.0-0.0-1.21","4","3","4","4","4","4","3","2","4","4","5","4","1","2","5","5","4","4","5","4","2","1","2","1","1","1","1","4","1","1","0","0","0","0","0","0","1","1","1","1","0","1","0","1","5","1","2","4","2","3","4","5","2","5","2","777135417253433345","李","272","","","","","","","","","","","","","","","","","","","","","","","","","","","","","","feedback_test","","","","","","","","","","","",""
"398","","f","psychophysics","53","287262","0.0-7.0-1.0-1.0-0.0-0.22","4","3","4","4","4","4","3","2","4","4","5","4","1","2","5","5","4","4","5","4","2","1","2","1","1","1","1","4","1","1","0","0","0","0","0","0","1","1","1","1","0","1","0","1","5","1","2","4","2","3","4","5","2","5","2","777135417253433345","李","272","","","","match","","","","","","","","","","","","","","key","f","16.664072289156827","768","428","f","true","match","img/ellipse.png","椭圆","椭圆","ALT1_2","prac_ALT1_2","","","","","","","","","","","",""
"null","<span style='color:GreenYellow; font-size: 70px;'>正确! </span>","null","html-keyboard-response","54","287764","0.0-7.0-1.0-1.0-0.0-1.22","4","3","4","4","4","4","3","2","4","4","5","4","1","2","5","5","4","4","5","4","2","1","2","1","1","1","1","4","1","1","0","0","0","0","0","0","1","1","1","1","0","1","0","1","5","1","2","4","2","3","4","5","2","5","2","777135417253433345","李","272","","","","","","","","","","","","","","","","","","","","","","","","","","","","","","feedback_test","","","","","","","","","","","",""
"541","","j","psychophysics","55","289308","0.0-7.0-1.0-1.0-0.0-0.23","4","3","4","4","4","4","3","2","4","4","5","4","1","2","5","5","4","4","5","4","2","1","2","1","1","1","1","4","1","1","0","0","0","0","0","0","1","1","1","1","0","1","0","1","5","1","2","4","2","3","4","5","2","5","2","777135417253433345","李","272","","","","nonmatch","","","","","","","","","","","","","","key","j","16.665978021977935","768","428","f","false","match","img/triangle.png","三角","三角","ALT1_2","prac_ALT1_2","","","","","","","","","","","",""
"null","<span style='color:red; font-size: 70px;'>错误! </span>","null","html-keyboard-response","56","289809","0.0-7.0-1.0-1.0-0.0-1.23","4","3","4","4","4","4","3","2","4","4","5","4","1","2","5","5","4","4","5","4","2","1","2","1","1","1","1","4","1","1","0","0","0","0","0","0","1","1","1","1","0","1","0","1","5","1","2","4","2","3","4","5","2","5","2","777135417253433345","李","272","","","","","","","","","","","","","","","","","","","","","","","","","","","","","","feedback_test","","","","","","","","","","","",""
"876","","f","psychophysics","57","291686","0.0-7.0-1.0-1.0-0.0-0.24","4","3","4","4","4","4","3","2","4","4","5","4","1","2","5","5","4","4","5","4","2","1","2","1","1","1","1","4","1","1","0","0","0","0","0","0","1","1","1","1","0","1","0","1","5","1","2","4","2","3","4","5","2","5","2","777135417253433345","李","272","","","","match","","","","","","","","","","","","","","key","f","16.666720720720665","768","428","f","true","match","img/pentagon.png","五边","五边","ALT1_2","prac_ALT1_2","","","","","","","","","","","",""
"null","<span style='color:GreenYellow; font-size: 70px;'>正确! </span>","null","html-keyboard-response","58","292187","0.0-7.0-1.0-1.0-0.0-1.24","4","3","4","4","4","4","3","2","4","4","5","4","1","2","5","5","4","4","5","4","2","1","2","1","1","1","1","4","1","1","0","0","0","0","0","0","1","1","1","1","0","1","0","1","5","1","2","4","2","3","4","5","2","5","2","777135417253433345","李","272","","","","","","","","","","","","","","","","","","","","","","","","","","","","","","feedback_test","","","","","","","","","","","",""
"686","","j","psychophysics","59","293875","0.0-7.0-1.0-1.0-0.0-0.25","4","3","4","4","4","4","3","2","4","4","5","4","1","2","5","5","4","4","5","4","2","1","2","1","1","1","1","4","1","1","0","0","0","0","0","0","1","1","1","1","0","1","0","1","5","1","2","4","2","3","4","5","2","5","2","777135417253433345","李","272","","","","nonmatch","","","","","","","","","","","","","","key","j","16.666469999999972","768","428","j","true","nonmatch","img/pentagon.png","椭圆","五边","ALT1_2","prac_ALT1_2","","","","","","","","","","","",""
"null","<span style='color:GreenYellow; font-size: 70px;'>正确! </span>","null","html-keyboard-response","60","294376","0.0-7.0-1.0-1.0-0.0-1.25","4","3","4","4","4","4","3","2","4","4","5","4","1","2","5","5","4","4","5","4","2","1","2","1","1","1","1","4","1","1","0","0","0","0","0","0","1","1","1","1","0","1","0","1","5","1","2","4","2","3","4","5","2","5","2","777135417253433345","李","272","","","","","","","","","","","","","","","","","","","","","","","","","","","","","","feedback_test","","","","","","","","","","","",""
"1025","","f","psychophysics","61","296403","0.0-7.0-1.0-1.0-0.0-0.26","4","3","4","4","4","4","3","2","4","4","5","4","1","2","5","5","4","4","5","4","2","1","2","1","1","1","1","4","1","1","0","0","0","0","0","0","1","1","1","1","0","1","0","1","5","1","2","4","2","3","4","5","2","5","2","777135417253433345","李","272","","","","match","","","","","","","","","","","","","","key","f","16.66393333333302","768","428","j","false","nonmatch","img/diamond.png","三角","菱形","ALT1_2","prac_ALT1_2","","","","","","","","","","","",""
"null","<span style='color:red; font-size: 70px;'>错误! </span>","null","html-keyboard-response","62","296904","0.0-7.0-1.0-1.0-0.0-1.26","4","3","4","4","4","4","3","2","4","4","5","4","1","2","5","5","4","4","5","4","2","1","2","1","1","1","1","4","1","1","0","0","0","0","0","0","1","1","1","1","0","1","0","1","5","1","2","4","2","3","4","5","2","5","2","777135417253433345","李","272","","","","","","","","","","","","","","","","","","","","","","","","","","","","","","feedback_test","","","","","","","","","","","",""
"1081","","j","psychophysics","63","298987","0.0-7.0-1.0-1.0-0.0-0.27","4","3","4","4","4","4","3","2","4","4","5","4","1","2","5","5","4","4","5","4","2","1","2","1","1","1","1","4","1","1","0","0","0","0","0","0","1","1","1","1","0","1","0","1","5","1","2","4","2","3","4","5","2","5","2","777135417253433345","李","272","","","","nonmatch","","","","","","","","","","","","","","key","j","16.666580645161428","768","428","j","true","nonmatch","img/triangle.png","菱形","三角","ALT1_2","prac_ALT1_2","","","","","","","","","","","",""
"null","<span style='color:GreenYellow; font-size: 70px;'>正确! </span>","null","html-keyboard-response","64","299489","0.0-7.0-1.0-1.0-0.0-1.27","4","3","4","4","4","4","3","2","4","4","5","4","1","2","5","5","4","4","5","4","2","1","2","1","1","1","1","4","1","1","0","0","0","0","0","0","1","1","1","1","0","1","0","1","5","1","2","4","2","3","4","5","2","5","2","777135417253433345","李","272","","","","","","","","","","","","","","","","","","","","","","","","","","","","","","feedback_test","","","","","","","","","","","",""
"1115","","f","psychophysics","65","301606","0.0-7.0-1.0-1.0-0.0-0.28","4","3","4","4","4","4","3","2","4","4","5","4","1","2","5","5","4","4","5","4","2","1","2","1","1","1","1","4","1","1","0","0","0","0","0","0","1","1","1","1","0","1","0","1","5","1","2","4","2","3","4","5","2","5","2","777135417253433345","李","272","","","","match","","","","","","","","","","","","","","key","f","16.666571428571526","768","428","j","false","nonmatch","img/triangle.png","椭圆","三角","ALT1_2","prac_ALT1_2","","","","","","","","","","","",""
"null","<span style='color:red; font-size: 70px;'>错误! </span>","null","html-keyboard-response","66","302108","0.0-7.0-1.0-1.0-0.0-1.28","4","3","4","4","4","4","3","2","4","4","5","4","1","2","5","5","4","4","5","4","2","1","2","1","1","1","1","4","1","1","0","0","0","0","0","0","1","1","1","1","0","1","0","1","5","1","2","4","2","3","4","5","2","5","2","777135417253433345","李","272","","","","","","","","","","","","","","","","","","","","","","","","","","","","","","feedback_test","","","","","","","","","","","",""
"1155","","j","psychophysics","67","304265","0.0-7.0-1.0-1.0-0.0-0.29","4","3","4","4","4","4","3","2","4","4","5","4","1","2","5","5","4","4","5","4","2","1","2","1","1","1","1","4","1","1","0","0","0","0","0","0","1","1","1","1","0","1","0","1","5","1","2","4","2","3","4","5","2","5","2","777135417253433345","李","272","","","","nonmatch","","","","","","","","","","","","","","key","j","16.65894531249978","768","428","j","true","nonmatch","img/ellipse.png","五边","椭圆","ALT1_2","prac_ALT1_2","","","","","","","","","","","",""
"null","<span style='color:GreenYellow; font-size: 70px;'>正确! </span>","null","html-keyboard-response","68","304766","0.0-7.0-1.0-1.0-0.0-1.29","4","3","4","4","4","4","3","2","4","4","5","4","1","2","5","5","4","4","5","4","2","1","2","1","1","1","1","4","1","1","0","0","0","0","0","0","1","1","1","1","0","1","0","1","5","1","2","4","2","3","4","5","2","5","2","777135417253433345","李","272","","","","","","","","","","","","","","","","","","","","","","","","","","","","","","feedback_test","","","","","","","","","","","",""
"1054","","f","psychophysics","69","306821","0.0-7.0-1.0-1.0-0.0-0.30","4","3","4","4","4","4","3","2","4","4","5","4","1","2","5","5","4","4","5","4","2","1","2","1","1","1","1","4","1","1","0","0","0","0","0","0","1","1","1","1","0","1","0","1","5","1","2","4","2","3","4","5","2","5","2","777135417253433345","李","272","","","","match","","","","","","","","","","","","","","key","f","16.665172131147646","768","428","j","false","nonmatch","img/triangle.png","五边","三角","ALT1_2","prac_ALT1_2","","","","","","","","","","","",""
"null","<span style='color:red; font-size: 70px;'>错误! </span>","null","html-keyboard-response","70","307323","0.0-7.0-1.0-1.0-0.0-1.30","4","3","4","4","4","4","3","2","4","4","5","4","1","2","5","5","4","4","5","4","2","1","2","1","1","1","1","4","1","1","0","0","0","0","0","0","1","1","1","1","0","1","0","1","5","1","2","4","2","3","4","5","2","5","2","777135417253433345","李","272","","","","","","","","","","","","","","","","","","","","","","","","","","","","","","feedback_test","","","","","","","","","","","",""
"909","","j","psychophysics","71","309234","0.0-7.0-1.0-1.0-0.0-0.31","4","3","4","4","4","4","3","2","4","4","5","4","1","2","5","5","4","4","5","4","2","1","2","1","1","1","1","4","1","1","0","0","0","0","0","0","1","1","1","1","0","1","0","1","5","1","2","4","2","3","4","5","2","5","2","777135417253433345","李","272","","","","nonmatch","","","","","","","","","","","","","","key","j","16.66708771929833","768","428","j","true","nonmatch","img/diamond.png","椭圆","菱形","ALT1_2","prac_ALT1_2","","","","","","","","","","","",""
"null","<span style='color:GreenYellow; font-size: 70px;'>正确! </span>","null","html-keyboard-response","72","309735","0.0-7.0-1.0-1.0-0.0-1.31","4","3","4","4","4","4","3","2","4","4","5","4","1","2","5","5","4","4","5","4","2","1","2","1","1","1","1","4","1","1","0","0","0","0","0","0","1","1","1","1","0","1","0","1","5","1","2","4","2","3","4","5","2","5","2","777135417253433345","李","272","","","","","","","","","","","","","","","","","","","","","","","","","","","","","","feedback_test","","","","","","","","","","","",""
"1009","","j","psychophysics","73","311746","0.0-7.0-1.0-1.0-0.0-0.32","4","3","4","4","4","4","3","2","4","4","5","4","1","2","5","5","4","4","5","4","2","1","2","1","1","1","1","4","1","1","0","0","0","0","0","0","1","1","1","1","0","1","0","1","5","1","2","4","2","3","4","5","2","5","2","777135417253433345","李","272","","","","nonmatch","","","","","","","","","","","","","","key","j","16.66704166666653","768","428","j","true","nonmatch","img/pentagon.png","三角","五边","ALT1_2","prac_ALT1_2","","","","","","","","","","","",""
"null","<span style='color:GreenYellow; font-size: 70px;'>正确! </span>","null","html-keyboard-response","74","312247","0.0-7.0-1.0-1.0-0.0-1.32","4","3","4","4","4","4","3","2","4","4","5","4","1","2","5","5","4","4","5","4","2","1","2","1","1","1","1","4","1","1","0","0","0","0","0","0","1","1","1","1","0","1","0","1","5","1","2","4","2","3","4","5","2","5","2","777135417253433345","李","272","","","","","","","","","","","","","","","","","","","","","","","","","","","","","","feedback_test","","","","","","","","","","","",""
"null","","null","psychophysics","75","314450","0.0-7.0-1.0-1.0-0.0-0.33","4","3","4","4","4","4","3","2","4","4","5","4","1","2","5","5","4","4","5","4","2","1","2","1","1","1","1","4","1","1","0","0","0","0","0","0","1","1","1","1","0","1","0","1","5","1","2","4","2","3","4","5","2","5","2","777135417253433345","李","272","","","","null","","","","","","","","","","","","","","key","null","16.666290076336207","768","428","f","false","match","img/triangle.png","三角","三角","ALT1_2","prac_ALT1_2","","","","","","","","","","","",""
"null","<span class='add_' style='color:yellow; font-size: 70px;'> 太慢! </span>","null","html-keyboard-response","76","314952","0.0-7.0-1.0-1.0-0.0-1.33","4","3","4","4","4","4","3","2","4","4","5","4","1","2","5","5","4","4","5","4","2","1","2","1","1","1","1","4","1","1","0","0","0","0","0","0","1","1","1","1","0","1","0","1","5","1","2","4","2","3","4","5","2","5","2","777135417253433345","李","272","","","","","","","","","","","","","","","","","","","","","","","","","","","","","","feedback_test","","","","","","","","","","","",""
"772","","j","psychophysics","77","316725","0.0-7.0-1.0-1.0-0.0-0.34","4","3","4","4","4","4","3","2","4","4","5","4","1","2","5","5","4","4","5","4","2","1","2","1","1","1","1","4","1","1","0","0","0","0","0","0","1","1","1","1","0","1","0","1","5","1","2","4","2","3","4","5","2","5","2","777135417253433345","李","272","","","","nonmatch","","","","","","","","","","","","","","key","j","16.666847619047346","768","428","f","false","match","img/pentagon.png","五边","五边","ALT1_2","prac_ALT1_2","","","","","","","","","","","",""
"null","<span style='color:red; font-size: 70px;'>错误! </span>","null","html-keyboard-response","78","317226","0.0-7.0-1.0-1.0-0.0-1.34","4","3","4","4","4","4","3","2","4","4","5","4","1","2","5","5","4","4","5","4","2","1","2","1","1","1","1","4","1","1","0","0","0","0","0","0","1","1","1","1","0","1","0","1","5","1","2","4","2","3","4","5","2","5","2","777135417253433345","李","272","","","","","","","","","","","","","","","","","","","","","","","","","","","","","","feedback_test","","","","","","","","","","","",""
"871","","f","psychophysics","79","319098","0.0-7.0-1.0-1.0-0.0-0.35","4","3","4","4","4","4","3","2","4","4","5","4","1","2","5","5","4","4","5","4","2","1","2","1","1","1","1","4","1","1","0","0","0","0","0","0","1","1","1","1","0","1","0","1","5","1","2","4","2","3","4","5","2","5","2","777135417253433345","李","272","","","","match","","","","","","","","","","","","","","key","f","16.666576576576492","768","428","f","true","match","img/triangle.png","三角","三角","ALT1_2","prac_ALT1_2","","","","","","","","","","","",""
"null","<span style='color:GreenYellow; font-size: 70px;'>正确! </span>","null","html-keyboard-response","80","319599","0.0-7.0-1.0-1.0-0.0-1.35","4","3","4","4","4","4","3","2","4","4","5","4","1","2","5","5","4","4","5","4","2","1","2","1","1","1","1","4","1","1","0","0","0","0","0","0","1","1","1","1","0","1","0","1","5","1","2","4","2","3","4","5","2","5","2","777135417253433345","李","272","","","","","","","","","","","","","","","","","","","","","","","","","","","","","","feedback_test","","","","","","","","","","","",""
"867","","j","psychophysics","81","321468","0.0-7.0-1.0-1.0-0.0-0.36","4","3","4","4","4","4","3","2","4","4","5","4","1","2","5","5","4","4","5","4","2","1","2","1","1","1","1","4","1","1","0","0","0","0","0","0","1","1","1","1","0","1","0","1","5","1","2","4","2","3","4","5","2","5","2","777135417253433345","李","272","","","","nonmatch","","","","","","","","","","","","","","key","j","16.664576576576938","768","428","f","false","match","img/pentagon.png","五边","五边","ALT1_2","prac_ALT1_2","","","","","","","","","","","",""
"null","<span style='color:red; font-size: 70px;'>错误! </span>","null","html-keyboard-response","82","321970","0.0-7.0-1.0-1.0-0.0-1.36","4","3","4","4","4","4","3","2","4","4","5","4","1","2","5","5","4","4","5","4","2","1","2","1","1","1","1","4","1","1","0","0","0","0","0","0","1","1","1","1","0","1","0","1","5","1","2","4","2","3","4","5","2","5","2","777135417253433345","李","272","","","","","","","","","","","","","","","","","","","","","","","","","","","","","","feedback_test","","","","","","","","","","","",""
"1098","","f","psychophysics","83","324070","0.0-7.0-1.0-1.0-0.0-0.37","4","3","4","4","4","4","3","2","4","4","5","4","1","2","5","5","4","4","5","4","2","1","2","1","1","1","1","4","1","1","0","0","0","0","0","0","1","1","1","1","0","1","0","1","5","1","2","4","2","3","4","5","2","5","2","777135417253433345","李","272","","","","match","","","","","","","","","","","","","","key","f","16.667536000000315","768","428","f","true","match","img/diamond.png","菱形","菱形","ALT1_2","prac_ALT1_2","","","","","","","","","","","",""
"null","<span style='color:GreenYellow; font-size: 70px;'>正确! </span>","null","html-keyboard-response","84","324572","0.0-7.0-1.0-1.0-0.0-1.37","4","3","4","4","4","4","3","2","4","4","5","4","1","2","5","5","4","4","5","4","2","1","2","1","1","1","1","4","1","1","0","0","0","0","0","0","1","1","1","1","0","1","0","1","5","1","2","4","2","3","4","5","2","5","2","777135417253433345","李","272","","","","","","","","","","","","","","","","","","","","","","","","","","","","","","feedback_test","","","","","","","","","","","",""
"912","","f","psychophysics","85","326485","0.0-7.0-1.0-1.0-0.0-0.38","4","3","4","4","4","4","3","2","4","4","5","4","1","2","5","5","4","4","5","4","2","1","2","1","1","1","1","4","1","1","0","0","0","0","0","0","1","1","1","1","0","1","0","1","5","1","2","4","2","3","4","5","2","5","2","777135417253433345","李","272","","","","match","","","","","","","","","","","","","","key","f","16.66682456140386","768","428","f","true","match","img/triangle.png","三角","三角","ALT1_2","prac_ALT1_2","","","","","","","","","","","",""
"null","<span style='color:GreenYellow; font-size: 70px;'>正确! </span>","null","html-keyboard-response","86","326987","0.0-7.0-1.0-1.0-0.0-1.38","4","3","4","4","4","4","3","2","4","4","5","4","1","2","5","5","4","4","5","4","2","1","2","1","1","1","1","4","1","1","0","0","0","0","0","0","1","1","1","1","0","1","0","1","5","1","2","4","2","3","4","5","2","5","2","777135417253433345","李","272","","","","","","","","","","","","","","","","","","","","","","","","","","","","","","feedback_test","","","","","","","","","","","",""
"714","","j","psychophysics","87","328703","0.0-7.0-1.0-1.0-0.0-0.39","4","3","4","4","4","4","3","2","4","4","5","4","1","2","5","5","4","4","5","4","2","1","2","1","1","1","1","4","1","1","0","0","0","0","0","0","1","1","1","1","0","1","0","1","5","1","2","4","2","3","4","5","2","5","2","777135417253433345","李","272","","","","nonmatch","","","","","","","","","","","","","","key","j","16.665323529411882","768","428","j","true","nonmatch","img/ellipse.png","菱形","椭圆","ALT1_2","prac_ALT1_2","","","","","","","","","","","",""
"null","<span style='color:GreenYellow; font-size: 70px;'>正确! </span>","null","html-keyboard-response","88","329204","0.0-7.0-1.0-1.0-0.0-1.39","4","3","4","4","4","4","3","2","4","4","5","4","1","2","5","5","4","4","5","4","2","1","2","1","1","1","1","4","1","1","0","0","0","0","0","0","1","1","1","1","0","1","0","1","5","1","2","4","2","3","4","5","2","5","2","777135417253433345","李","272","","","","","","","","","","","","","","","","","","","","","","","","","","","","","","feedback_test","","","","","","","","","","","",""
"1110","","f","psychophysics","89","331315","0.0-7.0-1.0-1.0-0.0-0.40","4","3","4","4","4","4","3","2","4","4","5","4","1","2","5","5","4","4","5","4","2","1","2","1","1","1","1","4","1","1","0","0","0","0","0","0","1","1","1","1","0","1","0","1","5","1","2","4","2","3","4","5","2","5","2","777135417253433345","李","272","","","","match","","","","","","","","","","","","","","key","f","16.665769841270208","768","428","j","false","nonmatch","img/pentagon.png","菱形","五边","ALT1_2","prac_ALT1_2","","","","","","","","","","","",""
"null","<span style='color:red; font-size: 70px;'>错误! </span>","null","html-keyboard-response","90","331816","0.0-7.0-1.0-1.0-0.0-1.40","4","3","4","4","4","4","3","2","4","4","5","4","1","2","5","5","4","4","5","4","2","1","2","1","1","1","1","4","1","1","0","0","0","0","0","0","1","1","1","1","0","1","0","1","5","1","2","4","2","3","4","5","2","5","2","777135417253433345","李","272","","","","","","","","","","","","","","","","","","","","","","","","","","","","","","feedback_test","","","","","","","","","","","",""
"1030","","f","psychophysics","91","333847","0.0-7.0-1.0-1.0-0.0-0.41","4","3","4","4","4","4","3","2","4","4","5","4","1","2","5","5","4","4","5","4","2","1","2","1","1","1","1","4","1","1","0","0","0","0","0","0","1","1","1","1","0","1","0","1","5","1","2","4","2","3","4","5","2","5","2","777135417253433345","李","272","","","","match","","","","","","","","","","","","","","key","f","16.666404958677763","768","428","f","true","match","img/diamond.png","菱形","菱形","ALT1_2","prac_ALT1_2","","","","","","","","","","","",""
"null","<span style='color:GreenYellow; font-size: 70px;'>正确! </span>","null","html-keyboard-response","92","334347","0.0-7.0-1.0-1.0-0.0-1.41","4","3","4","4","4","4","3","2","4","4","5","4","1","2","5","5","4","4","5","4","2","1","2","1","1","1","1","4","1","1","0","0","0","0","0","0","1","1","1","1","0","1","0","1","5","1","2","4","2","3","4","5","2","5","2","777135417253433345","李","272","","","","","","","","","","","","","","","","","","","","","","","","","","","","","","feedback_test","","","","","","","","","","","",""
"1085","","f","psychophysics","93","336434","0.0-7.0-1.0-1.0-0.0-0.42","4","3","4","4","4","4","3","2","4","4","5","4","1","2","5","5","4","4","5","4","2","1","2","1","1","1","1","4","1","1","0","0","0","0","0","0","1","1","1","1","0","1","0","1","5","1","2","4","2","3","4","5","2","5","2","777135417253433345","李","272","","","","match","","","","","","","","","","","","","","key","f","16.666975806451745","768","428","f","true","match","img/diamond.png","菱形","菱形","ALT1_2","prac_ALT1_2","","","","","","","","","","","",""
"null","<span style='color:GreenYellow; font-size: 70px;'>正确! </span>","null","html-keyboard-response","94","336935","0.0-7.0-1.0-1.0-0.0-1.42","4","3","4","4","4","4","3","2","4","4","5","4","1","2","5","5","4","4","5","4","2","1","2","1","1","1","1","4","1","1","0","0","0","0","0","0","1","1","1","1","0","1","0","1","5","1","2","4","2","3","4","5","2","5","2","777135417253433345","李","272","","","","","","","","","","","","","","","","","","","","","","","","","","","","","","feedback_test","","","","","","","","","","","",""
"730","","j","psychophysics","95","338668","0.0-7.0-1.0-1.0-0.0-0.43","4","3","4","4","4","4","3","2","4","4","5","4","1","2","5","5","4","4","5","4","2","1","2","1","1","1","1","4","1","1","0","0","0","0","0","0","1","1","1","1","0","1","0","1","5","1","2","4","2","3","4","5","2","5","2","777135417253433345","李","272","","","","nonmatch","","","","","","","","","","","","","","key","j","16.669359223301143","768","428","f","false","match","img/ellipse.png","椭圆","椭圆","ALT1_2","prac_ALT1_2","","","","","","","","","","","",""
"null","<span style='color:red; font-size: 70px;'>错误! </span>","null","html-keyboard-response","96","339168","0.0-7.0-1.0-1.0-0.0-1.43","4","3","4","4","4","4","3","2","4","4","5","4","1","2","5","5","4","4","5","4","2","1","2","1","1","1","1","4","1","1","0","0","0","0","0","0","1","1","1","1","0","1","0","1","5","1","2","4","2","3","4","5","2","5","2","777135417253433345","李","272","","","","","","","","","","","","","","","","","","","","","","","","","","","","","","feedback_test","","","","","","","","","","","",""
"796","","j","psychophysics","97","340966","0.0-7.0-1.0-1.0-0.0-0.44","4","3","4","4","4","4","3","2","4","4","5","4","1","2","5","5","4","4","5","4","2","1","2","1","1","1","1","4","1","1","0","0","0","0","0","0","1","1","1","1","0","1","0","1","5","1","2","4","2","3","4","5","2","5","2","777135417253433345","李","272","","","","nonmatch","","","","","","","","","","","","","","key","j","16.666439252336527","768","428","j","true","nonmatch","img/diamond.png","五边","菱形","ALT1_2","prac_ALT1_2","","","","","","","","","","","",""
"null","<span style='color:GreenYellow; font-size: 70px;'>正确! </span>","null","html-keyboard-response","98","341467","0.0-7.0-1.0-1.0-0.0-1.44","4","3","4","4","4","4","3","2","4","4","5","4","1","2","5","5","4","4","5","4","2","1","2","1","1","1","1","4","1","1","0","0","0","0","0","0","1","1","1","1","0","1","0","1","5","1","2","4","2","3","4","5","2","5","2","777135417253433345","李","272","","","","","","","","","","","","","","","","","","","","","","","","","","","","","","feedback_test","","","","","","","","","","","",""
"1083","","j","psychophysics","99","343551","0.0-7.0-1.0-1.0-0.0-0.45","4","3","4","4","4","4","3","2","4","4","5","4","1","2","5","5","4","4","5","4","2","1","2","1","1","1","1","4","1","1","0","0","0","0","0","0","1","1","1","1","0","1","0","1","5","1","2","4","2","3","4","5","2","5","2","777135417253433345","李","272","","","","nonmatch","","","","","","","","","","","","","","key","j","16.66655645161283","768","428","j","true","nonmatch","img/ellipse.png","三角","椭圆","ALT1_2","prac_ALT1_2","","","","","","","","","","","",""
"null","<span style='color:GreenYellow; font-size: 70px;'>正确! </span>","null","html-keyboard-response","100","344053","0.0-7.0-1.0-1.0-0.0-1.45","4","3","4","4","4","4","3","2","4","4","5","4","1","2","5","5","4","4","5","4","2","1","2","1","1","1","1","4","1","1","0","0","0","0","0","0","1","1","1","1","0","1","0","1","5","1","2","4","2","3","4","5","2","5","2","777135417253433345","李","272","","","","","","","","","","","","","","","","","","","","","","","","","","","","","","feedback_test","","","","","","","","","","","",""
"815","","f","psychophysics","101","345869","0.0-7.0-1.0-1.0-0.0-0.46","4","3","4","4","4","4","3","2","4","4","5","4","1","2","5","5","4","4","5","4","2","1","2","1","1","1","1","4","1","1","0","0","0","0","0","0","1","1","1","1","0","1","0","1","5","1","2","4","2","3","4","5","2","5","2","777135417253433345","李","272","","","","match","","","","","","","","","","","","","","key","f","16.665240740740924","768","428","f","true","match","img/ellipse.png","椭圆","椭圆","ALT1_2","prac_ALT1_2","","","","","","","","","","","",""
"null","<span style='color:GreenYellow; font-size: 70px;'>正确! </span>","null","html-keyboard-response","102","346372","0.0-7.0-1.0-1.0-0.0-1.46","4","3","4","4","4","4","3","2","4","4","5","4","1","2","5","5","4","4","5","4","2","1","2","1","1","1","1","4","1","1","0","0","0","0","0","0","1","1","1","1","0","1","0","1","5","1","2","4","2","3","4","5","2","5","2","777135417253433345","李","272","","","","","","","","","","","","","","","","","","","","","","","","","","","","","","feedback_test","","","","","","","","","","","",""
"968","","f","psychophysics","103","348341","0.0-7.0-1.0-1.0-0.0-0.47","4","3","4","4","4","4","3","2","4","4","5","4","1","2","5","5","4","4","5","4","2","1","2","1","1","1","1","4","1","1","0","0","0","0","0","0","1","1","1","1","0","1","0","1","5","1","2","4","2","3","4","5","2","5","2","777135417253433345","李","272","","","","match","","","","","","","","","","","","","","key","f","16.66689743589745","768","428","f","true","match","img/ellipse.png","椭圆","椭圆","ALT1_2","prac_ALT1_2","","","","","","","","","","","",""
"null","<span style='color:GreenYellow; font-size: 70px;'>正确! </span>","null","html-keyboard-response","104","348842","0.0-7.0-1.0-1.0-0.0-1.47","4","3","4","4","4","4","3","2","4","4","5","4","1","2","5","5","4","4","5","4","2","1","2","1","1","1","1","4","1","1","0","0","0","0","0","0","1","1","1","1","0","1","0","1","5","1","2","4","2","3","4","5","2","5","2","777135417253433345","李","272","","","","","","","","","","","","","","","","","","","","","","","","","","","","","","feedback_test","","","","","","","","","","","",""
"44742","<style>.context{color:white; font-size: 35px; line-height:40px}</style>                          <div><p class='context'>您正确回答了60% 的试次。</p><p class='context'>您的平均反应时为685毫秒。</p><p class='context'>恭喜您完成练习。按空格键进入正式实验。</p><p class='footer' style='font-size: 35px; line-height:40px;'>请在进入正式实验实验之前将您的<span style='color: lightgreen;'>食指</span>放在电脑键盘的相应键位上进行按键。</p>"," ","html-keyboard-response","105","393585","0.0-7.0-1.0-2.0","4","3","4","4","4","4","3","2","4","4","5","4","1","2","5","5","4","4","5","4","2","1","2","1","1","1","1","4","1","1","0","0","0","0","0","0","1","1","1","1","0","1","0","1","5","1","2","4","2","3","4","5","2","5","2","777135417253433345","李","272","","","","","","","","","","","","","","","","","","","","","","","","","","","","","","","","","","","","","","","","","",""
"4390","
  <p style='color: white; font-size: 22px'>请您将手指放在按键上，准备进入正式的匹配任务。</p>
  <p> <div style = ""color: green""><按空格键进入下一阶段的匹配任务></div></p>
  "," ","html-keyboard-response","106","397978","0.0-7.0-1.0-3.0","4","3","4","4","4","4","3","2","4","4","5","4","1","2","5","5","4","4","5","4","2","1","2","1","1","1","1","4","1","1","0","0","0","0","0","0","1","1","1","1","0","1","0","1","5","1","2","4","2","3","4","5","2","5","2","777135417253433345","李","272","","","","","","","","","","","","","","","","","","","","","","","","","","","","","","","","","","","","","","","","","",""
"846","","j","psychophysics","107","399826","0.0-7.0-1.0-4.0-0.0-0.0","4","3","4","4","4","4","3","2","4","4","5","4","1","2","5","5","4","4","5","4","2","1","2","1","1","1","1","4","1","1","0","0","0","0","0","0","1","1","1","1","0","1","0","1","5","1","2","4","2","3","4","5","2","5","2","777135417253433345","李","272","","","","nonmatch","","","","","","","","","","","","","","key","j","16.666509090909013","768","428","f","false","match","img/pentagon.png","五边","五边","ALT1","formal_ALT1_2","","","","","","","","","","","",""
"null","<span style='color:red; font-size: 70px;'>错误! </span>","null","html-keyboard-response","108","400327","0.0-7.0-1.0-4.0-0.0-1.0","4","3","4","4","4","4","3","2","4","4","5","4","1","2","5","5","4","4","5","4","2","1","2","1","1","1","1","4","1","1","0","0","0","0","0","0","1","1","1","1","0","1","0","1","5","1","2","4","2","3","4","5","2","5","2","777135417253433345","李","272","","","","","","","","","","","","","","","","","","","","","","","","","","","","","","feedback_test","","","","","","","","","","","",""
"666","","f","psychophysics","109","401995","0.0-7.0-1.0-4.0-0.0-0.1","4","3","4","4","4","4","3","2","4","4","5","4","1","2","5","5","4","4","5","4","2","1","2","1","1","1","1","4","1","1","0","0","0","0","0","0","1","1","1","1","0","1","0","1","5","1","2","4","2","3","4","5","2","5","2","777135417253433345","李","272","","","","match","","","","","","","","","","","","","","key","f","16.666575757576144","768","428","f","true","match","img/ellipse.png","椭圆","椭圆","ALT1","formal_ALT1_2","","","","","","","","","","","",""
"null","<span style='color:GreenYellow; font-size: 70px;'>正确! </span>","null","html-keyboard-response","110","402497","0.0-7.0-1.0-4.0-0.0-1.1","4","3","4","4","4","4","3","2","4","4","5","4","1","2","5","5","4","4","5","4","2","1","2","1","1","1","1","4","1","1","0","0","0","0","0","0","1","1","1","1","0","1","0","1","5","1","2","4","2","3","4","5","2","5","2","777135417253433345","李","272","","","","","","","","","","","","","","","","","","","","","","","","","","","","","","feedback_test","","","","","","","","","","","",""
"896","","f","psychophysics","111","404396","0.0-7.0-1.0-4.0-0.0-0.2","4","3","4","4","4","4","3","2","4","4","5","4","1","2","5","5","4","4","5","4","2","1","2","1","1","1","1","4","1","1","0","0","0","0","0","0","1","1","1","1","0","1","0","1","5","1","2","4","2","3","4","5","2","5","2","777135417253433345","李","272","","","","match","","","","","","","","","","","","","","key","f","16.66606194690278","768","428","j","false","nonmatch","img/pentagon.png","三角","五边","ALT1","formal_ALT1_2","","","","","","","","","","","",""
"null","<span style='color:red; font-size: 70px;'>错误! </span>","null","html-keyboard-response","112","404898","0.0-7.0-1.0-4.0-0.0-1.2","4","3","4","4","4","4","3","2","4","4","5","4","1","2","5","5","4","4","5","4","2","1","2","1","1","1","1","4","1","1","0","0","0","0","0","0","1","1","1","1","0","1","0","1","5","1","2","4","2","3","4","5","2","5","2","777135417253433345","李","272","","","","","","","","","","","","","","","","","","","","","","","","","","","","","","feedback_test","","","","","","","","","","","",""
"681","","f","psychophysics","113","406581","0.0-7.0-1.0-4.0-0.0-0.3","4","3","4","4","4","4","3","2","4","4","5","4","1","2","5","5","4","4","5","4","2","1","2","1","1","1","1","4","1","1","0","0","0","0","0","0","1","1","1","1","0","1","0","1","5","1","2","4","2","3","4","5","2","5","2","777135417253433345","李","272","","","","match","","","","","","","","","","","","","","key","f","16.666359999999987","768","428","f","true","match","img/ellipse.png","椭圆","椭圆","ALT1","formal_ALT1_2","","","","","","","","","","","",""
"null","<span style='color:GreenYellow; font-size: 70px;'>正确! </span>","null","html-keyboard-response","114","407083","0.0-7.0-1.0-4.0-0.0-1.3","4","3","4","4","4","4","3","2","4","4","5","4","1","2","5","5","4","4","5","4","2","1","2","1","1","1","1","4","1","1","0","0","0","0","0","0","1","1","1","1","0","1","0","1","5","1","2","4","2","3","4","5","2","5","2","777135417253433345","李","272","","","","","","","","","","","","","","","","","","","","","","","","","","","","","","feedback_test","","","","","","","","","","","",""
"854","","f","psychophysics","115","408939","0.0-7.0-1.0-4.0-0.0-0.4","4","3","4","4","4","4","3","2","4","4","5","4","1","2","5","5","4","4","5","4","2","1","2","1","1","1","1","4","1","1","0","0","0","0","0","0","1","1","1","1","0","1","0","1","5","1","2","4","2","3","4","5","2","5","2","777135417253433345","李","272","","","","match","","","","","","","","","","","","","","key","f","16.667127272727456","768","428","j","false","nonmatch","img/pentagon.png","椭圆","五边","ALT1","formal_ALT1_2","","","","","","","","","","","",""
"null","<span style='color:red; font-size: 70px;'>错误! </span>","null","html-keyboard-response","116","409441","0.0-7.0-1.0-4.0-0.0-1.4","4","3","4","4","4","4","3","2","4","4","5","4","1","2","5","5","4","4","5","4","2","1","2","1","1","1","1","4","1","1","0","0","0","0","0","0","1","1","1","1","0","1","0","1","5","1","2","4","2","3","4","5","2","5","2","777135417253433345","李","272","","","","","","","","","","","","","","","","","","","","","","","","","","","","","","feedback_test","","","","","","","","","","","",""
"null","","null","psychophysics","117","411643","0.0-7.0-1.0-4.0-0.0-0.5","4","3","4","4","4","4","3","2","4","4","5","4","1","2","5","5","4","4","5","4","2","1","2","1","1","1","1","4","1","1","0","0","0","0","0","0","1","1","1","1","0","1","0","1","5","1","2","4","2","3","4","5","2","5","2","777135417253433345","李","272","","","","null","","","","","","","","","","","","","","key","null","16.666712121212075","768","428","j","false","nonmatch","img/triangle.png","菱形","三角","ALT1","formal_ALT1_2","","","","","","","","","","","",""
"null","<span class='add_' style='color:yellow; font-size: 70px;'> 太慢! </span>","null","html-keyboard-response","118","412144","0.0-7.0-1.0-4.0-0.0-1.5","4","3","4","4","4","4","3","2","4","4","5","4","1","2","5","5","4","4","5","4","2","1","2","1","1","1","1","4","1","1","0","0","0","0","0","0","1","1","1","1","0","1","0","1","5","1","2","4","2","3","4","5","2","5","2","777135417253433345","李","272","","","","","","","","","","","","","","","","","","","","","","","","","","","","","","feedback_test","","","","","","","","","","","",""
"1031","","j","psychophysics","119","414176","0.0-7.0-1.0-4.0-0.0-0.6","4","3","4","4","4","4","3","2","4","4","5","4","1","2","5","5","4","4","5","4","2","1","2","1","1","1","1","4","1","1","0","0","0","0","0","0","1","1","1","1","0","1","0","1","5","1","2","4","2","3","4","5","2","5","2","777135417253433345","李","272","","","","nonmatch","","","","","","","","","","","","","","key","j","16.667247933884486","768","428","j","true","nonmatch","img/pentagon.png","菱形","五边","ALT1","formal_ALT1_2","","","","","","","","","","","",""
"null","<span style='color:GreenYellow; font-size: 70px;'>正确! </span>","null","html-keyboard-response","120","414677","0.0-7.0-1.0-4.0-0.0-1.6","4","3","4","4","4","4","3","2","4","4","5","4","1","2","5","5","4","4","5","4","2","1","2","1","1","1","1","4","1","1","0","0","0","0","0","0","1","1","1","1","0","1","0","1","5","1","2","4","2","3","4","5","2","5","2","777135417253433345","李","272","","","","","","","","","","","","","","","","","","","","","","","","","","","","","","feedback_test","","","","","","","","","","","",""
"871","","f","psychophysics","121","416550","0.0-7.0-1.0-4.0-0.0-0.7","4","3","4","4","4","4","3","2","4","4","5","4","1","2","5","5","4","4","5","4","2","1","2","1","1","1","1","4","1","1","0","0","0","0","0","0","1","1","1","1","0","1","0","1","5","1","2","4","2","3","4","5","2","5","2","777135417253433345","李","272","","","","match","","","","","","","","","","","","","","key","f","16.668072072072228","768","428","j","false","nonmatch","img/triangle.png","五边","三角","ALT1","formal_ALT1_2","","","","","","","","","","","",""
"null","<span style='color:red; font-size: 70px;'>错误! </span>","null","html-keyboard-response","122","417051","0.0-7.0-1.0-4.0-0.0-1.7","4","3","4","4","4","4","3","2","4","4","5","4","1","2","5","5","4","4","5","4","2","1","2","1","1","1","1","4","1","1","0","0","0","0","0","0","1","1","1","1","0","1","0","1","5","1","2","4","2","3","4","5","2","5","2","777135417253433345","李","272","","","","","","","","","","","","","","","","","","","","","","","","","","","","","","feedback_test","","","","","","","","","","","",""
"916","","f","psychophysics","123","418968","0.0-7.0-1.0-4.0-0.0-0.8","4","3","4","4","4","4","3","2","4","4","5","4","1","2","5","5","4","4","5","4","2","1","2","1","1","1","1","4","1","1","0","0","0","0","0","0","1","1","1","1","0","1","0","1","5","1","2","4","2","3","4","5","2","5","2","777135417253433345","李","272","","","","match","","","","","","","","","","","","","","key","f","16.666710526315832","768","428","f","true","match","img/triangle.png","三角","三角","ALT1","formal_ALT1_2","","","","","","","","","","","",""
"null","<span style='color:GreenYellow; font-size: 70px;'>正确! </span>","null","html-keyboard-response","124","419469","0.0-7.0-1.0-4.0-0.0-1.8","4","3","4","4","4","4","3","2","4","4","5","4","1","2","5","5","4","4","5","4","2","1","2","1","1","1","1","4","1","1","0","0","0","0","0","0","1","1","1","1","0","1","0","1","5","1","2","4","2","3","4","5","2","5","2","777135417253433345","李","272","","","","","","","","","","","","","","","","","","","","","","","","","","","","","","feedback_test","","","","","","","","","","","",""
"736","","j","psychophysics","125","421207","0.0-7.0-1.0-4.0-0.0-0.9","4","3","4","4","4","4","3","2","4","4","5","4","1","2","5","5","4","4","5","4","2","1","2","1","1","1","1","4","1","1","0","0","0","0","0","0","1","1","1","1","0","1","0","1","5","1","2","4","2","3","4","5","2","5","2","777135417253433345","李","272","","","","nonmatch","","","","","","","","","","","","","","key","j","16.667854368931938","768","428","j","true","nonmatch","img/triangle.png","椭圆","三角","ALT1","formal_ALT1_2","","","","","","","","","","","",""
"null","<span style='color:GreenYellow; font-size: 70px;'>正确! </span>","null","html-keyboard-response","126","421708","0.0-7.0-1.0-4.0-0.0-1.9","4","3","4","4","4","4","3","2","4","4","5","4","1","2","5","5","4","4","5","4","2","1","2","1","1","1","1","4","1","1","0","0","0","0","0","0","1","1","1","1","0","1","0","1","5","1","2","4","2","3","4","5","2","5","2","777135417253433345","李","272","","","","","","","","","","","","","","","","","","","","","","","","","","","","","","feedback_test","","","","","","","","","","","",""
"1134","","f","psychophysics","127","423843","0.0-7.0-1.0-4.0-0.0-0.10","4","3","4","4","4","4","3","2","4","4","5","4","1","2","5","5","4","4","5","4","2","1","2","1","1","1","1","4","1","1","0","0","0","0","0","0","1","1","1","1","0","1","0","1","5","1","2","4","2","3","4","5","2","5","2","777135417253433345","李","272","","","","match","","","","","","","","","","","","","","key","f","16.655047244094423","768","428","f","true","match","img/diamond.png","菱形","菱形","ALT1","formal_ALT1_2","","","","","","","","","","","",""
"null","<span style='color:GreenYellow; font-size: 70px;'>正确! </span>","null","html-keyboard-response","128","424346","0.0-7.0-1.0-4.0-0.0-1.10","4","3","4","4","4","4","3","2","4","4","5","4","1","2","5","5","4","4","5","4","2","1","2","1","1","1","1","4","1","1","0","0","0","0","0","0","1","1","1","1","0","1","0","1","5","1","2","4","2","3","4","5","2","5","2","777135417253433345","李","272","","","","","","","","","","","","","","","","","","","","","","","","","","","","","","feedback_test","","","","","","","","","","","",""
"691","","j","psychophysics","129","426039","0.0-7.0-1.0-4.0-0.0-0.11","4","3","4","4","4","4","3","2","4","4","5","4","1","2","5","5","4","4","5","4","2","1","2","1","1","1","1","4","1","1","0","0","0","0","0","0","1","1","1","1","0","1","0","1","5","1","2","4","2","3","4","5","2","5","2","777135417253433345","李","272","","","","nonmatch","","","","","","","","","","","","","","key","j","16.666110000000334","768","428","j","true","nonmatch","img/diamond.png","椭圆","菱形","ALT1","formal_ALT1_2","","","","","","","","","","","",""
"null","<span style='color:GreenYellow; font-size: 70px;'>正确! </span>","null","html-keyboard-response","130","426541","0.0-7.0-1.0-4.0-0.0-1.11","4","3","4","4","4","4","3","2","4","4","5","4","1","2","5","5","4","4","5","4","2","1","2","1","1","1","1","4","1","1","0","0","0","0","0","0","1","1","1","1","0","1","0","1","5","1","2","4","2","3","4","5","2","5","2","777135417253433345","李","272","","","","","","","","","","","","","","","","","","","","","","","","","","","","","","feedback_test","","","","","","","","","","","",""
"887","","j","psychophysics","131","428429","0.0-7.0-1.0-4.0-0.0-0.12","4","3","4","4","4","4","3","2","4","4","5","4","1","2","5","5","4","4","5","4","2","1","2","1","1","1","1","4","1","1","0","0","0","0","0","0","1","1","1","1","0","1","0","1","5","1","2","4","2","3","4","5","2","5","2","777135417253433345","李","272","","","","nonmatch","","","","","","","","","","","","","","key","j","16.657508928571456","768","428","f","false","match","img/diamond.png","菱形","菱形","ALT1","formal_ALT1_2","","","","","","","","","","","",""
"null","<span style='color:red; font-size: 70px;'>错误! </span>","null","html-keyboard-response","132","428930","0.0-7.0-1.0-4.0-0.0-1.12","4","3","4","4","4","4","3","2","4","4","5","4","1","2","5","5","4","4","5","4","2","1","2","1","1","1","1","4","1","1","0","0","0","0","0","0","1","1","1","1","0","1","0","1","5","1","2","4","2","3","4","5","2","5","2","777135417253433345","李","272","","","","","","","","","","","","","","","","","","","","","","","","","","","","","","feedback_test","","","","","","","","","","","",""
"664","","f","psychophysics","133","430597","0.0-7.0-1.0-4.0-0.0-0.13","4","3","4","4","4","4","3","2","4","4","5","4","1","2","5","5","4","4","5","4","2","1","2","1","1","1","1","4","1","1","0","0","0","0","0","0","1","1","1","1","0","1","0","1","5","1","2","4","2","3","4","5","2","5","2","777135417253433345","李","272","","","","match","","","","","","","","","","","","","","key","f","16.666828282828316","768","428","f","true","match","img/ellipse.png","椭圆","椭圆","ALT1","formal_ALT1_2","","","","","","","","","","","",""
"null","<span style='color:GreenYellow; font-size: 70px;'>正确! </span>","null","html-keyboard-response","134","431098","0.0-7.0-1.0-4.0-0.0-1.13","4","3","4","4","4","4","3","2","4","4","5","4","1","2","5","5","4","4","5","4","2","1","2","1","1","1","1","4","1","1","0","0","0","0","0","0","1","1","1","1","0","1","0","1","5","1","2","4","2","3","4","5","2","5","2","777135417253433345","李","272","","","","","","","","","","","","","","","","","","","","","","","","","","","","","","feedback_test","","","","","","","","","","","",""
"1106","","f","psychophysics","135","433206","0.0-7.0-1.0-4.0-0.0-0.14","4","3","4","4","4","4","3","2","4","4","5","4","1","2","5","5","4","4","5","4","2","1","2","1","1","1","1","4","1","1","0","0","0","0","0","0","1","1","1","1","0","1","0","1","5","1","2","4","2","3","4","5","2","5","2","777135417253433345","李","272","","","","match","","","","","","","","","","","","","","key","f","16.666120000000113","768","428","j","false","nonmatch","img/diamond.png","三角","菱形","ALT1","formal_ALT1_2","","","","","","","","","","","",""
"null","<span style='color:red; font-size: 70px;'>错误! </span>","null","html-keyboard-response","136","433707","0.0-7.0-1.0-4.0-0.0-1.14","4","3","4","4","4","4","3","2","4","4","5","4","1","2","5","5","4","4","5","4","2","1","2","1","1","1","1","4","1","1","0","0","0","0","0","0","1","1","1","1","0","1","0","1","5","1","2","4","2","3","4","5","2","5","2","777135417253433345","李","272","","","","","","","","","","","","","","","","","","","","","","","","","","","","","","feedback_test","","","","","","","","","","","",""
"927","","f","psychophysics","137","435635","0.0-7.0-1.0-4.0-0.0-0.15","4","3","4","4","4","4","3","2","4","4","5","4","1","2","5","5","4","4","5","4","2","1","2","1","1","1","1","4","1","1","0","0","0","0","0","0","1","1","1","1","0","1","0","1","5","1","2","4","2","3","4","5","2","5","2","777135417253433345","李","272","","","","match","","","","","","","","","","","","","","key","f","16.66786956521733","768","428","f","true","match","img/pentagon.png","五边","五边","ALT1","formal_ALT1_2","","","","","","","","","","","",""
"null","<span style='color:GreenYellow; font-size: 70px;'>正确! </span>","null","html-keyboard-response","138","436137","0.0-7.0-1.0-4.0-0.0-1.15","4","3","4","4","4","4","3","2","4","4","5","4","1","2","5","5","4","4","5","4","2","1","2","1","1","1","1","4","1","1","0","0","0","0","0","0","1","1","1","1","0","1","0","1","5","1","2","4","2","3","4","5","2","5","2","777135417253433345","李","272","","","","","","","","","","","","","","","","","","","","","","","","","","","","","","feedback_test","","","","","","","","","","","",""
"748","","j","psychophysics","139","437886","0.0-7.0-1.0-4.0-0.0-0.16","4","3","4","4","4","4","3","2","4","4","5","4","1","2","5","5","4","4","5","4","2","1","2","1","1","1","1","4","1","1","0","0","0","0","0","0","1","1","1","1","0","1","0","1","5","1","2","4","2","3","4","5","2","5","2","777135417253433345","李","272","","","","nonmatch","","","","","","","","","","","","","","key","j","16.668096153846328","768","428","j","true","nonmatch","img/ellipse.png","三角","椭圆","ALT1","formal_ALT1_2","","","","","","","","","","","",""
"null","<span style='color:GreenYellow; font-size: 70px;'>正确! </span>","null","html-keyboard-response","140","438387","0.0-7.0-1.0-4.0-0.0-1.16","4","3","4","4","4","4","3","2","4","4","5","4","1","2","5","5","4","4","5","4","2","1","2","1","1","1","1","4","1","1","0","0","0","0","0","0","1","1","1","1","0","1","0","1","5","1","2","4","2","3","4","5","2","5","2","777135417253433345","李","272","","","","","","","","","","","","","","","","","","","","","","","","","","","","","","feedback_test","","","","","","","","","","","",""
"1115","","f","psychophysics","141","440505","0.0-7.0-1.0-4.0-0.0-0.17","4","3","4","4","4","4","3","2","4","4","5","4","1","2","5","5","4","4","5","4","2","1","2","1","1","1","1","4","1","1","0","0","0","0","0","0","1","1","1","1","0","1","0","1","5","1","2","4","2","3","4","5","2","5","2","777135417253433345","李","272","","","","match","","","","","","","","","","","","","","key","f","16.66510317460329","768","428","f","true","match","img/pentagon.png","五边","五边","ALT1","formal_ALT1_2","","","","","","","","","","","",""
"null","<span style='color:GreenYellow; font-size: 70px;'>正确! </span>","null","html-keyboard-response","142","441005","0.0-7.0-1.0-4.0-0.0-1.17","4","3","4","4","4","4","3","2","4","4","5","4","1","2","5","5","4","4","5","4","2","1","2","1","1","1","1","4","1","1","0","0","0","0","0","0","1","1","1","1","0","1","0","1","5","1","2","4","2","3","4","5","2","5","2","777135417253433345","李","272","","","","","","","","","","","","","","","","","","","","","","","","","","","","","","feedback_test","","","","","","","","","","","",""
"752","","f","psychophysics","143","442758","0.0-7.0-1.0-4.0-0.0-0.18","4","3","4","4","4","4","3","2","4","4","5","4","1","2","5","5","4","4","5","4","2","1","2","1","1","1","1","4","1","1","0","0","0","0","0","0","1","1","1","1","0","1","0","1","5","1","2","4","2","3","4","5","2","5","2","777135417253433345","李","272","","","","match","","","","","","","","","","","","","","key","f","16.6669999999996","768","428","f","true","match","img/triangle.png","三角","三角","ALT1","formal_ALT1_2","","","","","","","","","","","",""
"null","<span style='color:GreenYellow; font-size: 70px;'>正确! </span>","null","html-keyboard-response","144","443260","0.0-7.0-1.0-4.0-0.0-1.18","4","3","4","4","4","4","3","2","4","4","5","4","1","2","5","5","4","4","5","4","2","1","2","1","1","1","1","4","1","1","0","0","0","0","0","0","1","1","1","1","0","1","0","1","5","1","2","4","2","3","4","5","2","5","2","777135417253433345","李","272","","","","","","","","","","","","","","","","","","","","","","","","","","","","","","feedback_test","","","","","","","","","","","",""
"749","","j","psychophysics","145","445010","0.0-7.0-1.0-4.0-0.0-0.19","4","3","4","4","4","4","3","2","4","4","5","4","1","2","5","5","4","4","5","4","2","1","2","1","1","1","1","4","1","1","0","0","0","0","0","0","1","1","1","1","0","1","0","1","5","1","2","4","2","3","4","5","2","5","2","777135417253433345","李","272","","","","nonmatch","","","","","","","","","","","","","","key","j","16.666230769230772","768","428","j","true","nonmatch","img/ellipse.png","菱形","椭圆","ALT1","formal_ALT1_2","","","","","","","","","","","",""
"null","<span style='color:GreenYellow; font-size: 70px;'>正确! </span>","null","html-keyboard-response","146","445511","0.0-7.0-1.0-4.0-0.0-1.19","4","3","4","4","4","4","3","2","4","4","5","4","1","2","5","5","4","4","5","4","2","1","2","1","1","1","1","4","1","1","0","0","0","0","0","0","1","1","1","1","0","1","0","1","5","1","2","4","2","3","4","5","2","5","2","777135417253433345","李","272","","","","","","","","","","","","","","","","","","","","","","","","","","","","","","feedback_test","","","","","","","","","","","",""
"908","","f","psychophysics","147","447421","0.0-7.0-1.0-4.0-0.0-0.20","4","3","4","4","4","4","3","2","4","4","5","4","1","2","5","5","4","4","5","4","2","1","2","1","1","1","1","4","1","1","0","0","0","0","0","0","1","1","1","1","0","1","0","1","5","1","2","4","2","3","4","5","2","5","2","777135417253433345","李","272","","","","match","","","","","","","","","","","","","","key","f","16.66754867256654","768","428","j","false","nonmatch","img/diamond.png","五边","菱形","ALT1","formal_ALT1_2","","","","","","","","","","","",""
"null","<span style='color:red; font-size: 70px;'>错误! </span>","null","html-keyboard-response","148","447922","0.0-7.0-1.0-4.0-0.0-1.20","4","3","4","4","4","4","3","2","4","4","5","4","1","2","5","5","4","4","5","4","2","1","2","1","1","1","1","4","1","1","0","0","0","0","0","0","1","1","1","1","0","1","0","1","5","1","2","4","2","3","4","5","2","5","2","777135417253433345","李","272","","","","","","","","","","","","","","","","","","","","","","","","","","","","","","feedback_test","","","","","","","","","","","",""
"810","","j","psychophysics","149","449733","0.0-7.0-1.0-4.0-0.0-0.21","4","3","4","4","4","4","3","2","4","4","5","4","1","2","5","5","4","4","5","4","2","1","2","1","1","1","1","4","1","1","0","0","0","0","0","0","1","1","1","1","0","1","0","1","5","1","2","4","2","3","4","5","2","5","2","777135417253433345","李","272","","","","nonmatch","","","","","","","","","","","","","","key","j","16.667611111111235","768","428","f","false","match","img/diamond.png","菱形","菱形","ALT1","formal_ALT1_2","","","","","","","","","","","",""
"null","<span style='color:red; font-size: 70px;'>错误! </span>","null","html-keyboard-response","150","450235","0.0-7.0-1.0-4.0-0.0-1.21","4","3","4","4","4","4","3","2","4","4","5","4","1","2","5","5","4","4","5","4","2","1","2","1","1","1","1","4","1","1","0","0","0","0","0","0","1","1","1","1","0","1","0","1","5","1","2","4","2","3","4","5","2","5","2","777135417253433345","李","272","","","","","","","","","","","","","","","","","","","","","","","","","","","","","","feedback_test","","","","","","","","","","","",""
"1004","","f","psychophysics","151","452240","0.0-7.0-1.0-4.0-0.0-0.22","4","3","4","4","4","4","3","2","4","4","5","4","1","2","5","5","4","4","5","4","2","1","2","1","1","1","1","4","1","1","0","0","0","0","0","0","1","1","1","1","0","1","0","1","5","1","2","4","2","3","4","5","2","5","2","777135417253433345","李","272","","","","match","","","","","","","","","","","","","","key","f","16.666352941176243","768","428","f","true","match","img/triangle.png","三角","三角","ALT1","formal_ALT1_2","","","","","","","","","","","",""
"null","<span style='color:GreenYellow; font-size: 70px;'>正确! </span>","null","html-keyboard-response","152","452742","0.0-7.0-1.0-4.0-0.0-1.22","4","3","4","4","4","4","3","2","4","4","5","4","1","2","5","5","4","4","5","4","2","1","2","1","1","1","1","4","1","1","0","0","0","0","0","0","1","1","1","1","0","1","0","1","5","1","2","4","2","3","4","5","2","5","2","777135417253433345","李","272","","","","","","","","","","","","","","","","","","","","","","","","","","","","","","feedback_test","","","","","","","","","","","",""
"818","","j","psychophysics","153","454560","0.0-7.0-1.0-4.0-0.0-0.23","4","3","4","4","4","4","3","2","4","4","5","4","1","2","5","5","4","4","5","4","2","1","2","1","1","1","1","4","1","1","0","0","0","0","0","0","1","1","1","1","0","1","0","1","5","1","2","4","2","3","4","5","2","5","2","777135417253433345","李","272","","","","nonmatch","","","","","","","","","","","","","","key","j","16.659546296296565","768","428","j","true","nonmatch","img/ellipse.png","五边","椭圆","ALT1","formal_ALT1_2","","","","","","","","","","","",""
"null","<span style='color:GreenYellow; font-size: 70px;'>正确! </span>","null","html-keyboard-response","154","455062","0.0-7.0-1.0-4.0-0.0-1.23","4","3","4","4","4","4","3","2","4","4","5","4","1","2","5","5","4","4","5","4","2","1","2","1","1","1","1","4","1","1","0","0","0","0","0","0","1","1","1","1","0","1","0","1","5","1","2","4","2","3","4","5","2","5","2","777135417253433345","李","272","","","","","","","","","","","","","","","","","","","","","","","","","","","","","","feedback_test","","","","","","","","","","","",""
"656","","f","psychophysics","155","456720","0.0-7.0-1.0-4.0-0.0-0.24","4","3","4","4","4","4","3","2","4","4","5","4","1","2","5","5","4","4","5","4","2","1","2","1","1","1","1","4","1","1","0","0","0","0","0","0","1","1","1","1","0","1","0","1","5","1","2","4","2","3","4","5","2","5","2","777135417253433345","李","272","","","","match","","","","","","","","","","","","","","key","f","16.663897959184027","768","428","f","true","match","img/triangle.png","三角","三角","ALT1","formal_ALT1_2","","","","","","","","","","","",""
"null","<span style='color:GreenYellow; font-size: 70px;'>正确! </span>","null","html-keyboard-response","156","457221","0.0-7.0-1.0-4.0-0.0-1.24","4","3","4","4","4","4","3","2","4","4","5","4","1","2","5","5","4","4","5","4","2","1","2","1","1","1","1","4","1","1","0","0","0","0","0","0","1","1","1","1","0","1","0","1","5","1","2","4","2","3","4","5","2","5","2","777135417253433345","李","272","","","","","","","","","","","","","","","","","","","","","","","","","","","","","","feedback_test","","","","","","","","","","","",""
"857","","f","psychophysics","157","459080","0.0-7.0-1.0-4.0-0.0-0.25","4","3","4","4","4","4","3","2","4","4","5","4","1","2","5","5","4","4","5","4","2","1","2","1","1","1","1","4","1","1","0","0","0","0","0","0","1","1","1","1","0","1","0","1","5","1","2","4","2","3","4","5","2","5","2","777135417253433345","李","272","","","","match","","","","","","","","","","","","","","key","f","16.667009009009014","768","428","f","true","match","img/ellipse.png","椭圆","椭圆","ALT1","formal_ALT1_2","","","","","","","","","","","",""
"null","<span style='color:GreenYellow; font-size: 70px;'>正确! </span>","null","html-keyboard-response","158","459582","0.0-7.0-1.0-4.0-0.0-1.25","4","3","4","4","4","4","3","2","4","4","5","4","1","2","5","5","4","4","5","4","2","1","2","1","1","1","1","4","1","1","0","0","0","0","0","0","1","1","1","1","0","1","0","1","5","1","2","4","2","3","4","5","2","5","2","777135417253433345","李","272","","","","","","","","","","","","","","","","","","","","","","","","","","","","","","feedback_test","","","","","","","","","","","",""
"758","","j","psychophysics","159","461341","0.0-7.0-1.0-4.0-0.0-0.26","4","3","4","4","4","4","3","2","4","4","5","4","1","2","5","5","4","4","5","4","2","1","2","1","1","1","1","4","1","1","0","0","0","0","0","0","1","1","1","1","0","1","0","1","5","1","2","4","2","3","4","5","2","5","2","777135417253433345","李","272","","","","nonmatch","","","","","","","","","","","","","","key","j","16.666317307691944","768","428","f","false","match","img/triangle.png","三角","三角","ALT1","formal_ALT1_2","","","","","","","","","","","",""
"null","<span style='color:red; font-size: 70px;'>错误! </span>","null","html-keyboard-response","160","461843","0.0-7.0-1.0-4.0-0.0-1.26","4","3","4","4","4","4","3","2","4","4","5","4","1","2","5","5","4","4","5","4","2","1","2","1","1","1","1","4","1","1","0","0","0","0","0","0","1","1","1","1","0","1","0","1","5","1","2","4","2","3","4","5","2","5","2","777135417253433345","李","272","","","","","","","","","","","","","","","","","","","","","","","","","","","","","","feedback_test","","","","","","","","","","","",""
"1058","","j","psychophysics","161","463902","0.0-7.0-1.0-4.0-0.0-0.27","4","3","4","4","4","4","3","2","4","4","5","4","1","2","5","5","4","4","5","4","2","1","2","1","1","1","1","4","1","1","0","0","0","0","0","0","1","1","1","1","0","1","0","1","5","1","2","4","2","3","4","5","2","5","2","777135417253433345","李","272","","","","nonmatch","","","","","","","","","","","","","","key","j","16.666114754098388","768","428","j","true","nonmatch","img/diamond.png","椭圆","菱形","ALT1","formal_ALT1_2","","","","","","","","","","","",""
"null","<span style='color:GreenYellow; font-size: 70px;'>正确! </span>","null","html-keyboard-response","162","464403","0.0-7.0-1.0-4.0-0.0-1.27","4","3","4","4","4","4","3","2","4","4","5","4","1","2","5","5","4","4","5","4","2","1","2","1","1","1","1","4","1","1","0","0","0","0","0","0","1","1","1","1","0","1","0","1","5","1","2","4","2","3","4","5","2","5","2","777135417253433345","李","272","","","","","","","","","","","","","","","","","","","","","","","","","","","","","","feedback_test","","","","","","","","","","","",""
"890","","j","psychophysics","163","466295","0.0-7.0-1.0-4.0-0.0-0.28","4","3","4","4","4","4","3","2","4","4","5","4","1","2","5","5","4","4","5","4","2","1","2","1","1","1","1","4","1","1","0","0","0","0","0","0","1","1","1","1","0","1","0","1","5","1","2","4","2","3","4","5","2","5","2","777135417253433345","李","272","","","","nonmatch","","","","","","","","","","","","","","key","j","16.667061946902372","768","428","j","true","nonmatch","img/ellipse.png","菱形","椭圆","ALT1","formal_ALT1_2","","","","","","","","","","","",""
"null","<span style='color:GreenYellow; font-size: 70px;'>正确! </span>","null","html-keyboard-response","164","466795","0.0-7.0-1.0-4.0-0.0-1.28","4","3","4","4","4","4","3","2","4","4","5","4","1","2","5","5","4","4","5","4","2","1","2","1","1","1","1","4","1","1","0","0","0","0","0","0","1","1","1","1","0","1","0","1","5","1","2","4","2","3","4","5","2","5","2","777135417253433345","李","272","","","","","","","","","","","","","","","","","","","","","","","","","","","","","","feedback_test","","","","","","","","","","","",""
"981","","f","psychophysics","165","468777","0.0-7.0-1.0-4.0-0.0-0.29","4","3","4","4","4","4","3","2","4","4","5","4","1","2","5","5","4","4","5","4","2","1","2","1","1","1","1","4","1","1","0","0","0","0","0","0","1","1","1","1","0","1","0","1","5","1","2","4","2","3","4","5","2","5","2","777135417253433345","李","272","","","","match","","","","","","","","","","","","","","key","f","16.66582203389814","768","428","f","true","match","img/diamond.png","菱形","菱形","ALT1","formal_ALT1_2","","","","","","","","","","","",""
"null","<span style='color:GreenYellow; font-size: 70px;'>正确! </span>","null","html-keyboard-response","166","469280","0.0-7.0-1.0-4.0-0.0-1.29","4","3","4","4","4","4","3","2","4","4","5","4","1","2","5","5","4","4","5","4","2","1","2","1","1","1","1","4","1","1","0","0","0","0","0","0","1","1","1","1","0","1","0","1","5","1","2","4","2","3","4","5","2","5","2","777135417253433345","李","272","","","","","","","","","","","","","","","","","","","","","","","","","","","","","","feedback_test","","","","","","","","","","","",""
"872","","j","psychophysics","167","471153","0.0-7.0-1.0-4.0-0.0-0.30","4","3","4","4","4","4","3","2","4","4","5","4","1","2","5","5","4","4","5","4","2","1","2","1","1","1","1","4","1","1","0","0","0","0","0","0","1","1","1","1","0","1","0","1","5","1","2","4","2","3","4","5","2","5","2","777135417253433345","李","272","","","","nonmatch","","","","","","","","","","","","","","key","j","16.666684684685016","768","428","f","false","match","img/diamond.png","菱形","菱形","ALT1","formal_ALT1_2","","","","","","","","","","","",""
"null","<span style='color:red; font-size: 70px;'>错误! </span>","null","html-keyboard-response","168","471654","0.0-7.0-1.0-4.0-0.0-1.30","4","3","4","4","4","4","3","2","4","4","5","4","1","2","5","5","4","4","5","4","2","1","2","1","1","1","1","4","1","1","0","0","0","0","0","0","1","1","1","1","0","1","0","1","5","1","2","4","2","3","4","5","2","5","2","777135417253433345","李","272","","","","","","","","","","","","","","","","","","","","","","","","","","","","","","feedback_test","","","","","","","","","","","",""
"889","","j","psychophysics","169","473545","0.0-7.0-1.0-4.0-0.0-0.31","4","3","4","4","4","4","3","2","4","4","5","4","1","2","5","5","4","4","5","4","2","1","2","1","1","1","1","4","1","1","0","0","0","0","0","0","1","1","1","1","0","1","0","1","5","1","2","4","2","3","4","5","2","5","2","777135417253433345","李","272","","","","nonmatch","","","","","","","","","","","","","","key","j","16.665769911504587","768","428","j","true","nonmatch","img/diamond.png","三角","菱形","ALT1","formal_ALT1_2","","","","","","","","","","","",""
"null","<span style='color:GreenYellow; font-size: 70px;'>正确! </span>","null","html-keyboard-response","170","474046","0.0-7.0-1.0-4.0-0.0-1.31","4","3","4","4","4","4","3","2","4","4","5","4","1","2","5","5","4","4","5","4","2","1","2","1","1","1","1","4","1","1","0","0","0","0","0","0","1","1","1","1","0","1","0","1","5","1","2","4","2","3","4","5","2","5","2","777135417253433345","李","272","","","","","","","","","","","","","","","","","","","","","","","","","","","","","","feedback_test","","","","","","","","","","","",""
"1095","","f","psychophysics","171","476142","0.0-7.0-1.0-4.0-0.0-0.32","4","3","4","4","4","4","3","2","4","4","5","4","1","2","5","5","4","4","5","4","2","1","2","1","1","1","1","4","1","1","0","0","0","0","0","0","1","1","1","1","0","1","0","1","5","1","2","4","2","3","4","5","2","5","2","777135417253433345","李","272","","","","match","","","","","","","","","","","","","","key","f","16.66745967741947","768","428","f","true","match","img/diamond.png","菱形","菱形","ALT1","formal_ALT1_2","","","","","","","","","","","",""
"null","<span style='color:GreenYellow; font-size: 70px;'>正确! </span>","null","html-keyboard-response","172","476643","0.0-7.0-1.0-4.0-0.0-1.32","4","3","4","4","4","4","3","2","4","4","5","4","1","2","5","5","4","4","5","4","2","1","2","1","1","1","1","4","1","1","0","0","0","0","0","0","1","1","1","1","0","1","0","1","5","1","2","4","2","3","4","5","2","5","2","777135417253433345","李","272","","","","","","","","","","","","","","","","","","","","","","","","","","","","","","feedback_test","","","","","","","","","","","",""
"755","","j","psychophysics","173","478401","0.0-7.0-1.0-4.0-0.0-0.33","4","3","4","4","4","4","3","2","4","4","5","4","1","2","5","5","4","4","5","4","2","1","2","1","1","1","1","4","1","1","0","0","0","0","0","0","1","1","1","1","0","1","0","1","5","1","2","4","2","3","4","5","2","5","2","777135417253433345","李","272","","","","nonmatch","","","","","","","","","","","","","","key","j","16.667173076923063","768","428","j","true","nonmatch","img/ellipse.png","三角","椭圆","ALT1","formal_ALT1_2","","","","","","","","","","","",""
"null","<span style='color:GreenYellow; font-size: 70px;'>正确! </span>","null","html-keyboard-response","174","478901","0.0-7.0-1.0-4.0-0.0-1.33","4","3","4","4","4","4","3","2","4","4","5","4","1","2","5","5","4","4","5","4","2","1","2","1","1","1","1","4","1","1","0","0","0","0","0","0","1","1","1","1","0","1","0","1","5","1","2","4","2","3","4","5","2","5","2","777135417253433345","李","272","","","","","","","","","","","","","","","","","","","","","","","","","","","","","","feedback_test","","","","","","","","","","","",""
"607","","f","psychophysics","175","480510","0.0-7.0-1.0-4.0-0.0-0.34","4","3","4","4","4","4","3","2","4","4","5","4","1","2","5","5","4","4","5","4","2","1","2","1","1","1","1","4","1","1","0","0","0","0","0","0","1","1","1","1","0","1","0","1","5","1","2","4","2","3","4","5","2","5","2","777135417253433345","李","272","","","","match","","","","","","","","","","","","","","key","f","16.66637500000009","768","428","f","true","match","img/ellipse.png","椭圆","椭圆","ALT1","formal_ALT1_2","","","","","","","","","","","",""
"null","<span style='color:GreenYellow; font-size: 70px;'>正确! </span>","null","html-keyboard-response","176","481010","0.0-7.0-1.0-4.0-0.0-1.34","4","3","4","4","4","4","3","2","4","4","5","4","1","2","5","5","4","4","5","4","2","1","2","1","1","1","1","4","1","1","0","0","0","0","0","0","1","1","1","1","0","1","0","1","5","1","2","4","2","3","4","5","2","5","2","777135417253433345","李","272","","","","","","","","","","","","","","","","","","","","","","","","","","","","","","feedback_test","","","","","","","","","","","",""
"961","","j","psychophysics","177","482973","0.0-7.0-1.0-4.0-0.0-0.35","4","3","4","4","4","4","3","2","4","4","5","4","1","2","5","5","4","4","5","4","2","1","2","1","1","1","1","4","1","1","0","0","0","0","0","0","1","1","1","1","0","1","0","1","5","1","2","4","2","3","4","5","2","5","2","777135417253433345","李","272","","","","nonmatch","","","","","","","","","","","","","","key","j","16.66810344827586","768","428","j","true","nonmatch","img/triangle.png","菱形","三角","ALT1","formal_ALT1_2","","","","","","","","","","","",""
"null","<span style='color:GreenYellow; font-size: 70px;'>正确! </span>","null","html-keyboard-response","178","483475","0.0-7.0-1.0-4.0-0.0-1.35","4","3","4","4","4","4","3","2","4","4","5","4","1","2","5","5","4","4","5","4","2","1","2","1","1","1","1","4","1","1","0","0","0","0","0","0","1","1","1","1","0","1","0","1","5","1","2","4","2","3","4","5","2","5","2","777135417253433345","李","272","","","","","","","","","","","","","","","","","","","","","","","","","","","","","","feedback_test","","","","","","","","","","","",""
"845","","f","psychophysics","179","485321","0.0-7.0-1.0-4.0-0.0-0.36","4","3","4","4","4","4","3","2","4","4","5","4","1","2","5","5","4","4","5","4","2","1","2","1","1","1","1","4","1","1","0","0","0","0","0","0","1","1","1","1","0","1","0","1","5","1","2","4","2","3","4","5","2","5","2","777135417253433345","李","272","","","","match","","","","","","","","","","","","","","key","f","16.660779816513976","768","428","j","false","nonmatch","img/pentagon.png","菱形","五边","ALT1","formal_ALT1_2","","","","","","","","","","","",""
"null","<span style='color:red; font-size: 70px;'>错误! </span>","null","html-keyboard-response","180","485822","0.0-7.0-1.0-4.0-0.0-1.36","4","3","4","4","4","4","3","2","4","4","5","4","1","2","5","5","4","4","5","4","2","1","2","1","1","1","1","4","1","1","0","0","0","0","0","0","1","1","1","1","0","1","0","1","5","1","2","4","2","3","4","5","2","5","2","777135417253433345","李","272","","","","","","","","","","","","","","","","","","","","","","","","","","","","","","feedback_test","","","","","","","","","","","",""
"1198","","j","psychophysics","181","488021","0.0-7.0-1.0-4.0-0.0-0.37","4","3","4","4","4","4","3","2","4","4","5","4","1","2","5","5","4","4","5","4","2","1","2","1","1","1","1","4","1","1","0","0","0","0","0","0","1","1","1","1","0","1","0","1","5","1","2","4","2","3","4","5","2","5","2","777135417253433345","李","272","","","","nonmatch","","","","","","","","","","","","","","key","j","16.666450381679336","768","428","j","true","nonmatch","img/pentagon.png","三角","五边","ALT1","formal_ALT1_2","","","","","","","","","","","",""
