"rt","stimulus","response","trial_type","trial_index","time_elapsed","internal_node_id","ses_1","ses_2","ses_3","ses_4","ses_5","ses_6","ses_7","ses_8","ses_9","ses_10","coreself_1","coreself_2","coreself_3","coreself_4","coreself_5","coreself_6","coreself_7","coreself_8","coreself_9","coreself_10","SGPS_1","SGPS_2","SGPS_3","SGPS_4","SGPS_5","SGPS_6","SGPS_7","SGPS_8","SGPS_9","NPI1","NPI2","NPI3","NPI4","NPI5","NPI6","NPI7","NPI8","NPI9","NPI10","NPI11","NPI12","NPI13","NPI14","NPI15","hsns_1","hsns_2","hsns_3","hsns_4","hsns_5","trap1","hsns_6","hsns_7","hsns_8","hsns_9","hsns_10","subj_idx","friend_name","ParticipantID","value","success","user_agent","responses","item_order","radio_event_ids","radio_event_times","key_event_times","mouse_event_times","straightlining","zigzagging","honeypot","timeout","failed_images","failed_audio","failed_video","version_attrib2","version_target2","correct","IAT","screen_id","task_id","RT","condition","word","varname","summary","version_attrib","version_target","time_stamp","view_history","response_type","key_press","avg_frame_time","center_x","center_y","correct_response","identity","Image","question_order","correct_answer","trap1_item"
"3051","
   <p><div style = ""color: white;font-size:25px;"">您好，欢迎参加本次实验。</div> </p>
   <p><div style = ""color: white;font-size:25px;"">为充分保障您的权利，请确保您已经知晓并同意《参与实验同意书》以及《数据公开知情同意书》。</div></p>
   <p><div style = ""color: white;font-size:25px;"">如果您未见过上述内容，请咨询实验员。</div></p>
   <p><div style = ""color: white;font-size:25px;"">如果您选择继续实验，则表示您已经清楚两份知情同意书的内容并同意。</div></p>
   <p><div style = ""color: pink;font-size:30px;"">请确保您记得day0的实验编号，您将在本次实验输入该编号，若您忘记，请咨询实验员后作答。</div></p>
   <p><div style = ""color: lightblue;font-size:25px;"">请您尽可能认真地作答，我们将依据您在各问卷和按键任务中的作答质量发放报酬。</div></p>
   <p> <div style = ""color: green;font-size:25px;""><按空格键至下页></div> </p>
   "," ","html-keyboard-response","0","3057","0.0-0.0","3","3","3","3","2","3","3","3","3","4","4","2","1","4","3","4","3","4","4","5","4","5","4","4","3","4","4","4","2","1","0","1","1","0","1","1","1","0","1","1","0","1","0","1","5","3","4","2","3","4","3","5","4","3","2","796469535413772289","杨","446","","","","","","","","","","","","","","","","","","","","","","","","","","","","","","","","","","","","","","","","","",""
"","","","call-function","1","3059","0.0-1.0-0.0","3","3","3","3","2","3","3","3","3","4","4","2","1","4","3","4","3","4","4","5","4","5","4","4","3","4","4","4","2","1","0","1","1","0","1","1","1","0","1","1","0","1","0","1","5","3","4","2","3","4","3","5","4","3","2","796469535413772289","杨","446","","","","","","","","","","","","","","","","","","","","","","","","","","","","","","","","","","","","","","","","","",""
"16393","","{""friend_name"":""杨"",""ParticipantID"":""446""}","survey-html-form","2","19455","0.0-1.0-1.0","3","3","3","3","2","3","3","3","3","4","4","2","1","4","3","4","3","4","4","5","4","5","4","4","3","4","4","4","2","1","0","1","1","0","1","1","1","0","1","1","0","1","0","1","5","3","4","2","3","4","3","5","4","3","2","796469535413772289","杨","446","","","","","","","","","","","","","","","","","","","","","","","","","","","","","","","","","","","","","","","","","",""
"","","","fullscreen","3","49893","0.0-2.0","3","3","3","3","2","3","3","3","3","4","4","2","1","4","3","4","3","4","4","5","4","5","4","4","3","4","4","4","2","1","0","1","1","0","1","1","1","0","1","1","0","1","0","1","5","3","4","2","3","4","3","5","4","3","2","796469535413772289","杨","446","","true","{}","","","","","","","","","","","","","","","","","","","","","","","","","","","","","","","","","","","","","","",""
"42246.39999999851","","{""Q01"":""3"",""Q02"":""3"",""Q03"":""3"",""Q04"":""3"",""Q05"":""2"",""Q06"":""3"",""Q07"":""3"",""Q08"":""3"",""Q09"":""3"",""Q10"":""4""}","survey-template","4","92146","0.0-3.0","3","3","3","3","2","3","3","3","3","4","4","2","1","4","3","4","3","4","4","5","4","5","4","4","3","4","4","4","2","1","0","1","1","0","1","1","1","0","1","1","0","1","0","1","5","3","4","2","3","4","3","5","4","3","2","796469535413772289","杨","446","","","","{""Q01"":""3"",""Q02"":""3"",""Q03"":""3"",""Q04"":""3"",""Q05"":""2"",""Q06"":""3"",""Q07"":""3"",""Q08"":""3"",""Q09"":""3"",""Q10"":""4""}","[0,1,2,3,4,5,6,7,8,9]","[""Q01"",""Q02"",""Q03"",""Q04"",""Q06"",""Q05"",""Q07"",""Q08"",""Q09"",""Q10""]","[5222.39999999851,8314.299999998882,11267.799999998882,13995.699999999255,19107.199999999255,20276.099999999627,25823.699999999255,29586,32497.799999998882,34212.699999999255]","[]","[5222.39999999851,8314.299999998882,11267.799999998882,13995.699999999255,19107.199999999255,20276.099999999627,25823.699999999255,29586,32497.799999998882,34212.699999999255,42241.89999999851]","0.6","0.4444444444444444","0","","","","","","","","","","","","","","","","","","","","","","","","","","","","","",""
"50970.09999999963","","{""Q01"":""4"",""Q02"":""2"",""Q03"":""1"",""Q04"":""4"",""Q05"":""3"",""Q06"":""4"",""Q07"":""3"",""Q08"":""4"",""Q09"":""4"",""Q10"":""5""}","survey-template","5","143131","0.0-4.0","3","3","3","3","2","3","3","3","3","4","4","2","1","4","3","4","3","4","4","5","4","5","4","4","3","4","4","4","2","1","0","1","1","0","1","1","1","0","1","1","0","1","0","1","5","3","4","2","3","4","3","5","4","3","2","796469535413772289","杨","446","","","","{""Q01"":""4"",""Q02"":""2"",""Q03"":""1"",""Q04"":""4"",""Q05"":""3"",""Q06"":""4"",""Q07"":""3"",""Q08"":""4"",""Q09"":""4"",""Q10"":""5""}","[0,1,2,3,4,5,6,7,8,9]","[""Q01"",""Q02"",""Q03"",""Q04"",""Q04"",""Q05"",""Q06"",""Q06"",""Q07"",""Q08"",""Q09"",""Q08"",""Q10""]","[6630.199999999255,12718.900000000373,14022.900000000373,18350.300000000745,21389.800000000745,22368.5,26885.800000000745,31079.599999999627,32462.800000000745,36583.90000000037,38262.59999999963,42690.09999999963,48878.90000000037]","[]","[6630.199999999255,12718.900000000373,14022.900000000373,18350.300000000745,21389.800000000745,22368.5,26885.800000000745,31079.599999999627,32462.800000000745,36583.90000000037,38262.59999999963,41104.699999999255,42690.09999999963,48878.90000000037,50966]","0.5","0.6666666666666666","0","","","","","","","","","","","","","","","","","","","","","","","","","","","","","",""
"","","","preload","6","143793","0.0-5.0","3","3","3","3","2","3","3","3","3","4","4","2","1","4","3","4","3","4","4","5","4","5","4","4","3","4","4","4","2","1","0","1","1","0","1","1","1","0","1","1","0","1","0","1","5","3","4","2","3","4","3","5","4","3","2","796469535413772289","杨","446","","true","","","","","","","","","","","false","[]","[]","[]","","","","","","","","","","","","","","","","","","","","","","","","","",""
"18427","
    <h3>词语分类任务</h3>
    <p>在接下来的任务中，你需要对一系列词语进行分类。<p/>
    请先熟悉这些词语，这有利于你完成接下来的任务。</p>
    <table align=""center"" border=1 cellpadding=3 cellspacing=0>
    <tr> <th>类别</th> <th>词语</th> </tr>
    <tr> <td>&emsp;积极&emsp;</td> <td>&emsp;高尚、诚信、善良、君子、廉正、正直&emsp;</td> </tr>
    <tr> <td>&emsp;消极&emsp;</td> <td>&emsp;缺德、卑鄙、不孝、不仁、小人、黑心&emsp;</td> </tr>
    <tr> <td>&emsp;自我&emsp;</td> <td>&emsp;我、我的、自己、自己的、本人、本人的&emsp;</td> </tr>
    <tr> <td>&emsp;他人&emsp;</td> <td>&emsp;他、他的、别人、别人的、他人、他人的&emsp;</td> </tr>
    </table><br/>","0","html-button-response","7","162225","0.0-6.0-1.0-0.0","3","3","3","3","2","3","3","3","3","4","4","2","1","4","3","4","3","4","4","5","4","5","4","4","3","4","4","4","2","1","0","1","1","0","1","1","1","0","1","1","0","1","0","1","5","3","4","2","3","4","3","5","4","3","2","796469535413772289","杨","446","","","","","","","","","","","","","","","","","2","2","","","","","","","","","","","","","","","","","","","","","","","",""
"24384","
    <div class=""tag-bottom""><p>
    —— 任务1：对“他人”词和“自我”词分类 ——<p/>
    不同词语会出现在屏幕中央，类别标签将始终显示在屏幕上方<p/>   
    <span style=""color:#FFD866""><b>请根据上方标签的提示，尽可能正确并且快速地做出按键反应</b></span><p/>
    当按键错误时屏幕中会出现<span style=""color:red""> X </span>，需要按另一个键纠正才能继续<br/><p/>
    请把双手食指分别放在键盘的“E”键和“I”键上<p/>
    按<空格键>开始
    </p></div>"," ","html-keyboard-response","8","186621","0.0-6.0-1.0-1.0","3","3","3","3","2","3","3","3","3","4","4","2","1","4","3","4","3","4","4","5","4","5","4","4","3","4","4","4","2","1","0","1","1","0","1","1","1","0","1","1","0","1","0","1","5","3","4","2","3","4","3","5","4","3","2","796469535413772289","杨","446","","","","","","","","","","","","","","","","","","","","","","","","","","","","","","","","","","","","","","","","","",""
"null","","null","html-keyboard-response","9","186874","0.0-6.0-1.0-2.0-0.0","3","3","3","3","2","3","3","3","3","4","4","2","1","4","3","4","3","4","4","5","4","5","4","4","3","4","4","4","2","1","0","1","1","0","1","1","1","0","1","1","0","1","0","1","5","3","4","2","3","4","3","5","4","3","2","796469535413772289","杨","446","","","","","","","","","","","","","","","","","","","","","","","","","","","","","","","","","","","","","","","","","",""
"1564","<p style=""color:rgb(150, 250, 100); font-size: 35px;"">自己的</p>","i","categorize-html","10","188450","0.0-6.0-1.0-2.0-1.0","3","3","3","3","2","3","3","3","3","4","4","2","1","4","3","4","3","4","4","5","4","5","4","4","3","4","4","4","2","1","0","1","1","0","1","1","1","0","1","1","0","1","0","1","5","3","4","2","3","4","3","5","4","3","2","796469535413772289","杨","446","","","","","","","","","","","","","","","","","","","true","11","1","moral","1564","self","自己的","","","","","","","","","","","","","","","","",""
"null","","null","html-keyboard-response","11","188705","0.0-6.0-1.0-2.0-0.1","3","3","3","3","2","3","3","3","3","4","4","2","1","4","3","4","3","4","4","5","4","5","4","4","3","4","4","4","2","1","0","1","1","0","1","1","1","0","1","1","0","1","0","1","5","3","4","2","3","4","3","5","4","3","2","796469535413772289","杨","446","","","","","","","","","","","","","","","","","","","","","","","","","","","","","","","","","","","","","","","","","",""
"1413","<p style=""color:rgb(150, 250, 100); font-size: 35px;"">别人的</p>","e","categorize-html","12","190122","0.0-6.0-1.0-2.0-1.1","3","3","3","3","2","3","3","3","3","4","4","2","1","4","3","4","3","4","4","5","4","5","4","4","3","4","4","4","2","1","0","1","1","0","1","1","1","0","1","1","0","1","0","1","5","3","4","2","3","4","3","5","4","3","2","796469535413772289","杨","446","","","","","","","","","","","","","","","","","","","true","11","1","moral","1413","other","别人的","","","","","","","","","","","","","","","","",""
"null","","null","html-keyboard-response","13","190375","0.0-6.0-1.0-2.0-0.2","3","3","3","3","2","3","3","3","3","4","4","2","1","4","3","4","3","4","4","5","4","5","4","4","3","4","4","4","2","1","0","1","1","0","1","1","1","0","1","1","0","1","0","1","5","3","4","2","3","4","3","5","4","3","2","796469535413772289","杨","446","","","","","","","","","","","","","","","","","","","","","","","","","","","","","","","","","","","","","","","","","",""
"709","<p style=""color:rgb(150, 250, 100); font-size: 35px;"">本人</p>","i","categorize-html","14","191088","0.0-6.0-1.0-2.0-1.2","3","3","3","3","2","3","3","3","3","4","4","2","1","4","3","4","3","4","4","5","4","5","4","4","3","4","4","4","2","1","0","1","1","0","1","1","1","0","1","1","0","1","0","1","5","3","4","2","3","4","3","5","4","3","2","796469535413772289","杨","446","","","","","","","","","","","","","","","","","","","true","11","1","moral","709","self","本人","","","","","","","","","","","","","","","","",""
"null","","null","html-keyboard-response","15","191340","0.0-6.0-1.0-2.0-0.3","3","3","3","3","2","3","3","3","3","4","4","2","1","4","3","4","3","4","4","5","4","5","4","4","3","4","4","4","2","1","0","1","1","0","1","1","1","0","1","1","0","1","0","1","5","3","4","2","3","4","3","5","4","3","2","796469535413772289","杨","446","","","","","","","","","","","","","","","","","","","","","","","","","","","","","","","","","","","","","","","","","",""
"926","<p style=""color:rgb(150, 250, 100); font-size: 35px;"">别人</p>","e","categorize-html","16","192269","0.0-6.0-1.0-2.0-1.3","3","3","3","3","2","3","3","3","3","4","4","2","1","4","3","4","3","4","4","5","4","5","4","4","3","4","4","4","2","1","0","1","1","0","1","1","1","0","1","1","0","1","0","1","5","3","4","2","3","4","3","5","4","3","2","796469535413772289","杨","446","","","","","","","","","","","","","","","","","","","true","11","1","moral","926","other","别人","","","","","","","","","","","","","","","","",""
"null","","null","html-keyboard-response","17","192521","0.0-6.0-1.0-2.0-0.4","3","3","3","3","2","3","3","3","3","4","4","2","1","4","3","4","3","4","4","5","4","5","4","4","3","4","4","4","2","1","0","1","1","0","1","1","1","0","1","1","0","1","0","1","5","3","4","2","3","4","3","5","4","3","2","796469535413772289","杨","446","","","","","","","","","","","","","","","","","","","","","","","","","","","","","","","","","","","","","","","","","",""
"624","<p style=""color:rgb(150, 250, 100); font-size: 35px;"">我的</p>","i","categorize-html","18","193152","0.0-6.0-1.0-2.0-1.4","3","3","3","3","2","3","3","3","3","4","4","2","1","4","3","4","3","4","4","5","4","5","4","4","3","4","4","4","2","1","0","1","1","0","1","1","1","0","1","1","0","1","0","1","5","3","4","2","3","4","3","5","4","3","2","796469535413772289","杨","446","","","","","","","","","","","","","","","","","","","true","11","1","moral","624","self","我的","","","","","","","","","","","","","","","","",""
"null","","null","html-keyboard-response","19","193405","0.0-6.0-1.0-2.0-0.5","3","3","3","3","2","3","3","3","3","4","4","2","1","4","3","4","3","4","4","5","4","5","4","4","3","4","4","4","2","1","0","1","1","0","1","1","1","0","1","1","0","1","0","1","5","3","4","2","3","4","3","5","4","3","2","796469535413772289","杨","446","","","","","","","","","","","","","","","","","","","","","","","","","","","","","","","","","","","","","","","","","",""
"638","<p style=""color:rgb(150, 250, 100); font-size: 35px;"">他人</p>","e","categorize-html","20","194047","0.0-6.0-1.0-2.0-1.5","3","3","3","3","2","3","3","3","3","4","4","2","1","4","3","4","3","4","4","5","4","5","4","4","3","4","4","4","2","1","0","1","1","0","1","1","1","0","1","1","0","1","0","1","5","3","4","2","3","4","3","5","4","3","2","796469535413772289","杨","446","","","","","","","","","","","","","","","","","","","true","11","1","moral","638","other","他人","","","","","","","","","","","","","","","","",""
"null","","null","html-keyboard-response","21","194301","0.0-6.0-1.0-2.0-0.6","3","3","3","3","2","3","3","3","3","4","4","2","1","4","3","4","3","4","4","5","4","5","4","4","3","4","4","4","2","1","0","1","1","0","1","1","1","0","1","1","0","1","0","1","5","3","4","2","3","4","3","5","4","3","2","796469535413772289","杨","446","","","","","","","","","","","","","","","","","","","","","","","","","","","","","","","","","","","","","","","","","",""
"627","<p style=""color:rgb(150, 250, 100); font-size: 35px;"">他的</p>","e","categorize-html","22","194936","0.0-6.0-1.0-2.0-1.6","3","3","3","3","2","3","3","3","3","4","4","2","1","4","3","4","3","4","4","5","4","5","4","4","3","4","4","4","2","1","0","1","1","0","1","1","1","0","1","1","0","1","0","1","5","3","4","2","3","4","3","5","4","3","2","796469535413772289","杨","446","","","","","","","","","","","","","","","","","","","true","11","1","moral","627","other","他的","","","","","","","","","","","","","","","","",""
"null","","null","html-keyboard-response","23","195190","0.0-6.0-1.0-2.0-0.7","3","3","3","3","2","3","3","3","3","4","4","2","1","4","3","4","3","4","4","5","4","5","4","4","3","4","4","4","2","1","0","1","1","0","1","1","1","0","1","1","0","1","0","1","5","3","4","2","3","4","3","5","4","3","2","796469535413772289","杨","446","","","","","","","","","","","","","","","","","","","","","","","","","","","","","","","","","","","","","","","","","",""
"513","<p style=""color:rgb(150, 250, 100); font-size: 35px;"">我</p>","i","categorize-html","24","195707","0.0-6.0-1.0-2.0-1.7","3","3","3","3","2","3","3","3","3","4","4","2","1","4","3","4","3","4","4","5","4","5","4","4","3","4","4","4","2","1","0","1","1","0","1","1","1","0","1","1","0","1","0","1","5","3","4","2","3","4","3","5","4","3","2","796469535413772289","杨","446","","","","","","","","","","","","","","","","","","","true","11","1","moral","513","self","我","","","","","","","","","","","","","","","","",""
"null","","null","html-keyboard-response","25","195959","0.0-6.0-1.0-2.0-0.8","3","3","3","3","2","3","3","3","3","4","4","2","1","4","3","4","3","4","4","5","4","5","4","4","3","4","4","4","2","1","0","1","1","0","1","1","1","0","1","1","0","1","0","1","5","3","4","2","3","4","3","5","4","3","2","796469535413772289","杨","446","","","","","","","","","","","","","","","","","","","","","","","","","","","","","","","","","","","","","","","","","",""
"564","<p style=""color:rgb(150, 250, 100); font-size: 35px;"">他人的</p>","e","categorize-html","26","196528","0.0-6.0-1.0-2.0-1.8","3","3","3","3","2","3","3","3","3","4","4","2","1","4","3","4","3","4","4","5","4","5","4","4","3","4","4","4","2","1","0","1","1","0","1","1","1","0","1","1","0","1","0","1","5","3","4","2","3","4","3","5","4","3","2","796469535413772289","杨","446","","","","","","","","","","","","","","","","","","","true","11","1","moral","564","other","他人的","","","","","","","","","","","","","","","","",""
"null","","null","html-keyboard-response","27","196781","0.0-6.0-1.0-2.0-0.9","3","3","3","3","2","3","3","3","3","4","4","2","1","4","3","4","3","4","4","5","4","5","4","4","3","4","4","4","2","1","0","1","1","0","1","1","1","0","1","1","0","1","0","1","5","3","4","2","3","4","3","5","4","3","2","796469535413772289","杨","446","","","","","","","","","","","","","","","","","","","","","","","","","","","","","","","","","","","","","","","","","",""
"513","<p style=""color:rgb(150, 250, 100); font-size: 35px;"">自己</p>","i","categorize-html","28","197299","0.0-6.0-1.0-2.0-1.9","3","3","3","3","2","3","3","3","3","4","4","2","1","4","3","4","3","4","4","5","4","5","4","4","3","4","4","4","2","1","0","1","1","0","1","1","1","0","1","1","0","1","0","1","5","3","4","2","3","4","3","5","4","3","2","796469535413772289","杨","446","","","","","","","","","","","","","","","","","","","true","11","1","moral","513","self","自己","","","","","","","","","","","","","","","","",""
"null","","null","html-keyboard-response","29","197553","0.0-6.0-1.0-2.0-0.10","3","3","3","3","2","3","3","3","3","4","4","2","1","4","3","4","3","4","4","5","4","5","4","4","3","4","4","4","2","1","0","1","1","0","1","1","1","0","1","1","0","1","0","1","5","3","4","2","3","4","3","5","4","3","2","796469535413772289","杨","446","","","","","","","","","","","","","","","","","","","","","","","","","","","","","","","","","","","","","","","","","",""
"537","<p style=""color:rgb(150, 250, 100); font-size: 35px;"">本人的</p>","i","categorize-html","30","198095","0.0-6.0-1.0-2.0-1.10","3","3","3","3","2","3","3","3","3","4","4","2","1","4","3","4","3","4","4","5","4","5","4","4","3","4","4","4","2","1","0","1","1","0","1","1","1","0","1","1","0","1","0","1","5","3","4","2","3","4","3","5","4","3","2","796469535413772289","杨","446","","","","","","","","","","","","","","","","","","","true","11","1","moral","537","self","本人的","","","","","","","","","","","","","","","","",""
"null","","null","html-keyboard-response","31","198347","0.0-6.0-1.0-2.0-0.11","3","3","3","3","2","3","3","3","3","4","4","2","1","4","3","4","3","4","4","5","4","5","4","4","3","4","4","4","2","1","0","1","1","0","1","1","1","0","1","1","0","1","0","1","5","3","4","2","3","4","3","5","4","3","2","796469535413772289","杨","446","","","","","","","","","","","","","","","","","","","","","","","","","","","","","","","","","","","","","","","","","",""
"487","<p style=""color:rgb(150, 250, 100); font-size: 35px;"">他</p>","e","categorize-html","32","198842","0.0-6.0-1.0-2.0-1.11","3","3","3","3","2","3","3","3","3","4","4","2","1","4","3","4","3","4","4","5","4","5","4","4","3","4","4","4","2","1","0","1","1","0","1","1","1","0","1","1","0","1","0","1","5","3","4","2","3","4","3","5","4","3","2","796469535413772289","杨","446","","","","","","","","","","","","","","","","","","","true","11","1","moral","487","other","他","","","","","","","","","","","","","","","","",""
"5869","
    <div class=""tag-bottom""><p>
    —— 任务2：对“消极”词和“积极”词分类 ——<p/>   
    <span style=""color:#78DCE8""><b>注意上方，类别标签和需要分类的词语都已经改变</b></span><p/>
    <span style=""color:#FFD866""><b>请根据上方标签的提示，尽可能正确并且快速地做出按键反应</b></span><p/>
    当按键错误时屏幕中会出现<span style=""color:red""> X </span>，需要按另一个键纠正才能继续<br/><p/>
    请把双手食指分别放在键盘的“E”键和“I”键上<p/>
    按<空格键>开始
    </p></div>"," ","html-keyboard-response","33","204713","0.0-6.0-1.0-3.0","3","3","3","3","2","3","3","3","3","4","4","2","1","4","3","4","3","4","4","5","4","5","4","4","3","4","4","4","2","1","0","1","1","0","1","1","1","0","1","1","0","1","0","1","5","3","4","2","3","4","3","5","4","3","2","796469535413772289","杨","446","","","","","","","","","","","","","","","","","","","","","","","","","","","","","","","","","","","","","","","","","",""
"null","","null","html-keyboard-response","34","204966","0.0-6.0-1.0-4.0-0.0","3","3","3","3","2","3","3","3","3","4","4","2","1","4","3","4","3","4","4","5","4","5","4","4","3","4","4","4","2","1","0","1","1","0","1","1","1","0","1","1","0","1","0","1","5","3","4","2","3","4","3","5","4","3","2","796469535413772289","杨","446","","","","","","","","","","","","","","","","","","","","","","","","","","","","","","","","","","","","","","","","","",""
"1059","<p style=""color:white; font-size: 35px;"">卑鄙</p>","e","categorize-html","35","206033","0.0-6.0-1.0-4.0-1.0","3","3","3","3","2","3","3","3","3","4","4","2","1","4","3","4","3","4","4","5","4","5","4","4","3","4","4","4","2","1","0","1","1","0","1","1","1","0","1","1","0","1","0","1","5","3","4","2","3","4","3","5","4","3","2","796469535413772289","杨","446","","","","","","","","","","","","","","","","","","","true","12","2","moral","1059","negative","卑鄙","","","","","","","","","","","","","","","","",""
"null","","null","html-keyboard-response","36","206285","0.0-6.0-1.0-4.0-0.1","3","3","3","3","2","3","3","3","3","4","4","2","1","4","3","4","3","4","4","5","4","5","4","4","3","4","4","4","2","1","0","1","1","0","1","1","1","0","1","1","0","1","0","1","5","3","4","2","3","4","3","5","4","3","2","796469535413772289","杨","446","","","","","","","","","","","","","","","","","","","","","","","","","","","","","","","","","","","","","","","","","",""
"422","<p style=""color:white; font-size: 35px;"">缺德</p>","e","categorize-html","37","206714","0.0-6.0-1.0-4.0-1.1","3","3","3","3","2","3","3","3","3","4","4","2","1","4","3","4","3","4","4","5","4","5","4","4","3","4","4","4","2","1","0","1","1","0","1","1","1","0","1","1","0","1","0","1","5","3","4","2","3","4","3","5","4","3","2","796469535413772289","杨","446","","","","","","","","","","","","","","","","","","","true","12","2","moral","422","negative","缺德","","","","","","","","","","","","","","","","",""
"null","","null","html-keyboard-response","38","206968","0.0-6.0-1.0-4.0-0.2","3","3","3","3","2","3","3","3","3","4","4","2","1","4","3","4","3","4","4","5","4","5","4","4","3","4","4","4","2","1","0","1","1","0","1","1","1","0","1","1","0","1","0","1","5","3","4","2","3","4","3","5","4","3","2","796469535413772289","杨","446","","","","","","","","","","","","","","","","","","","","","","","","","","","","","","","","","","","","","","","","","",""
"459","<p style=""color:white; font-size: 35px;"">正直</p>","i","categorize-html","39","207431","0.0-6.0-1.0-4.0-1.2","3","3","3","3","2","3","3","3","3","4","4","2","1","4","3","4","3","4","4","5","4","5","4","4","3","4","4","4","2","1","0","1","1","0","1","1","1","0","1","1","0","1","0","1","5","3","4","2","3","4","3","5","4","3","2","796469535413772289","杨","446","","","","","","","","","","","","","","","","","","","true","12","2","moral","459","positive","正直","","","","","","","","","","","","","","","","",""
"null","","null","html-keyboard-response","40","207683","0.0-6.0-1.0-4.0-0.3","3","3","3","3","2","3","3","3","3","4","4","2","1","4","3","4","3","4","4","5","4","5","4","4","3","4","4","4","2","1","0","1","1","0","1","1","1","0","1","1","0","1","0","1","5","3","4","2","3","4","3","5","4","3","2","796469535413772289","杨","446","","","","","","","","","","","","","","","","","","","","","","","","","","","","","","","","","","","","","","","","","",""
"407","<p style=""color:white; font-size: 35px;"">不仁</p>","i","categorize-html","41","209061","0.0-6.0-1.0-4.0-1.3","3","3","3","3","2","3","3","3","3","4","4","2","1","4","3","4","3","4","4","5","4","5","4","4","3","4","4","4","2","1","0","1","1","0","1","1","1","0","1","1","0","1","0","1","5","3","4","2","3","4","3","5","4","3","2","796469535413772289","杨","446","","","","","","","","","","","","","","","","","","","false","12","2","moral","407","negative","不仁","","","","","","","","","","","","","","","","",""
"null","","null","html-keyboard-response","42","209313","0.0-6.0-1.0-4.0-0.4","3","3","3","3","2","3","3","3","3","4","4","2","1","4","3","4","3","4","4","5","4","5","4","4","3","4","4","4","2","1","0","1","1","0","1","1","1","0","1","1","0","1","0","1","5","3","4","2","3","4","3","5","4","3","2","796469535413772289","杨","446","","","","","","","","","","","","","","","","","","","","","","","","","","","","","","","","","","","","","","","","","",""
"842","<p style=""color:white; font-size: 35px;"">廉正</p>","i","categorize-html","43","210158","0.0-6.0-1.0-4.0-1.4","3","3","3","3","2","3","3","3","3","4","4","2","1","4","3","4","3","4","4","5","4","5","4","4","3","4","4","4","2","1","0","1","1","0","1","1","1","0","1","1","0","1","0","1","5","3","4","2","3","4","3","5","4","3","2","796469535413772289","杨","446","","","","","","","","","","","","","","","","","","","true","12","2","moral","842","positive","廉正","","","","","","","","","","","","","","","","",""
"null","","null","html-keyboard-response","44","210410","0.0-6.0-1.0-4.0-0.5","3","3","3","3","2","3","3","3","3","4","4","2","1","4","3","4","3","4","4","5","4","5","4","4","3","4","4","4","2","1","0","1","1","0","1","1","1","0","1","1","0","1","0","1","5","3","4","2","3","4","3","5","4","3","2","796469535413772289","杨","446","","","","","","","","","","","","","","","","","","","","","","","","","","","","","","","","","","","","","","","","","",""
"767","<p style=""color:white; font-size: 35px;"">不孝</p>","e","categorize-html","45","211183","0.0-6.0-1.0-4.0-1.5","3","3","3","3","2","3","3","3","3","4","4","2","1","4","3","4","3","4","4","5","4","5","4","4","3","4","4","4","2","1","0","1","1","0","1","1","1","0","1","1","0","1","0","1","5","3","4","2","3","4","3","5","4","3","2","796469535413772289","杨","446","","","","","","","","","","","","","","","","","","","true","12","2","moral","767","negative","不孝","","","","","","","","","","","","","","","","",""
"null","","null","html-keyboard-response","46","211436","0.0-6.0-1.0-4.0-0.6","3","3","3","3","2","3","3","3","3","4","4","2","1","4","3","4","3","4","4","5","4","5","4","4","3","4","4","4","2","1","0","1","1","0","1","1","1","0","1","1","0","1","0","1","5","3","4","2","3","4","3","5","4","3","2","796469535413772289","杨","446","","","","","","","","","","","","","","","","","","","","","","","","","","","","","","","","","","","","","","","","","",""
"692","<p style=""color:white; font-size: 35px;"">善良</p>","i","categorize-html","47","212140","0.0-6.0-1.0-4.0-1.6","3","3","3","3","2","3","3","3","3","4","4","2","1","4","3","4","3","4","4","5","4","5","4","4","3","4","4","4","2","1","0","1","1","0","1","1","1","0","1","1","0","1","0","1","5","3","4","2","3","4","3","5","4","3","2","796469535413772289","杨","446","","","","","","","","","","","","","","","","","","","true","12","2","moral","692","positive","善良","","","","","","","","","","","","","","","","",""
"null","","null","html-keyboard-response","48","212392","0.0-6.0-1.0-4.0-0.7","3","3","3","3","2","3","3","3","3","4","4","2","1","4","3","4","3","4","4","5","4","5","4","4","3","4","4","4","2","1","0","1","1","0","1","1","1","0","1","1","0","1","0","1","5","3","4","2","3","4","3","5","4","3","2","796469535413772289","杨","446","","","","","","","","","","","","","","","","","","","","","","","","","","","","","","","","","","","","","","","","","",""
"534","<p style=""color:white; font-size: 35px;"">诚信</p>","i","categorize-html","49","212930","0.0-6.0-1.0-4.0-1.7","3","3","3","3","2","3","3","3","3","4","4","2","1","4","3","4","3","4","4","5","4","5","4","4","3","4","4","4","2","1","0","1","1","0","1","1","1","0","1","1","0","1","0","1","5","3","4","2","3","4","3","5","4","3","2","796469535413772289","杨","446","","","","","","","","","","","","","","","","","","","true","12","2","moral","534","positive","诚信","","","","","","","","","","","","","","","","",""
"null","","null","html-keyboard-response","50","213183","0.0-6.0-1.0-4.0-0.8","3","3","3","3","2","3","3","3","3","4","4","2","1","4","3","4","3","4","4","5","4","5","4","4","3","4","4","4","2","1","0","1","1","0","1","1","1","0","1","1","0","1","0","1","5","3","4","2","3","4","3","5","4","3","2","796469535413772289","杨","446","","","","","","","","","","","","","","","","","","","","","","","","","","","","","","","","","","","","","","","","","",""
"561","<p style=""color:white; font-size: 35px;"">君子</p>","i","categorize-html","51","213752","0.0-6.0-1.0-4.0-1.8","3","3","3","3","2","3","3","3","3","4","4","2","1","4","3","4","3","4","4","5","4","5","4","4","3","4","4","4","2","1","0","1","1","0","1","1","1","0","1","1","0","1","0","1","5","3","4","2","3","4","3","5","4","3","2","796469535413772289","杨","446","","","","","","","","","","","","","","","","","","","true","12","2","moral","561","positive","君子","","","","","","","","","","","","","","","","",""
"null","","null","html-keyboard-response","52","214006","0.0-6.0-1.0-4.0-0.9","3","3","3","3","2","3","3","3","3","4","4","2","1","4","3","4","3","4","4","5","4","5","4","4","3","4","4","4","2","1","0","1","1","0","1","1","1","0","1","1","0","1","0","1","5","3","4","2","3","4","3","5","4","3","2","796469535413772289","杨","446","","","","","","","","","","","","","","","","","","","","","","","","","","","","","","","","","","","","","","","","","",""
"502","<p style=""color:white; font-size: 35px;"">高尚</p>","i","categorize-html","53","214516","0.0-6.0-1.0-4.0-1.9","3","3","3","3","2","3","3","3","3","4","4","2","1","4","3","4","3","4","4","5","4","5","4","4","3","4","4","4","2","1","0","1","1","0","1","1","1","0","1","1","0","1","0","1","5","3","4","2","3","4","3","5","4","3","2","796469535413772289","杨","446","","","","","","","","","","","","","","","","","","","true","12","2","moral","502","positive","高尚","","","","","","","","","","","","","","","","",""
"null","","null","html-keyboard-response","54","214770","0.0-6.0-1.0-4.0-0.10","3","3","3","3","2","3","3","3","3","4","4","2","1","4","3","4","3","4","4","5","4","5","4","4","3","4","4","4","2","1","0","1","1","0","1","1","1","0","1","1","0","1","0","1","5","3","4","2","3","4","3","5","4","3","2","796469535413772289","杨","446","","","","","","","","","","","","","","","","","","","","","","","","","","","","","","","","","","","","","","","","","",""
"630","<p style=""color:white; font-size: 35px;"">黑心</p>","e","categorize-html","55","215406","0.0-6.0-1.0-4.0-1.10","3","3","3","3","2","3","3","3","3","4","4","2","1","4","3","4","3","4","4","5","4","5","4","4","3","4","4","4","2","1","0","1","1","0","1","1","1","0","1","1","0","1","0","1","5","3","4","2","3","4","3","5","4","3","2","796469535413772289","杨","446","","","","","","","","","","","","","","","","","","","true","12","2","moral","630","negative","黑心","","","","","","","","","","","","","","","","",""
"null","","null","html-keyboard-response","56","215658","0.0-6.0-1.0-4.0-0.11","3","3","3","3","2","3","3","3","3","4","4","2","1","4","3","4","3","4","4","5","4","5","4","4","3","4","4","4","2","1","0","1","1","0","1","1","1","0","1","1","0","1","0","1","5","3","4","2","3","4","3","5","4","3","2","796469535413772289","杨","446","","","","","","","","","","","","","","","","","","","","","","","","","","","","","","","","","","","","","","","","","",""
"518","<p style=""color:white; font-size: 35px;"">小人</p>","e","categorize-html","57","216180","0.0-6.0-1.0-4.0-1.11","3","3","3","3","2","3","3","3","3","4","4","2","1","4","3","4","3","4","4","5","4","5","4","4","3","4","4","4","2","1","0","1","1","0","1","1","1","0","1","1","0","1","0","1","5","3","4","2","3","4","3","5","4","3","2","796469535413772289","杨","446","","","","","","","","","","","","","","","","","","","true","12","2","moral","518","negative","小人","","","","","","","","","","","","","","","","",""
"5697","
    <div class=""tag-bottom""><p>
    —— 任务3：对“他人/消极”词和“自我/积极”词分类 ——<p/>
    <span style=""color:#78DCE8""><b>注意上方，之前的四类词语将混合在一起交替呈现</b></span><p/>
    <span style=""color:#FFD866""><b>请根据上方标签的提示，尽可能正确并且快速地做出按键反应</b></span><p/>
    当按键错误时屏幕中会出现<span style=""color:red""> X </span>，需要按另一个键纠正才能继续<br/><p/>
    请把双手食指分别放在键盘的“E”键和“I”键上<p/>
    按<空格键>开始
    </p></div>"," ","html-keyboard-response","58","221879","0.0-6.0-1.0-5.0","3","3","3","3","2","3","3","3","3","4","4","2","1","4","3","4","3","4","4","5","4","5","4","4","3","4","4","4","2","1","0","1","1","0","1","1","1","0","1","1","0","1","0","1","5","3","4","2","3","4","3","5","4","3","2","796469535413772289","杨","446","","","","","","","","","","","","","","","","","","","","","","","","","","","","","","","","","","","","","","","","","",""
"null","","null","html-keyboard-response","59","222130","0.0-6.0-1.0-6.0-0.0","3","3","3","3","2","3","3","3","3","4","4","2","1","4","3","4","3","4","4","5","4","5","4","4","3","4","4","4","2","1","0","1","1","0","1","1","1","0","1","1","0","1","0","1","5","3","4","2","3","4","3","5","4","3","2","796469535413772289","杨","446","","","","","","","","","","","","","","","","","","","","","","","","","","","","","","","","","","","","","","","","","",""
"1345","<p style=""color:rgb(150, 250, 100); font-size: 35px;"">别人的</p>","e","categorize-html","60","223480","0.0-6.0-1.0-6.0-1.0","3","3","3","3","2","3","3","3","3","4","4","2","1","4","3","4","3","4","4","5","4","5","4","4","3","4","4","4","2","1","0","1","1","0","1","1","1","0","1","1","0","1","0","1","5","3","4","2","3","4","3","5","4","3","2","796469535413772289","杨","446","","","","","","","","","","","","","","","","","","","true","13","3","moral","1345","other","别人的","","","","","","","","","","","","","","","","",""
"null","","null","html-keyboard-response","61","223735","0.0-6.0-1.0-6.0-0.1","3","3","3","3","2","3","3","3","3","4","4","2","1","4","3","4","3","4","4","5","4","5","4","4","3","4","4","4","2","1","0","1","1","0","1","1","1","0","1","1","0","1","0","1","5","3","4","2","3","4","3","5","4","3","2","796469535413772289","杨","446","","","","","","","","","","","","","","","","","","","","","","","","","","","","","","","","","","","","","","","","","",""
"1099","<p style=""color:white; font-size: 35px;"">善良</p>","i","categorize-html","62","224843","0.0-6.0-1.0-6.0-1.1","3","3","3","3","2","3","3","3","3","4","4","2","1","4","3","4","3","4","4","5","4","5","4","4","3","4","4","4","2","1","0","1","1","0","1","1","1","0","1","1","0","1","0","1","5","3","4","2","3","4","3","5","4","3","2","796469535413772289","杨","446","","","","","","","","","","","","","","","","","","","true","13","3","moral","1099","positive","善良","","","","","","","","","","","","","","","","",""
"null","","null","html-keyboard-response","63","225096","0.0-6.0-1.0-6.0-0.2","3","3","3","3","2","3","3","3","3","4","4","2","1","4","3","4","3","4","4","5","4","5","4","4","3","4","4","4","2","1","0","1","1","0","1","1","1","0","1","1","0","1","0","1","5","3","4","2","3","4","3","5","4","3","2","796469535413772289","杨","446","","","","","","","","","","","","","","","","","","","","","","","","","","","","","","","","","","","","","","","","","",""
"581","<p style=""color:rgb(150, 250, 100); font-size: 35px;"">自己</p>","i","categorize-html","64","225681","0.0-6.0-1.0-6.0-1.2","3","3","3","3","2","3","3","3","3","4","4","2","1","4","3","4","3","4","4","5","4","5","4","4","3","4","4","4","2","1","0","1","1","0","1","1","1","0","1","1","0","1","0","1","5","3","4","2","3","4","3","5","4","3","2","796469535413772289","杨","446","","","","","","","","","","","","","","","","","","","true","13","3","moral","581","self","自己","","","","","","","","","","","","","","","","",""
"null","","null","html-keyboard-response","65","225933","0.0-6.0-1.0-6.0-0.3","3","3","3","3","2","3","3","3","3","4","4","2","1","4","3","4","3","4","4","5","4","5","4","4","3","4","4","4","2","1","0","1","1","0","1","1","1","0","1","1","0","1","0","1","5","3","4","2","3","4","3","5","4","3","2","796469535413772289","杨","446","","","","","","","","","","","","","","","","","","","","","","","","","","","","","","","","","","","","","","","","","",""
"656","<p style=""color:white; font-size: 35px;"">缺德</p>","e","categorize-html","66","226595","0.0-6.0-1.0-6.0-1.3","3","3","3","3","2","3","3","3","3","4","4","2","1","4","3","4","3","4","4","5","4","5","4","4","3","4","4","4","2","1","0","1","1","0","1","1","1","0","1","1","0","1","0","1","5","3","4","2","3","4","3","5","4","3","2","796469535413772289","杨","446","","","","","","","","","","","","","","","","","","","true","13","3","moral","656","negative","缺德","","","","","","","","","","","","","","","","",""
"null","","null","html-keyboard-response","67","226849","0.0-6.0-1.0-6.0-0.4","3","3","3","3","2","3","3","3","3","4","4","2","1","4","3","4","3","4","4","5","4","5","4","4","3","4","4","4","2","1","0","1","1","0","1","1","1","0","1","1","0","1","0","1","5","3","4","2","3","4","3","5","4","3","2","796469535413772289","杨","446","","","","","","","","","","","","","","","","","","","","","","","","","","","","","","","","","","","","","","","","","",""
"532","<p style=""color:rgb(150, 250, 100); font-size: 35px;"">他的</p>","e","categorize-html","68","227386","0.0-6.0-1.0-6.0-1.4","3","3","3","3","2","3","3","3","3","4","4","2","1","4","3","4","3","4","4","5","4","5","4","4","3","4","4","4","2","1","0","1","1","0","1","1","1","0","1","1","0","1","0","1","5","3","4","2","3","4","3","5","4","3","2","796469535413772289","杨","446","","","","","","","","","","","","","","","","","","","true","13","3","moral","532","other","他的","","","","","","","","","","","","","","","","",""
"null","","null","html-keyboard-response","69","227639","0.0-6.0-1.0-6.0-0.5","3","3","3","3","2","3","3","3","3","4","4","2","1","4","3","4","3","4","4","5","4","5","4","4","3","4","4","4","2","1","0","1","1","0","1","1","1","0","1","1","0","1","0","1","5","3","4","2","3","4","3","5","4","3","2","796469535413772289","杨","446","","","","","","","","","","","","","","","","","","","","","","","","","","","","","","","","","","","","","","","","","",""
"730","<p style=""color:white; font-size: 35px;"">高尚</p>","i","categorize-html","70","228377","0.0-6.0-1.0-6.0-1.5","3","3","3","3","2","3","3","3","3","4","4","2","1","4","3","4","3","4","4","5","4","5","4","4","3","4","4","4","2","1","0","1","1","0","1","1","1","0","1","1","0","1","0","1","5","3","4","2","3","4","3","5","4","3","2","796469535413772289","杨","446","","","","","","","","","","","","","","","","","","","true","13","3","moral","730","positive","高尚","","","","","","","","","","","","","","","","",""
"null","","null","html-keyboard-response","71","228632","0.0-6.0-1.0-6.0-0.6","3","3","3","3","2","3","3","3","3","4","4","2","1","4","3","4","3","4","4","5","4","5","4","4","3","4","4","4","2","1","0","1","1","0","1","1","1","0","1","1","0","1","0","1","5","3","4","2","3","4","3","5","4","3","2","796469535413772289","杨","446","","","","","","","","","","","","","","","","","","","","","","","","","","","","","","","","","","","","","","","","","",""
"895","<p style=""color:rgb(150, 250, 100); font-size: 35px;"">我的</p>","i","categorize-html","72","229533","0.0-6.0-1.0-6.0-1.6","3","3","3","3","2","3","3","3","3","4","4","2","1","4","3","4","3","4","4","5","4","5","4","4","3","4","4","4","2","1","0","1","1","0","1","1","1","0","1","1","0","1","0","1","5","3","4","2","3","4","3","5","4","3","2","796469535413772289","杨","446","","","","","","","","","","","","","","","","","","","true","13","3","moral","895","self","我的","","","","","","","","","","","","","","","","",""
"null","","null","html-keyboard-response","73","229784","0.0-6.0-1.0-6.0-0.7","3","3","3","3","2","3","3","3","3","4","4","2","1","4","3","4","3","4","4","5","4","5","4","4","3","4","4","4","2","1","0","1","1","0","1","1","1","0","1","1","0","1","0","1","5","3","4","2","3","4","3","5","4","3","2","796469535413772289","杨","446","","","","","","","","","","","","","","","","","","","","","","","","","","","","","","","","","","","","","","","","","",""
"1665","<p style=""color:white; font-size: 35px;"">卑鄙</p>","e","categorize-html","74","231462","0.0-6.0-1.0-6.0-1.7","3","3","3","3","2","3","3","3","3","4","4","2","1","4","3","4","3","4","4","5","4","5","4","4","3","4","4","4","2","1","0","1","1","0","1","1","1","0","1","1","0","1","0","1","5","3","4","2","3","4","3","5","4","3","2","796469535413772289","杨","446","","","","","","","","","","","","","","","","","","","true","13","3","moral","1665","negative","卑鄙","","","","","","","","","","","","","","","","",""
"null","","null","html-keyboard-response","75","231714","0.0-6.0-1.0-6.0-0.8","3","3","3","3","2","3","3","3","3","4","4","2","1","4","3","4","3","4","4","5","4","5","4","4","3","4","4","4","2","1","0","1","1","0","1","1","1","0","1","1","0","1","0","1","5","3","4","2","3","4","3","5","4","3","2","796469535413772289","杨","446","","","","","","","","","","","","","","","","","","","","","","","","","","","","","","","","","","","","","","","","","",""
"652","<p style=""color:rgb(150, 250, 100); font-size: 35px;"">本人的</p>","i","categorize-html","76","232376","0.0-6.0-1.0-6.0-1.8","3","3","3","3","2","3","3","3","3","4","4","2","1","4","3","4","3","4","4","5","4","5","4","4","3","4","4","4","2","1","0","1","1","0","1","1","1","0","1","1","0","1","0","1","5","3","4","2","3","4","3","5","4","3","2","796469535413772289","杨","446","","","","","","","","","","","","","","","","","","","true","13","3","moral","652","self","本人的","","","","","","","","","","","","","","","","",""
"null","","null","html-keyboard-response","77","232630","0.0-6.0-1.0-6.0-0.9","3","3","3","3","2","3","3","3","3","4","4","2","1","4","3","4","3","4","4","5","4","5","4","4","3","4","4","4","2","1","0","1","1","0","1","1","1","0","1","1","0","1","0","1","5","3","4","2","3","4","3","5","4","3","2","796469535413772289","杨","446","","","","","","","","","","","","","","","","","","","","","","","","","","","","","","","","","","","","","","","","","",""
"1013","<p style=""color:white; font-size: 35px;"">小人</p>","e","categorize-html","78","233648","0.0-6.0-1.0-6.0-1.9","3","3","3","3","2","3","3","3","3","4","4","2","1","4","3","4","3","4","4","5","4","5","4","4","3","4","4","4","2","1","0","1","1","0","1","1","1","0","1","1","0","1","0","1","5","3","4","2","3","4","3","5","4","3","2","796469535413772289","杨","446","","","","","","","","","","","","","","","","","","","true","13","3","moral","1013","negative","小人","","","","","","","","","","","","","","","","",""
"null","","null","html-keyboard-response","79","233901","0.0-6.0-1.0-6.0-0.10","3","3","3","3","2","3","3","3","3","4","4","2","1","4","3","4","3","4","4","5","4","5","4","4","3","4","4","4","2","1","0","1","1","0","1","1","1","0","1","1","0","1","0","1","5","3","4","2","3","4","3","5","4","3","2","796469535413772289","杨","446","","","","","","","","","","","","","","","","","","","","","","","","","","","","","","","","","","","","","","","","","",""
"796","<p style=""color:rgb(150, 250, 100); font-size: 35px;"">他人</p>","e","categorize-html","80","234703","0.0-6.0-1.0-6.0-1.10","3","3","3","3","2","3","3","3","3","4","4","2","1","4","3","4","3","4","4","5","4","5","4","4","3","4","4","4","2","1","0","1","1","0","1","1","1","0","1","1","0","1","0","1","5","3","4","2","3","4","3","5","4","3","2","796469535413772289","杨","446","","","","","","","","","","","","","","","","","","","true","13","3","moral","796","other","他人","","","","","","","","","","","","","","","","",""
"null","","null","html-keyboard-response","81","234956","0.0-6.0-1.0-6.0-0.11","3","3","3","3","2","3","3","3","3","4","4","2","1","4","3","4","3","4","4","5","4","5","4","4","3","4","4","4","2","1","0","1","1","0","1","1","1","0","1","1","0","1","0","1","5","3","4","2","3","4","3","5","4","3","2","796469535413772289","杨","446","","","","","","","","","","","","","","","","","","","","","","","","","","","","","","","","","","","","","","","","","",""
"827","<p style=""color:white; font-size: 35px;"">诚信</p>","i","categorize-html","82","235790","0.0-6.0-1.0-6.0-1.11","3","3","3","3","2","3","3","3","3","4","4","2","1","4","3","4","3","4","4","5","4","5","4","4","3","4","4","4","2","1","0","1","1","0","1","1","1","0","1","1","0","1","0","1","5","3","4","2","3","4","3","5","4","3","2","796469535413772289","杨","446","","","","","","","","","","","","","","","","","","","true","13","3","moral","827","positive","诚信","","","","","","","","","","","","","","","","",""
"null","","null","html-keyboard-response","83","236041","0.0-6.0-1.0-6.0-0.12","3","3","3","3","2","3","3","3","3","4","4","2","1","4","3","4","3","4","4","5","4","5","4","4","3","4","4","4","2","1","0","1","1","0","1","1","1","0","1","1","0","1","0","1","5","3","4","2","3","4","3","5","4","3","2","796469535413772289","杨","446","","","","","","","","","","","","","","","","","","","","","","","","","","","","","","","","","","","","","","","","","",""
"572","<p style=""color:rgb(150, 250, 100); font-size: 35px;"">他人的</p>","e","categorize-html","84","236620","0.0-6.0-1.0-6.0-1.12","3","3","3","3","2","3","3","3","3","4","4","2","1","4","3","4","3","4","4","5","4","5","4","4","3","4","4","4","2","1","0","1","1","0","1","1","1","0","1","1","0","1","0","1","5","3","4","2","3","4","3","5","4","3","2","796469535413772289","杨","446","","","","","","","","","","","","","","","","","","","true","13","3","moral","572","other","他人的","","","","","","","","","","","","","","","","",""
"null","","null","html-keyboard-response","85","236873","0.0-6.0-1.0-6.0-0.13","3","3","3","3","2","3","3","3","3","4","4","2","1","4","3","4","3","4","4","5","4","5","4","4","3","4","4","4","2","1","0","1","1","0","1","1","1","0","1","1","0","1","0","1","5","3","4","2","3","4","3","5","4","3","2","796469535413772289","杨","446","","","","","","","","","","","","","","","","","","","","","","","","","","","","","","","","","","","","","","","","","",""
"732","<p style=""color:white; font-size: 35px;"">不仁</p>","e","categorize-html","86","237610","0.0-6.0-1.0-6.0-1.13","3","3","3","3","2","3","3","3","3","4","4","2","1","4","3","4","3","4","4","5","4","5","4","4","3","4","4","4","2","1","0","1","1","0","1","1","1","0","1","1","0","1","0","1","5","3","4","2","3","4","3","5","4","3","2","796469535413772289","杨","446","","","","","","","","","","","","","","","","","","","true","13","3","moral","732","negative","不仁","","","","","","","","","","","","","","","","",""
"null","","null","html-keyboard-response","87","237862","0.0-6.0-1.0-6.0-0.14","3","3","3","3","2","3","3","3","3","4","4","2","1","4","3","4","3","4","4","5","4","5","4","4","3","4","4","4","2","1","0","1","1","0","1","1","1","0","1","1","0","1","0","1","5","3","4","2","3","4","3","5","4","3","2","796469535413772289","杨","446","","","","","","","","","","","","","","","","","","","","","","","","","","","","","","","","","","","","","","","","","",""
"592","<p style=""color:rgb(150, 250, 100); font-size: 35px;"">自己的</p>","i","categorize-html","88","238460","0.0-6.0-1.0-6.0-1.14","3","3","3","3","2","3","3","3","3","4","4","2","1","4","3","4","3","4","4","5","4","5","4","4","3","4","4","4","2","1","0","1","1","0","1","1","1","0","1","1","0","1","0","1","5","3","4","2","3","4","3","5","4","3","2","796469535413772289","杨","446","","","","","","","","","","","","","","","","","","","true","13","3","moral","592","self","自己的","","","","","","","","","","","","","","","","",""
"null","","null","html-keyboard-response","89","238713","0.0-6.0-1.0-6.0-0.15","3","3","3","3","2","3","3","3","3","4","4","2","1","4","3","4","3","4","4","5","4","5","4","4","3","4","4","4","2","1","0","1","1","0","1","1","1","0","1","1","0","1","0","1","5","3","4","2","3","4","3","5","4","3","2","796469535413772289","杨","446","","","","","","","","","","","","","","","","","","","","","","","","","","","","","","","","","","","","","","","","","",""
"990","<p style=""color:white; font-size: 35px;"">廉正</p>","i","categorize-html","90","239709","0.0-6.0-1.0-6.0-1.15","3","3","3","3","2","3","3","3","3","4","4","2","1","4","3","4","3","4","4","5","4","5","4","4","3","4","4","4","2","1","0","1","1","0","1","1","1","0","1","1","0","1","0","1","5","3","4","2","3","4","3","5","4","3","2","796469535413772289","杨","446","","","","","","","","","","","","","","","","","","","true","13","3","moral","990","positive","廉正","","","","","","","","","","","","","","","","",""
"null","","null","html-keyboard-response","91","239961","0.0-6.0-1.0-6.0-0.16","3","3","3","3","2","3","3","3","3","4","4","2","1","4","3","4","3","4","4","5","4","5","4","4","3","4","4","4","2","1","0","1","1","0","1","1","1","0","1","1","0","1","0","1","5","3","4","2","3","4","3","5","4","3","2","796469535413772289","杨","446","","","","","","","","","","","","","","","","","","","","","","","","","","","","","","","","","","","","","","","","","",""
"693","<p style=""color:rgb(150, 250, 100); font-size: 35px;"">别人</p>","e","categorize-html","92","240660","0.0-6.0-1.0-6.0-1.16","3","3","3","3","2","3","3","3","3","4","4","2","1","4","3","4","3","4","4","5","4","5","4","4","3","4","4","4","2","1","0","1","1","0","1","1","1","0","1","1","0","1","0","1","5","3","4","2","3","4","3","5","4","3","2","796469535413772289","杨","446","","","","","","","","","","","","","","","","","","","true","13","3","moral","693","other","别人","","","","","","","","","","","","","","","","",""
"null","","null","html-keyboard-response","93","240912","0.0-6.0-1.0-6.0-0.17","3","3","3","3","2","3","3","3","3","4","4","2","1","4","3","4","3","4","4","5","4","5","4","4","3","4","4","4","2","1","0","1","1","0","1","1","1","0","1","1","0","1","0","1","5","3","4","2","3","4","3","5","4","3","2","796469535413772289","杨","446","","","","","","","","","","","","","","","","","","","","","","","","","","","","","","","","","","","","","","","","","",""
"799","<p style=""color:white; font-size: 35px;"">正直</p>","i","categorize-html","94","241716","0.0-6.0-1.0-6.0-1.17","3","3","3","3","2","3","3","3","3","4","4","2","1","4","3","4","3","4","4","5","4","5","4","4","3","4","4","4","2","1","0","1","1","0","1","1","1","0","1","1","0","1","0","1","5","3","4","2","3","4","3","5","4","3","2","796469535413772289","杨","446","","","","","","","","","","","","","","","","","","","true","13","3","moral","799","positive","正直","","","","","","","","","","","","","","","","",""
"null","","null","html-keyboard-response","95","241968","0.0-6.0-1.0-6.0-0.18","3","3","3","3","2","3","3","3","3","4","4","2","1","4","3","4","3","4","4","5","4","5","4","4","3","4","4","4","2","1","0","1","1","0","1","1","1","0","1","1","0","1","0","1","5","3","4","2","3","4","3","5","4","3","2","796469535413772289","杨","446","","","","","","","","","","","","","","","","","","","","","","","","","","","","","","","","","","","","","","","","","",""
"662","<p style=""color:rgb(150, 250, 100); font-size: 35px;"">我</p>","i","categorize-html","96","242636","0.0-6.0-1.0-6.0-1.18","3","3","3","3","2","3","3","3","3","4","4","2","1","4","3","4","3","4","4","5","4","5","4","4","3","4","4","4","2","1","0","1","1","0","1","1","1","0","1","1","0","1","0","1","5","3","4","2","3","4","3","5","4","3","2","796469535413772289","杨","446","","","","","","","","","","","","","","","","","","","true","13","3","moral","662","self","我","","","","","","","","","","","","","","","","",""
"null","","null","html-keyboard-response","97","242890","0.0-6.0-1.0-6.0-0.19","3","3","3","3","2","3","3","3","3","4","4","2","1","4","3","4","3","4","4","5","4","5","4","4","3","4","4","4","2","1","0","1","1","0","1","1","1","0","1","1","0","1","0","1","5","3","4","2","3","4","3","5","4","3","2","796469535413772289","杨","446","","","","","","","","","","","","","","","","","","","","","","","","","","","","","","","","","","","","","","","","","",""
"869","<p style=""color:white; font-size: 35px;"">黑心</p>","e","categorize-html","98","243766","0.0-6.0-1.0-6.0-1.19","3","3","3","3","2","3","3","3","3","4","4","2","1","4","3","4","3","4","4","5","4","5","4","4","3","4","4","4","2","1","0","1","1","0","1","1","1","0","1","1","0","1","0","1","5","3","4","2","3","4","3","5","4","3","2","796469535413772289","杨","446","","","","","","","","","","","","","","","","","","","true","13","3","moral","869","negative","黑心","","","","","","","","","","","","","","","","",""
"null","","null","html-keyboard-response","99","244019","0.0-6.0-1.0-6.0-0.20","3","3","3","3","2","3","3","3","3","4","4","2","1","4","3","4","3","4","4","5","4","5","4","4","3","4","4","4","2","1","0","1","1","0","1","1","1","0","1","1","0","1","0","1","5","3","4","2","3","4","3","5","4","3","2","796469535413772289","杨","446","","","","","","","","","","","","","","","","","","","","","","","","","","","","","","","","","","","","","","","","","",""
"675","<p style=""color:rgb(150, 250, 100); font-size: 35px;"">本人</p>","i","categorize-html","100","244703","0.0-6.0-1.0-6.0-1.20","3","3","3","3","2","3","3","3","3","4","4","2","1","4","3","4","3","4","4","5","4","5","4","4","3","4","4","4","2","1","0","1","1","0","1","1","1","0","1","1","0","1","0","1","5","3","4","2","3","4","3","5","4","3","2","796469535413772289","杨","446","","","","","","","","","","","","","","","","","","","true","13","3","moral","675","self","本人","","","","","","","","","","","","","","","","",""
"null","","null","html-keyboard-response","101","244956","0.0-6.0-1.0-6.0-0.21","3","3","3","3","2","3","3","3","3","4","4","2","1","4","3","4","3","4","4","5","4","5","4","4","3","4","4","4","2","1","0","1","1","0","1","1","1","0","1","1","0","1","0","1","5","3","4","2","3","4","3","5","4","3","2","796469535413772289","杨","446","","","","","","","","","","","","","","","","","","","","","","","","","","","","","","","","","","","","","","","","","",""
"606","<p style=""color:white; font-size: 35px;"">君子</p>","i","categorize-html","102","245568","0.0-6.0-1.0-6.0-1.21","3","3","3","3","2","3","3","3","3","4","4","2","1","4","3","4","3","4","4","5","4","5","4","4","3","4","4","4","2","1","0","1","1","0","1","1","1","0","1","1","0","1","0","1","5","3","4","2","3","4","3","5","4","3","2","796469535413772289","杨","446","","","","","","","","","","","","","","","","","","","true","13","3","moral","606","positive","君子","","","","","","","","","","","","","","","","",""
"null","","null","html-keyboard-response","103","245823","0.0-6.0-1.0-6.0-0.22","3","3","3","3","2","3","3","3","3","4","4","2","1","4","3","4","3","4","4","5","4","5","4","4","3","4","4","4","2","1","0","1","1","0","1","1","1","0","1","1","0","1","0","1","5","3","4","2","3","4","3","5","4","3","2","796469535413772289","杨","446","","","","","","","","","","","","","","","","","","","","","","","","","","","","","","","","","","","","","","","","","",""
"563","<p style=""color:rgb(150, 250, 100); font-size: 35px;"">他</p>","e","categorize-html","104","246394","0.0-6.0-1.0-6.0-1.22","3","3","3","3","2","3","3","3","3","4","4","2","1","4","3","4","3","4","4","5","4","5","4","4","3","4","4","4","2","1","0","1","1","0","1","1","1","0","1","1","0","1","0","1","5","3","4","2","3","4","3","5","4","3","2","796469535413772289","杨","446","","","","","","","","","","","","","","","","","","","true","13","3","moral","563","other","他","","","","","","","","","","","","","","","","",""
"null","","null","html-keyboard-response","105","246650","0.0-6.0-1.0-6.0-0.23","3","3","3","3","2","3","3","3","3","4","4","2","1","4","3","4","3","4","4","5","4","5","4","4","3","4","4","4","2","1","0","1","1","0","1","1","1","0","1","1","0","1","0","1","5","3","4","2","3","4","3","5","4","3","2","796469535413772289","杨","446","","","","","","","","","","","","","","","","","","","","","","","","","","","","","","","","","","","","","","","","","",""
"556","<p style=""color:white; font-size: 35px;"">不孝</p>","e","categorize-html","106","247214","0.0-6.0-1.0-6.0-1.23","3","3","3","3","2","3","3","3","3","4","4","2","1","4","3","4","3","4","4","5","4","5","4","4","3","4","4","4","2","1","0","1","1","0","1","1","1","0","1","1","0","1","0","1","5","3","4","2","3","4","3","5","4","3","2","796469535413772289","杨","446","","","","","","","","","","","","","","","","","","","true","13","3","moral","556","negative","不孝","","","","","","","","","","","","","","","","",""
"13362","
    <div class=""tag-bottom""><p>
    —— 任务4：对“他人/消极”词和“自我/积极”词分类 ——<p/>
    <span style=""color:#78DCE8""><b>与刚才的任务完全相同，请再次对这四类词语分类</b></span><p/>
    <span style=""color:#FFD866""><b>请根据上方标签的提示，尽可能正确并且快速地做出按键反应</b></span><p/>
    当按键错误时屏幕中会出现<span style=""color:red""> X </span>，需要按另一个键纠正才能继续<br/><p/>
    请把双手食指分别放在键盘的“E”键和“I”键上<p/>
    按<空格键>开始
    </p></div>"," ","html-keyboard-response","107","260579","0.0-6.0-1.0-7.0","3","3","3","3","2","3","3","3","3","4","4","2","1","4","3","4","3","4","4","5","4","5","4","4","3","4","4","4","2","1","0","1","1","0","1","1","1","0","1","1","0","1","0","1","5","3","4","2","3","4","3","5","4","3","2","796469535413772289","杨","446","","","","","","","","","","","","","","","","","","","","","","","","","","","","","","","","","","","","","","","","","",""
"null","","null","html-keyboard-response","108","260833","0.0-6.0-1.0-8.0-0.0","3","3","3","3","2","3","3","3","3","4","4","2","1","4","3","4","3","4","4","5","4","5","4","4","3","4","4","4","2","1","0","1","1","0","1","1","1","0","1","1","0","1","0","1","5","3","4","2","3","4","3","5","4","3","2","796469535413772289","杨","446","","","","","","","","","","","","","","","","","","","","","","","","","","","","","","","","","","","","","","","","","",""
"1951","<p style=""color:rgb(150, 250, 100); font-size: 35px;"">他人</p>","e","categorize-html","109","262795","0.0-6.0-1.0-8.0-1.0","3","3","3","3","2","3","3","3","3","4","4","2","1","4","3","4","3","4","4","5","4","5","4","4","3","4","4","4","2","1","0","1","1","0","1","1","1","0","1","1","0","1","0","1","5","3","4","2","3","4","3","5","4","3","2","796469535413772289","杨","446","","","","","","","","","","","","","","","","","","","true","14","4","moral","1951","other","他人","","","","","","","","","","","","","","","","",""
"null","","null","html-keyboard-response","110","263049","0.0-6.0-1.0-8.0-0.1","3","3","3","3","2","3","3","3","3","4","4","2","1","4","3","4","3","4","4","5","4","5","4","4","3","4","4","4","2","1","0","1","1","0","1","1","1","0","1","1","0","1","0","1","5","3","4","2","3","4","3","5","4","3","2","796469535413772289","杨","446","","","","","","","","","","","","","","","","","","","","","","","","","","","","","","","","","","","","","","","","","",""
"540","<p style=""color:white; font-size: 35px;"">不孝</p>","e","categorize-html","111","263596","0.0-6.0-1.0-8.0-1.1","3","3","3","3","2","3","3","3","3","4","4","2","1","4","3","4","3","4","4","5","4","5","4","4","3","4","4","4","2","1","0","1","1","0","1","1","1","0","1","1","0","1","0","1","5","3","4","2","3","4","3","5","4","3","2","796469535413772289","杨","446","","","","","","","","","","","","","","","","","","","true","14","4","moral","540","negative","不孝","","","","","","","","","","","","","","","","",""
"null","","null","html-keyboard-response","112","263850","0.0-6.0-1.0-8.0-0.2","3","3","3","3","2","3","3","3","3","4","4","2","1","4","3","4","3","4","4","5","4","5","4","4","3","4","4","4","2","1","0","1","1","0","1","1","1","0","1","1","0","1","0","1","5","3","4","2","3","4","3","5","4","3","2","796469535413772289","杨","446","","","","","","","","","","","","","","","","","","","","","","","","","","","","","","","","","","","","","","","","","",""
"1830","<p style=""color:rgb(150, 250, 100); font-size: 35px;"">自己</p>","i","categorize-html","113","265685","0.0-6.0-1.0-8.0-1.2","3","3","3","3","2","3","3","3","3","4","4","2","1","4","3","4","3","4","4","5","4","5","4","4","3","4","4","4","2","1","0","1","1","0","1","1","1","0","1","1","0","1","0","1","5","3","4","2","3","4","3","5","4","3","2","796469535413772289","杨","446","","","","","","","","","","","","","","","","","","","true","14","4","moral","1830","self","自己","","","","","","","","","","","","","","","","",""
"null","","null","html-keyboard-response","114","265939","0.0-6.0-1.0-8.0-0.3","3","3","3","3","2","3","3","3","3","4","4","2","1","4","3","4","3","4","4","5","4","5","4","4","3","4","4","4","2","1","0","1","1","0","1","1","1","0","1","1","0","1","0","1","5","3","4","2","3","4","3","5","4","3","2","796469535413772289","杨","446","","","","","","","","","","","","","","","","","","","","","","","","","","","","","","","","","","","","","","","","","",""
"591","<p style=""color:white; font-size: 35px;"">善良</p>","i","categorize-html","115","266537","0.0-6.0-1.0-8.0-1.3","3","3","3","3","2","3","3","3","3","4","4","2","1","4","3","4","3","4","4","5","4","5","4","4","3","4","4","4","2","1","0","1","1","0","1","1","1","0","1","1","0","1","0","1","5","3","4","2","3","4","3","5","4","3","2","796469535413772289","杨","446","","","","","","","","","","","","","","","","","","","true","14","4","moral","591","positive","善良","","","","","","","","","","","","","","","","",""
"null","","null","html-keyboard-response","116","266791","0.0-6.0-1.0-8.0-0.4","3","3","3","3","2","3","3","3","3","4","4","2","1","4","3","4","3","4","4","5","4","5","4","4","3","4","4","4","2","1","0","1","1","0","1","1","1","0","1","1","0","1","0","1","5","3","4","2","3","4","3","5","4","3","2","796469535413772289","杨","446","","","","","","","","","","","","","","","","","","","","","","","","","","","","","","","","","","","","","","","","","",""
"635","<p style=""color:rgb(150, 250, 100); font-size: 35px;"">他</p>","e","categorize-html","117","267433","0.0-6.0-1.0-8.0-1.4","3","3","3","3","2","3","3","3","3","4","4","2","1","4","3","4","3","4","4","5","4","5","4","4","3","4","4","4","2","1","0","1","1","0","1","1","1","0","1","1","0","1","0","1","5","3","4","2","3","4","3","5","4","3","2","796469535413772289","杨","446","","","","","","","","","","","","","","","","","","","true","14","4","moral","635","other","他","","","","","","","","","","","","","","","","",""
"null","","null","html-keyboard-response","118","267686","0.0-6.0-1.0-8.0-0.5","3","3","3","3","2","3","3","3","3","4","4","2","1","4","3","4","3","4","4","5","4","5","4","4","3","4","4","4","2","1","0","1","1","0","1","1","1","0","1","1","0","1","0","1","5","3","4","2","3","4","3","5","4","3","2","796469535413772289","杨","446","","","","","","","","","","","","","","","","","","","","","","","","","","","","","","","","","","","","","","","","","",""
"538","<p style=""color:white; font-size: 35px;"">卑鄙</p>","e","categorize-html","119","268229","0.0-6.0-1.0-8.0-1.5","3","3","3","3","2","3","3","3","3","4","4","2","1","4","3","4","3","4","4","5","4","5","4","4","3","4","4","4","2","1","0","1","1","0","1","1","1","0","1","1","0","1","0","1","5","3","4","2","3","4","3","5","4","3","2","796469535413772289","杨","446","","","","","","","","","","","","","","","","","","","true","14","4","moral","538","negative","卑鄙","","","","","","","","","","","","","","","","",""
"null","","null","html-keyboard-response","120","268482","0.0-6.0-1.0-8.0-0.6","3","3","3","3","2","3","3","3","3","4","4","2","1","4","3","4","3","4","4","5","4","5","4","4","3","4","4","4","2","1","0","1","1","0","1","1","1","0","1","1","0","1","0","1","5","3","4","2","3","4","3","5","4","3","2","796469535413772289","杨","446","","","","","","","","","","","","","","","","","","","","","","","","","","","","","","","","","","","","","","","","","",""
"494","<p style=""color:rgb(150, 250, 100); font-size: 35px;"">自己</p>","i","categorize-html","121","268980","0.0-6.0-1.0-8.0-1.6","3","3","3","3","2","3","3","3","3","4","4","2","1","4","3","4","3","4","4","5","4","5","4","4","3","4","4","4","2","1","0","1","1","0","1","1","1","0","1","1","0","1","0","1","5","3","4","2","3","4","3","5","4","3","2","796469535413772289","杨","446","","","","","","","","","","","","","","","","","","","true","14","4","moral","494","self","自己","","","","","","","","","","","","","","","","",""
"null","","null","html-keyboard-response","122","269234","0.0-6.0-1.0-8.0-0.7","3","3","3","3","2","3","3","3","3","4","4","2","1","4","3","4","3","4","4","5","4","5","4","4","3","4","4","4","2","1","0","1","1","0","1","1","1","0","1","1","0","1","0","1","5","3","4","2","3","4","3","5","4","3","2","796469535413772289","杨","446","","","","","","","","","","","","","","","","","","","","","","","","","","","","","","","","","","","","","","","","","",""
"534","<p style=""color:white; font-size: 35px;"">君子</p>","i","categorize-html","123","269778","0.0-6.0-1.0-8.0-1.7","3","3","3","3","2","3","3","3","3","4","4","2","1","4","3","4","3","4","4","5","4","5","4","4","3","4","4","4","2","1","0","1","1","0","1","1","1","0","1","1","0","1","0","1","5","3","4","2","3","4","3","5","4","3","2","796469535413772289","杨","446","","","","","","","","","","","","","","","","","","","true","14","4","moral","534","positive","君子","","","","","","","","","","","","","","","","",""
"null","","null","html-keyboard-response","124","270031","0.0-6.0-1.0-8.0-0.8","3","3","3","3","2","3","3","3","3","4","4","2","1","4","3","4","3","4","4","5","4","5","4","4","3","4","4","4","2","1","0","1","1","0","1","1","1","0","1","1","0","1","0","1","5","3","4","2","3","4","3","5","4","3","2","796469535413772289","杨","446","","","","","","","","","","","","","","","","","","","","","","","","","","","","","","","","","","","","","","","","","",""
"735","<p style=""color:rgb(150, 250, 100); font-size: 35px;"">他</p>","e","categorize-html","125","270774","0.0-6.0-1.0-8.0-1.8","3","3","3","3","2","3","3","3","3","4","4","2","1","4","3","4","3","4","4","5","4","5","4","4","3","4","4","4","2","1","0","1","1","0","1","1","1","0","1","1","0","1","0","1","5","3","4","2","3","4","3","5","4","3","2","796469535413772289","杨","446","","","","","","","","","","","","","","","","","","","true","14","4","moral","735","other","他","","","","","","","","","","","","","","","","",""
"null","","null","html-keyboard-response","126","271027","0.0-6.0-1.0-8.0-0.9","3","3","3","3","2","3","3","3","3","4","4","2","1","4","3","4","3","4","4","5","4","5","4","4","3","4","4","4","2","1","0","1","1","0","1","1","1","0","1","1","0","1","0","1","5","3","4","2","3","4","3","5","4","3","2","796469535413772289","杨","446","","","","","","","","","","","","","","","","","","","","","","","","","","","","","","","","","","","","","","","","","",""
"546","<p style=""color:white; font-size: 35px;"">诚信</p>","i","categorize-html","127","271580","0.0-6.0-1.0-8.0-1.9","3","3","3","3","2","3","3","3","3","4","4","2","1","4","3","4","3","4","4","5","4","5","4","4","3","4","4","4","2","1","0","1","1","0","1","1","1","0","1","1","0","1","0","1","5","3","4","2","3","4","3","5","4","3","2","796469535413772289","杨","446","","","","","","","","","","","","","","","","","","","true","14","4","moral","546","positive","诚信","","","","","","","","","","","","","","","","",""
"null","","null","html-keyboard-response","128","271832","0.0-6.0-1.0-8.0-0.10","3","3","3","3","2","3","3","3","3","4","4","2","1","4","3","4","3","4","4","5","4","5","4","4","3","4","4","4","2","1","0","1","1","0","1","1","1","0","1","1","0","1","0","1","5","3","4","2","3","4","3","5","4","3","2","796469535413772289","杨","446","","","","","","","","","","","","","","","","","","","","","","","","","","","","","","","","","","","","","","","","","",""
"751","<p style=""color:rgb(150, 250, 100); font-size: 35px;"">本人</p>","i","categorize-html","129","272591","0.0-6.0-1.0-8.0-1.10","3","3","3","3","2","3","3","3","3","4","4","2","1","4","3","4","3","4","4","5","4","5","4","4","3","4","4","4","2","1","0","1","1","0","1","1","1","0","1","1","0","1","0","1","5","3","4","2","3","4","3","5","4","3","2","796469535413772289","杨","446","","","","","","","","","","","","","","","","","","","true","14","4","moral","751","self","本人","","","","","","","","","","","","","","","","",""
"null","","null","html-keyboard-response","130","272846","0.0-6.0-1.0-8.0-0.11","3","3","3","3","2","3","3","3","3","4","4","2","1","4","3","4","3","4","4","5","4","5","4","4","3","4","4","4","2","1","0","1","1","0","1","1","1","0","1","1","0","1","0","1","5","3","4","2","3","4","3","5","4","3","2","796469535413772289","杨","446","","","","","","","","","","","","","","","","","","","","","","","","","","","","","","","","","","","","","","","","","",""
"519","<p style=""color:white; font-size: 35px;"">缺德</p>","e","categorize-html","131","273378","0.0-6.0-1.0-8.0-1.11","3","3","3","3","2","3","3","3","3","4","4","2","1","4","3","4","3","4","4","5","4","5","4","4","3","4","4","4","2","1","0","1","1","0","1","1","1","0","1","1","0","1","0","1","5","3","4","2","3","4","3","5","4","3","2","796469535413772289","杨","446","","","","","","","","","","","","","","","","","","","true","14","4","moral","519","negative","缺德","","","","","","","","","","","","","","","","",""
"null","","null","html-keyboard-response","132","273631","0.0-6.0-1.0-8.0-0.12","3","3","3","3","2","3","3","3","3","4","4","2","1","4","3","4","3","4","4","5","4","5","4","4","3","4","4","4","2","1","0","1","1","0","1","1","1","0","1","1","0","1","0","1","5","3","4","2","3","4","3","5","4","3","2","796469535413772289","杨","446","","","","","","","","","","","","","","","","","","","","","","","","","","","","","","","","","","","","","","","","","",""
"553","<p style=""color:rgb(150, 250, 100); font-size: 35px;"">他的</p>","e","categorize-html","133","274189","0.0-6.0-1.0-8.0-1.12","3","3","3","3","2","3","3","3","3","4","4","2","1","4","3","4","3","4","4","5","4","5","4","4","3","4","4","4","2","1","0","1","1","0","1","1","1","0","1","1","0","1","0","1","5","3","4","2","3","4","3","5","4","3","2","796469535413772289","杨","446","","","","","","","","","","","","","","","","","","","true","14","4","moral","553","other","他的","","","","","","","","","","","","","","","","",""
"null","","null","html-keyboard-response","134","274442","0.0-6.0-1.0-8.0-0.13","3","3","3","3","2","3","3","3","3","4","4","2","1","4","3","4","3","4","4","5","4","5","4","4","3","4","4","4","2","1","0","1","1","0","1","1","1","0","1","1","0","1","0","1","5","3","4","2","3","4","3","5","4","3","2","796469535413772289","杨","446","","","","","","","","","","","","","","","","","","","","","","","","","","","","","","","","","","","","","","","","","",""
"489","<p style=""color:white; font-size: 35px;"">善良</p>","i","categorize-html","135","274940","0.0-6.0-1.0-8.0-1.13","3","3","3","3","2","3","3","3","3","4","4","2","1","4","3","4","3","4","4","5","4","5","4","4","3","4","4","4","2","1","0","1","1","0","1","1","1","0","1","1","0","1","0","1","5","3","4","2","3","4","3","5","4","3","2","796469535413772289","杨","446","","","","","","","","","","","","","","","","","","","true","14","4","moral","489","positive","善良","","","","","","","","","","","","","","","","",""
"null","","null","html-keyboard-response","136","275192","0.0-6.0-1.0-8.0-0.14","3","3","3","3","2","3","3","3","3","4","4","2","1","4","3","4","3","4","4","5","4","5","4","4","3","4","4","4","2","1","0","1","1","0","1","1","1","0","1","1","0","1","0","1","5","3","4","2","3","4","3","5","4","3","2","796469535413772289","杨","446","","","","","","","","","","","","","","","","","","","","","","","","","","","","","","","","","","","","","","","","","",""
"506","<p style=""color:rgb(150, 250, 100); font-size: 35px;"">我的</p>","i","categorize-html","137","275710","0.0-6.0-1.0-8.0-1.14","3","3","3","3","2","3","3","3","3","4","4","2","1","4","3","4","3","4","4","5","4","5","4","4","3","4","4","4","2","1","0","1","1","0","1","1","1","0","1","1","0","1","0","1","5","3","4","2","3","4","3","5","4","3","2","796469535413772289","杨","446","","","","","","","","","","","","","","","","","","","true","14","4","moral","506","self","我的","","","","","","","","","","","","","","","","",""
"null","","null","html-keyboard-response","138","275962","0.0-6.0-1.0-8.0-0.15","3","3","3","3","2","3","3","3","3","4","4","2","1","4","3","4","3","4","4","5","4","5","4","4","3","4","4","4","2","1","0","1","1","0","1","1","1","0","1","1","0","1","0","1","5","3","4","2","3","4","3","5","4","3","2","796469535413772289","杨","446","","","","","","","","","","","","","","","","","","","","","","","","","","","","","","","","","","","","","","","","","",""
"482","<p style=""color:white; font-size: 35px;"">不仁</p>","e","categorize-html","139","276447","0.0-6.0-1.0-8.0-1.15","3","3","3","3","2","3","3","3","3","4","4","2","1","4","3","4","3","4","4","5","4","5","4","4","3","4","4","4","2","1","0","1","1","0","1","1","1","0","1","1","0","1","0","1","5","3","4","2","3","4","3","5","4","3","2","796469535413772289","杨","446","","","","","","","","","","","","","","","","","","","true","14","4","moral","482","negative","不仁","","","","","","","","","","","","","","","","",""
"null","","null","html-keyboard-response","140","276701","0.0-6.0-1.0-8.0-0.16","3","3","3","3","2","3","3","3","3","4","4","2","1","4","3","4","3","4","4","5","4","5","4","4","3","4","4","4","2","1","0","1","1","0","1","1","1","0","1","1","0","1","0","1","5","3","4","2","3","4","3","5","4","3","2","796469535413772289","杨","446","","","","","","","","","","","","","","","","","","","","","","","","","","","","","","","","","","","","","","","","","",""
"611","<p style=""color:rgb(150, 250, 100); font-size: 35px;"">他人的</p>","e","categorize-html","141","277320","0.0-6.0-1.0-8.0-1.16","3","3","3","3","2","3","3","3","3","4","4","2","1","4","3","4","3","4","4","5","4","5","4","4","3","4","4","4","2","1","0","1","1","0","1","1","1","0","1","1","0","1","0","1","5","3","4","2","3","4","3","5","4","3","2","796469535413772289","杨","446","","","","","","","","","","","","","","","","","","","true","14","4","moral","611","other","他人的","","","","","","","","","","","","","","","","",""
"null","","null","html-keyboard-response","142","277572","0.0-6.0-1.0-8.0-0.17","3","3","3","3","2","3","3","3","3","4","4","2","1","4","3","4","3","4","4","5","4","5","4","4","3","4","4","4","2","1","0","1","1","0","1","1","1","0","1","1","0","1","0","1","5","3","4","2","3","4","3","5","4","3","2","796469535413772289","杨","446","","","","","","","","","","","","","","","","","","","","","","","","","","","","","","","","","","","","","","","","","",""
"479","<p style=""color:white; font-size: 35px;"">廉正</p>","i","categorize-html","143","278056","0.0-6.0-1.0-8.0-1.17","3","3","3","3","2","3","3","3","3","4","4","2","1","4","3","4","3","4","4","5","4","5","4","4","3","4","4","4","2","1","0","1","1","0","1","1","1","0","1","1","0","1","0","1","5","3","4","2","3","4","3","5","4","3","2","796469535413772289","杨","446","","","","","","","","","","","","","","","","","","","true","14","4","moral","479","positive","廉正","","","","","","","","","","","","","","","","",""
"null","","null","html-keyboard-response","144","278308","0.0-6.0-1.0-8.0-0.18","3","3","3","3","2","3","3","3","3","4","4","2","1","4","3","4","3","4","4","5","4","5","4","4","3","4","4","4","2","1","0","1","1","0","1","1","1","0","1","1","0","1","0","1","5","3","4","2","3","4","3","5","4","3","2","796469535413772289","杨","446","","","","","","","","","","","","","","","","","","","","","","","","","","","","","","","","","","","","","","","","","",""
"588","<p style=""color:rgb(150, 250, 100); font-size: 35px;"">本人</p>","i","categorize-html","145","278905","0.0-6.0-1.0-8.0-1.18","3","3","3","3","2","3","3","3","3","4","4","2","1","4","3","4","3","4","4","5","4","5","4","4","3","4","4","4","2","1","0","1","1","0","1","1","1","0","1","1","0","1","0","1","5","3","4","2","3","4","3","5","4","3","2","796469535413772289","杨","446","","","","","","","","","","","","","","","","","","","true","14","4","moral","588","self","本人","","","","","","","","","","","","","","","","",""
"null","","null","html-keyboard-response","146","279158","0.0-6.0-1.0-8.0-0.19","3","3","3","3","2","3","3","3","3","4","4","2","1","4","3","4","3","4","4","5","4","5","4","4","3","4","4","4","2","1","0","1","1","0","1","1","1","0","1","1","0","1","0","1","5","3","4","2","3","4","3","5","4","3","2","796469535413772289","杨","446","","","","","","","","","","","","","","","","","","","","","","","","","","","","","","","","","","","","","","","","","",""
"1406","<p style=""color:white; font-size: 35px;"">小人</p>","e","categorize-html","147","280571","0.0-6.0-1.0-8.0-1.19","3","3","3","3","2","3","3","3","3","4","4","2","1","4","3","4","3","4","4","5","4","5","4","4","3","4","4","4","2","1","0","1","1","0","1","1","1","0","1","1","0","1","0","1","5","3","4","2","3","4","3","5","4","3","2","796469535413772289","杨","446","","","","","","","","","","","","","","","","","","","true","14","4","moral","1406","negative","小人","","","","","","","","","","","","","","","","",""
"null","","null","html-keyboard-response","148","280824","0.0-6.0-1.0-8.0-0.20","3","3","3","3","2","3","3","3","3","4","4","2","1","4","3","4","3","4","4","5","4","5","4","4","3","4","4","4","2","1","0","1","1","0","1","1","1","0","1","1","0","1","0","1","5","3","4","2","3","4","3","5","4","3","2","796469535413772289","杨","446","","","","","","","","","","","","","","","","","","","","","","","","","","","","","","","","","","","","","","","","","",""
"635","<p style=""color:rgb(150, 250, 100); font-size: 35px;"">别人的</p>","e","categorize-html","149","281469","0.0-6.0-1.0-8.0-1.20","3","3","3","3","2","3","3","3","3","4","4","2","1","4","3","4","3","4","4","5","4","5","4","4","3","4","4","4","2","1","0","1","1","0","1","1","1","0","1","1","0","1","0","1","5","3","4","2","3","4","3","5","4","3","2","796469535413772289","杨","446","","","","","","","","","","","","","","","","","","","true","14","4","moral","635","other","别人的","","","","","","","","","","","","","","","","",""
"null","","null","html-keyboard-response","150","281723","0.0-6.0-1.0-8.0-0.21","3","3","3","3","2","3","3","3","3","4","4","2","1","4","3","4","3","4","4","5","4","5","4","4","3","4","4","4","2","1","0","1","1","0","1","1","1","0","1","1","0","1","0","1","5","3","4","2","3","4","3","5","4","3","2","796469535413772289","杨","446","","","","","","","","","","","","","","","","","","","","","","","","","","","","","","","","","","","","","","","","","",""
"575","<p style=""color:white; font-size: 35px;"">黑心</p>","e","categorize-html","151","282306","0.0-6.0-1.0-8.0-1.21","3","3","3","3","2","3","3","3","3","4","4","2","1","4","3","4","3","4","4","5","4","5","4","4","3","4","4","4","2","1","0","1","1","0","1","1","1","0","1","1","0","1","0","1","5","3","4","2","3","4","3","5","4","3","2","796469535413772289","杨","446","","","","","","","","","","","","","","","","","","","true","14","4","moral","575","negative","黑心","","","","","","","","","","","","","","","","",""
"null","","null","html-keyboard-response","152","282557","0.0-6.0-1.0-8.0-0.22","3","3","3","3","2","3","3","3","3","4","4","2","1","4","3","4","3","4","4","5","4","5","4","4","3","4","4","4","2","1","0","1","1","0","1","1","1","0","1","1","0","1","0","1","5","3","4","2","3","4","3","5","4","3","2","796469535413772289","杨","446","","","","","","","","","","","","","","","","","","","","","","","","","","","","","","","","","","","","","","","","","",""
"671","<p style=""color:rgb(150, 250, 100); font-size: 35px;"">我的</p>","i","categorize-html","153","283234","0.0-6.0-1.0-8.0-1.22","3","3","3","3","2","3","3","3","3","4","4","2","1","4","3","4","3","4","4","5","4","5","4","4","3","4","4","4","2","1","0","1","1","0","1","1","1","0","1","1","0","1","0","1","5","3","4","2","3","4","3","5","4","3","2","796469535413772289","杨","446","","","","","","","","","","","","","","","","","","","true","14","4","moral","671","self","我的","","","","","","","","","","","","","","","","",""
"null","","null","html-keyboard-response","154","283489","0.0-6.0-1.0-8.0-0.23","3","3","3","3","2","3","3","3","3","4","4","2","1","4","3","4","3","4","4","5","4","5","4","4","3","4","4","4","2","1","0","1","1","0","1","1","1","0","1","1","0","1","0","1","5","3","4","2","3","4","3","5","4","3","2","796469535413772289","杨","446","","","","","","","","","","","","","","","","","","","","","","","","","","","","","","","","","","","","","","","","","",""
"400","<p style=""color:white; font-size: 35px;"">诚信</p>","i","categorize-html","155","283897","0.0-6.0-1.0-8.0-1.23","3","3","3","3","2","3","3","3","3","4","4","2","1","4","3","4","3","4","4","5","4","5","4","4","3","4","4","4","2","1","0","1","1","0","1","1","1","0","1","1","0","1","0","1","5","3","4","2","3","4","3","5","4","3","2","796469535413772289","杨","446","","","","","","","","","","","","","","","","","","","true","14","4","moral","400","positive","诚信","","","","","","","","","","","","","","","","",""
"null","","null","html-keyboard-response","156","284149","0.0-6.0-1.0-8.0-0.24","3","3","3","3","2","3","3","3","3","4","4","2","1","4","3","4","3","4","4","5","4","5","4","4","3","4","4","4","2","1","0","1","1","0","1","1","1","0","1","1","0","1","0","1","5","3","4","2","3","4","3","5","4","3","2","796469535413772289","杨","446","","","","","","","","","","","","","","","","","","","","","","","","","","","","","","","","","","","","","","","","","",""
"657","<p style=""color:rgb(150, 250, 100); font-size: 35px;"">别人</p>","e","categorize-html","157","284810","0.0-6.0-1.0-8.0-1.24","3","3","3","3","2","3","3","3","3","4","4","2","1","4","3","4","3","4","4","5","4","5","4","4","3","4","4","4","2","1","0","1","1","0","1","1","1","0","1","1","0","1","0","1","5","3","4","2","3","4","3","5","4","3","2","796469535413772289","杨","446","","","","","","","","","","","","","","","","","","","true","14","4","moral","657","other","别人","","","","","","","","","","","","","","","","",""
"null","","null","html-keyboard-response","158","285062","0.0-6.0-1.0-8.0-0.25","3","3","3","3","2","3","3","3","3","4","4","2","1","4","3","4","3","4","4","5","4","5","4","4","3","4","4","4","2","1","0","1","1","0","1","1","1","0","1","1","0","1","0","1","5","3","4","2","3","4","3","5","4","3","2","796469535413772289","杨","446","","","","","","","","","","","","","","","","","","","","","","","","","","","","","","","","","","","","","","","","","",""
"548","<p style=""color:white; font-size: 35px;"">黑心</p>","e","categorize-html","159","285616","0.0-6.0-1.0-8.0-1.25","3","3","3","3","2","3","3","3","3","4","4","2","1","4","3","4","3","4","4","5","4","5","4","4","3","4","4","4","2","1","0","1","1","0","1","1","1","0","1","1","0","1","0","1","5","3","4","2","3","4","3","5","4","3","2","796469535413772289","杨","446","","","","","","","","","","","","","","","","","","","true","14","4","moral","548","negative","黑心","","","","","","","","","","","","","","","","",""
"null","","null","html-keyboard-response","160","285870","0.0-6.0-1.0-8.0-0.26","3","3","3","3","2","3","3","3","3","4","4","2","1","4","3","4","3","4","4","5","4","5","4","4","3","4","4","4","2","1","0","1","1","0","1","1","1","0","1","1","0","1","0","1","5","3","4","2","3","4","3","5","4","3","2","796469535413772289","杨","446","","","","","","","","","","","","","","","","","","","","","","","","","","","","","","","","","","","","","","","","","",""
"403","<p style=""color:rgb(150, 250, 100); font-size: 35px;"">我</p>","i","categorize-html","161","286283","0.0-6.0-1.0-8.0-1.26","3","3","3","3","2","3","3","3","3","4","4","2","1","4","3","4","3","4","4","5","4","5","4","4","3","4","4","4","2","1","0","1","1","0","1","1","1","0","1","1","0","1","0","1","5","3","4","2","3","4","3","5","4","3","2","796469535413772289","杨","446","","","","","","","","","","","","","","","","","","","true","14","4","moral","403","self","我","","","","","","","","","","","","","","","","",""
"null","","null","html-keyboard-response","162","286536","0.0-6.0-1.0-8.0-0.27","3","3","3","3","2","3","3","3","3","4","4","2","1","4","3","4","3","4","4","5","4","5","4","4","3","4","4","4","2","1","0","1","1","0","1","1","1","0","1","1","0","1","0","1","5","3","4","2","3","4","3","5","4","3","2","796469535413772289","杨","446","","","","","","","","","","","","","","","","","","","","","","","","","","","","","","","","","","","","","","","","","",""
"505","<p style=""color:white; font-size: 35px;"">高尚</p>","i","categorize-html","163","287049","0.0-6.0-1.0-8.0-1.27","3","3","3","3","2","3","3","3","3","4","4","2","1","4","3","4","3","4","4","5","4","5","4","4","3","4","4","4","2","1","0","1","1","0","1","1","1","0","1","1","0","1","0","1","5","3","4","2","3","4","3","5","4","3","2","796469535413772289","杨","446","","","","","","","","","","","","","","","","","","","true","14","4","moral","505","positive","高尚","","","","","","","","","","","","","","","","",""
"null","","null","html-keyboard-response","164","287300","0.0-6.0-1.0-8.0-0.28","3","3","3","3","2","3","3","3","3","4","4","2","1","4","3","4","3","4","4","5","4","5","4","4","3","4","4","4","2","1","0","1","1","0","1","1","1","0","1","1","0","1","0","1","5","3","4","2","3","4","3","5","4","3","2","796469535413772289","杨","446","","","","","","","","","","","","","","","","","","","","","","","","","","","","","","","","","","","","","","","","","",""
"490","<p style=""color:rgb(150, 250, 100); font-size: 35px;"">他人的</p>","e","categorize-html","165","287799","0.0-6.0-1.0-8.0-1.28","3","3","3","3","2","3","3","3","3","4","4","2","1","4","3","4","3","4","4","5","4","5","4","4","3","4","4","4","2","1","0","1","1","0","1","1","1","0","1","1","0","1","0","1","5","3","4","2","3","4","3","5","4","3","2","796469535413772289","杨","446","","","","","","","","","","","","","","","","","","","true","14","4","moral","490","other","他人的","","","","","","","","","","","","","","","","",""
"null","","null","html-keyboard-response","166","288052","0.0-6.0-1.0-8.0-0.29","3","3","3","3","2","3","3","3","3","4","4","2","1","4","3","4","3","4","4","5","4","5","4","4","3","4","4","4","2","1","0","1","1","0","1","1","1","0","1","1","0","1","0","1","5","3","4","2","3","4","3","5","4","3","2","796469535413772289","杨","446","","","","","","","","","","","","","","","","","","","","","","","","","","","","","","","","","","","","","","","","","",""
"550","<p style=""color:white; font-size: 35px;"">正直</p>","i","categorize-html","167","288609","0.0-6.0-1.0-8.0-1.29","3","3","3","3","2","3","3","3","3","4","4","2","1","4","3","4","3","4","4","5","4","5","4","4","3","4","4","4","2","1","0","1","1","0","1","1","1","0","1","1","0","1","0","1","5","3","4","2","3","4","3","5","4","3","2","796469535413772289","杨","446","","","","","","","","","","","","","","","","","","","true","14","4","moral","550","positive","正直","","","","","","","","","","","","","","","","",""
"null","","null","html-keyboard-response","168","288861","0.0-6.0-1.0-8.0-0.30","3","3","3","3","2","3","3","3","3","4","4","2","1","4","3","4","3","4","4","5","4","5","4","4","3","4","4","4","2","1","0","1","1","0","1","1","1","0","1","1","0","1","0","1","5","3","4","2","3","4","3","5","4","3","2","796469535413772289","杨","446","","","","","","","","","","","","","","","","","","","","","","","","","","","","","","","","","","","","","","","","","",""
"489","<p style=""color:rgb(150, 250, 100); font-size: 35px;"">我</p>","i","categorize-html","169","289353","0.0-6.0-1.0-8.0-1.30","3","3","3","3","2","3","3","3","3","4","4","2","1","4","3","4","3","4","4","5","4","5","4","4","3","4","4","4","2","1","0","1","1","0","1","1","1","0","1","1","0","1","0","1","5","3","4","2","3","4","3","5","4","3","2","796469535413772289","杨","446","","","","","","","","","","","","","","","","","","","true","14","4","moral","489","self","我","","","","","","","","","","","","","","","","",""
"null","","null","html-keyboard-response","170","289606","0.0-6.0-1.0-8.0-0.31","3","3","3","3","2","3","3","3","3","4","4","2","1","4","3","4","3","4","4","5","4","5","4","4","3","4","4","4","2","1","0","1","1","0","1","1","1","0","1","1","0","1","0","1","5","3","4","2","3","4","3","5","4","3","2","796469535413772289","杨","446","","","","","","","","","","","","","","","","","","","","","","","","","","","","","","","","","","","","","","","","","",""
"594","<p style=""color:white; font-size: 35px;"">卑鄙</p>","e","categorize-html","171","290209","0.0-6.0-1.0-8.0-1.31","3","3","3","3","2","3","3","3","3","4","4","2","1","4","3","4","3","4","4","5","4","5","4","4","3","4","4","4","2","1","0","1","1","0","1","1","1","0","1","1","0","1","0","1","5","3","4","2","3","4","3","5","4","3","2","796469535413772289","杨","446","","","","","","","","","","","","","","","","","","","true","14","4","moral","594","negative","卑鄙","","","","","","","","","","","","","","","","",""
"null","","null","html-keyboard-response","172","290462","0.0-6.0-1.0-8.0-0.32","3","3","3","3","2","3","3","3","3","4","4","2","1","4","3","4","3","4","4","5","4","5","4","4","3","4","4","4","2","1","0","1","1","0","1","1","1","0","1","1","0","1","0","1","5","3","4","2","3","4","3","5","4","3","2","796469535413772289","杨","446","","","","","","","","","","","","","","","","","","","","","","","","","","","","","","","","","","","","","","","","","",""
"616","<p style=""color:rgb(150, 250, 100); font-size: 35px;"">本人的</p>","i","categorize-html","173","291083","0.0-6.0-1.0-8.0-1.32","3","3","3","3","2","3","3","3","3","4","4","2","1","4","3","4","3","4","4","5","4","5","4","4","3","4","4","4","2","1","0","1","1","0","1","1","1","0","1","1","0","1","0","1","5","3","4","2","3","4","3","5","4","3","2","796469535413772289","杨","446","","","","","","","","","","","","","","","","","","","true","14","4","moral","616","self","本人的","","","","","","","","","","","","","","","","",""
"null","","null","html-keyboard-response","174","291335","0.0-6.0-1.0-8.0-0.33","3","3","3","3","2","3","3","3","3","4","4","2","1","4","3","4","3","4","4","5","4","5","4","4","3","4","4","4","2","1","0","1","1","0","1","1","1","0","1","1","0","1","0","1","5","3","4","2","3","4","3","5","4","3","2","796469535413772289","杨","446","","","","","","","","","","","","","","","","","","","","","","","","","","","","","","","","","","","","","","","","","",""
"603","<p style=""color:white; font-size: 35px;"">高尚</p>","i","categorize-html","175","291942","0.0-6.0-1.0-8.0-1.33","3","3","3","3","2","3","3","3","3","4","4","2","1","4","3","4","3","4","4","5","4","5","4","4","3","4","4","4","2","1","0","1","1","0","1","1","1","0","1","1","0","1","0","1","5","3","4","2","3","4","3","5","4","3","2","796469535413772289","杨","446","","","","","","","","","","","","","","","","","","","true","14","4","moral","603","positive","高尚","","","","","","","","","","","","","","","","",""
"null","","null","html-keyboard-response","176","292194","0.0-6.0-1.0-8.0-0.34","3","3","3","3","2","3","3","3","3","4","4","2","1","4","3","4","3","4","4","5","4","5","4","4","3","4","4","4","2","1","0","1","1","0","1","1","1","0","1","1","0","1","0","1","5","3","4","2","3","4","3","5","4","3","2","796469535413772289","杨","446","","","","","","","","","","","","","","","","","","","","","","","","","","","","","","","","","","","","","","","","","",""
"529","<p style=""color:rgb(150, 250, 100); font-size: 35px;"">他人</p>","e","categorize-html","177","292732","0.0-6.0-1.0-8.0-1.34","3","3","3","3","2","3","3","3","3","4","4","2","1","4","3","4","3","4","4","5","4","5","4","4","3","4","4","4","2","1","0","1","1","0","1","1","1","0","1","1","0","1","0","1","5","3","4","2","3","4","3","5","4","3","2","796469535413772289","杨","446","","","","","","","","","","","","","","","","","","","true","14","4","moral","529","other","他人","","","","","","","","","","","","","","","","",""
"null","","null","html-keyboard-response","178","292986","0.0-6.0-1.0-8.0-0.35","3","3","3","3","2","3","3","3","3","4","4","2","1","4","3","4","3","4","4","5","4","5","4","4","3","4","4","4","2","1","0","1","1","0","1","1","1","0","1","1","0","1","0","1","5","3","4","2","3","4","3","5","4","3","2","796469535413772289","杨","446","","","","","","","","","","","","","","","","","","","","","","","","","","","","","","","","","","","","","","","","","",""
"634","<p style=""color:white; font-size: 35px;"">不孝</p>","e","categorize-html","179","293627","0.0-6.0-1.0-8.0-1.35","3","3","3","3","2","3","3","3","3","4","4","2","1","4","3","4","3","4","4","5","4","5","4","4","3","4","4","4","2","1","0","1","1","0","1","1","1","0","1","1","0","1","0","1","5","3","4","2","3","4","3","5","4","3","2","796469535413772289","杨","446","","","","","","","","","","","","","","","","","","","true","14","4","moral","634","negative","不孝","","","","","","","","","","","","","","","","",""
"null","","null","html-keyboard-response","180","293880","0.0-6.0-1.0-8.0-0.36","3","3","3","3","2","3","3","3","3","4","4","2","1","4","3","4","3","4","4","5","4","5","4","4","3","4","4","4","2","1","0","1","1","0","1","1","1","0","1","1","0","1","0","1","5","3","4","2","3","4","3","5","4","3","2","796469535413772289","杨","446","","","","","","","","","","","","","","","","","","","","","","","","","","","","","","","","","","","","","","","","","",""
"664","<p style=""color:rgb(150, 250, 100); font-size: 35px;"">自己的</p>","i","categorize-html","181","294552","0.0-6.0-1.0-8.0-1.36","3","3","3","3","2","3","3","3","3","4","4","2","1","4","3","4","3","4","4","5","4","5","4","4","3","4","4","4","2","1","0","1","1","0","1","1","1","0","1","1","0","1","0","1","5","3","4","2","3","4","3","5","4","3","2","796469535413772289","杨","446","","","","","","","","","","","","","","","","","","","true","14","4","moral","664","self","自己的","","","","","","","","","","","","","","","","",""
"null","","null","html-keyboard-response","182","294807","0.0-6.0-1.0-8.0-0.37","3","3","3","3","2","3","3","3","3","4","4","2","1","4","3","4","3","4","4","5","4","5","4","4","3","4","4","4","2","1","0","1","1","0","1","1","1","0","1","1","0","1","0","1","5","3","4","2","3","4","3","5","4","3","2","796469535413772289","杨","446","","","","","","","","","","","","","","","","","","","","","","","","","","","","","","","","","","","","","","","","","",""
"940","<p style=""color:white; font-size: 35px;"">不仁</p>","e","categorize-html","183","295751","0.0-6.0-1.0-8.0-1.37","3","3","3","3","2","3","3","3","3","4","4","2","1","4","3","4","3","4","4","5","4","5","4","4","3","4","4","4","2","1","0","1","1","0","1","1","1","0","1","1","0","1","0","1","5","3","4","2","3","4","3","5","4","3","2","796469535413772289","杨","446","","","","","","","","","","","","","","","","","","","true","14","4","moral","940","negative","不仁","","","","","","","","","","","","","","","","",""
"null","","null","html-keyboard-response","184","296003","0.0-6.0-1.0-8.0-0.38","3","3","3","3","2","3","3","3","3","4","4","2","1","4","3","4","3","4","4","5","4","5","4","4","3","4","4","4","2","1","0","1","1","0","1","1","1","0","1","1","0","1","0","1","5","3","4","2","3","4","3","5","4","3","2","796469535413772289","杨","446","","","","","","","","","","","","","","","","","","","","","","","","","","","","","","","","","","","","","","","","","",""
"459","<p style=""color:rgb(150, 250, 100); font-size: 35px;"">别人</p>","i","categorize-html","185","297252","0.0-6.0-1.0-8.0-1.38","3","3","3","3","2","3","3","3","3","4","4","2","1","4","3","4","3","4","4","5","4","5","4","4","3","4","4","4","2","1","0","1","1","0","1","1","1","0","1","1","0","1","0","1","5","3","4","2","3","4","3","5","4","3","2","796469535413772289","杨","446","","","","","","","","","","","","","","","","","","","false","14","4","moral","1256.5106382978724","other","别人","","","","","","","","","","","","","","","","",""
"null","","null","html-keyboard-response","186","297505","0.0-6.0-1.0-8.0-0.39","3","3","3","3","2","3","3","3","3","4","4","2","1","4","3","4","3","4","4","5","4","5","4","4","3","4","4","4","2","1","0","1","1","0","1","1","1","0","1","1","0","1","0","1","5","3","4","2","3","4","3","5","4","3","2","796469535413772289","杨","446","","","","","","","","","","","","","","","","","","","","","","","","","","","","","","","","","","","","","","","","","",""
"575","<p style=""color:white; font-size: 35px;"">正直</p>","i","categorize-html","187","298085","0.0-6.0-1.0-8.0-1.39","3","3","3","3","2","3","3","3","3","4","4","2","1","4","3","4","3","4","4","5","4","5","4","4","3","4","4","4","2","1","0","1","1","0","1","1","1","0","1","1","0","1","0","1","5","3","4","2","3","4","3","5","4","3","2","796469535413772289","杨","446","","","","","","","","","","","","","","","","","","","true","14","4","moral","575","positive","正直","","","","","","","","","","","","","","","","",""
"null","","null","html-keyboard-response","188","298351","0.0-6.0-1.0-8.0-0.40","3","3","3","3","2","3","3","3","3","4","4","2","1","4","3","4","3","4","4","5","4","5","4","4","3","4","4","4","2","1","0","1","1","0","1","1","1","0","1","1","0","1","0","1","5","3","4","2","3","4","3","5","4","3","2","796469535413772289","杨","446","","","","","","","","","","","","","","","","","","","","","","","","","","","","","","","","","","","","","","","","","",""
"689","<p style=""color:rgb(150, 250, 100); font-size: 35px;"">他的</p>","e","categorize-html","189","299045","0.0-6.0-1.0-8.0-1.40","3","3","3","3","2","3","3","3","3","4","4","2","1","4","3","4","3","4","4","5","4","5","4","4","3","4","4","4","2","1","0","1","1","0","1","1","1","0","1","1","0","1","0","1","5","3","4","2","3","4","3","5","4","3","2","796469535413772289","杨","446","","","","","","","","","","","","","","","","","","","true","14","4","moral","689","other","他的","","","","","","","","","","","","","","","","",""
"null","","null","html-keyboard-response","190","299310","0.0-6.0-1.0-8.0-0.41","3","3","3","3","2","3","3","3","3","4","4","2","1","4","3","4","3","4","4","5","4","5","4","4","3","4","4","4","2","1","0","1","1","0","1","1","1","0","1","1","0","1","0","1","5","3","4","2","3","4","3","5","4","3","2","796469535413772289","杨","446","","","","","","","","","","","","","","","","","","","","","","","","","","","","","","","","","","","","","","","","","",""
"565","<p style=""color:white; font-size: 35px;"">君子</p>","i","categorize-html","191","299884","0.0-6.0-1.0-8.0-1.41","3","3","3","3","2","3","3","3","3","4","4","2","1","4","3","4","3","4","4","5","4","5","4","4","3","4","4","4","2","1","0","1","1","0","1","1","1","0","1","1","0","1","0","1","5","3","4","2","3","4","3","5","4","3","2","796469535413772289","杨","446","","","","","","","","","","","","","","","","","","","true","14","4","moral","565","positive","君子","","","","","","","","","","","","","","","","",""
"null","","null","html-keyboard-response","192","300137","0.0-6.0-1.0-8.0-0.42","3","3","3","3","2","3","3","3","3","4","4","2","1","4","3","4","3","4","4","5","4","5","4","4","3","4","4","4","2","1","0","1","1","0","1","1","1","0","1","1","0","1","0","1","5","3","4","2","3","4","3","5","4","3","2","796469535413772289","杨","446","","","","","","","","","","","","","","","","","","","","","","","","","","","","","","","","","","","","","","","","","",""
