"rt","stimulus","response","trial_type","trial_index","time_elapsed","internal_node_id","ses_1","ses_2","ses_3","ses_4","ses_5","ses_6","ses_7","ses_8","ses_9","ses_10","coreself_1","coreself_2","coreself_3","coreself_4","coreself_5","coreself_6","coreself_7","coreself_8","coreself_9","coreself_10","SGPS_1","SGPS_2","SGPS_3","SGPS_4","SGPS_5","SGPS_6","SGPS_7","SGPS_8","SGPS_9","NPI1","NPI2","NPI3","NPI4","NPI5","NPI6","NPI7","NPI8","NPI9","NPI10","NPI11","NPI12","NPI13","NPI14","NPI15","hsns_1","hsns_2","hsns_3","hsns_4","hsns_5","trap1","hsns_6","hsns_7","hsns_8","hsns_9","hsns_10","subj_idx","friend_name","ParticipantID","value","success","user_agent","responses","item_order","radio_event_ids","radio_event_times","key_event_times","mouse_event_times","straightlining","zigzagging","honeypot","timeout","failed_images","failed_audio","failed_video","view_history","response_type","key_press","avg_frame_time","center_x","center_y","correct_response","correct","identity","Image","word","condition","task_id","screen_id","time_stamp","version_attrib","version_target","IAT","RT","varname","summary","version_attrib2","version_target2","question_order","correct_answer","trap1_item"
"45787","
   <p><div style = ""color: white;font-size:25px;"">您好，欢迎参加本次实验。</div> </p>
   <p><div style = ""color: white;font-size:25px;"">为充分保障您的权利，请确保您已经知晓并同意《参与实验同意书》以及《数据公开知情同意书》。</div></p>
   <p><div style = ""color: white;font-size:25px;"">如果您未见过上述内容，请咨询实验员。</div></p>
   <p><div style = ""color: white;font-size:25px;"">如果您选择继续实验，则表示您已经清楚两份知情同意书的内容并同意。</div></p>
   <p><div style = ""color: pink;font-size:30px;"">请确保您记得day0的实验编号，您将在本次实验输入该编号，若您忘记，请咨询实验员后作答。</div></p>
   <p><div style = ""color: lightblue;font-size:25px;"">请您尽可能认真地作答，我们将依据您在各问卷和按键任务中的作答质量发放报酬。</div></p>
   <p> <div style = ""color: green;font-size:25px;""><按空格键至下页></div> </p>
   "," ","html-keyboard-response","0","45788","0.0-0.0","3","3","3","4","3","3","3","3","3","3","4","2","4","4","4","5","4","4","4","4","4","3","4","4","4","4","4","4","4","0","1","0","0","0","0","1","1","0","0","1","0","0","0","0","4","3","4","4","4","2","3","4","4","4","2","790996128928768002","徐","283","","","","","","","","","","","","","","","","","","","","","","","","","","","","","","","","","","","","","","","","","",""
"","","","call-function","1","45789","0.0-1.0-0.0","3","3","3","4","3","3","3","3","3","3","4","2","4","4","4","5","4","4","4","4","4","3","4","4","4","4","4","4","4","0","1","0","0","0","0","1","1","0","0","1","0","0","0","0","4","3","4","4","4","2","3","4","4","4","2","790996128928768002","徐","283","","","","","","","","","","","","","","","","","","","","","","","","","","","","","","","","","","","","","","","","","",""
"27463","","{""friend_name"":""徐"",""ParticipantID"":""283""}","survey-html-form","2","73253","0.0-1.0-1.0","3","3","3","4","3","3","3","3","3","3","4","2","4","4","4","5","4","4","4","4","4","3","4","4","4","4","4","4","4","0","1","0","0","0","0","1","1","0","0","1","0","0","0","0","4","3","4","4","4","2","3","4","4","4","2","790996128928768002","徐","283","","","","","","","","","","","","","","","","","","","","","","","","","","","","","","","","","","","","","","","","","",""
"","","","fullscreen","3","78450","0.0-2.0","3","3","3","4","3","3","3","3","3","3","4","2","4","4","4","5","4","4","4","4","4","3","4","4","4","4","4","4","4","0","1","0","0","0","0","1","1","0","0","1","0","0","0","0","4","3","4","4","4","2","3","4","4","4","2","790996128928768002","徐","283","","true","{}","","","","","","","","","","","","","","","","","","","","","","","","","","","","","","","","","","","","","","",""
"21617.900000095367","","{""Q01"":""3"",""Q02"":""3"",""Q03"":""3"",""Q04"":""4"",""Q05"":""3"",""Q06"":""3"",""Q07"":""3"",""Q08"":""3"",""Q09"":""3"",""Q10"":""3""}","survey-template","4","100070","0.0-3.0","3","3","3","4","3","3","3","3","3","3","4","2","4","4","4","5","4","4","4","4","4","3","4","4","4","4","4","4","4","0","1","0","0","0","0","1","1","0","0","1","0","0","0","0","4","3","4","4","4","2","3","4","4","4","2","790996128928768002","徐","283","","","","{""Q01"":""3"",""Q02"":""3"",""Q03"":""3"",""Q04"":""4"",""Q05"":""3"",""Q06"":""3"",""Q07"":""3"",""Q08"":""3"",""Q09"":""3"",""Q10"":""3""}","[0,1,2,3,4,5,6,7,8,9]","[""Q01"",""Q01"",""Q02"",""Q03"",""Q04"",""Q05"",""Q06"",""Q07"",""Q08"",""Q09"",""Q10""]","[4545.200000047684,5329.100000023842,7825.300000071526,9417.200000047684,11385,14138.900000095367,15377.200000047684,17248.900000095367,18620.200000047684,19905.400000095367,20832.900000095367]","[]","[3570,4545.200000047684,5329.100000023842,6401,7825.300000071526,9417.200000047684,11385,12793.100000023842,14138.900000095367,15377.200000047684,17248.900000095367,18620.200000047684,19905.400000095367,20832.900000095367,21617.200000047684]","0.5","0.3333333333333333","0","","","","","","","","","","","","","","","","","","","","","","","","","","","","","",""
"24979.800000071526","","{""Q01"":""4"",""Q02"":""2"",""Q03"":""4"",""Q04"":""4"",""Q05"":""4"",""Q06"":""5"",""Q07"":""4"",""Q08"":""4"",""Q09"":""4"",""Q10"":""4""}","survey-template","5","125053","0.0-4.0","3","3","3","4","3","3","3","3","3","3","4","2","4","4","4","5","4","4","4","4","4","3","4","4","4","4","4","4","4","0","1","0","0","0","0","1","1","0","0","1","0","0","0","0","4","3","4","4","4","2","3","4","4","4","2","790996128928768002","徐","283","","","","{""Q01"":""4"",""Q02"":""2"",""Q03"":""4"",""Q04"":""4"",""Q05"":""4"",""Q06"":""5"",""Q07"":""4"",""Q08"":""4"",""Q09"":""4"",""Q10"":""4""}","[0,1,2,3,4,5,6,7,8,9]","[""Q01"",""Q02"",""Q03"",""Q04"",""Q05"",""Q06"",""Q07"",""Q08"",""Q09"",""Q10""]","[2154.7000000476837,6331.200000047684,7490.899999976158,8779,13059,14211,17338.899999976158,19954.800000071526,22092.600000023842,23291]","[]","[2154.7000000476837,6331.200000047684,7490.899999976158,8779,10226.899999976158,13059,14211,17338.899999976158,18515.200000047684,19954.800000071526,22092.600000023842,23291,24979]","0.5","0","0","","","","","","","","","","","","","","","","","","","","","","","","","","","","","",""
"","","","preload","6","125348","0.0-5.0","3","3","3","4","3","3","3","3","3","3","4","2","4","4","4","5","4","4","4","4","4","3","4","4","4","4","4","4","4","0","1","0","0","0","0","1","1","0","0","1","0","0","0","0","4","3","4","4","4","2","3","4","4","4","2","790996128928768002","徐","283","","true","","","","","","","","","","","false","[]","[]","[]","","","","","","","","","","","","","","","","","","","","","","","","","",""
"7992","","","instructions","7","133340","0.0-6.0","3","3","3","4","3","3","3","3","3","3","4","2","4","4","4","5","4","4","4","4","4","3","4","4","4","4","4","4","4","0","1","0","0","0","0","1","1","0","0","1","0","0","0","0","4","3","4","4","4","2","3","4","4","4","2","790996128928768002","徐","283","","","","","","","","","","","","","","","","","[{""page_index"":0,""viewing_time"":7992}]","","","","","","","","","","","","","","","","","","","","","","","","",""
"18105","","","instructions","8","151446","0.0-7.0-0.0-0.0","3","3","3","4","3","3","3","3","3","3","4","2","4","4","4","5","4","4","4","4","4","3","4","4","4","4","4","4","4","0","1","0","0","0","0","1","1","0","0","1","0","0","0","0","4","3","4","4","4","2","3","4","4","4","2","790996128928768002","徐","283","","","","","","","","","","","","","","","","","[{""page_index"":0,""viewing_time"":13462},{""page_index"":1,""viewing_time"":2945},{""page_index"":2,""viewing_time"":1698}]","","","","","","","","","","","","","","","","","","","","","","","","",""
"null","","null","psychophysics","9","153650","0.0-7.0-0.0-1.0-0.0-0.0","3","3","3","4","3","3","3","3","3","3","4","2","4","4","4","5","4","4","4","4","4","3","4","4","4","4","4","4","4","0","1","0","0","0","0","1","1","0","0","1","0","0","0","0","4","3","4","4","4","2","3","4","4","4","2","790996128928768002","徐","283","","","","null","","","","","","","","","","","","","","key","null","16.66615384615389","960","536","f","false","nonmatch","img/hexagon.png","梯形","六边","ALT1_1","prac_ALT1_1","","","","","","","","","","","",""
"null","<span class='add_' style='color:yellow; font-size: 70px;'> 太慢! </span>","null","html-keyboard-response","10","154151","0.0-7.0-0.0-1.0-0.0-1.0","3","3","3","4","3","3","3","3","3","3","4","2","4","4","4","5","4","4","4","4","4","3","4","4","4","4","4","4","4","0","1","0","0","0","0","1","1","0","0","1","0","0","0","0","4","3","4","4","4","2","3","4","4","4","2","790996128928768002","徐","283","","","","","","","","","","","","","","","","","","","","","","","","","","","","","","feedback_test","","","","","","","","","","","",""
"301","","j","psychophysics","11","155454","0.0-7.0-0.0-1.0-0.0-0.1","3","3","3","4","3","3","3","3","3","3","4","2","4","4","4","5","4","4","4","4","4","3","4","4","4","4","4","4","4","0","1","0","0","0","0","1","1","0","0","1","0","0","0","0","4","3","4","4","4","2","3","4","4","4","2","790996128928768002","徐","283","","","","match","","","","","","","","","","","","","","key","j","16.666233766233994","960","536","j","true","match","img/hexagon.png","六边","六边","ALT1_1","prac_ALT1_1","","","","","","","","","","","",""
"null","<span style='color:GreenYellow; font-size: 70px;'>正确! </span>","null","html-keyboard-response","12","155955","0.0-7.0-0.0-1.0-0.0-1.1","3","3","3","4","3","3","3","3","3","3","4","2","4","4","4","5","4","4","4","4","4","3","4","4","4","4","4","4","4","0","1","0","0","0","0","1","1","0","0","1","0","0","0","0","4","3","4","4","4","2","3","4","4","4","2","790996128928768002","徐","283","","","","","","","","","","","","","","","","","","","","","","","","","","","","","","feedback_test","","","","","","","","","","","",""
"null","","null","psychophysics","13","158156","0.0-7.0-0.0-1.0-0.0-0.2","3","3","3","4","3","3","3","3","3","3","4","2","4","4","4","5","4","4","4","4","4","3","4","4","4","4","4","4","4","0","1","0","0","0","0","1","1","0","0","1","0","0","0","0","4","3","4","4","4","2","3","4","4","4","2","790996128928768002","徐","283","","","","null","","","","","","","","","","","","","","key","null","16.66488549618325","960","536","f","false","nonmatch","img/trapezoid.png","菱形","梯形","ALT1_1","prac_ALT1_1","","","","","","","","","","","",""
"null","<span class='add_' style='color:yellow; font-size: 70px;'> 太慢! </span>","null","html-keyboard-response","14","158658","0.0-7.0-0.0-1.0-0.0-1.2","3","3","3","4","3","3","3","3","3","3","4","2","4","4","4","5","4","4","4","4","4","3","4","4","4","4","4","4","4","0","1","0","0","0","0","1","1","0","0","1","0","0","0","0","4","3","4","4","4","2","3","4","4","4","2","790996128928768002","徐","283","","","","","","","","","","","","","","","","","","","","","","","","","","","","","","feedback_test","","","","","","","","","","","",""
"632","","j","psychophysics","15","160292","0.0-7.0-0.0-1.0-0.0-0.3","3","3","3","4","3","3","3","3","3","3","4","2","4","4","4","5","4","4","4","4","4","3","4","4","4","4","4","4","4","0","1","0","0","0","0","1","1","0","0","1","0","0","0","0","4","3","4","4","4","2","3","4","4","4","2","790996128928768002","徐","283","","","","match","","","","","","","","","","","","","","key","j","16.66701030927847","960","536","j","true","match","img/diamond.png","菱形","菱形","ALT1_1","prac_ALT1_1","","","","","","","","","","","",""
"null","<span style='color:GreenYellow; font-size: 70px;'>正确! </span>","null","html-keyboard-response","16","160793","0.0-7.0-0.0-1.0-0.0-1.3","3","3","3","4","3","3","3","3","3","3","4","2","4","4","4","5","4","4","4","4","4","3","4","4","4","4","4","4","4","0","1","0","0","0","0","1","1","0","0","1","0","0","0","0","4","3","4","4","4","2","3","4","4","4","2","790996128928768002","徐","283","","","","","","","","","","","","","","","","","","","","","","","","","","","","","","feedback_test","","","","","","","","","","","",""
"521","","j","psychophysics","17","162316","0.0-7.0-0.0-1.0-0.0-0.4","3","3","3","4","3","3","3","3","3","3","4","2","4","4","4","5","4","4","4","4","4","3","4","4","4","4","4","4","4","0","1","0","0","0","0","1","1","0","0","1","0","0","0","0","4","3","4","4","4","2","3","4","4","4","2","790996128928768002","徐","283","","","","match","","","","","","","","","","","","","","key","j","16.666666666666668","960","536","j","true","match","img/diamond.png","菱形","菱形","ALT1_1","prac_ALT1_1","","","","","","","","","","","",""
"null","<span style='color:GreenYellow; font-size: 70px;'>正确! </span>","null","html-keyboard-response","18","162816","0.0-7.0-0.0-1.0-0.0-1.4","3","3","3","4","3","3","3","3","3","3","4","2","4","4","4","5","4","4","4","4","4","3","4","4","4","4","4","4","4","0","1","0","0","0","0","1","1","0","0","1","0","0","0","0","4","3","4","4","4","2","3","4","4","4","2","790996128928768002","徐","283","","","","","","","","","","","","","","","","","","","","","","","","","","","","","","feedback_test","","","","","","","","","","","",""
"523","","f","psychophysics","19","164340","0.0-7.0-0.0-1.0-0.0-0.5","3","3","3","4","3","3","3","3","3","3","4","2","4","4","4","5","4","4","4","4","4","3","4","4","4","4","4","4","4","0","1","0","0","0","0","1","1","0","0","1","0","0","0","0","4","3","4","4","4","2","3","4","4","4","2","790996128928768002","徐","283","","","","nonmatch","","","","","","","","","","","","","","key","f","16.65666666666673","960","536","f","true","nonmatch","img/trapezoid.png","椭圆","梯形","ALT1_1","prac_ALT1_1","","","","","","","","","","","",""
"null","<span style='color:GreenYellow; font-size: 70px;'>正确! </span>","null","html-keyboard-response","20","164842","0.0-7.0-0.0-1.0-0.0-1.5","3","3","3","4","3","3","3","3","3","3","4","2","4","4","4","5","4","4","4","4","4","3","4","4","4","4","4","4","4","0","1","0","0","0","0","1","1","0","0","1","0","0","0","0","4","3","4","4","4","2","3","4","4","4","2","790996128928768002","徐","283","","","","","","","","","","","","","","","","","","","","","","","","","","","","","","feedback_test","","","","","","","","","","","",""
"531","","j","psychophysics","21","166374","0.0-7.0-0.0-1.0-0.0-0.6","3","3","3","4","3","3","3","3","3","3","4","2","4","4","4","5","4","4","4","4","4","3","4","4","4","4","4","4","4","0","1","0","0","0","0","1","1","0","0","1","0","0","0","0","4","3","4","4","4","2","3","4","4","4","2","790996128928768002","徐","283","","","","match","","","","","","","","","","","","","","key","j","16.66813186813174","960","536","j","true","match","img/trapezoid.png","梯形","梯形","ALT1_1","prac_ALT1_1","","","","","","","","","","","",""
"null","<span style='color:GreenYellow; font-size: 70px;'>正确! </span>","null","html-keyboard-response","22","166875","0.0-7.0-0.0-1.0-0.0-1.6","3","3","3","4","3","3","3","3","3","3","4","2","4","4","4","5","4","4","4","4","4","3","4","4","4","4","4","4","4","0","1","0","0","0","0","1","1","0","0","1","0","0","0","0","4","3","4","4","4","2","3","4","4","4","2","790996128928768002","徐","283","","","","","","","","","","","","","","","","","","","","","","","","","","","","","","feedback_test","","","","","","","","","","","",""
"321","","j","psychophysics","23","168196","0.0-7.0-0.0-1.0-0.0-0.7","3","3","3","4","3","3","3","3","3","3","4","2","4","4","4","5","4","4","4","4","4","3","4","4","4","4","4","4","4","0","1","0","0","0","0","1","1","0","0","1","0","0","0","0","4","3","4","4","4","2","3","4","4","4","2","790996128928768002","徐","283","","","","match","","","","","","","","","","","","","","key","j","16.666666666666668","960","536","f","false","nonmatch","img/trapezoid.png","六边","梯形","ALT1_1","prac_ALT1_1","","","","","","","","","","","",""
"null","<span style='color:red; font-size: 70px;'>错误! </span>","null","html-keyboard-response","24","168697","0.0-7.0-0.0-1.0-0.0-1.7","3","3","3","4","3","3","3","3","3","3","4","2","4","4","4","5","4","4","4","4","4","3","4","4","4","4","4","4","4","0","1","0","0","0","0","1","1","0","0","1","0","0","0","0","4","3","4","4","4","2","3","4","4","4","2","790996128928768002","徐","283","","","","","","","","","","","","","","","","","","","","","","","","","","","","","","feedback_test","","","","","","","","","","","",""
"448","","j","psychophysics","25","170148","0.0-7.0-0.0-1.0-0.0-0.8","3","3","3","4","3","3","3","3","3","3","4","2","4","4","4","5","4","4","4","4","4","3","4","4","4","4","4","4","4","0","1","0","0","0","0","1","1","0","0","1","0","0","0","0","4","3","4","4","4","2","3","4","4","4","2","790996128928768002","徐","283","","","","match","","","","","","","","","","","","","","key","j","16.666279069767306","960","536","f","false","nonmatch","img/hexagon.png","椭圆","六边","ALT1_1","prac_ALT1_1","","","","","","","","","","","",""
"null","<span style='color:red; font-size: 70px;'>错误! </span>","null","html-keyboard-response","26","170649","0.0-7.0-0.0-1.0-0.0-1.8","3","3","3","4","3","3","3","3","3","3","4","2","4","4","4","5","4","4","4","4","4","3","4","4","4","4","4","4","4","0","1","0","0","0","0","1","1","0","0","1","0","0","0","0","4","3","4","4","4","2","3","4","4","4","2","790996128928768002","徐","283","","","","","","","","","","","","","","","","","","","","","","","","","","","","","","feedback_test","","","","","","","","","","","",""
"578","","j","psychophysics","27","172229","0.0-7.0-0.0-1.0-0.0-0.9","3","3","3","4","3","3","3","3","3","3","4","2","4","4","4","5","4","4","4","4","4","3","4","4","4","4","4","4","4","0","1","0","0","0","0","1","1","0","0","1","0","0","0","0","4","3","4","4","4","2","3","4","4","4","2","790996128928768002","徐","283","","","","match","","","","","","","","","","","","","","key","j","16.65698924731189","960","536","j","true","match","img/hexagon.png","六边","六边","ALT1_1","prac_ALT1_1","","","","","","","","","","","",""
"null","<span style='color:GreenYellow; font-size: 70px;'>正确! </span>","null","html-keyboard-response","28","172730","0.0-7.0-0.0-1.0-0.0-1.9","3","3","3","4","3","3","3","3","3","3","4","2","4","4","4","5","4","4","4","4","4","3","4","4","4","4","4","4","4","0","1","0","0","0","0","1","1","0","0","1","0","0","0","0","4","3","4","4","4","2","3","4","4","4","2","790996128928768002","徐","283","","","","","","","","","","","","","","","","","","","","","","","","","","","","","","feedback_test","","","","","","","","","","","",""
"540","","f","psychophysics","29","174272","0.0-7.0-0.0-1.0-0.0-0.10","3","3","3","4","3","3","3","3","3","3","4","2","4","4","4","5","4","4","4","4","4","3","4","4","4","4","4","4","4","0","1","0","0","0","0","1","1","0","0","1","0","0","0","0","4","3","4","4","4","2","3","4","4","4","2","790996128928768002","徐","283","","","","nonmatch","","","","","","","","","","","","","","key","f","16.66630434782596","960","536","j","false","match","img/hexagon.png","六边","六边","ALT1_1","prac_ALT1_1","","","","","","","","","","","",""
"null","<span style='color:red; font-size: 70px;'>错误! </span>","null","html-keyboard-response","30","174773","0.0-7.0-0.0-1.0-0.0-1.10","3","3","3","4","3","3","3","3","3","3","4","2","4","4","4","5","4","4","4","4","4","3","4","4","4","4","4","4","4","0","1","0","0","0","0","1","1","0","0","1","0","0","0","0","4","3","4","4","4","2","3","4","4","4","2","790996128928768002","徐","283","","","","","","","","","","","","","","","","","","","","","","","","","","","","","","feedback_test","","","","","","","","","","","",""
"646","","f","psychophysics","31","176420","0.0-7.0-0.0-1.0-0.0-0.11","3","3","3","4","3","3","3","3","3","3","4","2","4","4","4","5","4","4","4","4","4","3","4","4","4","4","4","4","4","0","1","0","0","0","0","1","1","0","0","1","0","0","0","0","4","3","4","4","4","2","3","4","4","4","2","790996128928768002","徐","283","","","","nonmatch","","","","","","","","","","","","","","key","f","16.6653061224488","960","536","j","false","match","img/ellipse.png","椭圆","椭圆","ALT1_1","prac_ALT1_1","","","","","","","","","","","",""
"null","<span style='color:red; font-size: 70px;'>错误! </span>","null","html-keyboard-response","32","176921","0.0-7.0-0.0-1.0-0.0-1.11","3","3","3","4","3","3","3","3","3","3","4","2","4","4","4","5","4","4","4","4","4","3","4","4","4","4","4","4","4","0","1","0","0","0","0","1","1","0","0","1","0","0","0","0","4","3","4","4","4","2","3","4","4","4","2","790996128928768002","徐","283","","","","","","","","","","","","","","","","","","","","","","","","","","","","","","feedback_test","","","","","","","","","","","",""
"754","","j","psychophysics","33","178676","0.0-7.0-0.0-1.0-0.0-0.12","3","3","3","4","3","3","3","3","3","3","4","2","4","4","4","5","4","4","4","4","4","3","4","4","4","4","4","4","4","0","1","0","0","0","0","1","1","0","0","1","0","0","0","0","4","3","4","4","4","2","3","4","4","4","2","790996128928768002","徐","283","","","","match","","","","","","","","","","","","","","key","j","16.666346153846042","960","536","f","false","nonmatch","img/diamond.png","六边","菱形","ALT1_1","prac_ALT1_1","","","","","","","","","","","",""
"null","<span style='color:red; font-size: 70px;'>错误! </span>","null","html-keyboard-response","34","179177","0.0-7.0-0.0-1.0-0.0-1.12","3","3","3","4","3","3","3","3","3","3","4","2","4","4","4","5","4","4","4","4","4","3","4","4","4","4","4","4","4","0","1","0","0","0","0","1","1","0","0","1","0","0","0","0","4","3","4","4","4","2","3","4","4","4","2","790996128928768002","徐","283","","","","","","","","","","","","","","","","","","","","","","","","","","","","","","feedback_test","","","","","","","","","","","",""
"906","","f","psychophysics","35","181084","0.0-7.0-0.0-1.0-0.0-0.13","3","3","3","4","3","3","3","3","3","3","4","2","4","4","4","5","4","4","4","4","4","3","4","4","4","4","4","4","4","0","1","0","0","0","0","1","1","0","0","1","0","0","0","0","4","3","4","4","4","2","3","4","4","4","2","790996128928768002","徐","283","","","","nonmatch","","","","","","","","","","","","","","key","f","16.666666666666668","960","536","f","true","nonmatch","img/diamond.png","梯形","菱形","ALT1_1","prac_ALT1_1","","","","","","","","","","","",""
"null","<span style='color:GreenYellow; font-size: 70px;'>正确! </span>","null","html-keyboard-response","36","181585","0.0-7.0-0.0-1.0-0.0-1.13","3","3","3","4","3","3","3","3","3","3","4","2","4","4","4","5","4","4","4","4","4","3","4","4","4","4","4","4","4","0","1","0","0","0","0","1","1","0","0","1","0","0","0","0","4","3","4","4","4","2","3","4","4","4","2","790996128928768002","徐","283","","","","","","","","","","","","","","","","","","","","","","","","","","","","","","feedback_test","","","","","","","","","","","",""
"490","","j","psychophysics","37","183077","0.0-7.0-0.0-1.0-0.0-0.14","3","3","3","4","3","3","3","3","3","3","4","2","4","4","4","5","4","4","4","4","4","3","4","4","4","4","4","4","4","0","1","0","0","0","0","1","1","0","0","1","0","0","0","0","4","3","4","4","4","2","3","4","4","4","2","790996128928768002","徐","283","","","","match","","","","","","","","","","","","","","key","j","16.665909090909157","960","536","f","false","nonmatch","img/ellipse.png","菱形","椭圆","ALT1_1","prac_ALT1_1","","","","","","","","","","","",""
"null","<span style='color:red; font-size: 70px;'>错误! </span>","null","html-keyboard-response","38","183578","0.0-7.0-0.0-1.0-0.0-1.14","3","3","3","4","3","3","3","3","3","3","4","2","4","4","4","5","4","4","4","4","4","3","4","4","4","4","4","4","4","0","1","0","0","0","0","1","1","0","0","1","0","0","0","0","4","3","4","4","4","2","3","4","4","4","2","790996128928768002","徐","283","","","","","","","","","","","","","","","","","","","","","","","","","","","","","","feedback_test","","","","","","","","","","","",""
"592","","f","psychophysics","39","185172","0.0-7.0-0.0-1.0-0.0-0.15","3","3","3","4","3","3","3","3","3","3","4","2","4","4","4","5","4","4","4","4","4","3","4","4","4","4","4","4","4","0","1","0","0","0","0","1","1","0","0","1","0","0","0","0","4","3","4","4","4","2","3","4","4","4","2","790996128928768002","徐","283","","","","nonmatch","","","","","","","","","","","","","","key","f","16.66842105263158","960","536","j","false","match","img/trapezoid.png","梯形","梯形","ALT1_1","prac_ALT1_1","","","","","","","","","","","",""
"null","<span style='color:red; font-size: 70px;'>错误! </span>","null","html-keyboard-response","40","185674","0.0-7.0-0.0-1.0-0.0-1.15","3","3","3","4","3","3","3","3","3","3","4","2","4","4","4","5","4","4","4","4","4","3","4","4","4","4","4","4","4","0","1","0","0","0","0","1","1","0","0","1","0","0","0","0","4","3","4","4","4","2","3","4","4","4","2","790996128928768002","徐","283","","","","","","","","","","","","","","","","","","","","","","","","","","","","","","feedback_test","","","","","","","","","","","",""
"753","","f","psychophysics","41","187428","0.0-7.0-0.0-1.0-0.0-0.16","3","3","3","4","3","3","3","3","3","3","4","2","4","4","4","5","4","4","4","4","4","3","4","4","4","4","4","4","4","0","1","0","0","0","0","1","1","0","0","1","0","0","0","0","4","3","4","4","4","2","3","4","4","4","2","790996128928768002","徐","283","","","","nonmatch","","","","","","","","","","","","","","key","f","16.665384615384447","960","536","f","true","nonmatch","img/ellipse.png","六边","椭圆","ALT1_1","prac_ALT1_1","","","","","","","","","","","",""
"null","<span style='color:GreenYellow; font-size: 70px;'>正确! </span>","null","html-keyboard-response","42","187930","0.0-7.0-0.0-1.0-0.0-1.16","3","3","3","4","3","3","3","3","3","3","4","2","4","4","4","5","4","4","4","4","4","3","4","4","4","4","4","4","4","0","1","0","0","0","0","1","1","0","0","1","0","0","0","0","4","3","4","4","4","2","3","4","4","4","2","790996128928768002","徐","283","","","","","","","","","","","","","","","","","","","","","","","","","","","","","","feedback_test","","","","","","","","","","","",""
"583","","j","psychophysics","43","189516","0.0-7.0-0.0-1.0-0.0-0.17","3","3","3","4","3","3","3","3","3","3","4","2","4","4","4","5","4","4","4","4","4","3","4","4","4","4","4","4","4","0","1","0","0","0","0","1","1","0","0","1","0","0","0","0","4","3","4","4","4","2","3","4","4","4","2","790996128928768002","徐","283","","","","match","","","","","","","","","","","","","","key","j","16.6655913978494","960","536","f","false","nonmatch","img/diamond.png","椭圆","菱形","ALT1_1","prac_ALT1_1","","","","","","","","","","","",""
"null","<span style='color:red; font-size: 70px;'>错误! </span>","null","html-keyboard-response","44","190017","0.0-7.0-0.0-1.0-0.0-1.17","3","3","3","4","3","3","3","3","3","3","4","2","4","4","4","5","4","4","4","4","4","3","4","4","4","4","4","4","4","0","1","0","0","0","0","1","1","0","0","1","0","0","0","0","4","3","4","4","4","2","3","4","4","4","2","790996128928768002","徐","283","","","","","","","","","","","","","","","","","","","","","","","","","","","","","","feedback_test","","","","","","","","","","","",""
"544","","f","psychophysics","45","191564","0.0-7.0-0.0-1.0-0.0-0.18","3","3","3","4","3","3","3","3","3","3","4","2","4","4","4","5","4","4","4","4","4","3","4","4","4","4","4","4","4","0","1","0","0","0","0","1","1","0","0","1","0","0","0","0","4","3","4","4","4","2","3","4","4","4","2","790996128928768002","徐","283","","","","nonmatch","","","","","","","","","","","","","","key","f","16.664835164835164","960","536","j","false","match","img/ellipse.png","椭圆","椭圆","ALT1_1","prac_ALT1_1","","","","","","","","","","","",""
"null","<span style='color:red; font-size: 70px;'>错误! </span>","null","html-keyboard-response","46","192065","0.0-7.0-0.0-1.0-0.0-1.18","3","3","3","4","3","3","3","3","3","3","4","2","4","4","4","5","4","4","4","4","4","3","4","4","4","4","4","4","4","0","1","0","0","0","0","1","1","0","0","1","0","0","0","0","4","3","4","4","4","2","3","4","4","4","2","790996128928768002","徐","283","","","","","","","","","","","","","","","","","","","","","","","","","","","","","","feedback_test","","","","","","","","","","","",""
"571","","j","psychophysics","47","193637","0.0-7.0-0.0-1.0-0.0-0.19","3","3","3","4","3","3","3","3","3","3","4","2","4","4","4","5","4","4","4","4","4","3","4","4","4","4","4","4","4","0","1","0","0","0","0","1","1","0","0","1","0","0","0","0","4","3","4","4","4","2","3","4","4","4","2","790996128928768002","徐","283","","","","match","","","","","","","","","","","","","","key","j","16.660215053763377","960","536","j","true","match","img/ellipse.png","椭圆","椭圆","ALT1_1","prac_ALT1_1","","","","","","","","","","","",""
"null","<span style='color:GreenYellow; font-size: 70px;'>正确! </span>","null","html-keyboard-response","48","194137","0.0-7.0-0.0-1.0-0.0-1.19","3","3","3","4","3","3","3","3","3","3","4","2","4","4","4","5","4","4","4","4","4","3","4","4","4","4","4","4","4","0","1","0","0","0","0","1","1","0","0","1","0","0","0","0","4","3","4","4","4","2","3","4","4","4","2","790996128928768002","徐","283","","","","","","","","","","","","","","","","","","","","","","","","","","","","","","feedback_test","","","","","","","","","","","",""
"586","","f","psychophysics","49","195724","0.0-7.0-0.0-1.0-0.0-0.20","3","3","3","4","3","3","3","3","3","3","4","2","4","4","4","5","4","4","4","4","4","3","4","4","4","4","4","4","4","0","1","0","0","0","0","1","1","0","0","1","0","0","0","0","4","3","4","4","4","2","3","4","4","4","2","790996128928768002","徐","283","","","","nonmatch","","","","","","","","","","","","","","key","f","16.667021276595868","960","536","f","true","nonmatch","img/hexagon.png","菱形","六边","ALT1_1","prac_ALT1_1","","","","","","","","","","","",""
"null","<span style='color:GreenYellow; font-size: 70px;'>正确! </span>","null","html-keyboard-response","50","196225","0.0-7.0-0.0-1.0-0.0-1.20","3","3","3","4","3","3","3","3","3","3","4","2","4","4","4","5","4","4","4","4","4","3","4","4","4","4","4","4","4","0","1","0","0","0","0","1","1","0","0","1","0","0","0","0","4","3","4","4","4","2","3","4","4","4","2","790996128928768002","徐","283","","","","","","","","","","","","","","","","","","","","","","","","","","","","","","feedback_test","","","","","","","","","","","",""
"825","","f","psychophysics","51","198052","0.0-7.0-0.0-1.0-0.0-0.21","3","3","3","4","3","3","3","3","3","3","4","2","4","4","4","5","4","4","4","4","4","3","4","4","4","4","4","4","4","0","1","0","0","0","0","1","1","0","0","1","0","0","0","0","4","3","4","4","4","2","3","4","4","4","2","790996128928768002","徐","283","","","","nonmatch","","","","","","","","","","","","","","key","f","16.666055045871612","960","536","j","false","match","img/diamond.png","菱形","菱形","ALT1_1","prac_ALT1_1","","","","","","","","","","","",""
"null","<span style='color:red; font-size: 70px;'>错误! </span>","null","html-keyboard-response","52","198553","0.0-7.0-0.0-1.0-0.0-1.21","3","3","3","4","3","3","3","3","3","3","4","2","4","4","4","5","4","4","4","4","4","3","4","4","4","4","4","4","4","0","1","0","0","0","0","1","1","0","0","1","0","0","0","0","4","3","4","4","4","2","3","4","4","4","2","790996128928768002","徐","283","","","","","","","","","","","","","","","","","","","","","","","","","","","","","","feedback_test","","","","","","","","","","","",""
"522","","j","psychophysics","53","200076","0.0-7.0-0.0-1.0-0.0-0.22","3","3","3","4","3","3","3","3","3","3","4","2","4","4","4","5","4","4","4","4","4","3","4","4","4","4","4","4","4","0","1","0","0","0","0","1","1","0","0","1","0","0","0","0","4","3","4","4","4","2","3","4","4","4","2","790996128928768002","徐","283","","","","match","","","","","","","","","","","","","","key","j","16.664444444444314","960","536","f","false","nonmatch","img/ellipse.png","梯形","椭圆","ALT1_1","prac_ALT1_1","","","","","","","","","","","",""
"null","<span style='color:red; font-size: 70px;'>错误! </span>","null","html-keyboard-response","54","200577","0.0-7.0-0.0-1.0-0.0-1.22","3","3","3","4","3","3","3","3","3","3","4","2","4","4","4","5","4","4","4","4","4","3","4","4","4","4","4","4","4","0","1","0","0","0","0","1","1","0","0","1","0","0","0","0","4","3","4","4","4","2","3","4","4","4","2","790996128928768002","徐","283","","","","","","","","","","","","","","","","","","","","","","","","","","","","","","feedback_test","","","","","","","","","","","",""
"729","","f","psychophysics","55","202308","0.0-7.0-0.0-1.0-0.0-0.23","3","3","3","4","3","3","3","3","3","3","4","2","4","4","4","5","4","4","4","4","4","3","4","4","4","4","4","4","4","0","1","0","0","0","0","1","1","0","0","1","0","0","0","0","4","3","4","4","4","2","3","4","4","4","2","790996128928768002","徐","283","","","","nonmatch","","","","","","","","","","","","","","key","f","16.66504854368932","960","536","j","false","match","img/trapezoid.png","梯形","梯形","ALT1_1","prac_ALT1_1","","","","","","","","","","","",""
"null","<span style='color:red; font-size: 70px;'>错误! </span>","null","html-keyboard-response","56","202810","0.0-7.0-0.0-1.0-0.0-1.23","3","3","3","4","3","3","3","3","3","3","4","2","4","4","4","5","4","4","4","4","4","3","4","4","4","4","4","4","4","0","1","0","0","0","0","1","1","0","0","1","0","0","0","0","4","3","4","4","4","2","3","4","4","4","2","790996128928768002","徐","283","","","","","","","","","","","","","","","","","","","","","","","","","","","","","","feedback_test","","","","","","","","","","","",""
"609","","j","psychophysics","57","204421","0.0-7.0-0.0-1.0-0.0-0.24","3","3","3","4","3","3","3","3","3","3","4","2","4","4","4","5","4","4","4","4","4","3","4","4","4","4","4","4","4","0","1","0","0","0","0","1","1","0","0","1","0","0","0","0","4","3","4","4","4","2","3","4","4","4","2","790996128928768002","徐","283","","","","match","","","","","","","","","","","","","","key","j","16.665624999999938","960","536","j","true","match","img/diamond.png","菱形","菱形","ALT1_1","prac_ALT1_1","","","","","","","","","","","",""
"null","<span style='color:GreenYellow; font-size: 70px;'>正确! </span>","null","html-keyboard-response","58","204924","0.0-7.0-0.0-1.0-0.0-1.24","3","3","3","4","3","3","3","3","3","3","4","2","4","4","4","5","4","4","4","4","4","3","4","4","4","4","4","4","4","0","1","0","0","0","0","1","1","0","0","1","0","0","0","0","4","3","4","4","4","2","3","4","4","4","2","790996128928768002","徐","283","","","","","","","","","","","","","","","","","","","","","","","","","","","","","","feedback_test","","","","","","","","","","","",""
"877","","j","psychophysics","59","206804","0.0-7.0-0.0-1.0-0.0-0.25","3","3","3","4","3","3","3","3","3","3","4","2","4","4","4","5","4","4","4","4","4","3","4","4","4","4","4","4","4","0","1","0","0","0","0","1","1","0","0","1","0","0","0","0","4","3","4","4","4","2","3","4","4","4","2","790996128928768002","徐","283","","","","match","","","","","","","","","","","","","","key","j","16.665178571428573","960","536","f","false","nonmatch","img/trapezoid.png","六边","梯形","ALT1_1","prac_ALT1_1","","","","","","","","","","","",""
"null","<span style='color:red; font-size: 70px;'>错误! </span>","null","html-keyboard-response","60","207306","0.0-7.0-0.0-1.0-0.0-1.25","3","3","3","4","3","3","3","3","3","3","4","2","4","4","4","5","4","4","4","4","4","3","4","4","4","4","4","4","4","0","1","0","0","0","0","1","1","0","0","1","0","0","0","0","4","3","4","4","4","2","3","4","4","4","2","790996128928768002","徐","283","","","","","","","","","","","","","","","","","","","","","","","","","","","","","","feedback_test","","","","","","","","","","","",""
"null","","null","psychophysics","61","209512","0.0-7.0-0.0-1.0-0.0-0.26","3","3","3","4","3","3","3","3","3","3","4","2","4","4","4","5","4","4","4","4","4","3","4","4","4","4","4","4","4","0","1","0","0","0","0","1","1","0","0","1","0","0","0","0","4","3","4","4","4","2","3","4","4","4","2","790996128928768002","徐","283","","","","null","","","","","","","","","","","","","","key","null","16.665648854961923","960","536","f","false","nonmatch","img/trapezoid.png","菱形","梯形","ALT1_1","prac_ALT1_1","","","","","","","","","","","",""
"null","<span class='add_' style='color:yellow; font-size: 70px;'> 太慢! </span>","null","html-keyboard-response","62","210013","0.0-7.0-0.0-1.0-0.0-1.26","3","3","3","4","3","3","3","3","3","3","4","2","4","4","4","5","4","4","4","4","4","3","4","4","4","4","4","4","4","0","1","0","0","0","0","1","1","0","0","1","0","0","0","0","4","3","4","4","4","2","3","4","4","4","2","790996128928768002","徐","283","","","","","","","","","","","","","","","","","","","","","","","","","","","","","","feedback_test","","","","","","","","","","","",""
"686","","f","psychophysics","63","211700","0.0-7.0-0.0-1.0-0.0-0.27","3","3","3","4","3","3","3","3","3","3","4","2","4","4","4","5","4","4","4","4","4","3","4","4","4","4","4","4","4","0","1","0","0","0","0","1","1","0","0","1","0","0","0","0","4","3","4","4","4","2","3","4","4","4","2","790996128928768002","徐","283","","","","nonmatch","","","","","","","","","","","","","","key","f","16.664356435643622","960","536","f","true","nonmatch","img/hexagon.png","椭圆","六边","ALT1_1","prac_ALT1_1","","","","","","","","","","","",""
"null","<span style='color:GreenYellow; font-size: 70px;'>正确! </span>","null","html-keyboard-response","64","212201","0.0-7.0-0.0-1.0-0.0-1.27","3","3","3","4","3","3","3","3","3","3","4","2","4","4","4","5","4","4","4","4","4","3","4","4","4","4","4","4","4","0","1","0","0","0","0","1","1","0","0","1","0","0","0","0","4","3","4","4","4","2","3","4","4","4","2","790996128928768002","徐","283","","","","","","","","","","","","","","","","","","","","","","","","","","","","","","feedback_test","","","","","","","","","","","",""
"592","","f","psychophysics","65","213796","0.0-7.0-0.0-1.0-0.0-0.28","3","3","3","4","3","3","3","3","3","3","4","2","4","4","4","5","4","4","4","4","4","3","4","4","4","4","4","4","4","0","1","0","0","0","0","1","1","0","0","1","0","0","0","0","4","3","4","4","4","2","3","4","4","4","2","790996128928768002","徐","283","","","","nonmatch","","","","","","","","","","","","","","key","f","16.665957446808264","960","536","j","false","match","img/trapezoid.png","梯形","梯形","ALT1_1","prac_ALT1_1","","","","","","","","","","","",""
"null","<span style='color:red; font-size: 70px;'>错误! </span>","null","html-keyboard-response","66","214297","0.0-7.0-0.0-1.0-0.0-1.28","3","3","3","4","3","3","3","3","3","3","4","2","4","4","4","5","4","4","4","4","4","3","4","4","4","4","4","4","4","0","1","0","0","0","0","1","1","0","0","1","0","0","0","0","4","3","4","4","4","2","3","4","4","4","2","790996128928768002","徐","283","","","","","","","","","","","","","","","","","","","","","","","","","","","","","","feedback_test","","","","","","","","","","","",""
"531","","j","psychophysics","67","215829","0.0-7.0-0.0-1.0-0.0-0.29","3","3","3","4","3","3","3","3","3","3","4","2","4","4","4","5","4","4","4","4","4","3","4","4","4","4","4","4","4","0","1","0","0","0","0","1","1","0","0","1","0","0","0","0","4","3","4","4","4","2","3","4","4","4","2","790996128928768002","徐","283","","","","match","","","","","","","","","","","","","","key","j","16.648888888888823","960","536","j","true","match","img/ellipse.png","椭圆","椭圆","ALT1_1","prac_ALT1_1","","","","","","","","","","","",""
"null","<span style='color:GreenYellow; font-size: 70px;'>正确! </span>","null","html-keyboard-response","68","216329","0.0-7.0-0.0-1.0-0.0-1.29","3","3","3","4","3","3","3","3","3","3","4","2","4","4","4","5","4","4","4","4","4","3","4","4","4","4","4","4","4","0","1","0","0","0","0","1","1","0","0","1","0","0","0","0","4","3","4","4","4","2","3","4","4","4","2","790996128928768002","徐","283","","","","","","","","","","","","","","","","","","","","","","","","","","","","","","feedback_test","","","","","","","","","","","",""
"921","","f","psychophysics","69","218252","0.0-7.0-0.0-1.0-0.0-0.30","3","3","3","4","3","3","3","3","3","3","4","2","4","4","4","5","4","4","4","4","4","3","4","4","4","4","4","4","4","0","1","0","0","0","0","1","1","0","0","1","0","0","0","0","4","3","4","4","4","2","3","4","4","4","2","790996128928768002","徐","283","","","","nonmatch","","","","","","","","","","","","","","key","f","16.664912280701653","960","536","f","true","nonmatch","img/trapezoid.png","椭圆","梯形","ALT1_1","prac_ALT1_1","","","","","","","","","","","",""
"null","<span style='color:GreenYellow; font-size: 70px;'>正确! </span>","null","html-keyboard-response","70","218754","0.0-7.0-0.0-1.0-0.0-1.30","3","3","3","4","3","3","3","3","3","3","4","2","4","4","4","5","4","4","4","4","4","3","4","4","4","4","4","4","4","0","1","0","0","0","0","1","1","0","0","1","0","0","0","0","4","3","4","4","4","2","3","4","4","4","2","790996128928768002","徐","283","","","","","","","","","","","","","","","","","","","","","","","","","","","","","","feedback_test","","","","","","","","","","","",""
"528","","f","psychophysics","71","220284","0.0-7.0-0.0-1.0-0.0-0.31","3","3","3","4","3","3","3","3","3","3","4","2","4","4","4","5","4","4","4","4","4","3","4","4","4","4","4","4","4","0","1","0","0","0","0","1","1","0","0","1","0","0","0","0","4","3","4","4","4","2","3","4","4","4","2","790996128928768002","徐","283","","","","nonmatch","","","","","","","","","","","","","","key","f","16.667032967033094","960","536","j","false","match","img/trapezoid.png","梯形","梯形","ALT1_1","prac_ALT1_1","","","","","","","","","","","",""
"null","<span style='color:red; font-size: 70px;'>错误! </span>","null","html-keyboard-response","72","220786","0.0-7.0-0.0-1.0-0.0-1.31","3","3","3","4","3","3","3","3","3","3","4","2","4","4","4","5","4","4","4","4","4","3","4","4","4","4","4","4","4","0","1","0","0","0","0","1","1","0","0","1","0","0","0","0","4","3","4","4","4","2","3","4","4","4","2","790996128928768002","徐","283","","","","","","","","","","","","","","","","","","","","","","","","","","","","","","feedback_test","","","","","","","","","","","",""
"680","","f","psychophysics","73","222468","0.0-7.0-0.0-1.0-0.0-0.32","3","3","3","4","3","3","3","3","3","3","4","2","4","4","4","5","4","4","4","4","4","3","4","4","4","4","4","4","4","0","1","0","0","0","0","1","1","0","0","1","0","0","0","0","4","3","4","4","4","2","3","4","4","4","2","790996128928768002","徐","283","","","","nonmatch","","","","","","","","","","","","","","key","f","16.666999999999824","960","536","f","true","nonmatch","img/hexagon.png","梯形","六边","ALT1_1","prac_ALT1_1","","","","","","","","","","","",""
"null","<span style='color:GreenYellow; font-size: 70px;'>正确! </span>","null","html-keyboard-response","74","222969","0.0-7.0-0.0-1.0-0.0-1.32","3","3","3","4","3","3","3","3","3","3","4","2","4","4","4","5","4","4","4","4","4","3","4","4","4","4","4","4","4","0","1","0","0","0","0","1","1","0","0","1","0","0","0","0","4","3","4","4","4","2","3","4","4","4","2","790996128928768002","徐","283","","","","","","","","","","","","","","","","","","","","","","","","","","","","","","feedback_test","","","","","","","","","","","",""
"576","","f","psychophysics","75","224556","0.0-7.0-0.0-1.0-0.0-0.33","3","3","3","4","3","3","3","3","3","3","4","2","4","4","4","5","4","4","4","4","4","3","4","4","4","4","4","4","4","0","1","0","0","0","0","1","1","0","0","1","0","0","0","0","4","3","4","4","4","2","3","4","4","4","2","790996128928768002","徐","283","","","","nonmatch","","","","","","","","","","","","","","key","f","16.665957446808573","960","536","j","false","match","img/hexagon.png","六边","六边","ALT1_1","prac_ALT1_1","","","","","","","","","","","",""
"null","<span style='color:red; font-size: 70px;'>错误! </span>","null","html-keyboard-response","76","225057","0.0-7.0-0.0-1.0-0.0-1.33","3","3","3","4","3","3","3","3","3","3","4","2","4","4","4","5","4","4","4","4","4","3","4","4","4","4","4","4","4","0","1","0","0","0","0","1","1","0","0","1","0","0","0","0","4","3","4","4","4","2","3","4","4","4","2","790996128928768002","徐","283","","","","","","","","","","","","","","","","","","","","","","","","","","","","","","feedback_test","","","","","","","","","","","",""
"802","","j","psychophysics","77","226861","0.0-7.0-0.0-1.0-0.0-0.34","3","3","3","4","3","3","3","3","3","3","4","2","4","4","4","5","4","4","4","4","4","3","4","4","4","4","4","4","4","0","1","0","0","0","0","1","1","0","0","1","0","0","0","0","4","3","4","4","4","2","3","4","4","4","2","790996128928768002","徐","283","","","","match","","","","","","","","","","","","","","key","j","16.666355140186806","960","536","j","true","match","img/ellipse.png","椭圆","椭圆","ALT1_1","prac_ALT1_1","","","","","","","","","","","",""
"null","<span style='color:GreenYellow; font-size: 70px;'>正确! </span>","null","html-keyboard-response","78","227362","0.0-7.0-0.0-1.0-0.0-1.34","3","3","3","4","3","3","3","3","3","3","4","2","4","4","4","5","4","4","4","4","4","3","4","4","4","4","4","4","4","0","1","0","0","0","0","1","1","0","0","1","0","0","0","0","4","3","4","4","4","2","3","4","4","4","2","790996128928768002","徐","283","","","","","","","","","","","","","","","","","","","","","","","","","","","","","","feedback_test","","","","","","","","","","","",""
"560","","f","psychophysics","79","228924","0.0-7.0-0.0-1.0-0.0-0.35","3","3","3","4","3","3","3","3","3","3","4","2","4","4","4","5","4","4","4","4","4","3","4","4","4","4","4","4","4","0","1","0","0","0","0","1","1","0","0","1","0","0","0","0","4","3","4","4","4","2","3","4","4","4","2","790996128928768002","徐","283","","","","nonmatch","","","","","","","","","","","","","","key","f","16.6655913978494","960","536","j","false","match","img/trapezoid.png","梯形","梯形","ALT1_1","prac_ALT1_1","","","","","","","","","","","",""
"null","<span style='color:red; font-size: 70px;'>错误! </span>","null","html-keyboard-response","80","229426","0.0-7.0-0.0-1.0-0.0-1.35","3","3","3","4","3","3","3","3","3","3","4","2","4","4","4","5","4","4","4","4","4","3","4","4","4","4","4","4","4","0","1","0","0","0","0","1","1","0","0","1","0","0","0","0","4","3","4","4","4","2","3","4","4","4","2","790996128928768002","徐","283","","","","","","","","","","","","","","","","","","","","","","","","","","","","","","feedback_test","","","","","","","","","","","",""
"689","","f","psychophysics","81","231116","0.0-7.0-0.0-1.0-0.0-0.36","3","3","3","4","3","3","3","3","3","3","4","2","4","4","4","5","4","4","4","4","4","3","4","4","4","4","4","4","4","0","1","0","0","0","0","1","1","0","0","1","0","0","0","0","4","3","4","4","4","2","3","4","4","4","2","790996128928768002","徐","283","","","","nonmatch","","","","","","","","","","","","","","key","f","16.665346534653292","960","536","f","true","nonmatch","img/hexagon.png","菱形","六边","ALT1_1","prac_ALT1_1","","","","","","","","","","","",""
"null","<span style='color:GreenYellow; font-size: 70px;'>正确! </span>","null","html-keyboard-response","82","231617","0.0-7.0-0.0-1.0-0.0-1.36","3","3","3","4","3","3","3","3","3","3","4","2","4","4","4","5","4","4","4","4","4","3","4","4","4","4","4","4","4","0","1","0","0","0","0","1","1","0","0","1","0","0","0","0","4","3","4","4","4","2","3","4","4","4","2","790996128928768002","徐","283","","","","","","","","","","","","","","","","","","","","","","","","","","","","","","feedback_test","","","","","","","","","","","",""
"705","","j","psychophysics","83","233324","0.0-7.0-0.0-1.0-0.0-0.37","3","3","3","4","3","3","3","3","3","3","4","2","4","4","4","5","4","4","4","4","4","3","4","4","4","4","4","4","4","0","1","0","0","0","0","1","1","0","0","1","0","0","0","0","4","3","4","4","4","2","3","4","4","4","2","790996128928768002","徐","283","","","","match","","","","","","","","","","","","","","key","j","16.66732673267321","960","536","j","true","match","img/hexagon.png","六边","六边","ALT1_1","prac_ALT1_1","","","","","","","","","","","",""
"null","<span style='color:GreenYellow; font-size: 70px;'>正确! </span>","null","html-keyboard-response","84","233827","0.0-7.0-0.0-1.0-0.0-1.37","3","3","3","4","3","3","3","3","3","3","4","2","4","4","4","5","4","4","4","4","4","3","4","4","4","4","4","4","4","0","1","0","0","0","0","1","1","0","0","1","0","0","0","0","4","3","4","4","4","2","3","4","4","4","2","790996128928768002","徐","283","","","","","","","","","","","","","","","","","","","","","","","","","","","","","","feedback_test","","","","","","","","","","","",""
"742","","f","psychophysics","85","235572","0.0-7.0-0.0-1.0-0.0-0.38","3","3","3","4","3","3","3","3","3","3","4","2","4","4","4","5","4","4","4","4","4","3","4","4","4","4","4","4","4","0","1","0","0","0","0","1","1","0","0","1","0","0","0","0","4","3","4","4","4","2","3","4","4","4","2","790996128928768002","徐","283","","","","nonmatch","","","","","","","","","","","","","","key","f","16.666346153846042","960","536","f","true","nonmatch","img/diamond.png","梯形","菱形","ALT1_1","prac_ALT1_1","","","","","","","","","","","",""
"null","<span style='color:GreenYellow; font-size: 70px;'>正确! </span>","null","html-keyboard-response","86","236073","0.0-7.0-0.0-1.0-0.0-1.38","3","3","3","4","3","3","3","3","3","3","4","2","4","4","4","5","4","4","4","4","4","3","4","4","4","4","4","4","4","0","1","0","0","0","0","1","1","0","0","1","0","0","0","0","4","3","4","4","4","2","3","4","4","4","2","790996128928768002","徐","283","","","","","","","","","","","","","","","","","","","","","","","","","","","","","","feedback_test","","","","","","","","","","","",""
"786","","j","psychophysics","87","237861","0.0-7.0-0.0-1.0-0.0-0.39","3","3","3","4","3","3","3","3","3","3","4","2","4","4","4","5","4","4","4","4","4","3","4","4","4","4","4","4","4","0","1","0","0","0","0","1","1","0","0","1","0","0","0","0","4","3","4","4","4","2","3","4","4","4","2","790996128928768002","徐","283","","","","match","","","","","","","","","","","","","","key","j","16.666037735849113","960","536","j","true","match","img/hexagon.png","六边","六边","ALT1_1","prac_ALT1_1","","","","","","","","","","","",""
"null","<span style='color:GreenYellow; font-size: 70px;'>正确! </span>","null","html-keyboard-response","88","238362","0.0-7.0-0.0-1.0-0.0-1.39","3","3","3","4","3","3","3","3","3","3","4","2","4","4","4","5","4","4","4","4","4","3","4","4","4","4","4","4","4","0","1","0","0","0","0","1","1","0","0","1","0","0","0","0","4","3","4","4","4","2","3","4","4","4","2","790996128928768002","徐","283","","","","","","","","","","","","","","","","","","","","","","","","","","","","","","feedback_test","","","","","","","","","","","",""
"840","","f","psychophysics","89","240204","0.0-7.0-0.0-1.0-0.0-0.40","3","3","3","4","3","3","3","3","3","3","4","2","4","4","4","5","4","4","4","4","4","3","4","4","4","4","4","4","4","0","1","0","0","0","0","1","1","0","0","1","0","0","0","0","4","3","4","4","4","2","3","4","4","4","2","790996128928768002","徐","283","","","","nonmatch","","","","","","","","","","","","","","key","f","16.667272727272675","960","536","f","true","nonmatch","img/diamond.png","六边","菱形","ALT1_1","prac_ALT1_1","","","","","","","","","","","",""
"null","<span style='color:GreenYellow; font-size: 70px;'>正确! </span>","null","html-keyboard-response","90","240704","0.0-7.0-0.0-1.0-0.0-1.40","3","3","3","4","3","3","3","3","3","3","4","2","4","4","4","5","4","4","4","4","4","3","4","4","4","4","4","4","4","0","1","0","0","0","0","1","1","0","0","1","0","0","0","0","4","3","4","4","4","2","3","4","4","4","2","790996128928768002","徐","283","","","","","","","","","","","","","","","","","","","","","","","","","","","","","","feedback_test","","","","","","","","","","","",""
"787","","f","psychophysics","91","242492","0.0-7.0-0.0-1.0-0.0-0.41","3","3","3","4","3","3","3","3","3","3","4","2","4","4","4","5","4","4","4","4","4","3","4","4","4","4","4","4","4","0","1","0","0","0","0","1","1","0","0","1","0","0","0","0","4","3","4","4","4","2","3","4","4","4","2","790996128928768002","徐","283","","","","nonmatch","","","","","","","","","","","","","","key","f","16.666037735849113","960","536","f","true","nonmatch","img/ellipse.png","菱形","椭圆","ALT1_1","prac_ALT1_1","","","","","","","","","","","",""
"null","<span style='color:GreenYellow; font-size: 70px;'>正确! </span>","null","html-keyboard-response","92","242993","0.0-7.0-0.0-1.0-0.0-1.41","3","3","3","4","3","3","3","3","3","3","4","2","4","4","4","5","4","4","4","4","4","3","4","4","4","4","4","4","4","0","1","0","0","0","0","1","1","0","0","1","0","0","0","0","4","3","4","4","4","2","3","4","4","4","2","790996128928768002","徐","283","","","","","","","","","","","","","","","","","","","","","","","","","","","","","","feedback_test","","","","","","","","","","","",""
"697","","f","psychophysics","93","244692","0.0-7.0-0.0-1.0-0.0-0.42","3","3","3","4","3","3","3","3","3","3","4","2","4","4","4","5","4","4","4","4","4","3","4","4","4","4","4","4","4","0","1","0","0","0","0","1","1","0","0","1","0","0","0","0","4","3","4","4","4","2","3","4","4","4","2","790996128928768002","徐","283","","","","nonmatch","","","","","","","","","","","","","","key","f","16.66534653465358","960","536","j","false","match","img/diamond.png","菱形","菱形","ALT1_1","prac_ALT1_1","","","","","","","","","","","",""
"null","<span style='color:red; font-size: 70px;'>错误! </span>","null","html-keyboard-response","94","245193","0.0-7.0-0.0-1.0-0.0-1.42","3","3","3","4","3","3","3","3","3","3","4","2","4","4","4","5","4","4","4","4","4","3","4","4","4","4","4","4","4","0","1","0","0","0","0","1","1","0","0","1","0","0","0","0","4","3","4","4","4","2","3","4","4","4","2","790996128928768002","徐","283","","","","","","","","","","","","","","","","","","","","","","","","","","","","","","feedback_test","","","","","","","","","","","",""
"745","","f","psychophysics","95","246940","0.0-7.0-0.0-1.0-0.0-0.43","3","3","3","4","3","3","3","3","3","3","4","2","4","4","4","5","4","4","4","4","4","3","4","4","4","4","4","4","4","0","1","0","0","0","0","1","1","0","0","1","0","0","0","0","4","3","4","4","4","2","3","4","4","4","2","790996128928768002","徐","283","","","","nonmatch","","","","","","","","","","","","","","key","f","16.66571428571423","960","536","f","true","nonmatch","img/ellipse.png","六边","椭圆","ALT1_1","prac_ALT1_1","","","","","","","","","","","",""
"null","<span style='color:GreenYellow; font-size: 70px;'>正确! </span>","null","html-keyboard-response","96","247446","0.0-7.0-0.0-1.0-0.0-1.43","3","3","3","4","3","3","3","3","3","3","4","2","4","4","4","5","4","4","4","4","4","3","4","4","4","4","4","4","4","0","1","0","0","0","0","1","1","0","0","1","0","0","0","0","4","3","4","4","4","2","3","4","4","4","2","790996128928768002","徐","283","","","","","","","","","","","","","","","","","","","","","","","","","","","","","","feedback_test","","","","","","","","","","","",""
"854","","f","psychophysics","97","249301","0.0-7.0-0.0-1.0-0.0-0.44","3","3","3","4","3","3","3","3","3","3","4","2","4","4","4","5","4","4","4","4","4","3","4","4","4","4","4","4","4","0","1","0","0","0","0","1","1","0","0","1","0","0","0","0","4","3","4","4","4","2","3","4","4","4","2","790996128928768002","徐","283","","","","nonmatch","","","","","","","","","","","","","","key","f","16.663636363636364","960","536","f","true","nonmatch","img/diamond.png","椭圆","菱形","ALT1_1","prac_ALT1_1","","","","","","","","","","","",""
"null","<span style='color:GreenYellow; font-size: 70px;'>正确! </span>","null","html-keyboard-response","98","249801","0.0-7.0-0.0-1.0-0.0-1.44","3","3","3","4","3","3","3","3","3","3","4","2","4","4","4","5","4","4","4","4","4","3","4","4","4","4","4","4","4","0","1","0","0","0","0","1","1","0","0","1","0","0","0","0","4","3","4","4","4","2","3","4","4","4","2","790996128928768002","徐","283","","","","","","","","","","","","","","","","","","","","","","","","","","","","","","feedback_test","","","","","","","","","","","",""
"593","","j","psychophysics","99","251396","0.0-7.0-0.0-1.0-0.0-0.45","3","3","3","4","3","3","3","3","3","3","4","2","4","4","4","5","4","4","4","4","4","3","4","4","4","4","4","4","4","0","1","0","0","0","0","1","1","0","0","1","0","0","0","0","4","3","4","4","4","2","3","4","4","4","2","790996128928768002","徐","283","","","","match","","","","","","","","","","","","","","key","j","16.664893617021278","960","536","f","false","nonmatch","img/ellipse.png","梯形","椭圆","ALT1_1","prac_ALT1_1","","","","","","","","","","","",""
"null","<span style='color:red; font-size: 70px;'>错误! </span>","null","html-keyboard-response","100","251898","0.0-7.0-0.0-1.0-0.0-1.45","3","3","3","4","3","3","3","3","3","3","4","2","4","4","4","5","4","4","4","4","4","3","4","4","4","4","4","4","4","0","1","0","0","0","0","1","1","0","0","1","0","0","0","0","4","3","4","4","4","2","3","4","4","4","2","790996128928768002","徐","283","","","","","","","","","","","","","","","","","","","","","","","","","","","","","","feedback_test","","","","","","","","","","","",""
"632","","f","psychophysics","101","253532","0.0-7.0-0.0-1.0-0.0-0.46","3","3","3","4","3","3","3","3","3","3","4","2","4","4","4","5","4","4","4","4","4","3","4","4","4","4","4","4","4","0","1","0","0","0","0","1","1","0","0","1","0","0","0","0","4","3","4","4","4","2","3","4","4","4","2","790996128928768002","徐","283","","","","nonmatch","","","","","","","","","","","","","","key","f","16.66701030927847","960","536","j","false","match","img/ellipse.png","椭圆","椭圆","ALT1_1","prac_ALT1_1","","","","","","","","","","","",""
"null","<span style='color:red; font-size: 70px;'>错误! </span>","null","html-keyboard-response","102","254033","0.0-7.0-0.0-1.0-0.0-1.46","3","3","3","4","3","3","3","3","3","3","4","2","4","4","4","5","4","4","4","4","4","3","4","4","4","4","4","4","4","0","1","0","0","0","0","1","1","0","0","1","0","0","0","0","4","3","4","4","4","2","3","4","4","4","2","790996128928768002","徐","283","","","","","","","","","","","","","","","","","","","","","","","","","","","","","","feedback_test","","","","","","","","","","","",""
"857","","f","psychophysics","103","255892","0.0-7.0-0.0-1.0-0.0-0.47","3","3","3","4","3","3","3","3","3","3","4","2","4","4","4","5","4","4","4","4","4","3","4","4","4","4","4","4","4","0","1","0","0","0","0","1","1","0","0","1","0","0","0","0","4","3","4","4","4","2","3","4","4","4","2","790996128928768002","徐","283","","","","nonmatch","","","","","","","","","","","","","","key","f","16.667272727272938","960","536","j","false","match","img/diamond.png","菱形","菱形","ALT1_1","prac_ALT1_1","","","","","","","","","","","",""
"null","<span style='color:red; font-size: 70px;'>错误! </span>","null","html-keyboard-response","104","256392","0.0-7.0-0.0-1.0-0.0-1.47","3","3","3","4","3","3","3","3","3","3","4","2","4","4","4","5","4","4","4","4","4","3","4","4","4","4","4","4","4","0","1","0","0","0","0","1","1","0","0","1","0","0","0","0","4","3","4","4","4","2","3","4","4","4","2","790996128928768002","徐","283","","","","","","","","","","","","","","","","","","","","","","","","","","","","","","feedback_test","","","","","","","","","","","",""
"18115","<style>.context{color:white; font-size: 35px; line-height:40px}</style>                            <div><p class='context'>您正确回答了50% 的试次。</p><p class='context'>您的平均反应时为678毫秒。</p><p class='context'>按空格键继续。</p></div>"," ","html-keyboard-response","105","274509","0.0-7.0-0.0-1.0-1.0-0.0","3","3","3","4","3","3","3","3","3","3","4","2","4","4","4","5","4","4","4","4","4","3","4","4","4","4","4","4","4","0","1","0","0","0","0","1","1","0","0","1","0","0","0","0","4","3","4","4","4","2","3","4","4","4","2","790996128928768002","徐","283","","","","","","","","","","","","","","","","","","","","","","","","","","","","","","","","","","","","","","","","","",""
"9262","","","instructions","106","283772","0.0-7.0-0.0-1.0-1.0-1.0","3","3","3","4","3","3","3","3","3","3","4","2","4","4","4","5","4","4","4","4","4","3","4","4","4","4","4","4","4","0","1","0","0","0","0","1","1","0","0","1","0","0","0","0","4","3","4","4","4","2","3","4","4","4","2","790996128928768002","徐","283","","","","","","","","","","","","","","","","","[{""page_index"":0,""viewing_time"":2039},{""page_index"":1,""viewing_time"":3630},{""page_index"":2,""viewing_time"":3592}]","","","","","","","","","","","","","","","","","","","","","","","","",""
"895","","f","psychophysics","107","285669","0.0-7.0-0.0-1.1-0.1-0.48","3","3","3","4","3","3","3","3","3","3","4","2","4","4","4","5","4","4","4","4","4","3","4","4","4","4","4","4","4","0","1","0","0","0","0","1","1","0","0","1","0","0","0","0","4","3","4","4","4","2","3","4","4","4","2","790996128928768002","徐","283","","","","nonmatch","","","","","","","","","","","","","","key","f","16.665486725663303","960","536","f","true","nonmatch","img/ellipse.png","菱形","椭圆","ALT1_1","prac_ALT1_1","","","","","","","","","","","",""
"null","<span style='color:GreenYellow; font-size: 70px;'>正确! </span>","null","html-keyboard-response","108","286171","0.0-7.0-0.0-1.1-0.1-1.48","3","3","3","4","3","3","3","3","3","3","4","2","4","4","4","5","4","4","4","4","4","3","4","4","4","4","4","4","4","0","1","0","0","0","0","1","1","0","0","1","0","0","0","0","4","3","4","4","4","2","3","4","4","4","2","790996128928768002","徐","283","","","","","","","","","","","","","","","","","","","","","","","","","","","","","","feedback_test","","","","","","","","","","","",""
"760","","f","psychophysics","109","287932","0.0-7.0-0.0-1.1-0.1-0.49","3","3","3","4","3","3","3","3","3","3","4","2","4","4","4","5","4","4","4","4","4","3","4","4","4","4","4","4","4","0","1","0","0","0","0","1","1","0","0","1","0","0","0","0","4","3","4","4","4","2","3","4","4","4","2","790996128928768002","徐","283","","","","nonmatch","","","","","","","","","","","","","","key","f","16.665714285713953","960","536","j","false","match","img/diamond.png","菱形","菱形","ALT1_1","prac_ALT1_1","","","","","","","","","","","",""
"null","<span style='color:red; font-size: 70px;'>错误! </span>","null","html-keyboard-response","110","288433","0.0-7.0-0.0-1.1-0.1-1.49","3","3","3","4","3","3","3","3","3","3","4","2","4","4","4","5","4","4","4","4","4","3","4","4","4","4","4","4","4","0","1","0","0","0","0","1","1","0","0","1","0","0","0","0","4","3","4","4","4","2","3","4","4","4","2","790996128928768002","徐","283","","","","","","","","","","","","","","","","","","","","","","","","","","","","","","feedback_test","","","","","","","","","","","",""
"765","","f","psychophysics","111","290198","0.0-7.0-0.0-1.1-0.1-0.50","3","3","3","4","3","3","3","3","3","3","4","2","4","4","4","5","4","4","4","4","4","3","4","4","4","4","4","4","4","0","1","0","0","0","0","1","1","0","0","1","0","0","0","0","4","3","4","4","4","2","3","4","4","4","2","790996128928768002","徐","283","","","","nonmatch","","","","","","","","","","","","","","key","f","16.666666666666668","960","536","j","false","match","img/ellipse.png","椭圆","椭圆","ALT1_1","prac_ALT1_1","","","","","","","","","","","",""
"null","<span style='color:red; font-size: 70px;'>错误! </span>","null","html-keyboard-response","112","290699","0.0-7.0-0.0-1.1-0.1-1.50","3","3","3","4","3","3","3","3","3","3","4","2","4","4","4","5","4","4","4","4","4","3","4","4","4","4","4","4","4","0","1","0","0","0","0","1","1","0","0","1","0","0","0","0","4","3","4","4","4","2","3","4","4","4","2","790996128928768002","徐","283","","","","","","","","","","","","","","","","","","","","","","","","","","","","","","feedback_test","","","","","","","","","","","",""
"879","","f","psychophysics","113","292580","0.0-7.0-0.0-1.1-0.1-0.51","3","3","3","4","3","3","3","3","3","3","4","2","4","4","4","5","4","4","4","4","4","3","4","4","4","4","4","4","4","0","1","0","0","0","0","1","1","0","0","1","0","0","0","0","4","3","4","4","4","2","3","4","4","4","2","790996128928768002","徐","283","","","","nonmatch","","","","","","","","","","","","","","key","f","16.665178571428573","960","536","f","true","nonmatch","img/diamond.png","六边","菱形","ALT1_1","prac_ALT1_1","","","","","","","","","","","",""
"null","<span style='color:GreenYellow; font-size: 70px;'>正确! </span>","null","html-keyboard-response","114","293081","0.0-7.0-0.0-1.1-0.1-1.51","3","3","3","4","3","3","3","3","3","3","4","2","4","4","4","5","4","4","4","4","4","3","4","4","4","4","4","4","4","0","1","0","0","0","0","1","1","0","0","1","0","0","0","0","4","3","4","4","4","2","3","4","4","4","2","790996128928768002","徐","283","","","","","","","","","","","","","","","","","","","","","","","","","","","","","","feedback_test","","","","","","","","","","","",""
"537","","f","psychophysics","115","294620","0.0-7.0-0.0-1.1-0.1-0.52","3","3","3","4","3","3","3","3","3","3","4","2","4","4","4","5","4","4","4","4","4","3","4","4","4","4","4","4","4","0","1","0","0","0","0","1","1","0","0","1","0","0","0","0","4","3","4","4","4","2","3","4","4","4","2","790996128928768002","徐","283","","","","nonmatch","","","","","","","","","","","","","","key","f","16.664835164835164","960","536","f","true","nonmatch","img/trapezoid.png","椭圆","梯形","ALT1_1","prac_ALT1_1","","","","","","","","","","","",""
"null","<span style='color:GreenYellow; font-size: 70px;'>正确! </span>","null","html-keyboard-response","116","295121","0.0-7.0-0.0-1.1-0.1-1.52","3","3","3","4","3","3","3","3","3","3","4","2","4","4","4","5","4","4","4","4","4","3","4","4","4","4","4","4","4","0","1","0","0","0","0","1","1","0","0","1","0","0","0","0","4","3","4","4","4","2","3","4","4","4","2","790996128928768002","徐","283","","","","","","","","","","","","","","","","","","","","","","","","","","","","","","feedback_test","","","","","","","","","","","",""
"803","","j","psychophysics","117","296925","0.0-7.0-0.0-1.1-0.1-0.53","3","3","3","4","3","3","3","3","3","3","4","2","4","4","4","5","4","4","4","4","4","3","4","4","4","4","4","4","4","0","1","0","0","0","0","1","1","0","0","1","0","0","0","0","4","3","4","4","4","2","3","4","4","4","2","790996128928768002","徐","283","","","","match","","","","","","","","","","","","","","key","j","16.666355140186806","960","536","j","true","match","img/trapezoid.png","梯形","梯形","ALT1_1","prac_ALT1_1","","","","","","","","","","","",""
"null","<span style='color:GreenYellow; font-size: 70px;'>正确! </span>","null","html-keyboard-response","118","297426","0.0-7.0-0.0-1.1-0.1-1.53","3","3","3","4","3","3","3","3","3","3","4","2","4","4","4","5","4","4","4","4","4","3","4","4","4","4","4","4","4","0","1","0","0","0","0","1","1","0","0","1","0","0","0","0","4","3","4","4","4","2","3","4","4","4","2","790996128928768002","徐","283","","","","","","","","","","","","","","","","","","","","","","","","","","","","","","feedback_test","","","","","","","","","","","",""
"636","","f","psychophysics","119","299062","0.0-7.0-0.0-1.1-0.1-0.54","3","3","3","4","3","3","3","3","3","3","4","2","4","4","4","5","4","4","4","4","4","3","4","4","4","4","4","4","4","0","1","0","0","0","0","1","1","0","0","1","0","0","0","0","4","3","4","4","4","2","3","4","4","4","2","790996128928768002","徐","283","","","","nonmatch","","","","","","","","","","","","","","key","f","16.6653061224491","960","536","j","false","match","img/trapezoid.png","梯形","梯形","ALT1_1","prac_ALT1_1","","","","","","","","","","","",""
"null","<span style='color:red; font-size: 70px;'>错误! </span>","null","html-keyboard-response","120","299564","0.0-7.0-0.0-1.1-0.1-1.54","3","3","3","4","3","3","3","3","3","3","4","2","4","4","4","5","4","4","4","4","4","3","4","4","4","4","4","4","4","0","1","0","0","0","0","1","1","0","0","1","0","0","0","0","4","3","4","4","4","2","3","4","4","4","2","790996128928768002","徐","283","","","","","","","","","","","","","","","","","","","","","","","","","","","","","","feedback_test","","","","","","","","","","","",""
"705","","j","psychophysics","121","301272","0.0-7.0-0.0-1.1-0.1-0.55","3","3","3","4","3","3","3","3","3","3","4","2","4","4","4","5","4","4","4","4","4","3","4","4","4","4","4","4","4","0","1","0","0","0","0","1","1","0","0","1","0","0","0","0","4","3","4","4","4","2","3","4","4","4","2","790996128928768002","徐","283","","","","match","","","","","","","","","","","","","","key","j","16.666336633663253","960","536","j","true","match","img/diamond.png","菱形","菱形","ALT1_1","prac_ALT1_1","","","","","","","","","","","",""
"null","<span style='color:GreenYellow; font-size: 70px;'>正确! </span>","null","html-keyboard-response","122","301774","0.0-7.0-0.0-1.1-0.1-1.55","3","3","3","4","3","3","3","3","3","3","4","2","4","4","4","5","4","4","4","4","4","3","4","4","4","4","4","4","4","0","1","0","0","0","0","1","1","0","0","1","0","0","0","0","4","3","4","4","4","2","3","4","4","4","2","790996128928768002","徐","283","","","","","","","","","","","","","","","","","","","","","","","","","","","","","","feedback_test","","","","","","","","","","","",""
"645","","j","psychophysics","123","303420","0.0-7.0-0.0-1.1-0.1-0.56","3","3","3","4","3","3","3","3","3","3","4","2","4","4","4","5","4","4","4","4","4","3","4","4","4","4","4","4","4","0","1","0","0","0","0","1","1","0","0","1","0","0","0","0","4","3","4","4","4","2","3","4","4","4","2","790996128928768002","徐","283","","","","match","","","","","","","","","","","","","","key","j","16.666326530612125","960","536","j","true","match","img/hexagon.png","六边","六边","ALT1_1","prac_ALT1_1","","","","","","","","","","","",""
"null","<span style='color:GreenYellow; font-size: 70px;'>正确! </span>","null","html-keyboard-response","124","303920","0.0-7.0-0.0-1.1-0.1-1.56","3","3","3","4","3","3","3","3","3","3","4","2","4","4","4","5","4","4","4","4","4","3","4","4","4","4","4","4","4","0","1","0","0","0","0","1","1","0","0","1","0","0","0","0","4","3","4","4","4","2","3","4","4","4","2","790996128928768002","徐","283","","","","","","","","","","","","","","","","","","","","","","","","","","","","","","feedback_test","","","","","","","","","","","",""
"617","","j","psychophysics","125","305540","0.0-7.0-0.0-1.1-0.1-0.57","3","3","3","4","3","3","3","3","3","3","4","2","4","4","4","5","4","4","4","4","4","3","4","4","4","4","4","4","4","0","1","0","0","0","0","1","1","0","0","1","0","0","0","0","4","3","4","4","4","2","3","4","4","4","2","790996128928768002","徐","283","","","","match","","","","","","","","","","","","","","key","j","16.665624999999636","960","536","j","true","match","img/diamond.png","菱形","菱形","ALT1_1","prac_ALT1_1","","","","","","","","","","","",""
"null","<span style='color:GreenYellow; font-size: 70px;'>正确! </span>","null","html-keyboard-response","126","306042","0.0-7.0-0.0-1.1-0.1-1.57","3","3","3","4","3","3","3","3","3","3","4","2","4","4","4","5","4","4","4","4","4","3","4","4","4","4","4","4","4","0","1","0","0","0","0","1","1","0","0","1","0","0","0","0","4","3","4","4","4","2","3","4","4","4","2","790996128928768002","徐","283","","","","","","","","","","","","","","","","","","","","","","","","","","","","","","feedback_test","","","","","","","","","","","",""
"656","","f","psychophysics","127","307701","0.0-7.0-0.0-1.1-0.1-0.58","3","3","3","4","3","3","3","3","3","3","4","2","4","4","4","5","4","4","4","4","4","3","4","4","4","4","4","4","4","0","1","0","0","0","0","1","1","0","0","1","0","0","0","0","4","3","4","4","4","2","3","4","4","4","2","790996128928768002","徐","283","","","","nonmatch","","","","","","","","","","","","","","key","f","16.666666666666668","960","536","f","true","nonmatch","img/diamond.png","椭圆","菱形","ALT1_1","prac_ALT1_1","","","","","","","","","","","",""
"null","<span style='color:GreenYellow; font-size: 70px;'>正确! </span>","null","html-keyboard-response","128","308201","0.0-7.0-0.0-1.1-0.1-1.58","3","3","3","4","3","3","3","3","3","3","4","2","4","4","4","5","4","4","4","4","4","3","4","4","4","4","4","4","4","0","1","0","0","0","0","1","1","0","0","1","0","0","0","0","4","3","4","4","4","2","3","4","4","4","2","790996128928768002","徐","283","","","","","","","","","","","","","","","","","","","","","","","","","","","","","","feedback_test","","","","","","","","","","","",""
"577","","j","psychophysics","129","309780","0.0-7.0-0.0-1.1-0.1-0.59","3","3","3","4","3","3","3","3","3","3","4","2","4","4","4","5","4","4","4","4","4","3","4","4","4","4","4","4","4","0","1","0","0","0","0","1","1","0","0","1","0","0","0","0","4","3","4","4","4","2","3","4","4","4","2","790996128928768002","徐","283","","","","match","","","","","","","","","","","","","","key","j","16.665957446808264","960","536","f","false","nonmatch","img/ellipse.png","梯形","椭圆","ALT1_1","prac_ALT1_1","","","","","","","","","","","",""
"null","<span style='color:red; font-size: 70px;'>错误! </span>","null","html-keyboard-response","130","310282","0.0-7.0-0.0-1.1-0.1-1.59","3","3","3","4","3","3","3","3","3","3","4","2","4","4","4","5","4","4","4","4","4","3","4","4","4","4","4","4","4","0","1","0","0","0","0","1","1","0","0","1","0","0","0","0","4","3","4","4","4","2","3","4","4","4","2","790996128928768002","徐","283","","","","","","","","","","","","","","","","","","","","","","","","","","","","","","feedback_test","","","","","","","","","","","",""
"800","","j","psychophysics","131","312084","0.0-7.0-0.0-1.1-0.1-0.60","3","3","3","4","3","3","3","3","3","3","4","2","4","4","4","5","4","4","4","4","4","3","4","4","4","4","4","4","4","0","1","0","0","0","0","1","1","0","0","1","0","0","0","0","4","3","4","4","4","2","3","4","4","4","2","790996128928768002","徐","283","","","","match","","","","","","","","","","","","","","key","j","16.66542056074723","960","536","j","true","match","img/ellipse.png","椭圆","椭圆","ALT1_1","prac_ALT1_1","","","","","","","","","","","",""
"null","<span style='color:GreenYellow; font-size: 70px;'>正确! </span>","null","html-keyboard-response","132","312584","0.0-7.0-0.0-1.1-0.1-1.60","3","3","3","4","3","3","3","3","3","3","4","2","4","4","4","5","4","4","4","4","4","3","4","4","4","4","4","4","4","0","1","0","0","0","0","1","1","0","0","1","0","0","0","0","4","3","4","4","4","2","3","4","4","4","2","790996128928768002","徐","283","","","","","","","","","","","","","","","","","","","","","","","","","","","","","","feedback_test","","","","","","","","","","","",""
"1073","","f","psychophysics","133","314660","0.0-7.0-0.0-1.1-0.1-0.61","3","3","3","4","3","3","3","3","3","3","4","2","4","4","4","5","4","4","4","4","4","3","4","4","4","4","4","4","4","0","1","0","0","0","0","1","1","0","0","1","0","0","0","0","4","3","4","4","4","2","3","4","4","4","2","790996128928768002","徐","283","","","","nonmatch","","","","","","","","","","","","","","key","f","16.665853658536303","960","536","f","true","nonmatch","img/hexagon.png","菱形","六边","ALT1_1","prac_ALT1_1","","","","","","","","","","","",""
"null","<span style='color:GreenYellow; font-size: 70px;'>正确! </span>","null","html-keyboard-response","134","315161","0.0-7.0-0.0-1.1-0.1-1.61","3","3","3","4","3","3","3","3","3","3","4","2","4","4","4","5","4","4","4","4","4","3","4","4","4","4","4","4","4","0","1","0","0","0","0","1","1","0","0","1","0","0","0","0","4","3","4","4","4","2","3","4","4","4","2","790996128928768002","徐","283","","","","","","","","","","","","","","","","","","","","","","","","","","","","","","feedback_test","","","","","","","","","","","",""
"850","","f","psychophysics","135","317012","0.0-7.0-0.0-1.1-0.1-0.62","3","3","3","4","3","3","3","3","3","3","4","2","4","4","4","5","4","4","4","4","4","3","4","4","4","4","4","4","4","0","1","0","0","0","0","1","1","0","0","1","0","0","0","0","4","3","4","4","4","2","3","4","4","4","2","790996128928768002","徐","283","","","","nonmatch","","","","","","","","","","","","","","key","f","16.66636363636353","960","536","f","true","nonmatch","img/hexagon.png","椭圆","六边","ALT1_1","prac_ALT1_1","","","","","","","","","","","",""
"null","<span style='color:GreenYellow; font-size: 70px;'>正确! </span>","null","html-keyboard-response","136","317513","0.0-7.0-0.0-1.1-0.1-1.62","3","3","3","4","3","3","3","3","3","3","4","2","4","4","4","5","4","4","4","4","4","3","4","4","4","4","4","4","4","0","1","0","0","0","0","1","1","0","0","1","0","0","0","0","4","3","4","4","4","2","3","4","4","4","2","790996128928768002","徐","283","","","","","","","","","","","","","","","","","","","","","","","","","","","","","","feedback_test","","","","","","","","","","","",""
"762","","j","psychophysics","137","319277","0.0-7.0-0.0-1.1-0.1-0.63","3","3","3","4","3","3","3","3","3","3","4","2","4","4","4","5","4","4","4","4","4","3","4","4","4","4","4","4","4","0","1","0","0","0","0","1","1","0","0","1","0","0","0","0","4","3","4","4","4","2","3","4","4","4","2","790996128928768002","徐","283","","","","match","","","","","","","","","","","","","","key","j","16.666346153846042","960","536","j","true","match","img/hexagon.png","六边","六边","ALT1_1","prac_ALT1_1","","","","","","","","","","","",""
"null","<span style='color:GreenYellow; font-size: 70px;'>正确! </span>","null","html-keyboard-response","138","319777","0.0-7.0-0.0-1.1-0.1-1.63","3","3","3","4","3","3","3","3","3","3","4","2","4","4","4","5","4","4","4","4","4","3","4","4","4","4","4","4","4","0","1","0","0","0","0","1","1","0","0","1","0","0","0","0","4","3","4","4","4","2","3","4","4","4","2","790996128928768002","徐","283","","","","","","","","","","","","","","","","","","","","","","","","","","","","","","feedback_test","","","","","","","","","","","",""
"682","","f","psychophysics","139","321460","0.0-7.0-0.0-1.1-0.1-0.64","3","3","3","4","3","3","3","3","3","3","4","2","4","4","4","5","4","4","4","4","4","3","4","4","4","4","4","4","4","0","1","0","0","0","0","1","1","0","0","1","0","0","0","0","4","3","4","4","4","2","3","4","4","4","2","790996128928768002","徐","283","","","","nonmatch","","","","","","","","","","","","","","key","f","16.665656565656214","960","536","j","false","match","img/trapezoid.png","梯形","梯形","ALT1_1","prac_ALT1_1","","","","","","","","","","","",""
"null","<span style='color:red; font-size: 70px;'>错误! </span>","null","html-keyboard-response","140","321961","0.0-7.0-0.0-1.1-0.1-1.64","3","3","3","4","3","3","3","3","3","3","4","2","4","4","4","5","4","4","4","4","4","3","4","4","4","4","4","4","4","0","1","0","0","0","0","1","1","0","0","1","0","0","0","0","4","3","4","4","4","2","3","4","4","4","2","790996128928768002","徐","283","","","","","","","","","","","","","","","","","","","","","","","","","","","","","","feedback_test","","","","","","","","","","","",""
"null","","null","psychophysics","141","324166","0.0-7.0-0.0-1.1-0.1-0.65","3","3","3","4","3","3","3","3","3","3","4","2","4","4","4","5","4","4","4","4","4","3","4","4","4","4","4","4","4","0","1","0","0","0","0","1","1","0","0","1","0","0","0","0","4","3","4","4","4","2","3","4","4","4","2","790996128928768002","徐","283","","","","null","","","","","","","","","","","","","","key","null","16.665648854961923","960","536","f","false","nonmatch","img/trapezoid.png","六边","梯形","ALT1_1","prac_ALT1_1","","","","","","","","","","","",""
"null","<span class='add_' style='color:yellow; font-size: 70px;'> 太慢! </span>","null","html-keyboard-response","142","324668","0.0-7.0-0.0-1.1-0.1-1.65","3","3","3","4","3","3","3","3","3","3","4","2","4","4","4","5","4","4","4","4","4","3","4","4","4","4","4","4","4","0","1","0","0","0","0","1","1","0","0","1","0","0","0","0","4","3","4","4","4","2","3","4","4","4","2","790996128928768002","徐","283","","","","","","","","","","","","","","","","","","","","","","","","","","","","","","feedback_test","","","","","","","","","","","",""
"879","","f","psychophysics","143","326548","0.0-7.0-0.0-1.1-0.1-0.66","3","3","3","4","3","3","3","3","3","3","4","2","4","4","4","5","4","4","4","4","4","3","4","4","4","4","4","4","4","0","1","0","0","0","0","1","1","0","0","1","0","0","0","0","4","3","4","4","4","2","3","4","4","4","2","790996128928768002","徐","283","","","","nonmatch","","","","","","","","","","","","","","key","f","16.66607142857122","960","536","f","true","nonmatch","img/hexagon.png","梯形","六边","ALT1_1","prac_ALT1_1","","","","","","","","","","","",""
"null","<span style='color:GreenYellow; font-size: 70px;'>正确! </span>","null","html-keyboard-response","144","327050","0.0-7.0-0.0-1.1-0.1-1.66","3","3","3","4","3","3","3","3","3","3","4","2","4","4","4","5","4","4","4","4","4","3","4","4","4","4","4","4","4","0","1","0","0","0","0","1","1","0","0","1","0","0","0","0","4","3","4","4","4","2","3","4","4","4","2","790996128928768002","徐","283","","","","","","","","","","","","","","","","","","","","","","","","","","","","","","feedback_test","","","","","","","","","","","",""
"824","","f","psychophysics","145","328876","0.0-7.0-0.0-1.1-0.1-0.67","3","3","3","4","3","3","3","3","3","3","4","2","4","4","4","5","4","4","4","4","4","3","4","4","4","4","4","4","4","0","1","0","0","0","0","1","1","0","0","1","0","0","0","0","4","3","4","4","4","2","3","4","4","4","2","790996128928768002","徐","283","","","","nonmatch","","","","","","","","","","","","","","key","f","16.667592592592378","960","536","f","true","nonmatch","img/ellipse.png","六边","椭圆","ALT1_1","prac_ALT1_1","","","","","","","","","","","",""
"null","<span style='color:GreenYellow; font-size: 70px;'>正确! </span>","null","html-keyboard-response","146","329377","0.0-7.0-0.0-1.1-0.1-1.67","3","3","3","4","3","3","3","3","3","3","4","2","4","4","4","5","4","4","4","4","4","3","4","4","4","4","4","4","4","0","1","0","0","0","0","1","1","0","0","1","0","0","0","0","4","3","4","4","4","2","3","4","4","4","2","790996128928768002","徐","283","","","","","","","","","","","","","","","","","","","","","","","","","","","","","","feedback_test","","","","","","","","","","","",""
"915","","f","psychophysics","147","331293","0.0-7.0-0.0-1.1-0.1-0.68","3","3","3","4","3","3","3","3","3","3","4","2","4","4","4","5","4","4","4","4","4","3","4","4","4","4","4","4","4","0","1","0","0","0","0","1","1","0","0","1","0","0","0","0","4","3","4","4","4","2","3","4","4","4","2","790996128928768002","徐","283","","","","nonmatch","","","","","","","","","","","","","","key","f","16.666371681415825","960","536","f","true","nonmatch","img/diamond.png","梯形","菱形","ALT1_1","prac_ALT1_1","","","","","","","","","","","",""
"null","<span style='color:GreenYellow; font-size: 70px;'>正确! </span>","null","html-keyboard-response","148","331794","0.0-7.0-0.0-1.1-0.1-1.68","3","3","3","4","3","3","3","3","3","3","4","2","4","4","4","5","4","4","4","4","4","3","4","4","4","4","4","4","4","0","1","0","0","0","0","1","1","0","0","1","0","0","0","0","4","3","4","4","4","2","3","4","4","4","2","790996128928768002","徐","283","","","","","","","","","","","","","","","","","","","","","","","","","","","","","","feedback_test","","","","","","","","","","","",""
"897","","j","psychophysics","149","333692","0.0-7.0-0.0-1.1-0.1-0.69","3","3","3","4","3","3","3","3","3","3","4","2","4","4","4","5","4","4","4","4","4","3","4","4","4","4","4","4","4","0","1","0","0","0","0","1","1","0","0","1","0","0","0","0","4","3","4","4","4","2","3","4","4","4","2","790996128928768002","徐","283","","","","match","","","","","","","","","","","","","","key","j","16.665178571428573","960","536","j","true","match","img/hexagon.png","六边","六边","ALT1_1","prac_ALT1_1","","","","","","","","","","","",""
"null","<span style='color:GreenYellow; font-size: 70px;'>正确! </span>","null","html-keyboard-response","150","334193","0.0-7.0-0.0-1.1-0.1-1.69","3","3","3","4","3","3","3","3","3","3","4","2","4","4","4","5","4","4","4","4","4","3","4","4","4","4","4","4","4","0","1","0","0","0","0","1","1","0","0","1","0","0","0","0","4","3","4","4","4","2","3","4","4","4","2","790996128928768002","徐","283","","","","","","","","","","","","","","","","","","","","","","","","","","","","","","feedback_test","","","","","","","","","","","",""
"763","","j","psychophysics","151","335959","0.0-7.0-0.0-1.1-0.1-0.70","3","3","3","4","3","3","3","3","3","3","4","2","4","4","4","5","4","4","4","4","4","3","4","4","4","4","4","4","4","0","1","0","0","0","0","1","1","0","0","1","0","0","0","0","4","3","4","4","4","2","3","4","4","4","2","790996128928768002","徐","283","","","","match","","","","","","","","","","","","","","key","j","16.666346153846042","960","536","j","true","match","img/ellipse.png","椭圆","椭圆","ALT1_1","prac_ALT1_1","","","","","","","","","","","",""
"null","<span style='color:GreenYellow; font-size: 70px;'>正确! </span>","null","html-keyboard-response","152","336461","0.0-7.0-0.0-1.1-0.1-1.70","3","3","3","4","3","3","3","3","3","3","4","2","4","4","4","5","4","4","4","4","4","3","4","4","4","4","4","4","4","0","1","0","0","0","0","1","1","0","0","1","0","0","0","0","4","3","4","4","4","2","3","4","4","4","2","790996128928768002","徐","283","","","","","","","","","","","","","","","","","","","","","","","","","","","","","","feedback_test","","","","","","","","","","","",""
"965","","f","psychophysics","153","338428","0.0-7.0-0.0-1.1-0.1-0.71","3","3","3","4","3","3","3","3","3","3","4","2","4","4","4","5","4","4","4","4","4","3","4","4","4","4","4","4","4","0","1","0","0","0","0","1","1","0","0","1","0","0","0","0","4","3","4","4","4","2","3","4","4","4","2","790996128928768002","徐","283","","","","nonmatch","","","","","","","","","","","","","","key","f","16.665811965812164","960","536","f","true","nonmatch","img/trapezoid.png","菱形","梯形","ALT1_1","prac_ALT1_1","","","","","","","","","","","",""
"null","<span style='color:GreenYellow; font-size: 70px;'>正确! </span>","null","html-keyboard-response","154","338928","0.0-7.0-0.0-1.1-0.1-1.71","3","3","3","4","3","3","3","3","3","3","4","2","4","4","4","5","4","4","4","4","4","3","4","4","4","4","4","4","4","0","1","0","0","0","0","1","1","0","0","1","0","0","0","0","4","3","4","4","4","2","3","4","4","4","2","790996128928768002","徐","283","","","","","","","","","","","","","","","","","","","","","","","","","","","","","","feedback_test","","","","","","","","","","","",""
"863","","j","psychophysics","155","340796","0.0-7.0-0.0-1.1-0.1-0.72","3","3","3","4","3","3","3","3","3","3","4","2","4","4","4","5","4","4","4","4","4","3","4","4","4","4","4","4","4","0","1","0","0","0","0","1","1","0","0","1","0","0","0","0","4","3","4","4","4","2","3","4","4","4","2","790996128928768002","徐","283","","","","match","","","","","","","","","","","","","","key","j","16.665765765765975","960","536","j","true","match","img/ellipse.png","椭圆","椭圆","ALT1_1","prac_ALT1_1","","","","","","","","","","","",""
"null","<span style='color:GreenYellow; font-size: 70px;'>正确! </span>","null","html-keyboard-response","156","341298","0.0-7.0-0.0-1.1-0.1-1.72","3","3","3","4","3","3","3","3","3","3","4","2","4","4","4","5","4","4","4","4","4","3","4","4","4","4","4","4","4","0","1","0","0","0","0","1","1","0","0","1","0","0","0","0","4","3","4","4","4","2","3","4","4","4","2","790996128928768002","徐","283","","","","","","","","","","","","","","","","","","","","","","","","","","","","","","feedback_test","","","","","","","","","","","",""
"592","","j","psychophysics","157","342893","0.0-7.0-0.0-1.1-0.1-0.73","3","3","3","4","3","3","3","3","3","3","4","2","4","4","4","5","4","4","4","4","4","3","4","4","4","4","4","4","4","0","1","0","0","0","0","1","1","0","0","1","0","0","0","0","4","3","4","4","4","2","3","4","4","4","2","790996128928768002","徐","283","","","","match","","","","","","","","","","","","","","key","j","16.665957446808882","960","536","j","true","match","img/ellipse.png","椭圆","椭圆","ALT1_1","prac_ALT1_1","","","","","","","","","","","",""
"null","<span style='color:GreenYellow; font-size: 70px;'>正确! </span>","null","html-keyboard-response","158","343393","0.0-7.0-0.0-1.1-0.1-1.73","3","3","3","4","3","3","3","3","3","3","4","2","4","4","4","5","4","4","4","4","4","3","4","4","4","4","4","4","4","0","1","0","0","0","0","1","1","0","0","1","0","0","0","0","4","3","4","4","4","2","3","4","4","4","2","790996128928768002","徐","283","","","","","","","","","","","","","","","","","","","","","","","","","","","","","","feedback_test","","","","","","","","","","","",""
"1010","","f","psychophysics","159","345404","0.0-7.0-0.0-1.1-0.1-0.74","3","3","3","4","3","3","3","3","3","3","4","2","4","4","4","5","4","4","4","4","4","3","4","4","4","4","4","4","4","0","1","0","0","0","0","1","1","0","0","1","0","0","0","0","4","3","4","4","4","2","3","4","4","4","2","790996128928768002","徐","283","","","","nonmatch","","","","","","","","","","","","","","key","f","16.664705882353235","960","536","f","true","nonmatch","img/hexagon.png","菱形","六边","ALT1_1","prac_ALT1_1","","","","","","","","","","","",""
"null","<span style='color:GreenYellow; font-size: 70px;'>正确! </span>","null","html-keyboard-response","160","345904","0.0-7.0-0.0-1.1-0.1-1.74","3","3","3","4","3","3","3","3","3","3","4","2","4","4","4","5","4","4","4","4","4","3","4","4","4","4","4","4","4","0","1","0","0","0","0","1","1","0","0","1","0","0","0","0","4","3","4","4","4","2","3","4","4","4","2","790996128928768002","徐","283","","","","","","","","","","","","","","","","","","","","","","","","","","","","","","feedback_test","","","","","","","","","","","",""
"826","","j","psychophysics","161","347732","0.0-7.0-0.0-1.1-0.1-0.75","3","3","3","4","3","3","3","3","3","3","4","2","4","4","4","5","4","4","4","4","4","3","4","4","4","4","4","4","4","0","1","0","0","0","0","1","1","0","0","1","0","0","0","0","4","3","4","4","4","2","3","4","4","4","2","790996128928768002","徐","283","","","","match","","","","","","","","","","","","","","key","j","16.665137614678898","960","536","f","false","nonmatch","img/trapezoid.png","六边","梯形","ALT1_1","prac_ALT1_1","","","","","","","","","","","",""
"null","<span style='color:red; font-size: 70px;'>错误! </span>","null","html-keyboard-response","162","348233","0.0-7.0-0.0-1.1-0.1-1.75","3","3","3","4","3","3","3","3","3","3","4","2","4","4","4","5","4","4","4","4","4","3","4","4","4","4","4","4","4","0","1","0","0","0","0","1","1","0","0","1","0","0","0","0","4","3","4","4","4","2","3","4","4","4","2","790996128928768002","徐","283","","","","","","","","","","","","","","","","","","","","","","","","","","","","","","feedback_test","","","","","","","","","","","",""
"747","","f","psychophysics","163","349980","0.0-7.0-0.0-1.1-0.1-0.76","3","3","3","4","3","3","3","3","3","3","4","2","4","4","4","5","4","4","4","4","4","3","4","4","4","4","4","4","4","0","1","0","0","0","0","1","1","0","0","1","0","0","0","0","4","3","4","4","4","2","3","4","4","4","2","790996128928768002","徐","283","","","","nonmatch","","","","","","","","","","","","","","key","f","16.666346153846042","960","536","f","true","nonmatch","img/ellipse.png","六边","椭圆","ALT1_1","prac_ALT1_1","","","","","","","","","","","",""
"null","<span style='color:GreenYellow; font-size: 70px;'>正确! </span>","null","html-keyboard-response","164","350482","0.0-7.0-0.0-1.1-0.1-1.76","3","3","3","4","3","3","3","3","3","3","4","2","4","4","4","5","4","4","4","4","4","3","4","4","4","4","4","4","4","0","1","0","0","0","0","1","1","0","0","1","0","0","0","0","4","3","4","4","4","2","3","4","4","4","2","790996128928768002","徐","283","","","","","","","","","","","","","","","","","","","","","","","","","","","","","","feedback_test","","","","","","","","","","","",""
"919","","j","psychophysics","165","352404","0.0-7.0-0.0-1.1-0.1-0.77","3","3","3","4","3","3","3","3","3","3","4","2","4","4","4","5","4","4","4","4","4","3","4","4","4","4","4","4","4","0","1","0","0","0","0","1","1","0","0","1","0","0","0","0","4","3","4","4","4","2","3","4","4","4","2","790996128928768002","徐","283","","","","match","","","","","","","","","","","","","","key","j","16.666666666666668","960","536","j","true","match","img/diamond.png","菱形","菱形","ALT1_1","prac_ALT1_1","","","","","","","","","","","",""
"null","<span style='color:GreenYellow; font-size: 70px;'>正确! </span>","null","html-keyboard-response","166","352905","0.0-7.0-0.0-1.1-0.1-1.77","3","3","3","4","3","3","3","3","3","3","4","2","4","4","4","5","4","4","4","4","4","3","4","4","4","4","4","4","4","0","1","0","0","0","0","1","1","0","0","1","0","0","0","0","4","3","4","4","4","2","3","4","4","4","2","790996128928768002","徐","283","","","","","","","","","","","","","","","","","","","","","","","","","","","","","","feedback_test","","","","","","","","","","","",""
"731","","j","psychophysics","167","354637","0.0-7.0-0.0-1.1-0.1-0.78","3","3","3","4","3","3","3","3","3","3","4","2","4","4","4","5","4","4","4","4","4","3","4","4","4","4","4","4","4","0","1","0","0","0","0","1","1","0","0","1","0","0","0","0","4","3","4","4","4","2","3","4","4","4","2","790996128928768002","徐","283","","","","match","","","","","","","","","","","","","","key","j","16.666019417475503","960","536","j","true","match","img/diamond.png","菱形","菱形","ALT1_1","prac_ALT1_1","","","","","","","","","","","",""
"null","<span style='color:GreenYellow; font-size: 70px;'>正确! </span>","null","html-keyboard-response","168","355137","0.0-7.0-0.0-1.1-0.1-1.78","3","3","3","4","3","3","3","3","3","3","4","2","4","4","4","5","4","4","4","4","4","3","4","4","4","4","4","4","4","0","1","0","0","0","0","1","1","0","0","1","0","0","0","0","4","3","4","4","4","2","3","4","4","4","2","790996128928768002","徐","283","","","","","","","","","","","","","","","","","","","","","","","","","","","","","","feedback_test","","","","","","","","","","","",""
"1049","","j","psychophysics","169","357188","0.0-7.0-0.0-1.1-0.1-0.79","3","3","3","4","3","3","3","3","3","3","4","2","4","4","4","5","4","4","4","4","4","3","4","4","4","4","4","4","4","0","1","0","0","0","0","1","1","0","0","1","0","0","0","0","4","3","4","4","4","2","3","4","4","4","2","790996128928768002","徐","283","","","","match","","","","","","","","","","","","","","key","j","16.666393442622855","960","536","j","true","match","img/trapezoid.png","梯形","梯形","ALT1_1","prac_ALT1_1","","","","","","","","","","","",""
"null","<span style='color:GreenYellow; font-size: 70px;'>正确! </span>","null","html-keyboard-response","170","357690","0.0-7.0-0.0-1.1-0.1-1.79","3","3","3","4","3","3","3","3","3","3","4","2","4","4","4","5","4","4","4","4","4","3","4","4","4","4","4","4","4","0","1","0","0","0","0","1","1","0","0","1","0","0","0","0","4","3","4","4","4","2","3","4","4","4","2","790996128928768002","徐","283","","","","","","","","","","","","","","","","","","","","","","","","","","","","","","feedback_test","","","","","","","","","","","",""
"697","","j","psychophysics","171","359388","0.0-7.0-0.0-1.1-0.1-0.80","3","3","3","4","3","3","3","3","3","3","4","2","4","4","4","5","4","4","4","4","4","3","4","4","4","4","4","4","4","0","1","0","0","0","0","1","1","0","0","1","0","0","0","0","4","3","4","4","4","2","3","4","4","4","2","790996128928768002","徐","283","","","","match","","","","","","","","","","","","","","key","j","16.666336633663253","960","536","f","false","nonmatch","img/trapezoid.png","菱形","梯形","ALT1_1","prac_ALT1_1","","","","","","","","","","","",""
"null","<span style='color:red; font-size: 70px;'>错误! </span>","null","html-keyboard-response","172","359889","0.0-7.0-0.0-1.1-0.1-1.80","3","3","3","4","3","3","3","3","3","3","4","2","4","4","4","5","4","4","4","4","4","3","4","4","4","4","4","4","4","0","1","0","0","0","0","1","1","0","0","1","0","0","0","0","4","3","4","4","4","2","3","4","4","4","2","790996128928768002","徐","283","","","","","","","","","","","","","","","","","","","","","","","","","","","","","","feedback_test","","","","","","","","","","","",""
"753","","j","psychophysics","173","361644","0.0-7.0-0.0-1.1-0.1-0.81","3","3","3","4","3","3","3","3","3","3","4","2","4","4","4","5","4","4","4","4","4","3","4","4","4","4","4","4","4","0","1","0","0","0","0","1","1","0","0","1","0","0","0","0","4","3","4","4","4","2","3","4","4","4","2","790996128928768002","徐","283","","","","match","","","","","","","","","","","","","","key","j","16.664761904761793","960","536","j","true","match","img/trapezoid.png","梯形","梯形","ALT1_1","prac_ALT1_1","","","","","","","","","","","",""
"null","<span style='color:GreenYellow; font-size: 70px;'>正确! </span>","null","html-keyboard-response","174","362145","0.0-7.0-0.0-1.1-0.1-1.81","3","3","3","4","3","3","3","3","3","3","4","2","4","4","4","5","4","4","4","4","4","3","4","4","4","4","4","4","4","0","1","0","0","0","0","1","1","0","0","1","0","0","0","0","4","3","4","4","4","2","3","4","4","4","2","790996128928768002","徐","283","","","","","","","","","","","","","","","","","","","","","","","","","","","","","","feedback_test","","","","","","","","","","","",""
"673","","f","psychophysics","175","363820","0.0-7.0-0.0-1.1-0.1-0.82","3","3","3","4","3","3","3","3","3","3","4","2","4","4","4","5","4","4","4","4","4","3","4","4","4","4","4","4","4","0","1","0","0","0","0","1","1","0","0","1","0","0","0","0","4","3","4","4","4","2","3","4","4","4","2","790996128928768002","徐","283","","","","nonmatch","","","","","","","","","","","","","","key","f","16.665656565656214","960","536","f","true","nonmatch","img/diamond.png","六边","菱形","ALT1_1","prac_ALT1_1","","","","","","","","","","","",""
"null","<span style='color:GreenYellow; font-size: 70px;'>正确! </span>","null","html-keyboard-response","176","364320","0.0-7.0-0.0-1.1-0.1-1.82","3","3","3","4","3","3","3","3","3","3","4","2","4","4","4","5","4","4","4","4","4","3","4","4","4","4","4","4","4","0","1","0","0","0","0","1","1","0","0","1","0","0","0","0","4","3","4","4","4","2","3","4","4","4","2","790996128928768002","徐","283","","","","","","","","","","","","","","","","","","","","","","","","","","","","","","feedback_test","","","","","","","","","","","",""
"642","","f","psychophysics","177","365965","0.0-7.0-0.0-1.1-0.1-0.83","3","3","3","4","3","3","3","3","3","3","4","2","4","4","4","5","4","4","4","4","4","3","4","4","4","4","4","4","4","0","1","0","0","0","0","1","1","0","0","1","0","0","0","0","4","3","4","4","4","2","3","4","4","4","2","790996128928768002","徐","283","","","","nonmatch","","","","","","","","","","","","","","key","f","16.664285714285477","960","536","f","true","nonmatch","img/diamond.png","椭圆","菱形","ALT1_1","prac_ALT1_1","","","","","","","","","","","",""
"null","<span style='color:GreenYellow; font-size: 70px;'>正确! </span>","null","html-keyboard-response","178","366465","0.0-7.0-0.0-1.1-0.1-1.83","3","3","3","4","3","3","3","3","3","3","4","2","4","4","4","5","4","4","4","4","4","3","4","4","4","4","4","4","4","0","1","0","0","0","0","1","1","0","0","1","0","0","0","0","4","3","4","4","4","2","3","4","4","4","2","790996128928768002","徐","283","","","","","","","","","","","","","","","","","","","","","","","","","","","","","","feedback_test","","","","","","","","","","","",""
"647","","f","psychophysics","179","368116","0.0-7.0-0.0-1.1-0.1-0.84","3","3","3","4","3","3","3","3","3","3","4","2","4","4","4","5","4","4","4","4","4","3","4","4","4","4","4","4","4","0","1","0","0","0","0","1","1","0","0","1","0","0","0","0","4","3","4","4","4","2","3","4","4","4","2","790996128928768002","徐","283","","","","nonmatch","","","","","","","","","","","","","","key","f","16.66632653061272","960","536","f","true","nonmatch","img/hexagon.png","椭圆","六边","ALT1_1","prac_ALT1_1","","","","","","","","","","","",""
"null","<span style='color:GreenYellow; font-size: 70px;'>正确! </span>","null","html-keyboard-response","180","368618","0.0-7.0-0.0-1.1-0.1-1.84","3","3","3","4","3","3","3","3","3","3","4","2","4","4","4","5","4","4","4","4","4","3","4","4","4","4","4","4","4","0","1","0","0","0","0","1","1","0","0","1","0","0","0","0","4","3","4","4","4","2","3","4","4","4","2","790996128928768002","徐","283","","","","","","","","","","","","","","","","","","","","","","","","","","","","","","feedback_test","","","","","","","","","","","",""
"681","","f","psychophysics","181","370300","0.0-7.0-0.0-1.1-0.1-0.85","3","3","3","4","3","3","3","3","3","3","4","2","4","4","4","5","4","4","4","4","4","3","4","4","4","4","4","4","4","0","1","0","0","0","0","1","1","0","0","1","0","0","0","0","4","3","4","4","4","2","3","4","4","4","2","790996128928768002","徐","283","","","","nonmatch","","","","","","","","","","","","","","key","f","16.667000000000115","960","536","f","true","nonmatch","img/hexagon.png","梯形","六边","ALT1_1","prac_ALT1_1","","","","","","","","","","","",""
