"rt","stimulus","response","trial_type","trial_index","time_elapsed","internal_node_id","ses_1","ses_2","ses_3","ses_4","ses_5","ses_6","ses_7","ses_8","ses_9","ses_10","coreself_1","coreself_2","coreself_3","coreself_4","coreself_5","coreself_6","coreself_7","coreself_8","coreself_9","coreself_10","SGPS_1","SGPS_2","SGPS_3","SGPS_4","SGPS_5","SGPS_6","SGPS_7","SGPS_8","SGPS_9","NPI1","NPI2","NPI3","NPI4","NPI5","NPI6","NPI7","NPI8","NPI9","NPI10","NPI11","NPI12","NPI13","NPI14","NPI15","hsns_1","hsns_2","hsns_3","hsns_4","hsns_5","trap1","hsns_6","hsns_7","hsns_8","hsns_9","hsns_10","subj_idx","friend_name","ParticipantID","value","success","user_agent","responses","item_order","radio_event_ids","radio_event_times","key_event_times","mouse_event_times","straightlining","zigzagging","honeypot","timeout","failed_images","failed_audio","failed_video","view_history","response_type","key_press","avg_frame_time","center_x","center_y","correct_response","correct","identity","Image","word","condition","task_id","screen_id","time_stamp","version_attrib","version_target","IAT","RT","varname","summary","version_attrib2","version_target2","question_order","correct_answer","trap1_item"
"31917","
   <p><div style = ""color: white;font-size:25px;"">您好，欢迎参加本次实验。</div> </p>
   <p><div style = ""color: white;font-size:25px;"">为充分保障您的权利，请确保您已经知晓并同意《参与实验同意书》以及《数据公开知情同意书》。</div></p>
   <p><div style = ""color: white;font-size:25px;"">如果您未见过上述内容，请咨询实验员。</div></p>
   <p><div style = ""color: white;font-size:25px;"">如果您选择继续实验，则表示您已经清楚两份知情同意书的内容并同意。</div></p>
   <p><div style = ""color: pink;font-size:30px;"">请确保您记得day0的实验编号，您将在本次实验输入该编号，若您忘记，请咨询实验员后作答。</div></p>
   <p><div style = ""color: lightblue;font-size:25px;"">请您尽可能认真地作答，我们将依据您在各问卷和按键任务中的作答质量发放报酬。</div></p>
   <p> <div style = ""color: green;font-size:25px;""><按空格键至下页></div> </p>
   "," ","html-keyboard-response","0","31919","0.0-0.0","3","3","3","3","2","3","3","4","3","3","4","3","2","4","3","4","3","3","4","3","1","3","3","3","3","2","3","3","3","1","0","1","1","0","1","1","1","1","1","1","0","1","0","1","4","4","4","3","4","1","3","3","3","3","3","796469824262905858","夏","472","","","","","","","","","","","","","","","","","","","","","","","","","","","","","","","","","","","","","","","","","",""
"","","","call-function","1","31920","0.0-1.0-0.0","3","3","3","3","2","3","3","4","3","3","4","3","2","4","3","4","3","3","4","3","1","3","3","3","3","2","3","3","3","1","0","1","1","0","1","1","1","1","1","1","0","1","0","1","4","4","4","3","4","1","3","3","3","3","3","796469824262905858","夏","472","","","","","","","","","","","","","","","","","","","","","","","","","","","","","","","","","","","","","","","","","",""
"23932","","{""friend_name"":""夏"",""ParticipantID"":""472""}","survey-html-form","2","55852","0.0-1.0-1.0","3","3","3","3","2","3","3","4","3","3","4","3","2","4","3","4","3","3","4","3","1","3","3","3","3","2","3","3","3","1","0","1","1","0","1","1","1","1","1","1","0","1","0","1","4","4","4","3","4","1","3","3","3","3","3","796469824262905858","夏","472","","","","","","","","","","","","","","","","","","","","","","","","","","","","","","","","","","","","","","","","","",""
"","","","fullscreen","3","118275","0.0-2.0","3","3","3","3","2","3","3","4","3","3","4","3","2","4","3","4","3","3","4","3","1","3","3","3","3","2","3","3","3","1","0","1","1","0","1","1","1","1","1","1","0","1","0","1","4","4","4","3","4","1","3","3","3","3","3","796469824262905858","夏","472","","true","{}","","","","","","","","","","","","","","","","","","","","","","","","","","","","","","","","","","","","","","",""
"58675.700000047684","","{""Q01"":""3"",""Q02"":""3"",""Q03"":""3"",""Q04"":""3"",""Q05"":""2"",""Q06"":""3"",""Q07"":""3"",""Q08"":""4"",""Q09"":""3"",""Q10"":""3""}","survey-template","4","176954","0.0-3.0","3","3","3","3","2","3","3","4","3","3","4","3","2","4","3","4","3","3","4","3","1","3","3","3","3","2","3","3","3","1","0","1","1","0","1","1","1","1","1","1","0","1","0","1","4","4","4","3","4","1","3","3","3","3","3","796469824262905858","夏","472","","","","{""Q01"":""3"",""Q02"":""3"",""Q03"":""3"",""Q04"":""3"",""Q05"":""2"",""Q06"":""3"",""Q07"":""3"",""Q08"":""4"",""Q09"":""3"",""Q10"":""3""}","[0,1,2,3,4,5,6,7,8,9]","[""Q01"",""Q02"",""Q03"",""Q04"",""Q05"",""Q06"",""Q07"",""Q08"",""Q09"",""Q10""]","[15480.5,18173.600000023842,24074.100000023842,27472.400000095367,32138.100000023842,36390.40000009537,39638.200000047684,48376.700000047684,54668.5,57338.700000047684]","[]","[15480.5,18173.600000023842,24074.100000023842,26737.200000047684,27472.400000095367,32138.100000023842,36390.40000009537,39638.200000047684,48376.700000047684,54668.5,57338.700000047684,58673.800000071526]","0.6","0.3333333333333333","0","","","","","","","","","","","","","","","","","","","","","","","","","","","","","",""
"43015","","{""Q01"":""4"",""Q02"":""3"",""Q03"":""2"",""Q04"":""4"",""Q05"":""3"",""Q06"":""4"",""Q07"":""3"",""Q08"":""3"",""Q09"":""4"",""Q10"":""3""}","survey-template","5","219974","0.0-4.0","3","3","3","3","2","3","3","4","3","3","4","3","2","4","3","4","3","3","4","3","1","3","3","3","3","2","3","3","3","1","0","1","1","0","1","1","1","1","1","1","0","1","0","1","4","4","4","3","4","1","3","3","3","3","3","796469824262905858","夏","472","","","","{""Q01"":""4"",""Q02"":""3"",""Q03"":""2"",""Q04"":""4"",""Q05"":""3"",""Q06"":""4"",""Q07"":""3"",""Q08"":""3"",""Q09"":""4"",""Q10"":""3""}","[0,1,2,3,4,5,6,7,8,9]","[""Q01"",""Q02"",""Q03"",""Q04"",""Q05"",""Q06"",""Q07"",""Q08"",""Q09"",""Q10""]","[11702,16140.399999976158,21458,24818,28124,30705.100000023842,33893.199999928474,36924,39855.60000002384,42030.199999928474]","[]","[11702,15652.699999928474,16140.399999976158,21458,24818,28124,30705.100000023842,33060,33893.199999928474,36924,39855.60000002384,42030.199999928474,43013.10000002384]","0.5","0.7777777777777778","0","","","","","","","","","","","","","","","","","","","","","","","","","","","","","",""
"","","","preload","6","220035","0.0-5.0","3","3","3","3","2","3","3","4","3","3","4","3","2","4","3","4","3","3","4","3","1","3","3","3","3","2","3","3","3","1","0","1","1","0","1","1","1","1","1","1","0","1","0","1","4","4","4","3","4","1","3","3","3","3","3","796469824262905858","夏","472","","true","","","","","","","","","","","false","[]","[]","[]","","","","","","","","","","","","","","","","","","","","","","","","","",""
"28940","","","instructions","7","248976","0.0-6.0","3","3","3","3","2","3","3","4","3","3","4","3","2","4","3","4","3","3","4","3","1","3","3","3","3","2","3","3","3","1","0","1","1","0","1","1","1","1","1","1","0","1","0","1","4","4","4","3","4","1","3","3","3","3","3","796469824262905858","夏","472","","","","","","","","","","","","","","","","","[{""page_index"":0,""viewing_time"":28940}]","","","","","","","","","","","","","","","","","","","","","","","","",""
"93846","","","instructions","8","342824","0.0-7.0-1.0-0.0","3","3","3","3","2","3","3","4","3","3","4","3","2","4","3","4","3","3","4","3","1","3","3","3","3","2","3","3","3","1","0","1","1","0","1","1","1","1","1","1","0","1","0","1","4","4","4","3","4","1","3","3","3","3","3","796469824262905858","夏","472","","","","","","","","","","","","","","","","","[{""page_index"":0,""viewing_time"":48048},{""page_index"":1,""viewing_time"":40556},{""page_index"":2,""viewing_time"":5242}]","","","","","","","","","","","","","","","","","","","","","","","","",""
"null","","null","psychophysics","9","345031","0.0-7.0-1.0-1.0-0.0-0.0","3","3","3","3","2","3","3","4","3","3","4","3","2","4","3","4","3","3","4","3","1","3","3","3","3","2","3","3","3","1","0","1","1","0","1","1","1","1","1","1","0","1","0","1","4","4","4","3","4","1","3","3","3","3","3","796469824262905858","夏","472","","","","null","","","","","","","","","","","","","","key","null","16.665442748091678","720","476","f","false","match","img/hexagon.png","六边","六边","ALT1_2","prac_ALT1_2","","","","","","","","","","","",""
"null","<span class='add_' style='color:yellow; font-size: 70px;'> 太慢! </span>","null","html-keyboard-response","10","345533","0.0-7.0-1.0-1.0-0.0-1.0","3","3","3","3","2","3","3","4","3","3","4","3","2","4","3","4","3","3","4","3","1","3","3","3","3","2","3","3","3","1","0","1","1","0","1","1","1","1","1","1","0","1","0","1","4","4","4","3","4","1","3","3","3","3","3","796469824262905858","夏","472","","","","","","","","","","","","","","","","","","","","","","","","","","","","","","feedback_test","","","","","","","","","","","",""
"1127","","f","psychophysics","11","347663","0.0-7.0-1.0-1.0-0.0-0.1","3","3","3","3","2","3","3","4","3","3","4","3","2","4","3","4","3","3","4","3","1","3","3","3","3","2","3","3","3","1","0","1","1","0","1","1","1","1","1","1","0","1","0","1","4","4","4","3","4","1","3","3","3","3","3","796469824262905858","夏","472","","","","match","","","","","","","","","","","","","","key","f","16.664992063491983","720","476","f","true","match","img/triangle.png","三角","三角","ALT1_2","prac_ALT1_2","","","","","","","","","","","",""
"null","<span style='color:GreenYellow; font-size: 70px;'>正确! </span>","null","html-keyboard-response","12","348164","0.0-7.0-1.0-1.0-0.0-1.1","3","3","3","3","2","3","3","4","3","3","4","3","2","4","3","4","3","3","4","3","1","3","3","3","3","2","3","3","3","1","0","1","1","0","1","1","1","1","1","1","0","1","0","1","4","4","4","3","4","1","3","3","3","3","3","796469824262905858","夏","472","","","","","","","","","","","","","","","","","","","","","","","","","","","","","","feedback_test","","","","","","","","","","","",""
"567","","f","psychophysics","13","349733","0.0-7.0-1.0-1.0-0.0-0.2","3","3","3","3","2","3","3","4","3","3","4","3","2","4","3","4","3","3","4","3","1","3","3","3","3","2","3","3","3","1","0","1","1","0","1","1","1","1","1","1","0","1","0","1","4","4","4","3","4","1","3","3","3","3","3","796469824262905858","夏","472","","","","match","","","","","","","","","","","","","","key","f","16.665032258064496","720","476","f","true","match","img/square.png","方形","方形","ALT1_2","prac_ALT1_2","","","","","","","","","","","",""
"null","<span style='color:GreenYellow; font-size: 70px;'>正确! </span>","null","html-keyboard-response","14","350235","0.0-7.0-1.0-1.0-0.0-1.2","3","3","3","3","2","3","3","4","3","3","4","3","2","4","3","4","3","3","4","3","1","3","3","3","3","2","3","3","3","1","0","1","1","0","1","1","1","1","1","1","0","1","0","1","4","4","4","3","4","1","3","3","3","3","3","796469824262905858","夏","472","","","","","","","","","","","","","","","","","","","","","","","","","","","","","","feedback_test","","","","","","","","","","","",""
"619","","f","psychophysics","15","351855","0.0-7.0-1.0-1.0-0.0-0.3","3","3","3","3","2","3","3","4","3","3","4","3","2","4","3","4","3","3","4","3","1","3","3","3","3","2","3","3","3","1","0","1","1","0","1","1","1","1","1","1","0","1","0","1","4","4","4","3","4","1","3","3","3","3","3","796469824262905858","夏","472","","","","match","","","","","","","","","","","","","","key","f","16.6699687499998","720","476","f","true","match","img/hexagon.png","六边","六边","ALT1_2","prac_ALT1_2","","","","","","","","","","","",""
"null","<span style='color:GreenYellow; font-size: 70px;'>正确! </span>","null","html-keyboard-response","16","352357","0.0-7.0-1.0-1.0-0.0-1.3","3","3","3","3","2","3","3","4","3","3","4","3","2","4","3","4","3","3","4","3","1","3","3","3","3","2","3","3","3","1","0","1","1","0","1","1","1","1","1","1","0","1","0","1","4","4","4","3","4","1","3","3","3","3","3","796469824262905858","夏","472","","","","","","","","","","","","","","","","","","","","","","","","","","","","","","feedback_test","","","","","","","","","","","",""
"541","","f","psychophysics","17","353901","0.0-7.0-1.0-1.0-0.0-0.4","3","3","3","3","2","3","3","4","3","3","4","3","2","4","3","4","3","3","4","3","1","3","3","3","3","2","3","3","3","1","0","1","1","0","1","1","1","1","1","1","0","1","0","1","4","4","4","3","4","1","3","3","3","3","3","796469824262905858","夏","472","","","","match","","","","","","","","","","","","","","key","f","16.66891208791192","720","476","f","true","match","img/square.png","方形","方形","ALT1_2","prac_ALT1_2","","","","","","","","","","","",""
"null","<span style='color:GreenYellow; font-size: 70px;'>正确! </span>","null","html-keyboard-response","18","354404","0.0-7.0-1.0-1.0-0.0-1.4","3","3","3","3","2","3","3","4","3","3","4","3","2","4","3","4","3","3","4","3","1","3","3","3","3","2","3","3","3","1","0","1","1","0","1","1","1","1","1","1","0","1","0","1","4","4","4","3","4","1","3","3","3","3","3","796469824262905858","夏","472","","","","","","","","","","","","","","","","","","","","","","","","","","","","","","feedback_test","","","","","","","","","","","",""
"382","","f","psychophysics","19","355788","0.0-7.0-1.0-1.0-0.0-0.5","3","3","3","3","2","3","3","4","3","3","4","3","2","4","3","4","3","3","4","3","1","3","3","3","3","2","3","3","3","1","0","1","1","0","1","1","1","1","1","1","0","1","0","1","4","4","4","3","4","1","3","3","3","3","3","796469824262905858","夏","472","","","","match","","","","","","","","","","","","","","key","f","16.671074074074298","720","476","f","true","match","img/triangle.png","三角","三角","ALT1_2","prac_ALT1_2","","","","","","","","","","","",""
"null","<span style='color:GreenYellow; font-size: 70px;'>正确! </span>","null","html-keyboard-response","20","356291","0.0-7.0-1.0-1.0-0.0-1.5","3","3","3","3","2","3","3","4","3","3","4","3","2","4","3","4","3","3","4","3","1","3","3","3","3","2","3","3","3","1","0","1","1","0","1","1","1","1","1","1","0","1","0","1","4","4","4","3","4","1","3","3","3","3","3","796469824262905858","夏","472","","","","","","","","","","","","","","","","","","","","","","","","","","","","","","feedback_test","","","","","","","","","","","",""
"462","","f","psychophysics","21","357756","0.0-7.0-1.0-1.0-0.0-0.6","3","3","3","3","2","3","3","4","3","3","4","3","2","4","3","4","3","3","4","3","1","3","3","3","3","2","3","3","3","1","0","1","1","0","1","1","1","1","1","1","0","1","0","1","4","4","4","3","4","1","3","3","3","3","3","796469824262905858","夏","472","","","","match","","","","","","","","","","","","","","key","f","16.668183908045783","720","476","f","true","match","img/hexagon.png","六边","六边","ALT1_2","prac_ALT1_2","","","","","","","","","","","",""
"null","<span style='color:GreenYellow; font-size: 70px;'>正确! </span>","null","html-keyboard-response","22","358258","0.0-7.0-1.0-1.0-0.0-1.6","3","3","3","3","2","3","3","4","3","3","4","3","2","4","3","4","3","3","4","3","1","3","3","3","3","2","3","3","3","1","0","1","1","0","1","1","1","1","1","1","0","1","0","1","4","4","4","3","4","1","3","3","3","3","3","796469824262905858","夏","472","","","","","","","","","","","","","","","","","","","","","","","","","","","","","","feedback_test","","","","","","","","","","","",""
"469","","f","psychophysics","23","359730","0.0-7.0-1.0-1.0-0.0-0.7","3","3","3","3","2","3","3","4","3","3","4","3","2","4","3","4","3","3","4","3","1","3","3","3","3","2","3","3","3","1","0","1","1","0","1","1","1","1","1","1","0","1","0","1","4","4","4","3","4","1","3","3","3","3","3","796469824262905858","夏","472","","","","match","","","","","","","","","","","","","","key","f","16.663287356321902","720","476","j","false","nonmatch","img/square.png","圆形","方形","ALT1_2","prac_ALT1_2","","","","","","","","","","","",""
"null","<span style='color:red; font-size: 70px;'>错误! </span>","null","html-keyboard-response","24","360230","0.0-7.0-1.0-1.0-0.0-1.7","3","3","3","3","2","3","3","4","3","3","4","3","2","4","3","4","3","3","4","3","1","3","3","3","3","2","3","3","3","1","0","1","1","0","1","1","1","1","1","1","0","1","0","1","4","4","4","3","4","1","3","3","3","3","3","796469824262905858","夏","472","","","","","","","","","","","","","","","","","","","","","","","","","","","","","","feedback_test","","","","","","","","","","","",""
"485","","f","psychophysics","25","361717","0.0-7.0-1.0-1.0-0.0-0.8","3","3","3","3","2","3","3","4","3","3","4","3","2","4","3","4","3","3","4","3","1","3","3","3","3","2","3","3","3","1","0","1","1","0","1","1","1","1","1","1","0","1","0","1","4","4","4","3","4","1","3","3","3","3","3","796469824262905858","夏","472","","","","match","","","","","","","","","","","","","","key","f","16.6695909090909","720","476","j","false","nonmatch","img/hexagon.png","方形","六边","ALT1_2","prac_ALT1_2","","","","","","","","","","","",""
"null","<span style='color:red; font-size: 70px;'>错误! </span>","null","html-keyboard-response","26","362218","0.0-7.0-1.0-1.0-0.0-1.8","3","3","3","3","2","3","3","4","3","3","4","3","2","4","3","4","3","3","4","3","1","3","3","3","3","2","3","3","3","1","0","1","1","0","1","1","1","1","1","1","0","1","0","1","4","4","4","3","4","1","3","3","3","3","3","796469824262905858","夏","472","","","","","","","","","","","","","","","","","","","","","","","","","","","","","","feedback_test","","","","","","","","","","","",""
"670","","f","psychophysics","27","363888","0.0-7.0-1.0-1.0-0.0-0.9","3","3","3","3","2","3","3","4","3","3","4","3","2","4","3","4","3","3","4","3","1","3","3","3","3","2","3","3","3","1","0","1","1","0","1","1","1","1","1","1","0","1","0","1","4","4","4","3","4","1","3","3","3","3","3","796469824262905858","夏","472","","","","match","","","","","","","","","","","","","","key","f","16.670828282828396","720","476","f","true","match","img/circle.png","圆形","圆形","ALT1_2","prac_ALT1_2","","","","","","","","","","","",""
"null","<span style='color:GreenYellow; font-size: 70px;'>正确! </span>","null","html-keyboard-response","28","364389","0.0-7.0-1.0-1.0-0.0-1.9","3","3","3","3","2","3","3","4","3","3","4","3","2","4","3","4","3","3","4","3","1","3","3","3","3","2","3","3","3","1","0","1","1","0","1","1","1","1","1","1","0","1","0","1","4","4","4","3","4","1","3","3","3","3","3","796469824262905858","夏","472","","","","","","","","","","","","","","","","","","","","","","","","","","","","","","feedback_test","","","","","","","","","","","",""
"849","","j","psychophysics","29","366240","0.0-7.0-1.0-1.0-0.0-0.10","3","3","3","3","2","3","3","4","3","3","4","3","2","4","3","4","3","3","4","3","1","3","3","3","3","2","3","3","3","1","0","1","1","0","1","1","1","1","1","1","0","1","0","1","4","4","4","3","4","1","3","3","3","3","3","796469824262905858","夏","472","","","","nonmatch","","","","","","","","","","","","","","key","j","16.66982568807338","720","476","j","true","nonmatch","img/square.png","六边","方形","ALT1_2","prac_ALT1_2","","","","","","","","","","","",""
"null","<span style='color:GreenYellow; font-size: 70px;'>正确! </span>","null","html-keyboard-response","30","366742","0.0-7.0-1.0-1.0-0.0-1.10","3","3","3","3","2","3","3","4","3","3","4","3","2","4","3","4","3","3","4","3","1","3","3","3","3","2","3","3","3","1","0","1","1","0","1","1","1","1","1","1","0","1","0","1","4","4","4","3","4","1","3","3","3","3","3","796469824262905858","夏","472","","","","","","","","","","","","","","","","","","","","","","","","","","","","","","feedback_test","","","","","","","","","","","",""
"800","","j","psychophysics","31","368545","0.0-7.0-1.0-1.0-0.0-0.11","3","3","3","3","2","3","3","4","3","3","4","3","2","4","3","4","3","3","4","3","1","3","3","3","3","2","3","3","3","1","0","1","1","0","1","1","1","1","1","1","0","1","0","1","4","4","4","3","4","1","3","3","3","3","3","796469824262905858","夏","472","","","","nonmatch","","","","","","","","","","","","","","key","j","16.666028037382763","720","476","j","true","nonmatch","img/square.png","三角","方形","ALT1_2","prac_ALT1_2","","","","","","","","","","","",""
"null","<span style='color:GreenYellow; font-size: 70px;'>正确! </span>","null","html-keyboard-response","32","369047","0.0-7.0-1.0-1.0-0.0-1.11","3","3","3","3","2","3","3","4","3","3","4","3","2","4","3","4","3","3","4","3","1","3","3","3","3","2","3","3","3","1","0","1","1","0","1","1","1","1","1","1","0","1","0","1","4","4","4","3","4","1","3","3","3","3","3","796469824262905858","夏","472","","","","","","","","","","","","","","","","","","","","","","","","","","","","","","feedback_test","","","","","","","","","","","",""
"836","","f","psychophysics","33","370885","0.0-7.0-1.0-1.0-0.0-0.12","3","3","3","3","2","3","3","4","3","3","4","3","2","4","3","4","3","3","4","3","1","3","3","3","3","2","3","3","3","1","0","1","1","0","1","1","1","1","1","1","0","1","0","1","4","4","4","3","4","1","3","3","3","3","3","796469824262905858","夏","472","","","","match","","","","","","","","","","","","","","key","f","16.665908256881025","720","476","f","true","match","img/circle.png","圆形","圆形","ALT1_2","prac_ALT1_2","","","","","","","","","","","",""
"null","<span style='color:GreenYellow; font-size: 70px;'>正确! </span>","null","html-keyboard-response","34","371386","0.0-7.0-1.0-1.0-0.0-1.12","3","3","3","3","2","3","3","4","3","3","4","3","2","4","3","4","3","3","4","3","1","3","3","3","3","2","3","3","3","1","0","1","1","0","1","1","1","1","1","1","0","1","0","1","4","4","4","3","4","1","3","3","3","3","3","796469824262905858","夏","472","","","","","","","","","","","","","","","","","","","","","","","","","","","","","","feedback_test","","","","","","","","","","","",""
"480","","f","psychophysics","35","372868","0.0-7.0-1.0-1.0-0.0-0.13","3","3","3","3","2","3","3","4","3","3","4","3","2","4","3","4","3","3","4","3","1","3","3","3","3","2","3","3","3","1","0","1","1","0","1","1","1","1","1","1","0","1","0","1","4","4","4","3","4","1","3","3","3","3","3","796469824262905858","夏","472","","","","match","","","","","","","","","","","","","","key","f","16.671079545454464","720","476","j","false","nonmatch","img/circle.png","六边","圆形","ALT1_2","prac_ALT1_2","","","","","","","","","","","",""
"null","<span style='color:red; font-size: 70px;'>错误! </span>","null","html-keyboard-response","36","373369","0.0-7.0-1.0-1.0-0.0-1.13","3","3","3","3","2","3","3","4","3","3","4","3","2","4","3","4","3","3","4","3","1","3","3","3","3","2","3","3","3","1","0","1","1","0","1","1","1","1","1","1","0","1","0","1","4","4","4","3","4","1","3","3","3","3","3","796469824262905858","夏","472","","","","","","","","","","","","","","","","","","","","","","","","","","","","","","feedback_test","","","","","","","","","","","",""
"827","","j","psychophysics","37","375198","0.0-7.0-1.0-1.0-0.0-0.14","3","3","3","3","2","3","3","4","3","3","4","3","2","4","3","4","3","3","4","3","1","3","3","3","3","2","3","3","3","1","0","1","1","0","1","1","1","1","1","1","0","1","0","1","4","4","4","3","4","1","3","3","3","3","3","796469824262905858","夏","472","","","","nonmatch","","","","","","","","","","","","","","key","j","16.666703703703845","720","476","j","true","nonmatch","img/circle.png","三角","圆形","ALT1_2","prac_ALT1_2","","","","","","","","","","","",""
"null","<span style='color:GreenYellow; font-size: 70px;'>正确! </span>","null","html-keyboard-response","38","375700","0.0-7.0-1.0-1.0-0.0-1.14","3","3","3","3","2","3","3","4","3","3","4","3","2","4","3","4","3","3","4","3","1","3","3","3","3","2","3","3","3","1","0","1","1","0","1","1","1","1","1","1","0","1","0","1","4","4","4","3","4","1","3","3","3","3","3","796469824262905858","夏","472","","","","","","","","","","","","","","","","","","","","","","","","","","","","","","feedback_test","","","","","","","","","","","",""
"904","","j","psychophysics","39","377606","0.0-7.0-1.0-1.0-0.0-0.15","3","3","3","3","2","3","3","4","3","3","4","3","2","4","3","4","3","3","4","3","1","3","3","3","3","2","3","3","3","1","0","1","1","0","1","1","1","1","1","1","0","1","0","1","4","4","4","3","4","1","3","3","3","3","3","796469824262905858","夏","472","","","","nonmatch","","","","","","","","","","","","","","key","j","16.66449557522114","720","476","j","true","nonmatch","img/circle.png","方形","圆形","ALT1_2","prac_ALT1_2","","","","","","","","","","","",""
"null","<span style='color:GreenYellow; font-size: 70px;'>正确! </span>","null","html-keyboard-response","40","378108","0.0-7.0-1.0-1.0-0.0-1.15","3","3","3","3","2","3","3","4","3","3","4","3","2","4","3","4","3","3","4","3","1","3","3","3","3","2","3","3","3","1","0","1","1","0","1","1","1","1","1","1","0","1","0","1","4","4","4","3","4","1","3","3","3","3","3","796469824262905858","夏","472","","","","","","","","","","","","","","","","","","","","","","","","","","","","","","feedback_test","","","","","","","","","","","",""
"null","","null","psychophysics","41","380312","0.0-7.0-1.0-1.0-0.0-0.16","3","3","3","3","2","3","3","4","3","3","4","3","2","4","3","4","3","3","4","3","1","3","3","3","3","2","3","3","3","1","0","1","1","0","1","1","1","1","1","1","0","1","0","1","4","4","4","3","4","1","3","3","3","3","3","796469824262905858","夏","472","","","","null","","","","","","","","","","","","","","key","null","16.66988549618324","720","476","j","false","nonmatch","img/triangle.png","圆形","三角","ALT1_2","prac_ALT1_2","","","","","","","","","","","",""
"null","<span class='add_' style='color:yellow; font-size: 70px;'> 太慢! </span>","null","html-keyboard-response","42","380814","0.0-7.0-1.0-1.0-0.0-1.16","3","3","3","3","2","3","3","4","3","3","4","3","2","4","3","4","3","3","4","3","1","3","3","3","3","2","3","3","3","1","0","1","1","0","1","1","1","1","1","1","0","1","0","1","4","4","4","3","4","1","3","3","3","3","3","796469824262905858","夏","472","","","","","","","","","","","","","","","","","","","","","","","","","","","","","","feedback_test","","","","","","","","","","","",""
"821","","j","psychophysics","43","382637","0.0-7.0-1.0-1.0-0.0-0.17","3","3","3","3","2","3","3","4","3","3","4","3","2","4","3","4","3","3","4","3","1","3","3","3","3","2","3","3","3","1","0","1","1","0","1","1","1","1","1","1","0","1","0","1","4","4","4","3","4","1","3","3","3","3","3","796469824262905858","夏","472","","","","nonmatch","","","","","","","","","","","","","","key","j","16.666648148148347","720","476","j","true","nonmatch","img/hexagon.png","圆形","六边","ALT1_2","prac_ALT1_2","","","","","","","","","","","",""
"null","<span style='color:GreenYellow; font-size: 70px;'>正确! </span>","null","html-keyboard-response","44","383138","0.0-7.0-1.0-1.0-0.0-1.17","3","3","3","3","2","3","3","4","3","3","4","3","2","4","3","4","3","3","4","3","1","3","3","3","3","2","3","3","3","1","0","1","1","0","1","1","1","1","1","1","0","1","0","1","4","4","4","3","4","1","3","3","3","3","3","796469824262905858","夏","472","","","","","","","","","","","","","","","","","","","","","","","","","","","","","","feedback_test","","","","","","","","","","","",""
"767","","f","psychophysics","45","384907","0.0-7.0-1.0-1.0-0.0-0.18","3","3","3","3","2","3","3","4","3","3","4","3","2","4","3","4","3","3","4","3","1","3","3","3","3","2","3","3","3","1","0","1","1","0","1","1","1","1","1","1","0","1","0","1","4","4","4","3","4","1","3","3","3","3","3","796469824262905858","夏","472","","","","match","","","","","","","","","","","","","","key","f","16.666666666666668","720","476","f","true","match","img/circle.png","圆形","圆形","ALT1_2","prac_ALT1_2","","","","","","","","","","","",""
"null","<span style='color:GreenYellow; font-size: 70px;'>正确! </span>","null","html-keyboard-response","46","385410","0.0-7.0-1.0-1.0-0.0-1.18","3","3","3","3","2","3","3","4","3","3","4","3","2","4","3","4","3","3","4","3","1","3","3","3","3","2","3","3","3","1","0","1","1","0","1","1","1","1","1","1","0","1","0","1","4","4","4","3","4","1","3","3","3","3","3","796469824262905858","夏","472","","","","","","","","","","","","","","","","","","","","","","","","","","","","","","feedback_test","","","","","","","","","","","",""
"612","","j","psychophysics","47","387024","0.0-7.0-1.0-1.0-0.0-0.19","3","3","3","3","2","3","3","4","3","3","4","3","2","4","3","4","3","3","4","3","1","3","3","3","3","2","3","3","3","1","0","1","1","0","1","1","1","1","1","1","0","1","0","1","4","4","4","3","4","1","3","3","3","3","3","796469824262905858","夏","472","","","","nonmatch","","","","","","","","","","","","","","key","j","16.6679578947369","720","476","f","false","match","img/triangle.png","三角","三角","ALT1_2","prac_ALT1_2","","","","","","","","","","","",""
"null","<span style='color:red; font-size: 70px;'>错误! </span>","null","html-keyboard-response","48","387526","0.0-7.0-1.0-1.0-0.0-1.19","3","3","3","3","2","3","3","4","3","3","4","3","2","4","3","4","3","3","4","3","1","3","3","3","3","2","3","3","3","1","0","1","1","0","1","1","1","1","1","1","0","1","0","1","4","4","4","3","4","1","3","3","3","3","3","796469824262905858","夏","472","","","","","","","","","","","","","","","","","","","","","","","","","","","","","","feedback_test","","","","","","","","","","","",""
"1151","","f","psychophysics","49","389679","0.0-7.0-1.0-1.0-0.0-0.20","3","3","3","3","2","3","3","4","3","3","4","3","2","4","3","4","3","3","4","3","1","3","3","3","3","2","3","3","3","1","0","1","1","0","1","1","1","1","1","1","0","1","0","1","4","4","4","3","4","1","3","3","3","3","3","796469824262905858","夏","472","","","","match","","","","","","","","","","","","","","key","f","16.666257812500135","720","476","f","true","match","img/square.png","方形","方形","ALT1_2","prac_ALT1_2","","","","","","","","","","","",""
"null","<span style='color:GreenYellow; font-size: 70px;'>正确! </span>","null","html-keyboard-response","50","390180","0.0-7.0-1.0-1.0-0.0-1.20","3","3","3","3","2","3","3","4","3","3","4","3","2","4","3","4","3","3","4","3","1","3","3","3","3","2","3","3","3","1","0","1","1","0","1","1","1","1","1","1","0","1","0","1","4","4","4","3","4","1","3","3","3","3","3","796469824262905858","夏","472","","","","","","","","","","","","","","","","","","","","","","","","","","","","","","feedback_test","","","","","","","","","","","",""
"994","","j","psychophysics","51","392176","0.0-7.0-1.0-1.0-0.0-0.21","3","3","3","3","2","3","3","4","3","3","4","3","2","4","3","4","3","3","4","3","1","3","3","3","3","2","3","3","3","1","0","1","1","0","1","1","1","1","1","1","0","1","0","1","4","4","4","3","4","1","3","3","3","3","3","796469824262905858","夏","472","","","","nonmatch","","","","","","","","","","","","","","key","j","16.66446610169497","720","476","j","true","nonmatch","img/triangle.png","方形","三角","ALT1_2","prac_ALT1_2","","","","","","","","","","","",""
"null","<span style='color:GreenYellow; font-size: 70px;'>正确! </span>","null","html-keyboard-response","52","392678","0.0-7.0-1.0-1.0-0.0-1.21","3","3","3","3","2","3","3","4","3","3","4","3","2","4","3","4","3","3","4","3","1","3","3","3","3","2","3","3","3","1","0","1","1","0","1","1","1","1","1","1","0","1","0","1","4","4","4","3","4","1","3","3","3","3","3","796469824262905858","夏","472","","","","","","","","","","","","","","","","","","","","","","","","","","","","","","feedback_test","","","","","","","","","","","",""
"706","","j","psychophysics","53","394386","0.0-7.0-1.0-1.0-0.0-0.22","3","3","3","3","2","3","3","4","3","3","4","3","2","4","3","4","3","3","4","3","1","3","3","3","3","2","3","3","3","1","0","1","1","0","1","1","1","1","1","1","0","1","0","1","4","4","4","3","4","1","3","3","3","3","3","796469824262905858","夏","472","","","","nonmatch","","","","","","","","","","","","","","key","j","16.66922772277232","720","476","j","true","nonmatch","img/triangle.png","六边","三角","ALT1_2","prac_ALT1_2","","","","","","","","","","","",""
"null","<span style='color:GreenYellow; font-size: 70px;'>正确! </span>","null","html-keyboard-response","54","394888","0.0-7.0-1.0-1.0-0.0-1.22","3","3","3","3","2","3","3","4","3","3","4","3","2","4","3","4","3","3","4","3","1","3","3","3","3","2","3","3","3","1","0","1","1","0","1","1","1","1","1","1","0","1","0","1","4","4","4","3","4","1","3","3","3","3","3","796469824262905858","夏","472","","","","","","","","","","","","","","","","","","","","","","","","","","","","","","feedback_test","","","","","","","","","","","",""
"730","","j","psychophysics","55","396620","0.0-7.0-1.0-1.0-0.0-0.23","3","3","3","3","2","3","3","4","3","3","4","3","2","4","3","4","3","3","4","3","1","3","3","3","3","2","3","3","3","1","0","1","1","0","1","1","1","1","1","1","0","1","0","1","4","4","4","3","4","1","3","3","3","3","3","796469824262905858","夏","472","","","","nonmatch","","","","","","","","","","","","","","key","j","16.66633333333348","720","476","j","true","nonmatch","img/hexagon.png","三角","六边","ALT1_2","prac_ALT1_2","","","","","","","","","","","",""
"null","<span style='color:GreenYellow; font-size: 70px;'>正确! </span>","null","html-keyboard-response","56","397121","0.0-7.0-1.0-1.0-0.0-1.23","3","3","3","3","2","3","3","4","3","3","4","3","2","4","3","4","3","3","4","3","1","3","3","3","3","2","3","3","3","1","0","1","1","0","1","1","1","1","1","1","0","1","0","1","4","4","4","3","4","1","3","3","3","3","3","796469824262905858","夏","472","","","","","","","","","","","","","","","","","","","","","","","","","","","","","","feedback_test","","","","","","","","","","","",""
"745","","j","psychophysics","57","398869","0.0-7.0-1.0-1.0-0.0-0.24","3","3","3","3","2","3","3","4","3","3","4","3","2","4","3","4","3","3","4","3","1","3","3","3","3","2","3","3","3","1","0","1","1","0","1","1","1","1","1","1","0","1","0","1","4","4","4","3","4","1","3","3","3","3","3","796469824262905858","夏","472","","","","nonmatch","","","","","","","","","","","","","","key","j","16.665631067961144","720","476","j","true","nonmatch","img/hexagon.png","方形","六边","ALT1_2","prac_ALT1_2","","","","","","","","","","","",""
"null","<span style='color:GreenYellow; font-size: 70px;'>正确! </span>","null","html-keyboard-response","58","399370","0.0-7.0-1.0-1.0-0.0-1.24","3","3","3","3","2","3","3","4","3","3","4","3","2","4","3","4","3","3","4","3","1","3","3","3","3","2","3","3","3","1","0","1","1","0","1","1","1","1","1","1","0","1","0","1","4","4","4","3","4","1","3","3","3","3","3","796469824262905858","夏","472","","","","","","","","","","","","","","","","","","","","","","","","","","","","","","feedback_test","","","","","","","","","","","",""
"720","","j","psychophysics","59","401091","0.0-7.0-1.0-1.0-0.0-0.25","3","3","3","3","2","3","3","4","3","3","4","3","2","4","3","4","3","3","4","3","1","3","3","3","3","2","3","3","3","1","0","1","1","0","1","1","1","1","1","1","0","1","0","1","4","4","4","3","4","1","3","3","3","3","3","796469824262905858","夏","472","","","","nonmatch","","","","","","","","","","","","","","key","j","16.666323529411446","720","476","j","true","nonmatch","img/triangle.png","六边","三角","ALT1_2","prac_ALT1_2","","","","","","","","","","","",""
"null","<span style='color:GreenYellow; font-size: 70px;'>正确! </span>","null","html-keyboard-response","60","401594","0.0-7.0-1.0-1.0-0.0-1.25","3","3","3","3","2","3","3","4","3","3","4","3","2","4","3","4","3","3","4","3","1","3","3","3","3","2","3","3","3","1","0","1","1","0","1","1","1","1","1","1","0","1","0","1","4","4","4","3","4","1","3","3","3","3","3","796469824262905858","夏","472","","","","","","","","","","","","","","","","","","","","","","","","","","","","","","feedback_test","","","","","","","","","","","",""
"617","","j","psychophysics","61","403212","0.0-7.0-1.0-1.0-0.0-0.26","3","3","3","3","2","3","3","4","3","3","4","3","2","4","3","4","3","3","4","3","1","3","3","3","3","2","3","3","3","1","0","1","1","0","1","1","1","1","1","1","0","1","0","1","4","4","4","3","4","1","3","3","3","3","3","796469824262905858","夏","472","","","","nonmatch","","","","","","","","","","","","","","key","j","16.668093749999873","720","476","f","false","match","img/square.png","方形","方形","ALT1_2","prac_ALT1_2","","","","","","","","","","","",""
"null","<span style='color:red; font-size: 70px;'>错误! </span>","null","html-keyboard-response","62","403714","0.0-7.0-1.0-1.0-0.0-1.26","3","3","3","3","2","3","3","4","3","3","4","3","2","4","3","4","3","3","4","3","1","3","3","3","3","2","3","3","3","1","0","1","1","0","1","1","1","1","1","1","0","1","0","1","4","4","4","3","4","1","3","3","3","3","3","796469824262905858","夏","472","","","","","","","","","","","","","","","","","","","","","","","","","","","","","","feedback_test","","","","","","","","","","","",""
"1020","","f","psychophysics","63","405735","0.0-7.0-1.0-1.0-0.0-0.27","3","3","3","3","2","3","3","4","3","3","4","3","2","4","3","4","3","3","4","3","1","3","3","3","3","2","3","3","3","1","0","1","1","0","1","1","1","1","1","1","0","1","0","1","4","4","4","3","4","1","3","3","3","3","3","796469824262905858","夏","472","","","","match","","","","","","","","","","","","","","key","f","16.66944166666702","720","476","f","true","match","img/triangle.png","三角","三角","ALT1_2","prac_ALT1_2","","","","","","","","","","","",""
"null","<span style='color:GreenYellow; font-size: 70px;'>正确! </span>","null","html-keyboard-response","64","406236","0.0-7.0-1.0-1.0-0.0-1.27","3","3","3","3","2","3","3","4","3","3","4","3","2","4","3","4","3","3","4","3","1","3","3","3","3","2","3","3","3","1","0","1","1","0","1","1","1","1","1","1","0","1","0","1","4","4","4","3","4","1","3","3","3","3","3","796469824262905858","夏","472","","","","","","","","","","","","","","","","","","","","","","","","","","","","","","feedback_test","","","","","","","","","","","",""
"724","","f","psychophysics","65","407961","0.0-7.0-1.0-1.0-0.0-0.28","3","3","3","3","2","3","3","4","3","3","4","3","2","4","3","4","3","3","4","3","1","3","3","3","3","2","3","3","3","1","0","1","1","0","1","1","1","1","1","1","0","1","0","1","4","4","4","3","4","1","3","3","3","3","3","796469824262905858","夏","472","","","","match","","","","","","","","","","","","","","key","f","16.663156862745026","720","476","f","true","match","img/circle.png","圆形","圆形","ALT1_2","prac_ALT1_2","","","","","","","","","","","",""
"null","<span style='color:GreenYellow; font-size: 70px;'>正确! </span>","null","html-keyboard-response","66","408463","0.0-7.0-1.0-1.0-0.0-1.28","3","3","3","3","2","3","3","4","3","3","4","3","2","4","3","4","3","3","4","3","1","3","3","3","3","2","3","3","3","1","0","1","1","0","1","1","1","1","1","1","0","1","0","1","4","4","4","3","4","1","3","3","3","3","3","796469824262905858","夏","472","","","","","","","","","","","","","","","","","","","","","","","","","","","","","","feedback_test","","","","","","","","","","","",""
"705","","f","psychophysics","67","410168","0.0-7.0-1.0-1.0-0.0-0.29","3","3","3","3","2","3","3","4","3","3","4","3","2","4","3","4","3","3","4","3","1","3","3","3","3","2","3","3","3","1","0","1","1","0","1","1","1","1","1","1","0","1","0","1","4","4","4","3","4","1","3","3","3","3","3","796469824262905858","夏","472","","","","match","","","","","","","","","","","","","","key","f","16.672217821782468","720","476","f","true","match","img/hexagon.png","六边","六边","ALT1_2","prac_ALT1_2","","","","","","","","","","","",""
"null","<span style='color:GreenYellow; font-size: 70px;'>正确! </span>","null","html-keyboard-response","68","410669","0.0-7.0-1.0-1.0-0.0-1.29","3","3","3","3","2","3","3","4","3","3","4","3","2","4","3","4","3","3","4","3","1","3","3","3","3","2","3","3","3","1","0","1","1","0","1","1","1","1","1","1","0","1","0","1","4","4","4","3","4","1","3","3","3","3","3","796469824262905858","夏","472","","","","","","","","","","","","","","","","","","","","","","","","","","","","","","feedback_test","","","","","","","","","","","",""
"790","","f","psychophysics","69","412461","0.0-7.0-1.0-1.0-0.0-0.30","3","3","3","3","2","3","3","4","3","3","4","3","2","4","3","4","3","3","4","3","1","3","3","3","3","2","3","3","3","1","0","1","1","0","1","1","1","1","1","1","0","1","0","1","4","4","4","3","4","1","3","3","3","3","3","796469824262905858","夏","472","","","","match","","","","","","","","","","","","","","key","f","16.663518867924928","720","476","f","true","match","img/square.png","方形","方形","ALT1_2","prac_ALT1_2","","","","","","","","","","","",""
"null","<span style='color:GreenYellow; font-size: 70px;'>正确! </span>","null","html-keyboard-response","70","412962","0.0-7.0-1.0-1.0-0.0-1.30","3","3","3","3","2","3","3","4","3","3","4","3","2","4","3","4","3","3","4","3","1","3","3","3","3","2","3","3","3","1","0","1","1","0","1","1","1","1","1","1","0","1","0","1","4","4","4","3","4","1","3","3","3","3","3","796469824262905858","夏","472","","","","","","","","","","","","","","","","","","","","","","","","","","","","","","feedback_test","","","","","","","","","","","",""
"613","","f","psychophysics","71","414578","0.0-7.0-1.0-1.0-0.0-0.31","3","3","3","3","2","3","3","4","3","3","4","3","2","4","3","4","3","3","4","3","1","3","3","3","3","2","3","3","3","1","0","1","1","0","1","1","1","1","1","1","0","1","0","1","4","4","4","3","4","1","3","3","3","3","3","796469824262905858","夏","472","","","","match","","","","","","","","","","","","","","key","f","16.67032631578929","720","476","f","true","match","img/circle.png","圆形","圆形","ALT1_2","prac_ALT1_2","","","","","","","","","","","",""
"null","<span style='color:GreenYellow; font-size: 70px;'>正确! </span>","null","html-keyboard-response","72","415079","0.0-7.0-1.0-1.0-0.0-1.31","3","3","3","3","2","3","3","4","3","3","4","3","2","4","3","4","3","3","4","3","1","3","3","3","3","2","3","3","3","1","0","1","1","0","1","1","1","1","1","1","0","1","0","1","4","4","4","3","4","1","3","3","3","3","3","796469824262905858","夏","472","","","","","","","","","","","","","","","","","","","","","","","","","","","","","","feedback_test","","","","","","","","","","","",""
"484","","f","psychophysics","73","416566","0.0-7.0-1.0-1.0-0.0-0.32","3","3","3","3","2","3","3","4","3","3","4","3","2","4","3","4","3","3","4","3","1","3","3","3","3","2","3","3","3","1","0","1","1","0","1","1","1","1","1","1","0","1","0","1","4","4","4","3","4","1","3","3","3","3","3","796469824262905858","夏","472","","","","match","","","","","","","","","","","","","","key","f","16.667511363636137","720","476","j","false","nonmatch","img/circle.png","六边","圆形","ALT1_2","prac_ALT1_2","","","","","","","","","","","",""
"null","<span style='color:red; font-size: 70px;'>错误! </span>","null","html-keyboard-response","74","417067","0.0-7.0-1.0-1.0-0.0-1.32","3","3","3","3","2","3","3","4","3","3","4","3","2","4","3","4","3","3","4","3","1","3","3","3","3","2","3","3","3","1","0","1","1","0","1","1","1","1","1","1","0","1","0","1","4","4","4","3","4","1","3","3","3","3","3","796469824262905858","夏","472","","","","","","","","","","","","","","","","","","","","","","","","","","","","","","feedback_test","","","","","","","","","","","",""
"1047","","j","psychophysics","75","419116","0.0-7.0-1.0-1.0-0.0-0.33","3","3","3","3","2","3","3","4","3","3","4","3","2","4","3","4","3","3","4","3","1","3","3","3","3","2","3","3","3","1","0","1","1","0","1","1","1","1","1","1","0","1","0","1","4","4","4","3","4","1","3","3","3","3","3","796469824262905858","夏","472","","","","nonmatch","","","","","","","","","","","","","","key","j","16.67129752066127","720","476","j","true","nonmatch","img/circle.png","方形","圆形","ALT1_2","prac_ALT1_2","","","","","","","","","","","",""
"null","<span style='color:GreenYellow; font-size: 70px;'>正确! </span>","null","html-keyboard-response","76","419618","0.0-7.0-1.0-1.0-0.0-1.33","3","3","3","3","2","3","3","4","3","3","4","3","2","4","3","4","3","3","4","3","1","3","3","3","3","2","3","3","3","1","0","1","1","0","1","1","1","1","1","1","0","1","0","1","4","4","4","3","4","1","3","3","3","3","3","796469824262905858","夏","472","","","","","","","","","","","","","","","","","","","","","","","","","","","","","","feedback_test","","","","","","","","","","","",""
"652","","j","psychophysics","77","421273","0.0-7.0-1.0-1.0-0.0-0.34","3","3","3","3","2","3","3","4","3","3","4","3","2","4","3","4","3","3","4","3","1","3","3","3","3","2","3","3","3","1","0","1","1","0","1","1","1","1","1","1","0","1","0","1","4","4","4","3","4","1","3","3","3","3","3","796469824262905858","夏","472","","","","nonmatch","","","","","","","","","","","","","","key","j","16.670204081632583","720","476","f","false","match","img/hexagon.png","六边","六边","ALT1_2","prac_ALT1_2","","","","","","","","","","","",""
"null","<span style='color:red; font-size: 70px;'>错误! </span>","null","html-keyboard-response","78","421774","0.0-7.0-1.0-1.0-0.0-1.34","3","3","3","3","2","3","3","4","3","3","4","3","2","4","3","4","3","3","4","3","1","3","3","3","3","2","3","3","3","1","0","1","1","0","1","1","1","1","1","1","0","1","0","1","4","4","4","3","4","1","3","3","3","3","3","796469824262905858","夏","472","","","","","","","","","","","","","","","","","","","","","","","","","","","","","","feedback_test","","","","","","","","","","","",""
"1163","","j","psychophysics","79","423938","0.0-7.0-1.0-1.0-0.0-0.35","3","3","3","3","2","3","3","4","3","3","4","3","2","4","3","4","3","3","4","3","1","3","3","3","3","2","3","3","3","1","0","1","1","0","1","1","1","1","1","1","0","1","0","1","4","4","4","3","4","1","3","3","3","3","3","796469824262905858","夏","472","","","","nonmatch","","","","","","","","","","","","","","key","j","16.66522480620165","720","476","j","true","nonmatch","img/square.png","六边","方形","ALT1_2","prac_ALT1_2","","","","","","","","","","","",""
"null","<span style='color:GreenYellow; font-size: 70px;'>正确! </span>","null","html-keyboard-response","80","424440","0.0-7.0-1.0-1.0-0.0-1.35","3","3","3","3","2","3","3","4","3","3","4","3","2","4","3","4","3","3","4","3","1","3","3","3","3","2","3","3","3","1","0","1","1","0","1","1","1","1","1","1","0","1","0","1","4","4","4","3","4","1","3","3","3","3","3","796469824262905858","夏","472","","","","","","","","","","","","","","","","","","","","","","","","","","","","","","feedback_test","","","","","","","","","","","",""
"729","","f","psychophysics","81","426171","0.0-7.0-1.0-1.0-0.0-0.36","3","3","3","3","2","3","3","4","3","3","4","3","2","4","3","4","3","3","4","3","1","3","3","3","3","2","3","3","3","1","0","1","1","0","1","1","1","1","1","1","0","1","0","1","4","4","4","3","4","1","3","3","3","3","3","796469824262905858","夏","472","","","","match","","","","","","","","","","","","","","key","f","16.666274509804126","720","476","f","true","match","img/triangle.png","三角","三角","ALT1_2","prac_ALT1_2","","","","","","","","","","","",""
"null","<span style='color:GreenYellow; font-size: 70px;'>正确! </span>","null","html-keyboard-response","82","426672","0.0-7.0-1.0-1.0-0.0-1.36","3","3","3","3","2","3","3","4","3","3","4","3","2","4","3","4","3","3","4","3","1","3","3","3","3","2","3","3","3","1","0","1","1","0","1","1","1","1","1","1","0","1","0","1","4","4","4","3","4","1","3","3","3","3","3","796469824262905858","夏","472","","","","","","","","","","","","","","","","","","","","","","","","","","","","","","feedback_test","","","","","","","","","","","",""
"897","","j","psychophysics","83","428571","0.0-7.0-1.0-1.0-0.0-0.37","3","3","3","3","2","3","3","4","3","3","4","3","2","4","3","4","3","3","4","3","1","3","3","3","3","2","3","3","3","1","0","1","1","0","1","1","1","1","1","1","0","1","0","1","4","4","4","3","4","1","3","3","3","3","3","796469824262905858","夏","472","","","","nonmatch","","","","","","","","","","","","","","key","j","16.672256637168367","720","476","j","true","nonmatch","img/hexagon.png","三角","六边","ALT1_2","prac_ALT1_2","","","","","","","","","","","",""
"null","<span style='color:GreenYellow; font-size: 70px;'>正确! </span>","null","html-keyboard-response","84","429072","0.0-7.0-1.0-1.0-0.0-1.37","3","3","3","3","2","3","3","4","3","3","4","3","2","4","3","4","3","3","4","3","1","3","3","3","3","2","3","3","3","1","0","1","1","0","1","1","1","1","1","1","0","1","0","1","4","4","4","3","4","1","3","3","3","3","3","796469824262905858","夏","472","","","","","","","","","","","","","","","","","","","","","","","","","","","","","","feedback_test","","","","","","","","","","","",""
"685","","f","psychophysics","85","430760","0.0-7.0-1.0-1.0-0.0-0.38","3","3","3","3","2","3","3","4","3","3","4","3","2","4","3","4","3","3","4","3","1","3","3","3","3","2","3","3","3","1","0","1","1","0","1","1","1","1","1","1","0","1","0","1","4","4","4","3","4","1","3","3","3","3","3","796469824262905858","夏","472","","","","match","","","","","","","","","","","","","","key","f","16.662430000000167","720","476","f","true","match","img/circle.png","圆形","圆形","ALT1_2","prac_ALT1_2","","","","","","","","","","","",""
"null","<span style='color:GreenYellow; font-size: 70px;'>正确! </span>","null","html-keyboard-response","86","431261","0.0-7.0-1.0-1.0-0.0-1.38","3","3","3","3","2","3","3","4","3","3","4","3","2","4","3","4","3","3","4","3","1","3","3","3","3","2","3","3","3","1","0","1","1","0","1","1","1","1","1","1","0","1","0","1","4","4","4","3","4","1","3","3","3","3","3","796469824262905858","夏","472","","","","","","","","","","","","","","","","","","","","","","","","","","","","","","feedback_test","","","","","","","","","","","",""
"752","","j","psychophysics","87","433015","0.0-7.0-1.0-1.0-0.0-0.39","3","3","3","3","2","3","3","4","3","3","4","3","2","4","3","4","3","3","4","3","1","3","3","3","3","2","3","3","3","1","0","1","1","0","1","1","1","1","1","1","0","1","0","1","4","4","4","3","4","1","3","3","3","3","3","796469824262905858","夏","472","","","","nonmatch","","","","","","","","","","","","","","key","j","16.666278846153894","720","476","j","true","nonmatch","img/circle.png","三角","圆形","ALT1_2","prac_ALT1_2","","","","","","","","","","","",""
"null","<span style='color:GreenYellow; font-size: 70px;'>正确! </span>","null","html-keyboard-response","88","433517","0.0-7.0-1.0-1.0-0.0-1.39","3","3","3","3","2","3","3","4","3","3","4","3","2","4","3","4","3","3","4","3","1","3","3","3","3","2","3","3","3","1","0","1","1","0","1","1","1","1","1","1","0","1","0","1","4","4","4","3","4","1","3","3","3","3","3","796469824262905858","夏","472","","","","","","","","","","","","","","","","","","","","","","","","","","","","","","feedback_test","","","","","","","","","","","",""
"759","","f","psychophysics","89","435278","0.0-7.0-1.0-1.0-0.0-0.40","3","3","3","3","2","3","3","4","3","3","4","3","2","4","3","4","3","3","4","3","1","3","3","3","3","2","3","3","3","1","0","1","1","0","1","1","1","1","1","1","0","1","0","1","4","4","4","3","4","1","3","3","3","3","3","796469824262905858","夏","472","","","","match","","","","","","","","","","","","","","key","f","16.668076923076743","720","476","j","false","nonmatch","img/square.png","圆形","方形","ALT1_2","prac_ALT1_2","","","","","","","","","","","",""
"null","<span style='color:red; font-size: 70px;'>错误! </span>","null","html-keyboard-response","90","435779","0.0-7.0-1.0-1.0-0.0-1.40","3","3","3","3","2","3","3","4","3","3","4","3","2","4","3","4","3","3","4","3","1","3","3","3","3","2","3","3","3","1","0","1","1","0","1","1","1","1","1","1","0","1","0","1","4","4","4","3","4","1","3","3","3","3","3","796469824262905858","夏","472","","","","","","","","","","","","","","","","","","","","","","","","","","","","","","feedback_test","","","","","","","","","","","",""
"751","","j","psychophysics","91","437532","0.0-7.0-1.0-1.0-0.0-0.41","3","3","3","3","2","3","3","4","3","3","4","3","2","4","3","4","3","3","4","3","1","3","3","3","3","2","3","3","3","1","0","1","1","0","1","1","1","1","1","1","0","1","0","1","4","4","4","3","4","1","3","3","3","3","3","796469824262905858","夏","472","","","","nonmatch","","","","","","","","","","","","","","key","j","16.66568269230741","720","476","j","true","nonmatch","img/hexagon.png","圆形","六边","ALT1_2","prac_ALT1_2","","","","","","","","","","","",""
"null","<span style='color:GreenYellow; font-size: 70px;'>正确! </span>","null","html-keyboard-response","92","438034","0.0-7.0-1.0-1.0-0.0-1.41","3","3","3","3","2","3","3","4","3","3","4","3","2","4","3","4","3","3","4","3","1","3","3","3","3","2","3","3","3","1","0","1","1","0","1","1","1","1","1","1","0","1","0","1","4","4","4","3","4","1","3","3","3","3","3","796469824262905858","夏","472","","","","","","","","","","","","","","","","","","","","","","","","","","","","","","feedback_test","","","","","","","","","","","",""
"948","","f","psychophysics","93","439983","0.0-7.0-1.0-1.0-0.0-0.42","3","3","3","3","2","3","3","4","3","3","4","3","2","4","3","4","3","3","4","3","1","3","3","3","3","2","3","3","3","1","0","1","1","0","1","1","1","1","1","1","0","1","0","1","4","4","4","3","4","1","3","3","3","3","3","796469824262905858","夏","472","","","","match","","","","","","","","","","","","","","key","f","16.66920869565245","720","476","f","true","match","img/hexagon.png","六边","六边","ALT1_2","prac_ALT1_2","","","","","","","","","","","",""
"null","<span style='color:GreenYellow; font-size: 70px;'>正确! </span>","null","html-keyboard-response","94","440496","0.0-7.0-1.0-1.0-0.0-1.42","3","3","3","3","2","3","3","4","3","3","4","3","2","4","3","4","3","3","4","3","1","3","3","3","3","2","3","3","3","1","0","1","1","0","1","1","1","1","1","1","0","1","0","1","4","4","4","3","4","1","3","3","3","3","3","796469824262905858","夏","472","","","","","","","","","","","","","","","","","","","","","","","","","","","","","","feedback_test","","","","","","","","","","","",""
"809","","j","psychophysics","95","442306","0.0-7.0-1.0-1.0-0.0-0.43","3","3","3","3","2","3","3","4","3","3","4","3","2","4","3","4","3","3","4","3","1","3","3","3","3","2","3","3","3","1","0","1","1","0","1","1","1","1","1","1","0","1","0","1","4","4","4","3","4","1","3","3","3","3","3","796469824262905858","夏","472","","","","nonmatch","","","","","","","","","","","","","","key","j","16.672601851851343","720","476","j","true","nonmatch","img/triangle.png","方形","三角","ALT1_2","prac_ALT1_2","","","","","","","","","","","",""
"null","<span style='color:GreenYellow; font-size: 70px;'>正确! </span>","null","html-keyboard-response","96","442808","0.0-7.0-1.0-1.0-0.0-1.43","3","3","3","3","2","3","3","4","3","3","4","3","2","4","3","4","3","3","4","3","1","3","3","3","3","2","3","3","3","1","0","1","1","0","1","1","1","1","1","1","0","1","0","1","4","4","4","3","4","1","3","3","3","3","3","796469824262905858","夏","472","","","","","","","","","","","","","","","","","","","","","","","","","","","","","","feedback_test","","","","","","","","","","","",""
"633","","j","psychophysics","97","444443","0.0-7.0-1.0-1.0-0.0-0.44","3","3","3","3","2","3","3","4","3","3","4","3","2","4","3","4","3","3","4","3","1","3","3","3","3","2","3","3","3","1","0","1","1","0","1","1","1","1","1","1","0","1","0","1","4","4","4","3","4","1","3","3","3","3","3","796469824262905858","夏","472","","","","nonmatch","","","","","","","","","","","","","","key","j","16.666340206185662","720","476","j","true","nonmatch","img/triangle.png","圆形","三角","ALT1_2","prac_ALT1_2","","","","","","","","","","","",""
"null","<span style='color:GreenYellow; font-size: 70px;'>正确! </span>","null","html-keyboard-response","98","444944","0.0-7.0-1.0-1.0-0.0-1.44","3","3","3","3","2","3","3","4","3","3","4","3","2","4","3","4","3","3","4","3","1","3","3","3","3","2","3","3","3","1","0","1","1","0","1","1","1","1","1","1","0","1","0","1","4","4","4","3","4","1","3","3","3","3","3","796469824262905858","夏","472","","","","","","","","","","","","","","","","","","","","","","","","","","","","","","feedback_test","","","","","","","","","","","",""
"763","","f","psychophysics","99","446709","0.0-7.0-1.0-1.0-0.0-0.45","3","3","3","3","2","3","3","4","3","3","4","3","2","4","3","4","3","3","4","3","1","3","3","3","3","2","3","3","3","1","0","1","1","0","1","1","1","1","1","1","0","1","0","1","4","4","4","3","4","1","3","3","3","3","3","796469824262905858","夏","472","","","","match","","","","","","","","","","","","","","key","f","16.662499999999664","720","476","f","true","match","img/triangle.png","三角","三角","ALT1_2","prac_ALT1_2","","","","","","","","","","","",""
"null","<span style='color:GreenYellow; font-size: 70px;'>正确! </span>","null","html-keyboard-response","100","447211","0.0-7.0-1.0-1.0-0.0-1.45","3","3","3","3","2","3","3","4","3","3","4","3","2","4","3","4","3","3","4","3","1","3","3","3","3","2","3","3","3","1","0","1","1","0","1","1","1","1","1","1","0","1","0","1","4","4","4","3","4","1","3","3","3","3","3","796469824262905858","夏","472","","","","","","","","","","","","","","","","","","","","","","","","","","","","","","feedback_test","","","","","","","","","","","",""
"684","","j","psychophysics","101","448896","0.0-7.0-1.0-1.0-0.0-0.46","3","3","3","3","2","3","3","4","3","3","4","3","2","4","3","4","3","3","4","3","1","3","3","3","3","2","3","3","3","1","0","1","1","0","1","1","1","1","1","1","0","1","0","1","4","4","4","3","4","1","3","3","3","3","3","796469824262905858","夏","472","","","","nonmatch","","","","","","","","","","","","","","key","j","16.661319999999833","720","476","j","true","nonmatch","img/square.png","三角","方形","ALT1_2","prac_ALT1_2","","","","","","","","","","","",""
"null","<span style='color:GreenYellow; font-size: 70px;'>正确! </span>","null","html-keyboard-response","102","449398","0.0-7.0-1.0-1.0-0.0-1.46","3","3","3","3","2","3","3","4","3","3","4","3","2","4","3","4","3","3","4","3","1","3","3","3","3","2","3","3","3","1","0","1","1","0","1","1","1","1","1","1","0","1","0","1","4","4","4","3","4","1","3","3","3","3","3","796469824262905858","夏","472","","","","","","","","","","","","","","","","","","","","","","","","","","","","","","feedback_test","","","","","","","","","","","",""
"852","","f","psychophysics","103","451251","0.0-7.0-1.0-1.0-0.0-0.47","3","3","3","3","2","3","3","4","3","3","4","3","2","4","3","4","3","3","4","3","1","3","3","3","3","2","3","3","3","1","0","1","1","0","1","1","1","1","1","1","0","1","0","1","4","4","4","3","4","1","3","3","3","3","3","796469824262905858","夏","472","","","","match","","","","","","","","","","","","","","key","f","16.67014545454559","720","476","f","true","match","img/square.png","方形","方形","ALT1_2","prac_ALT1_2","","","","","","","","","","","",""
"null","<span style='color:GreenYellow; font-size: 70px;'>正确! </span>","null","html-keyboard-response","104","451752","0.0-7.0-1.0-1.0-0.0-1.47","3","3","3","3","2","3","3","4","3","3","4","3","2","4","3","4","3","3","4","3","1","3","3","3","3","2","3","3","3","1","0","1","1","0","1","1","1","1","1","1","0","1","0","1","4","4","4","3","4","1","3","3","3","3","3","796469824262905858","夏","472","","","","","","","","","","","","","","","","","","","","","","","","","","","","","","feedback_test","","","","","","","","","","","",""
"15901","<style>.context{color:white; font-size: 35px; line-height:40px}</style>                          <div><p class='context'>您正确回答了79% 的试次。</p><p class='context'>您的平均反应时为784毫秒。</p><p class='context'>恭喜您完成练习。按空格键进入正式实验。</p><p class='footer' style='font-size: 35px; line-height:40px;'>请在进入正式实验实验之前将您的<span style='color: lightgreen;'>食指</span>放在电脑键盘的相应键位上进行按键。</p>"," ","html-keyboard-response","105","467656","0.0-7.0-1.0-2.0","3","3","3","3","2","3","3","4","3","3","4","3","2","4","3","4","3","3","4","3","1","3","3","3","3","2","3","3","3","1","0","1","1","0","1","1","1","1","1","1","0","1","0","1","4","4","4","3","4","1","3","3","3","3","3","796469824262905858","夏","472","","","","","","","","","","","","","","","","","","","","","","","","","","","","","","","","","","","","","","","","","",""
"3695","
  <p style='color: white; font-size: 22px'>请您将手指放在按键上，准备进入正式的匹配任务。</p>
  <p> <div style = ""color: green""><按空格键进入下一阶段的匹配任务></div></p>
  "," ","html-keyboard-response","106","471357","0.0-7.0-1.0-3.0","3","3","3","3","2","3","3","4","3","3","4","3","2","4","3","4","3","3","4","3","1","3","3","3","3","2","3","3","3","1","0","1","1","0","1","1","1","1","1","1","0","1","0","1","4","4","4","3","4","1","3","3","3","3","3","796469824262905858","夏","472","","","","","","","","","","","","","","","","","","","","","","","","","","","","","","","","","","","","","","","","","",""
"918","","f","psychophysics","107","473276","0.0-7.0-1.0-4.0-0.0-0.0","3","3","3","3","2","3","3","4","3","3","4","3","2","4","3","4","3","3","4","3","1","3","3","3","3","2","3","3","3","1","0","1","1","0","1","1","1","1","1","1","0","1","0","1","4","4","4","3","4","1","3","3","3","3","3","796469824262905858","夏","472","","","","match","","","","","","","","","","","","","","key","f","16.667763157894736","720","476","f","true","match","img/square.png","方形","方形","ALT1","formal_ALT1_2","","","","","","","","","","","",""
"null","<span style='color:GreenYellow; font-size: 70px;'>正确! </span>","null","html-keyboard-response","108","473778","0.0-7.0-1.0-4.0-0.0-1.0","3","3","3","3","2","3","3","4","3","3","4","3","2","4","3","4","3","3","4","3","1","3","3","3","3","2","3","3","3","1","0","1","1","0","1","1","1","1","1","1","0","1","0","1","4","4","4","3","4","1","3","3","3","3","3","796469824262905858","夏","472","","","","","","","","","","","","","","","","","","","","","","","","","","","","","","feedback_test","","","","","","","","","","","",""
"922","","j","psychophysics","109","475703","0.0-7.0-1.0-4.0-0.0-0.1","3","3","3","3","2","3","3","4","3","3","4","3","2","4","3","4","3","3","4","3","1","3","3","3","3","2","3","3","3","1","0","1","1","0","1","1","1","1","1","1","0","1","0","1","4","4","4","3","4","1","3","3","3","3","3","796469824262905858","夏","472","","","","nonmatch","","","","","","","","","","","","","","key","j","16.666833333333592","720","476","j","true","nonmatch","img/hexagon.png","方形","六边","ALT1","formal_ALT1_2","","","","","","","","","","","",""
"null","<span style='color:GreenYellow; font-size: 70px;'>正确! </span>","null","html-keyboard-response","110","476205","0.0-7.0-1.0-4.0-0.0-1.1","3","3","3","3","2","3","3","4","3","3","4","3","2","4","3","4","3","3","4","3","1","3","3","3","3","2","3","3","3","1","0","1","1","0","1","1","1","1","1","1","0","1","0","1","4","4","4","3","4","1","3","3","3","3","3","796469824262905858","夏","472","","","","","","","","","","","","","","","","","","","","","","","","","","","","","","feedback_test","","","","","","","","","","","",""
"694","","j","psychophysics","111","477900","0.0-7.0-1.0-4.0-0.0-0.2","3","3","3","3","2","3","3","4","3","3","4","3","2","4","3","4","3","3","4","3","1","3","3","3","3","2","3","3","3","1","0","1","1","0","1","1","1","1","1","1","0","1","0","1","4","4","4","3","4","1","3","3","3","3","3","796469824262905858","夏","472","","","","nonmatch","","","","","","","","","","","","","","key","j","16.669749999999766","720","476","j","true","nonmatch","img/triangle.png","六边","三角","ALT1","formal_ALT1_2","","","","","","","","","","","",""
"null","<span style='color:GreenYellow; font-size: 70px;'>正确! </span>","null","html-keyboard-response","112","478401","0.0-7.0-1.0-4.0-0.0-1.2","3","3","3","3","2","3","3","4","3","3","4","3","2","4","3","4","3","3","4","3","1","3","3","3","3","2","3","3","3","1","0","1","1","0","1","1","1","1","1","1","0","1","0","1","4","4","4","3","4","1","3","3","3","3","3","796469824262905858","夏","472","","","","","","","","","","","","","","","","","","","","","","","","","","","","","","feedback_test","","","","","","","","","","","",""
"748","","j","psychophysics","113","480151","0.0-7.0-1.0-4.0-0.0-0.3","3","3","3","3","2","3","3","4","3","3","4","3","2","4","3","4","3","3","4","3","1","3","3","3","3","2","3","3","3","1","0","1","1","0","1","1","1","1","1","1","0","1","0","1","4","4","4","3","4","1","3","3","3","3","3","796469824262905858","夏","472","","","","nonmatch","","","","","","","","","","","","","","key","j","16.662029126213717","720","476","j","true","nonmatch","img/triangle.png","圆形","三角","ALT1","formal_ALT1_2","","","","","","","","","","","",""
"null","<span style='color:GreenYellow; font-size: 70px;'>正确! </span>","null","html-keyboard-response","114","480653","0.0-7.0-1.0-4.0-0.0-1.3","3","3","3","3","2","3","3","4","3","3","4","3","2","4","3","4","3","3","4","3","1","3","3","3","3","2","3","3","3","1","0","1","1","0","1","1","1","1","1","1","0","1","0","1","4","4","4","3","4","1","3","3","3","3","3","796469824262905858","夏","472","","","","","","","","","","","","","","","","","","","","","","","","","","","","","","feedback_test","","","","","","","","","","","",""
"727","","f","psychophysics","115","482382","0.0-7.0-1.0-4.0-0.0-0.4","3","3","3","3","2","3","3","4","3","3","4","3","2","4","3","4","3","3","4","3","1","3","3","3","3","2","3","3","3","1","0","1","1","0","1","1","1","1","1","1","0","1","0","1","4","4","4","3","4","1","3","3","3","3","3","796469824262905858","夏","472","","","","match","","","","","","","","","","","","","","key","f","16.662715686274595","720","476","f","true","match","img/triangle.png","三角","三角","ALT1","formal_ALT1_2","","","","","","","","","","","",""
"null","<span style='color:GreenYellow; font-size: 70px;'>正确! </span>","null","html-keyboard-response","116","482883","0.0-7.0-1.0-4.0-0.0-1.4","3","3","3","3","2","3","3","4","3","3","4","3","2","4","3","4","3","3","4","3","1","3","3","3","3","2","3","3","3","1","0","1","1","0","1","1","1","1","1","1","0","1","0","1","4","4","4","3","4","1","3","3","3","3","3","796469824262905858","夏","472","","","","","","","","","","","","","","","","","","","","","","","","","","","","","","feedback_test","","","","","","","","","","","",""
"965","","f","psychophysics","117","484850","0.0-7.0-1.0-4.0-0.0-0.5","3","3","3","3","2","3","3","4","3","3","4","3","2","4","3","4","3","3","4","3","1","3","3","3","3","2","3","3","3","1","0","1","1","0","1","1","1","1","1","1","0","1","0","1","4","4","4","3","4","1","3","3","3","3","3","796469824262905858","夏","472","","","","match","","","","","","","","","","","","","","key","f","16.66681896551695","720","476","f","true","match","img/hexagon.png","六边","六边","ALT1","formal_ALT1_2","","","","","","","","","","","",""
"null","<span style='color:GreenYellow; font-size: 70px;'>正确! </span>","null","html-keyboard-response","118","485353","0.0-7.0-1.0-4.0-0.0-1.5","3","3","3","3","2","3","3","4","3","3","4","3","2","4","3","4","3","3","4","3","1","3","3","3","3","2","3","3","3","1","0","1","1","0","1","1","1","1","1","1","0","1","0","1","4","4","4","3","4","1","3","3","3","3","3","796469824262905858","夏","472","","","","","","","","","","","","","","","","","","","","","","","","","","","","","","feedback_test","","","","","","","","","","","",""
"746","","f","psychophysics","119","487101","0.0-7.0-1.0-4.0-0.0-0.6","3","3","3","3","2","3","3","4","3","3","4","3","2","4","3","4","3","3","4","3","1","3","3","3","3","2","3","3","3","1","0","1","1","0","1","1","1","1","1","1","0","1","0","1","4","4","4","3","4","1","3","3","3","3","3","796469824262905858","夏","472","","","","match","","","","","","","","","","","","","","key","f","16.66674757281542","720","476","f","true","match","img/circle.png","圆形","圆形","ALT1","formal_ALT1_2","","","","","","","","","","","",""
"null","<span style='color:GreenYellow; font-size: 70px;'>正确! </span>","null","html-keyboard-response","120","487604","0.0-7.0-1.0-4.0-0.0-1.6","3","3","3","3","2","3","3","4","3","3","4","3","2","4","3","4","3","3","4","3","1","3","3","3","3","2","3","3","3","1","0","1","1","0","1","1","1","1","1","1","0","1","0","1","4","4","4","3","4","1","3","3","3","3","3","796469824262905858","夏","472","","","","","","","","","","","","","","","","","","","","","","","","","","","","","","feedback_test","","","","","","","","","","","",""
"504","","f","psychophysics","121","489110","0.0-7.0-1.0-4.0-0.0-0.7","3","3","3","3","2","3","3","4","3","3","4","3","2","4","3","4","3","3","4","3","1","3","3","3","3","2","3","3","3","1","0","1","1","0","1","1","1","1","1","1","0","1","0","1","4","4","4","3","4","1","3","3","3","3","3","796469824262905858","夏","472","","","","match","","","","","","","","","","","","","","key","f","16.666044943820125","720","476","j","false","nonmatch","img/circle.png","三角","圆形","ALT1","formal_ALT1_2","","","","","","","","","","","",""
"null","<span style='color:red; font-size: 70px;'>错误! </span>","null","html-keyboard-response","122","489613","0.0-7.0-1.0-4.0-0.0-1.7","3","3","3","3","2","3","3","4","3","3","4","3","2","4","3","4","3","3","4","3","1","3","3","3","3","2","3","3","3","1","0","1","1","0","1","1","1","1","1","1","0","1","0","1","4","4","4","3","4","1","3","3","3","3","3","796469824262905858","夏","472","","","","","","","","","","","","","","","","","","","","","","","","","","","","","","feedback_test","","","","","","","","","","","",""
"654","","f","psychophysics","123","491269","0.0-7.0-1.0-4.0-0.0-0.8","3","3","3","3","2","3","3","4","3","3","4","3","2","4","3","4","3","3","4","3","1","3","3","3","3","2","3","3","3","1","0","1","1","0","1","1","1","1","1","1","0","1","0","1","4","4","4","3","4","1","3","3","3","3","3","796469824262905858","夏","472","","","","match","","","","","","","","","","","","","","key","f","16.66409183673475","720","476","f","true","match","img/circle.png","圆形","圆形","ALT1","formal_ALT1_2","","","","","","","","","","","",""
"null","<span style='color:GreenYellow; font-size: 70px;'>正确! </span>","null","html-keyboard-response","124","491779","0.0-7.0-1.0-4.0-0.0-1.8","3","3","3","3","2","3","3","4","3","3","4","3","2","4","3","4","3","3","4","3","1","3","3","3","3","2","3","3","3","1","0","1","1","0","1","1","1","1","1","1","0","1","0","1","4","4","4","3","4","1","3","3","3","3","3","796469824262905858","夏","472","","","","","","","","","","","","","","","","","","","","","","","","","","","","","","feedback_test","","","","","","","","","","","",""
"775","","j","psychophysics","125","493556","0.0-7.0-1.0-4.0-0.0-0.9","3","3","3","3","2","3","3","4","3","3","4","3","2","4","3","4","3","3","4","3","1","3","3","3","3","2","3","3","3","1","0","1","1","0","1","1","1","1","1","1","0","1","0","1","4","4","4","3","4","1","3","3","3","3","3","796469824262905858","夏","472","","","","nonmatch","","","","","","","","","","","","","","key","j","16.663400000000063","720","476","j","true","nonmatch","img/square.png","圆形","方形","ALT1","formal_ALT1_2","","","","","","","","","","","",""
"null","<span style='color:GreenYellow; font-size: 70px;'>正确! </span>","null","html-keyboard-response","126","494058","0.0-7.0-1.0-4.0-0.0-1.9","3","3","3","3","2","3","3","4","3","3","4","3","2","4","3","4","3","3","4","3","1","3","3","3","3","2","3","3","3","1","0","1","1","0","1","1","1","1","1","1","0","1","0","1","4","4","4","3","4","1","3","3","3","3","3","796469824262905858","夏","472","","","","","","","","","","","","","","","","","","","","","","","","","","","","","","feedback_test","","","","","","","","","","","",""
"821","","j","psychophysics","127","495881","0.0-7.0-1.0-4.0-0.0-0.10","3","3","3","3","2","3","3","4","3","3","4","3","2","4","3","4","3","3","4","3","1","3","3","3","3","2","3","3","3","1","0","1","1","0","1","1","1","1","1","1","0","1","0","1","4","4","4","3","4","1","3","3","3","3","3","796469824262905858","夏","472","","","","nonmatch","","","","","","","","","","","","","","key","j","16.662518518518752","720","476","j","true","nonmatch","img/hexagon.png","三角","六边","ALT1","formal_ALT1_2","","","","","","","","","","","",""
"null","<span style='color:GreenYellow; font-size: 70px;'>正确! </span>","null","html-keyboard-response","128","496382","0.0-7.0-1.0-4.0-0.0-1.10","3","3","3","3","2","3","3","4","3","3","4","3","2","4","3","4","3","3","4","3","1","3","3","3","3","2","3","3","3","1","0","1","1","0","1","1","1","1","1","1","0","1","0","1","4","4","4","3","4","1","3","3","3","3","3","796469824262905858","夏","472","","","","","","","","","","","","","","","","","","","","","","","","","","","","","","feedback_test","","","","","","","","","","","",""
"797","","f","psychophysics","129","498183","0.0-7.0-1.0-4.0-0.0-0.11","3","3","3","3","2","3","3","4","3","3","4","3","2","4","3","4","3","3","4","3","1","3","3","3","3","2","3","3","3","1","0","1","1","0","1","1","1","1","1","1","0","1","0","1","4","4","4","3","4","1","3","3","3","3","3","796469824262905858","夏","472","","","","match","","","","","","","","","","","","","","key","f","16.671102803737952","720","476","f","true","match","img/triangle.png","三角","三角","ALT1","formal_ALT1_2","","","","","","","","","","","",""
"null","<span style='color:GreenYellow; font-size: 70px;'>正确! </span>","null","html-keyboard-response","130","498684","0.0-7.0-1.0-4.0-0.0-1.11","3","3","3","3","2","3","3","4","3","3","4","3","2","4","3","4","3","3","4","3","1","3","3","3","3","2","3","3","3","1","0","1","1","0","1","1","1","1","1","1","0","1","0","1","4","4","4","3","4","1","3","3","3","3","3","796469824262905858","夏","472","","","","","","","","","","","","","","","","","","","","","","","","","","","","","","feedback_test","","","","","","","","","","","",""
"622","","f","psychophysics","131","500307","0.0-7.0-1.0-4.0-0.0-0.12","3","3","3","3","2","3","3","4","3","3","4","3","2","4","3","4","3","3","4","3","1","3","3","3","3","2","3","3","3","1","0","1","1","0","1","1","1","1","1","1","0","1","0","1","4","4","4","3","4","1","3","3","3","3","3","796469824262905858","夏","472","","","","match","","","","","","","","","","","","","","key","f","16.67505154639216","720","476","f","true","match","img/triangle.png","三角","三角","ALT1","formal_ALT1_2","","","","","","","","","","","",""
"null","<span style='color:GreenYellow; font-size: 70px;'>正确! </span>","null","html-keyboard-response","132","500809","0.0-7.0-1.0-4.0-0.0-1.12","3","3","3","3","2","3","3","4","3","3","4","3","2","4","3","4","3","3","4","3","1","3","3","3","3","2","3","3","3","1","0","1","1","0","1","1","1","1","1","1","0","1","0","1","4","4","4","3","4","1","3","3","3","3","3","796469824262905858","夏","472","","","","","","","","","","","","","","","","","","","","","","","","","","","","","","feedback_test","","","","","","","","","","","",""
"847","","f","psychophysics","133","502658","0.0-7.0-1.0-4.0-0.0-0.13","3","3","3","3","2","3","3","4","3","3","4","3","2","4","3","4","3","3","4","3","1","3","3","3","3","2","3","3","3","1","0","1","1","0","1","1","1","1","1","1","0","1","0","1","4","4","4","3","4","1","3","3","3","3","3","796469824262905858","夏","472","","","","match","","","","","","","","","","","","","","key","f","16.662926605504772","720","476","f","true","match","img/hexagon.png","六边","六边","ALT1","formal_ALT1_2","","","","","","","","","","","",""
"null","<span style='color:GreenYellow; font-size: 70px;'>正确! </span>","null","html-keyboard-response","134","503159","0.0-7.0-1.0-4.0-0.0-1.13","3","3","3","3","2","3","3","4","3","3","4","3","2","4","3","4","3","3","4","3","1","3","3","3","3","2","3","3","3","1","0","1","1","0","1","1","1","1","1","1","0","1","0","1","4","4","4","3","4","1","3","3","3","3","3","796469824262905858","夏","472","","","","","","","","","","","","","","","","","","","","","","","","","","","","","","feedback_test","","","","","","","","","","","",""
"618","","f","psychophysics","135","504779","0.0-7.0-1.0-4.0-0.0-0.14","3","3","3","3","2","3","3","4","3","3","4","3","2","4","3","4","3","3","4","3","1","3","3","3","3","2","3","3","3","1","0","1","1","0","1","1","1","1","1","1","0","1","0","1","4","4","4","3","4","1","3","3","3","3","3","796469824262905858","夏","472","","","","match","","","","","","","","","","","","","","key","f","16.665916666666817","720","476","f","true","match","img/square.png","方形","方形","ALT1","formal_ALT1_2","","","","","","","","","","","",""
"null","<span style='color:GreenYellow; font-size: 70px;'>正确! </span>","null","html-keyboard-response","136","505281","0.0-7.0-1.0-4.0-0.0-1.14","3","3","3","3","2","3","3","4","3","3","4","3","2","4","3","4","3","3","4","3","1","3","3","3","3","2","3","3","3","1","0","1","1","0","1","1","1","1","1","1","0","1","0","1","4","4","4","3","4","1","3","3","3","3","3","796469824262905858","夏","472","","","","","","","","","","","","","","","","","","","","","","","","","","","","","","feedback_test","","","","","","","","","","","",""
"617","","f","psychophysics","137","506899","0.0-7.0-1.0-4.0-0.0-0.15","3","3","3","3","2","3","3","4","3","3","4","3","2","4","3","4","3","3","4","3","1","3","3","3","3","2","3","3","3","1","0","1","1","0","1","1","1","1","1","1","0","1","0","1","4","4","4","3","4","1","3","3","3","3","3","796469824262905858","夏","472","","","","match","","","","","","","","","","","","","","key","f","16.660583333333005","720","476","f","true","match","img/hexagon.png","六边","六边","ALT1","formal_ALT1_2","","","","","","","","","","","",""
"null","<span style='color:GreenYellow; font-size: 70px;'>正确! </span>","null","html-keyboard-response","138","507401","0.0-7.0-1.0-4.0-0.0-1.15","3","3","3","3","2","3","3","4","3","3","4","3","2","4","3","4","3","3","4","3","1","3","3","3","3","2","3","3","3","1","0","1","1","0","1","1","1","1","1","1","0","1","0","1","4","4","4","3","4","1","3","3","3","3","3","796469824262905858","夏","472","","","","","","","","","","","","","","","","","","","","","","","","","","","","","","feedback_test","","","","","","","","","","","",""
"648","","f","psychophysics","139","509051","0.0-7.0-1.0-4.0-0.0-0.16","3","3","3","3","2","3","3","4","3","3","4","3","2","4","3","4","3","3","4","3","1","3","3","3","3","2","3","3","3","1","0","1","1","0","1","1","1","1","1","1","0","1","0","1","4","4","4","3","4","1","3","3","3","3","3","796469824262905858","夏","472","","","","match","","","","","","","","","","","","","","key","f","16.661391752577607","720","476","f","true","match","img/square.png","方形","方形","ALT1","formal_ALT1_2","","","","","","","","","","","",""
"null","<span style='color:GreenYellow; font-size: 70px;'>正确! </span>","null","html-keyboard-response","140","509552","0.0-7.0-1.0-4.0-0.0-1.16","3","3","3","3","2","3","3","4","3","3","4","3","2","4","3","4","3","3","4","3","1","3","3","3","3","2","3","3","3","1","0","1","1","0","1","1","1","1","1","1","0","1","0","1","4","4","4","3","4","1","3","3","3","3","3","796469824262905858","夏","472","","","","","","","","","","","","","","","","","","","","","","","","","","","","","","feedback_test","","","","","","","","","","","",""
"577","","f","psychophysics","141","511130","0.0-7.0-1.0-4.0-0.0-0.17","3","3","3","3","2","3","3","4","3","3","4","3","2","4","3","4","3","3","4","3","1","3","3","3","3","2","3","3","3","1","0","1","1","0","1","1","1","1","1","1","0","1","0","1","4","4","4","3","4","1","3","3","3","3","3","796469824262905858","夏","472","","","","match","","","","","","","","","","","","","","key","f","16.666462365591084","720","476","j","false","nonmatch","img/triangle.png","方形","三角","ALT1","formal_ALT1_2","","","","","","","","","","","",""
"null","<span style='color:red; font-size: 70px;'>错误! </span>","null","html-keyboard-response","142","511631","0.0-7.0-1.0-4.0-0.0-1.17","3","3","3","3","2","3","3","4","3","3","4","3","2","4","3","4","3","3","4","3","1","3","3","3","3","2","3","3","3","1","0","1","1","0","1","1","1","1","1","1","0","1","0","1","4","4","4","3","4","1","3","3","3","3","3","796469824262905858","夏","472","","","","","","","","","","","","","","","","","","","","","","","","","","","","","","feedback_test","","","","","","","","","","","",""
"745","","j","psychophysics","143","513380","0.0-7.0-1.0-4.0-0.0-0.18","3","3","3","3","2","3","3","4","3","3","4","3","2","4","3","4","3","3","4","3","1","3","3","3","3","2","3","3","3","1","0","1","1","0","1","1","1","1","1","1","0","1","0","1","4","4","4","3","4","1","3","3","3","3","3","796469824262905858","夏","472","","","","nonmatch","","","","","","","","","","","","","","key","j","16.671471153846003","720","476","j","true","nonmatch","img/square.png","三角","方形","ALT1","formal_ALT1_2","","","","","","","","","","","",""
"null","<span style='color:GreenYellow; font-size: 70px;'>正确! </span>","null","html-keyboard-response","144","513881","0.0-7.0-1.0-4.0-0.0-1.18","3","3","3","3","2","3","3","4","3","3","4","3","2","4","3","4","3","3","4","3","1","3","3","3","3","2","3","3","3","1","0","1","1","0","1","1","1","1","1","1","0","1","0","1","4","4","4","3","4","1","3","3","3","3","3","796469824262905858","夏","472","","","","","","","","","","","","","","","","","","","","","","","","","","","","","","feedback_test","","","","","","","","","","","",""
"639","","j","psychophysics","145","515521","0.0-7.0-1.0-4.0-0.0-0.19","3","3","3","3","2","3","3","4","3","3","4","3","2","4","3","4","3","3","4","3","1","3","3","3","3","2","3","3","3","1","0","1","1","0","1","1","1","1","1","1","0","1","0","1","4","4","4","3","4","1","3","3","3","3","3","796469824262905858","夏","472","","","","nonmatch","","","","","","","","","","","","","","key","j","16.661288659794007","720","476","j","true","nonmatch","img/circle.png","六边","圆形","ALT1","formal_ALT1_2","","","","","","","","","","","",""
"null","<span style='color:GreenYellow; font-size: 70px;'>正确! </span>","null","html-keyboard-response","146","516022","0.0-7.0-1.0-4.0-0.0-1.19","3","3","3","3","2","3","3","4","3","3","4","3","2","4","3","4","3","3","4","3","1","3","3","3","3","2","3","3","3","1","0","1","1","0","1","1","1","1","1","1","0","1","0","1","4","4","4","3","4","1","3","3","3","3","3","796469824262905858","夏","472","","","","","","","","","","","","","","","","","","","","","","","","","","","","","","feedback_test","","","","","","","","","","","",""
"852","","f","psychophysics","147","517876","0.0-7.0-1.0-4.0-0.0-0.20","3","3","3","3","2","3","3","4","3","3","4","3","2","4","3","4","3","3","4","3","1","3","3","3","3","2","3","3","3","1","0","1","1","0","1","1","1","1","1","1","0","1","0","1","4","4","4","3","4","1","3","3","3","3","3","796469824262905858","夏","472","","","","match","","","","","","","","","","","","","","key","f","16.667599999999883","720","476","f","true","match","img/circle.png","圆形","圆形","ALT1","formal_ALT1_2","","","","","","","","","","","",""
"null","<span style='color:GreenYellow; font-size: 70px;'>正确! </span>","null","html-keyboard-response","148","518378","0.0-7.0-1.0-4.0-0.0-1.20","3","3","3","3","2","3","3","4","3","3","4","3","2","4","3","4","3","3","4","3","1","3","3","3","3","2","3","3","3","1","0","1","1","0","1","1","1","1","1","1","0","1","0","1","4","4","4","3","4","1","3","3","3","3","3","796469824262905858","夏","472","","","","","","","","","","","","","","","","","","","","","","","","","","","","","","feedback_test","","","","","","","","","","","",""
"771","","j","psychophysics","149","520152","0.0-7.0-1.0-4.0-0.0-0.21","3","3","3","3","2","3","3","4","3","3","4","3","2","4","3","4","3","3","4","3","1","3","3","3","3","2","3","3","3","1","0","1","1","0","1","1","1","1","1","1","0","1","0","1","4","4","4","3","4","1","3","3","3","3","3","796469824262905858","夏","472","","","","nonmatch","","","","","","","","","","","","","","key","j","16.665314285714356","720","476","j","true","nonmatch","img/circle.png","方形","圆形","ALT1","formal_ALT1_2","","","","","","","","","","","",""
"null","<span style='color:GreenYellow; font-size: 70px;'>正确! </span>","null","html-keyboard-response","150","520653","0.0-7.0-1.0-4.0-0.0-1.21","3","3","3","3","2","3","3","4","3","3","4","3","2","4","3","4","3","3","4","3","1","3","3","3","3","2","3","3","3","1","0","1","1","0","1","1","1","1","1","1","0","1","0","1","4","4","4","3","4","1","3","3","3","3","3","796469824262905858","夏","472","","","","","","","","","","","","","","","","","","","","","","","","","","","","","","feedback_test","","","","","","","","","","","",""
"768","","j","psychophysics","151","522422","0.0-7.0-1.0-4.0-0.0-0.22","3","3","3","3","2","3","3","4","3","3","4","3","2","4","3","4","3","3","4","3","1","3","3","3","3","2","3","3","3","1","0","1","1","0","1","1","1","1","1","1","0","1","0","1","4","4","4","3","4","1","3","3","3","3","3","796469824262905858","夏","472","","","","nonmatch","","","","","","","","","","","","","","key","j","16.664419047619283","720","476","j","true","nonmatch","img/hexagon.png","圆形","六边","ALT1","formal_ALT1_2","","","","","","","","","","","",""
"null","<span style='color:GreenYellow; font-size: 70px;'>正确! </span>","null","html-keyboard-response","152","522923","0.0-7.0-1.0-4.0-0.0-1.22","3","3","3","3","2","3","3","4","3","3","4","3","2","4","3","4","3","3","4","3","1","3","3","3","3","2","3","3","3","1","0","1","1","0","1","1","1","1","1","1","0","1","0","1","4","4","4","3","4","1","3","3","3","3","3","796469824262905858","夏","472","","","","","","","","","","","","","","","","","","","","","","","","","","","","","","feedback_test","","","","","","","","","","","",""
"752","","j","psychophysics","153","524677","0.0-7.0-1.0-4.0-0.0-0.23","3","3","3","3","2","3","3","4","3","3","4","3","2","4","3","4","3","3","4","3","1","3","3","3","3","2","3","3","3","1","0","1","1","0","1","1","1","1","1","1","0","1","0","1","4","4","4","3","4","1","3","3","3","3","3","796469824262905858","夏","472","","","","nonmatch","","","","","","","","","","","","","","key","j","16.661557692307934","720","476","j","true","nonmatch","img/square.png","六边","方形","ALT1","formal_ALT1_2","","","","","","","","","","","",""
"null","<span style='color:GreenYellow; font-size: 70px;'>正确! </span>","null","html-keyboard-response","154","525178","0.0-7.0-1.0-4.0-0.0-1.23","3","3","3","3","2","3","3","4","3","3","4","3","2","4","3","4","3","3","4","3","1","3","3","3","3","2","3","3","3","1","0","1","1","0","1","1","1","1","1","1","0","1","0","1","4","4","4","3","4","1","3","3","3","3","3","796469824262905858","夏","472","","","","","","","","","","","","","","","","","","","","","","","","","","","","","","feedback_test","","","","","","","","","","","",""
"815","","f","psychophysics","155","526997","0.0-7.0-1.0-4.0-0.0-0.24","3","3","3","3","2","3","3","4","3","3","4","3","2","4","3","4","3","3","4","3","1","3","3","3","3","2","3","3","3","1","0","1","1","0","1","1","1","1","1","1","0","1","0","1","4","4","4","3","4","1","3","3","3","3","3","796469824262905858","夏","472","","","","match","","","","","","","","","","","","","","key","f","16.65989814814788","720","476","f","true","match","img/circle.png","圆形","圆形","ALT1","formal_ALT1_2","","","","","","","","","","","",""
"null","<span style='color:GreenYellow; font-size: 70px;'>正确! </span>","null","html-keyboard-response","156","527498","0.0-7.0-1.0-4.0-0.0-1.24","3","3","3","3","2","3","3","4","3","3","4","3","2","4","3","4","3","3","4","3","1","3","3","3","3","2","3","3","3","1","0","1","1","0","1","1","1","1","1","1","0","1","0","1","4","4","4","3","4","1","3","3","3","3","3","796469824262905858","夏","472","","","","","","","","","","","","","","","","","","","","","","","","","","","","","","feedback_test","","","","","","","","","","","",""
"683","","j","psychophysics","157","529184","0.0-7.0-1.0-4.0-0.0-0.25","3","3","3","3","2","3","3","4","3","3","4","3","2","4","3","4","3","3","4","3","1","3","3","3","3","2","3","3","3","1","0","1","1","0","1","1","1","1","1","1","0","1","0","1","4","4","4","3","4","1","3","3","3","3","3","796469824262905858","夏","472","","","","nonmatch","","","","","","","","","","","","","","key","j","16.660860000000103","720","476","j","true","nonmatch","img/square.png","三角","方形","ALT1","formal_ALT1_2","","","","","","","","","","","",""
"null","<span style='color:GreenYellow; font-size: 70px;'>正确! </span>","null","html-keyboard-response","158","529686","0.0-7.0-1.0-4.0-0.0-1.25","3","3","3","3","2","3","3","4","3","3","4","3","2","4","3","4","3","3","4","3","1","3","3","3","3","2","3","3","3","1","0","1","1","0","1","1","1","1","1","1","0","1","0","1","4","4","4","3","4","1","3","3","3","3","3","796469824262905858","夏","472","","","","","","","","","","","","","","","","","","","","","","","","","","","","","","feedback_test","","","","","","","","","","","",""
"652","","f","psychophysics","159","531340","0.0-7.0-1.0-4.0-0.0-0.26","3","3","3","3","2","3","3","4","3","3","4","3","2","4","3","4","3","3","4","3","1","3","3","3","3","2","3","3","3","1","0","1","1","0","1","1","1","1","1","1","0","1","0","1","4","4","4","3","4","1","3","3","3","3","3","796469824262905858","夏","472","","","","match","","","","","","","","","","","","","","key","f","16.66643877551007","720","476","f","true","match","img/square.png","方形","方形","ALT1","formal_ALT1_2","","","","","","","","","","","",""
"null","<span style='color:GreenYellow; font-size: 70px;'>正确! </span>","null","html-keyboard-response","160","531842","0.0-7.0-1.0-4.0-0.0-1.26","3","3","3","3","2","3","3","4","3","3","4","3","2","4","3","4","3","3","4","3","1","3","3","3","3","2","3","3","3","1","0","1","1","0","1","1","1","1","1","1","0","1","0","1","4","4","4","3","4","1","3","3","3","3","3","796469824262905858","夏","472","","","","","","","","","","","","","","","","","","","","","","","","","","","","","","feedback_test","","","","","","","","","","","",""
"965","","f","psychophysics","161","533808","0.0-7.0-1.0-4.0-0.0-0.27","3","3","3","3","2","3","3","4","3","3","4","3","2","4","3","4","3","3","4","3","1","3","3","3","3","2","3","3","3","1","0","1","1","0","1","1","1","1","1","1","0","1","0","1","4","4","4","3","4","1","3","3","3","3","3","796469824262905858","夏","472","","","","match","","","","","","","","","","","","","","key","f","16.67559829059865","720","476","f","true","match","img/circle.png","圆形","圆形","ALT1","formal_ALT1_2","","","","","","","","","","","",""
"null","<span style='color:GreenYellow; font-size: 70px;'>正确! </span>","null","html-keyboard-response","162","534311","0.0-7.0-1.0-4.0-0.0-1.27","3","3","3","3","2","3","3","4","3","3","4","3","2","4","3","4","3","3","4","3","1","3","3","3","3","2","3","3","3","1","0","1","1","0","1","1","1","1","1","1","0","1","0","1","4","4","4","3","4","1","3","3","3","3","3","796469824262905858","夏","472","","","","","","","","","","","","","","","","","","","","","","","","","","","","","","feedback_test","","","","","","","","","","","",""
"682","","j","psychophysics","163","535995","0.0-7.0-1.0-4.0-0.0-0.28","3","3","3","3","2","3","3","4","3","3","4","3","2","4","3","4","3","3","4","3","1","3","3","3","3","2","3","3","3","1","0","1","1","0","1","1","1","1","1","1","0","1","0","1","4","4","4","3","4","1","3","3","3","3","3","796469824262905858","夏","472","","","","nonmatch","","","","","","","","","","","","","","key","j","16.660929292929595","720","476","j","true","nonmatch","img/square.png","六边","方形","ALT1","formal_ALT1_2","","","","","","","","","","","",""
"null","<span style='color:GreenYellow; font-size: 70px;'>正确! </span>","null","html-keyboard-response","164","536496","0.0-7.0-1.0-4.0-0.0-1.28","3","3","3","3","2","3","3","4","3","3","4","3","2","4","3","4","3","3","4","3","1","3","3","3","3","2","3","3","3","1","0","1","1","0","1","1","1","1","1","1","0","1","0","1","4","4","4","3","4","1","3","3","3","3","3","796469824262905858","夏","472","","","","","","","","","","","","","","","","","","","","","","","","","","","","","","feedback_test","","","","","","","","","","","",""
"878","","j","psychophysics","165","538376","0.0-7.0-1.0-4.0-0.0-0.29","3","3","3","3","2","3","3","4","3","3","4","3","2","4","3","4","3","3","4","3","1","3","3","3","3","2","3","3","3","1","0","1","1","0","1","1","1","1","1","1","0","1","0","1","4","4","4","3","4","1","3","3","3","3","3","796469824262905858","夏","472","","","","nonmatch","","","","","","","","","","","","","","key","j","16.672205357142957","720","476","j","true","nonmatch","img/hexagon.png","圆形","六边","ALT1","formal_ALT1_2","","","","","","","","","","","",""
"null","<span style='color:GreenYellow; font-size: 70px;'>正确! </span>","null","html-keyboard-response","166","538877","0.0-7.0-1.0-4.0-0.0-1.29","3","3","3","3","2","3","3","4","3","3","4","3","2","4","3","4","3","3","4","3","1","3","3","3","3","2","3","3","3","1","0","1","1","0","1","1","1","1","1","1","0","1","0","1","4","4","4","3","4","1","3","3","3","3","3","796469824262905858","夏","472","","","","","","","","","","","","","","","","","","","","","","","","","","","","","","feedback_test","","","","","","","","","","","",""
"777","","j","psychophysics","167","540657","0.0-7.0-1.0-4.0-0.0-0.30","3","3","3","3","2","3","3","4","3","3","4","3","2","4","3","4","3","3","4","3","1","3","3","3","3","2","3","3","3","1","0","1","1","0","1","1","1","1","1","1","0","1","0","1","4","4","4","3","4","1","3","3","3","3","3","796469824262905858","夏","472","","","","nonmatch","","","","","","","","","","","","","","key","j","16.664171428570434","720","476","j","true","nonmatch","img/square.png","圆形","方形","ALT1","formal_ALT1_2","","","","","","","","","","","",""
"null","<span style='color:GreenYellow; font-size: 70px;'>正确! </span>","null","html-keyboard-response","168","541158","0.0-7.0-1.0-4.0-0.0-1.30","3","3","3","3","2","3","3","4","3","3","4","3","2","4","3","4","3","3","4","3","1","3","3","3","3","2","3","3","3","1","0","1","1","0","1","1","1","1","1","1","0","1","0","1","4","4","4","3","4","1","3","3","3","3","3","796469824262905858","夏","472","","","","","","","","","","","","","","","","","","","","","","","","","","","","","","feedback_test","","","","","","","","","","","",""
"730","","f","psychophysics","169","542890","0.0-7.0-1.0-4.0-0.0-0.31","3","3","3","3","2","3","3","4","3","3","4","3","2","4","3","4","3","3","4","3","1","3","3","3","3","2","3","3","3","1","0","1","1","0","1","1","1","1","1","1","0","1","0","1","4","4","4","3","4","1","3","3","3","3","3","796469824262905858","夏","472","","","","match","","","","","","","","","","","","","","key","f","16.66560784313718","720","476","f","true","match","img/triangle.png","三角","三角","ALT1","formal_ALT1_2","","","","","","","","","","","",""
"null","<span style='color:GreenYellow; font-size: 70px;'>正确! </span>","null","html-keyboard-response","170","543391","0.0-7.0-1.0-4.0-0.0-1.31","3","3","3","3","2","3","3","4","3","3","4","3","2","4","3","4","3","3","4","3","1","3","3","3","3","2","3","3","3","1","0","1","1","0","1","1","1","1","1","1","0","1","0","1","4","4","4","3","4","1","3","3","3","3","3","796469824262905858","夏","472","","","","","","","","","","","","","","","","","","","","","","","","","","","","","","feedback_test","","","","","","","","","","","",""
"801","","f","psychophysics","171","545194","0.0-7.0-1.0-4.0-0.0-0.32","3","3","3","3","2","3","3","4","3","3","4","3","2","4","3","4","3","3","4","3","1","3","3","3","3","2","3","3","3","1","0","1","1","0","1","1","1","1","1","1","0","1","0","1","4","4","4","3","4","1","3","3","3","3","3","796469824262905858","夏","472","","","","match","","","","","","","","","","","","","","key","f","16.66253271028095","720","476","f","true","match","img/square.png","方形","方形","ALT1","formal_ALT1_2","","","","","","","","","","","",""
"null","<span style='color:GreenYellow; font-size: 70px;'>正确! </span>","null","html-keyboard-response","172","545695","0.0-7.0-1.0-4.0-0.0-1.32","3","3","3","3","2","3","3","4","3","3","4","3","2","4","3","4","3","3","4","3","1","3","3","3","3","2","3","3","3","1","0","1","1","0","1","1","1","1","1","1","0","1","0","1","4","4","4","3","4","1","3","3","3","3","3","796469824262905858","夏","472","","","","","","","","","","","","","","","","","","","","","","","","","","","","","","feedback_test","","","","","","","","","","","",""
"751","","f","psychophysics","173","547447","0.0-7.0-1.0-4.0-0.0-0.33","3","3","3","3","2","3","3","4","3","3","4","3","2","4","3","4","3","3","4","3","1","3","3","3","3","2","3","3","3","1","0","1","1","0","1","1","1","1","1","1","0","1","0","1","4","4","4","3","4","1","3","3","3","3","3","796469824262905858","夏","472","","","","match","","","","","","","","","","","","","","key","f","16.66621153846231","720","476","f","true","match","img/hexagon.png","六边","六边","ALT1","formal_ALT1_2","","","","","","","","","","","",""
"null","<span style='color:GreenYellow; font-size: 70px;'>正确! </span>","null","html-keyboard-response","174","547949","0.0-7.0-1.0-4.0-0.0-1.33","3","3","3","3","2","3","3","4","3","3","4","3","2","4","3","4","3","3","4","3","1","3","3","3","3","2","3","3","3","1","0","1","1","0","1","1","1","1","1","1","0","1","0","1","4","4","4","3","4","1","3","3","3","3","3","796469824262905858","夏","472","","","","","","","","","","","","","","","","","","","","","","","","","","","","","","feedback_test","","","","","","","","","","","",""
"580","","f","psychophysics","175","549531","0.0-7.0-1.0-4.0-0.0-0.34","3","3","3","3","2","3","3","4","3","3","4","3","2","4","3","4","3","3","4","3","1","3","3","3","3","2","3","3","3","1","0","1","1","0","1","1","1","1","1","1","0","1","0","1","4","4","4","3","4","1","3","3","3","3","3","796469824262905858","夏","472","","","","match","","","","","","","","","","","","","","key","f","16.66401075268845","720","476","j","false","nonmatch","img/hexagon.png","方形","六边","ALT1","formal_ALT1_2","","","","","","","","","","","",""
"null","<span style='color:red; font-size: 70px;'>错误! </span>","null","html-keyboard-response","176","550032","0.0-7.0-1.0-4.0-0.0-1.34","3","3","3","3","2","3","3","4","3","3","4","3","2","4","3","4","3","3","4","3","1","3","3","3","3","2","3","3","3","1","0","1","1","0","1","1","1","1","1","1","0","1","0","1","4","4","4","3","4","1","3","3","3","3","3","796469824262905858","夏","472","","","","","","","","","","","","","","","","","","","","","","","","","","","","","","feedback_test","","","","","","","","","","","",""
"1030","","j","psychophysics","177","552063","0.0-7.0-1.0-4.0-0.0-0.35","3","3","3","3","2","3","3","4","3","3","4","3","2","4","3","4","3","3","4","3","1","3","3","3","3","2","3","3","3","1","0","1","1","0","1","1","1","1","1","1","0","1","0","1","4","4","4","3","4","1","3","3","3","3","3","796469824262905858","夏","472","","","","nonmatch","","","","","","","","","","","","","","key","j","16.66836666666689","720","476","j","true","nonmatch","img/triangle.png","六边","三角","ALT1","formal_ALT1_2","","","","","","","","","","","",""
"null","<span style='color:GreenYellow; font-size: 70px;'>正确! </span>","null","html-keyboard-response","178","552565","0.0-7.0-1.0-4.0-0.0-1.35","3","3","3","3","2","3","3","4","3","3","4","3","2","4","3","4","3","3","4","3","1","3","3","3","3","2","3","3","3","1","0","1","1","0","1","1","1","1","1","1","0","1","0","1","4","4","4","3","4","1","3","3","3","3","3","796469824262905858","夏","472","","","","","","","","","","","","","","","","","","","","","","","","","","","","","","feedback_test","","","","","","","","","","","",""
"772","","j","psychophysics","179","554339","0.0-7.0-1.0-4.0-0.0-0.36","3","3","3","3","2","3","3","4","3","3","4","3","2","4","3","4","3","3","4","3","1","3","3","3","3","2","3","3","3","1","0","1","1","0","1","1","1","1","1","1","0","1","0","1","4","4","4","3","4","1","3","3","3","3","3","796469824262905858","夏","472","","","","nonmatch","","","","","","","","","","","","","","key","j","16.668380952380332","720","476","j","true","nonmatch","img/triangle.png","圆形","三角","ALT1","formal_ALT1_2","","","","","","","","","","","",""
"null","<span style='color:GreenYellow; font-size: 70px;'>正确! </span>","null","html-keyboard-response","180","554840","0.0-7.0-1.0-4.0-0.0-1.36","3","3","3","3","2","3","3","4","3","3","4","3","2","4","3","4","3","3","4","3","1","3","3","3","3","2","3","3","3","1","0","1","1","0","1","1","1","1","1","1","0","1","0","1","4","4","4","3","4","1","3","3","3","3","3","796469824262905858","夏","472","","","","","","","","","","","","","","","","","","","","","","","","","","","","","","feedback_test","","","","","","","","","","","",""
"791","","f","psychophysics","181","556632","0.0-7.0-1.0-4.0-0.0-0.37","3","3","3","3","2","3","3","4","3","3","4","3","2","4","3","4","3","3","4","3","1","3","3","3","3","2","3","3","3","1","0","1","1","0","1","1","1","1","1","1","0","1","0","1","4","4","4","3","4","1","3","3","3","3","3","796469824262905858","夏","472","","","","match","","","","","","","","","","","","","","key","f","16.670471698113822","720","476","f","true","match","img/square.png","方形","方形","ALT1","formal_ALT1_2","","","","","","","","","","","",""
