"rt","stimulus","response","trial_type","trial_index","time_elapsed","internal_node_id","ses_1","ses_2","ses_3","ses_4","ses_5","ses_6","ses_7","ses_8","ses_9","ses_10","coreself_1","coreself_2","coreself_3","coreself_4","coreself_5","coreself_6","coreself_7","coreself_8","coreself_9","coreself_10","SGPS_1","SGPS_2","SGPS_3","SGPS_4","SGPS_5","SGPS_6","SGPS_7","SGPS_8","SGPS_9","NPI1","NPI2","NPI3","NPI4","NPI5","NPI6","NPI7","NPI8","NPI9","NPI10","NPI11","NPI12","NPI13","NPI14","NPI15","hsns_1","hsns_2","hsns_3","hsns_4","hsns_5","trap1","hsns_6","hsns_7","hsns_8","hsns_9","hsns_10","subj_idx","friend_name","ParticipantID","value","success","user_agent","responses","item_order","radio_event_ids","radio_event_times","key_event_times","mouse_event_times","straightlining","zigzagging","honeypot","timeout","failed_images","failed_audio","failed_video","view_history","response_type","key_press","avg_frame_time","center_x","center_y","correct_response","correct","identity","Image","word","condition","task_id","screen_id","time_stamp","version_attrib","version_target","IAT","RT","varname","summary","version_attrib2","version_target2","question_order","correct_answer","trap1_item"
"10457","
   <p><div style = ""color: white;font-size:25px;"">您好，欢迎参加本次实验。</div> </p>
   <p><div style = ""color: white;font-size:25px;"">为充分保障您的权利，请确保您已经知晓并同意《参与实验同意书》以及《数据公开知情同意书》。</div></p>
   <p><div style = ""color: white;font-size:25px;"">如果您未见过上述内容，请咨询实验员。</div></p>
   <p><div style = ""color: white;font-size:25px;"">如果您选择继续实验，则表示您已经清楚两份知情同意书的内容并同意。</div></p>
   <p><div style = ""color: pink;font-size:30px;"">请确保您记得day0的实验编号，您将在本次实验输入该编号，若您忘记，请咨询实验员后作答。</div></p>
   <p><div style = ""color: lightblue;font-size:25px;"">请您尽可能认真地作答，我们将依据您在各问卷和按键任务中的作答质量发放报酬。</div></p>
   <p> <div style = ""color: green;font-size:25px;""><按空格键至下页></div> </p>
   "," ","html-keyboard-response","0","10461","0.0-0.0","3","3","3","3","2","3","3","3","3","3","4","2","2","3","2","4","4","3","4","4","4","4","4","4","4","2","4","4","4","1","0","1","1","0","1","1","1","0","1","1","0","0","0","1","4","4","2","2","3","3","2","4","4","2","2","789237328983101441","黄","461","","","","","","","","","","","","","","","","","","","","","","","","","","","","","","","","","","","","","","","","","",""
"","","","call-function","1","10462","0.0-1.0-0.0","3","3","3","3","2","3","3","3","3","3","4","2","2","3","2","4","4","3","4","4","4","4","4","4","4","2","4","4","4","1","0","1","1","0","1","1","1","0","1","1","0","0","0","1","4","4","2","2","3","3","2","4","4","2","2","789237328983101441","黄","461","","","","","","","","","","","","","","","","","","","","","","","","","","","","","","","","","","","","","","","","","",""
"66880","","{""friend_name"":""黄"",""ParticipantID"":""461""}","survey-html-form","2","77343","0.0-1.0-1.0","3","3","3","3","2","3","3","3","3","3","4","2","2","3","2","4","4","3","4","4","4","4","4","4","4","2","4","4","4","1","0","1","1","0","1","1","1","0","1","1","0","0","0","1","4","4","2","2","3","3","2","4","4","2","2","789237328983101441","黄","461","","","","","","","","","","","","","","","","","","","","","","","","","","","","","","","","","","","","","","","","","",""
"","","","fullscreen","3","83426","0.0-2.0","3","3","3","3","2","3","3","3","3","3","4","2","2","3","2","4","4","3","4","4","4","4","4","4","4","2","4","4","4","1","0","1","1","0","1","1","1","0","1","1","0","0","0","1","4","4","2","2","3","3","2","4","4","2","2","789237328983101441","黄","461","","true","","","","","","","","","","","","","","","","","","","","","","","","","","","","","","","","","","","","","","","",""
"50549","","{""Q01"":""3"",""Q02"":""3"",""Q03"":""3"",""Q04"":""3"",""Q05"":""2"",""Q06"":""3"",""Q07"":""3"",""Q08"":""3"",""Q09"":""3"",""Q10"":""3""}","survey-template","4","133982","0.0-3.0","3","3","3","3","2","3","3","3","3","3","4","2","2","3","2","4","4","3","4","4","4","4","4","4","4","2","4","4","4","1","0","1","1","0","1","1","1","0","1","1","0","0","0","1","4","4","2","2","3","3","2","4","4","2","2","789237328983101441","黄","461","","","","{""Q01"":""3"",""Q02"":""3"",""Q03"":""3"",""Q04"":""3"",""Q05"":""2"",""Q06"":""3"",""Q07"":""3"",""Q08"":""3"",""Q09"":""3"",""Q10"":""3""}","[0,1,2,3,4,5,6,7,8,9]","[""Q01"",""Q02"",""Q03"",""Q04"",""Q05"",""Q06"",""Q07"",""Q08"",""Q09"",""Q10"",""Q10"",""Q09""]","[2485,8789,10021,15668,17669,20661,21917,25452,28613,32115,38004,49500]","[]","[2485,8789,10021,15668,17669,20661,21917,23996,25452,27572,28613,32115,37532,38004,49500,50549]","0.6","0.3333333333333333","0","","","","","","","","","","","","","","","","","","","","","","","","","","","","","",""
"25357","","{""Q01"":""4"",""Q02"":""2"",""Q03"":""2"",""Q04"":""3"",""Q05"":""2"",""Q06"":""4"",""Q07"":""4"",""Q08"":""3"",""Q09"":""4"",""Q10"":""4""}","survey-template","5","159343","0.0-4.0","3","3","3","3","2","3","3","3","3","3","4","2","2","3","2","4","4","3","4","4","4","4","4","4","4","2","4","4","4","1","0","1","1","0","1","1","1","0","1","1","0","0","0","1","4","4","2","2","3","3","2","4","4","2","2","789237328983101441","黄","461","","","","{""Q01"":""4"",""Q02"":""2"",""Q03"":""2"",""Q04"":""3"",""Q05"":""2"",""Q06"":""4"",""Q07"":""4"",""Q08"":""3"",""Q09"":""4"",""Q10"":""4""}","[0,1,2,3,4,5,6,7,8,9]","[""Q01"",""Q02"",""Q03"",""Q04"",""Q04"",""Q05"",""Q06"",""Q07"",""Q08"",""Q09"",""Q10""]","[7139,9195,9883,10587,11931,13588,14540,17060,18251,23139,24515]","[]","[7139,8282,9195,9883,10587,11931,13588,14540,16539,17060,18251,21987,22788,23139,24515,25357]","0.6","0.4444444444444444","0","","","","","","","","","","","","","","","","","","","","","","","","","","","","","",""
"","","","preload","6","159676","0.0-5.0","3","3","3","3","2","3","3","3","3","3","4","2","2","3","2","4","4","3","4","4","4","4","4","4","4","2","4","4","4","1","0","1","1","0","1","1","1","0","1","1","0","0","0","1","4","4","2","2","3","3","2","4","4","2","2","789237328983101441","黄","461","","true","","","","","","","","","","","false","[]","[]","[]","","","","","","","","","","","","","","","","","","","","","","","","","",""
"20656","","","instructions","7","180333","0.0-6.0","3","3","3","3","2","3","3","3","3","3","4","2","2","3","2","4","4","3","4","4","4","4","4","4","4","2","4","4","4","1","0","1","1","0","1","1","1","0","1","1","0","0","0","1","4","4","2","2","3","3","2","4","4","2","2","789237328983101441","黄","461","","","","","","","","","","","","","","","","","[{""page_index"":0,""viewing_time"":20656}]","","","","","","","","","","","","","","","","","","","","","","","","",""
"23494","","","instructions","8","203829","0.0-7.0-0.0-0.0","3","3","3","3","2","3","3","3","3","3","4","2","2","3","2","4","4","3","4","4","4","4","4","4","4","2","4","4","4","1","0","1","1","0","1","1","1","0","1","1","0","0","0","1","4","4","2","2","3","3","2","4","4","2","2","789237328983101441","黄","461","","","","","","","","","","","","","","","","","[{""page_index"":0,""viewing_time"":15798},{""page_index"":1,""viewing_time"":5569},{""page_index"":2,""viewing_time"":2127}]","","","","","","","","","","","","","","","","","","","","","","","","",""
"null","","null","psychophysics","9","206168","0.0-7.0-0.0-1.0-0.0-0.0","3","3","3","3","2","3","3","3","3","3","4","2","2","3","2","4","4","3","4","4","4","4","4","4","4","2","4","4","4","1","0","1","1","0","1","1","1","0","1","1","0","0","0","1","4","4","2","2","3","3","2","4","4","2","2","789237328983101441","黄","461","","","","null","","","","","","","","","","","","","","key","null","16.672714285714445","768","428","j","false","match","img/ellipse.png","椭圆","椭圆","ALT1_1","prac_ALT1_1","","","","","","","","","","","",""
"null","<span class='add_' style='color:yellow; font-size: 70px;'> 太慢! </span>","null","html-keyboard-response","10","206687","0.0-7.0-0.0-1.0-0.0-1.0","3","3","3","3","2","3","3","3","3","3","4","2","2","3","2","4","4","3","4","4","4","4","4","4","4","2","4","4","4","1","0","1","1","0","1","1","1","0","1","1","0","0","0","1","4","4","2","2","3","3","2","4","4","2","2","789237328983101441","黄","461","","","","","","","","","","","","","","","","","","","","","","","","","","","","","","feedback_test","","","","","","","","","","","",""
"923","","j","psychophysics","11","208633","0.0-7.0-0.0-1.0-0.0-0.1","3","3","3","3","2","3","3","3","3","3","4","2","2","3","2","4","4","3","4","4","4","4","4","4","4","2","4","4","4","1","0","1","1","0","1","1","1","0","1","1","0","0","0","1","4","4","2","2","3","3","2","4","4","2","2","789237328983101441","黄","461","","","","match","","","","","","","","","","","","","","key","j","16.672695652173793","768","428","f","false","nonmatch","img/trapezoid.png","椭圆","梯形","ALT1_1","prac_ALT1_1","","","","","","","","","","","",""
"null","<span style='color:red; font-size: 70px;'>错误! </span>","null","html-keyboard-response","12","209146","0.0-7.0-0.0-1.0-0.0-1.1","3","3","3","3","2","3","3","3","3","3","4","2","2","3","2","4","4","3","4","4","4","4","4","4","4","2","4","4","4","1","0","1","1","0","1","1","1","0","1","1","0","0","0","1","4","4","2","2","3","3","2","4","4","2","2","789237328983101441","黄","461","","","","","","","","","","","","","","","","","","","","","","","","","","","","","","feedback_test","","","","","","","","","","","",""
"871","","j","psychophysics","13","211110","0.0-7.0-0.0-1.0-0.0-0.2","3","3","3","3","2","3","3","3","3","3","4","2","2","3","2","4","4","3","4","4","4","4","4","4","4","2","4","4","4","1","0","1","1","0","1","1","1","0","1","1","0","0","0","1","4","4","2","2","3","3","2","4","4","2","2","789237328983101441","黄","461","","","","match","","","","","","","","","","","","","","key","j","16.672991452991372","768","428","j","true","match","img/diamond.png","菱形","菱形","ALT1_1","prac_ALT1_1","","","","","","","","","","","",""
"null","<span style='color:GreenYellow; font-size: 70px;'>正确! </span>","null","html-keyboard-response","14","211617","0.0-7.0-0.0-1.0-0.0-1.2","3","3","3","3","2","3","3","3","3","3","4","2","2","3","2","4","4","3","4","4","4","4","4","4","4","2","4","4","4","1","0","1","1","0","1","1","1","0","1","1","0","0","0","1","4","4","2","2","3","3","2","4","4","2","2","789237328983101441","黄","461","","","","","","","","","","","","","","","","","","","","","","","","","","","","","","feedback_test","","","","","","","","","","","",""
"898","","f","psychophysics","15","213519","0.0-7.0-0.0-1.0-0.0-0.3","3","3","3","3","2","3","3","3","3","3","4","2","2","3","2","4","4","3","4","4","4","4","4","4","4","2","4","4","4","1","0","1","1","0","1","1","1","0","1","1","0","0","0","1","4","4","2","2","3","3","2","4","4","2","2","789237328983101441","黄","461","","","","nonmatch","","","","","","","","","","","","","","key","f","16.672500000000063","768","428","f","true","nonmatch","img/trapezoid.png","五边","梯形","ALT1_1","prac_ALT1_1","","","","","","","","","","","",""
"null","<span style='color:GreenYellow; font-size: 70px;'>正确! </span>","null","html-keyboard-response","16","214026","0.0-7.0-0.0-1.0-0.0-1.3","3","3","3","3","2","3","3","3","3","3","4","2","2","3","2","4","4","3","4","4","4","4","4","4","4","2","4","4","4","1","0","1","1","0","1","1","1","0","1","1","0","0","0","1","4","4","2","2","3","3","2","4","4","2","2","789237328983101441","黄","461","","","","","","","","","","","","","","","","","","","","","","","","","","","","","","feedback_test","","","","","","","","","","","",""
"750","","j","psychophysics","17","215789","0.0-7.0-0.0-1.0-0.0-0.4","3","3","3","3","2","3","3","3","3","3","4","2","2","3","2","4","4","3","4","4","4","4","4","4","4","2","4","4","4","1","0","1","1","0","1","1","1","0","1","1","0","0","0","1","4","4","2","2","3","3","2","4","4","2","2","789237328983101441","黄","461","","","","match","","","","","","","","","","","","","","key","j","16.6718095238096","768","428","j","true","match","img/ellipse.png","椭圆","椭圆","ALT1_1","prac_ALT1_1","","","","","","","","","","","",""
"null","<span style='color:GreenYellow; font-size: 70px;'>正确! </span>","null","html-keyboard-response","18","216296","0.0-7.0-0.0-1.0-0.0-1.4","3","3","3","3","2","3","3","3","3","3","4","2","2","3","2","4","4","3","4","4","4","4","4","4","4","2","4","4","4","1","0","1","1","0","1","1","1","0","1","1","0","0","0","1","4","4","2","2","3","3","2","4","4","2","2","789237328983101441","黄","461","","","","","","","","","","","","","","","","","","","","","","","","","","","","","","feedback_test","","","","","","","","","","","",""
"877","","j","psychophysics","19","218283","0.0-7.0-0.0-1.0-0.0-0.5","3","3","3","3","2","3","3","3","3","3","4","2","2","3","2","4","4","3","4","4","4","4","4","4","4","2","4","4","4","1","0","1","1","0","1","1","1","0","1","1","0","0","0","1","4","4","2","2","3","3","2","4","4","2","2","789237328983101441","黄","461","","","","match","","","","","","","","","","","","","","key","j","16.672881355932155","768","428","j","true","match","img/diamond.png","菱形","菱形","ALT1_1","prac_ALT1_1","","","","","","","","","","","",""
"null","<span style='color:GreenYellow; font-size: 70px;'>正确! </span>","null","html-keyboard-response","20","218786","0.0-7.0-0.0-1.0-0.0-1.5","3","3","3","3","2","3","3","3","3","3","4","2","2","3","2","4","4","3","4","4","4","4","4","4","4","2","4","4","4","1","0","1","1","0","1","1","1","0","1","1","0","0","0","1","4","4","2","2","3","3","2","4","4","2","2","789237328983101441","黄","461","","","","","","","","","","","","","","","","","","","","","","","","","","","","","","feedback_test","","","","","","","","","","","",""
"null","","null","psychophysics","21","221093","0.0-7.0-0.0-1.0-0.0-0.6","3","3","3","3","2","3","3","3","3","3","4","2","2","3","2","4","4","3","4","4","4","4","4","4","4","2","4","4","4","1","0","1","1","0","1","1","1","0","1","1","0","0","0","1","4","4","2","2","3","3","2","4","4","2","2","789237328983101441","黄","461","","","","null","","","","","","","","","","","","","","key","null","16.6729927007298","768","428","j","false","match","img/pentagon.png","五边","五边","ALT1_1","prac_ALT1_1","","","","","","","","","","","",""
"null","<span class='add_' style='color:yellow; font-size: 70px;'> 太慢! </span>","null","html-keyboard-response","22","221606","0.0-7.0-0.0-1.0-0.0-1.6","3","3","3","3","2","3","3","3","3","3","4","2","2","3","2","4","4","3","4","4","4","4","4","4","4","2","4","4","4","1","0","1","1","0","1","1","1","0","1","1","0","0","0","1","4","4","2","2","3","3","2","4","4","2","2","789237328983101441","黄","461","","","","","","","","","","","","","","","","","","","","","","","","","","","","","","feedback_test","","","","","","","","","","","",""
"950","","j","psychophysics","23","223577","0.0-7.0-0.0-1.0-0.0-0.7","3","3","3","3","2","3","3","3","3","3","4","2","2","3","2","4","4","3","4","4","4","4","4","4","4","2","4","4","4","1","0","1","1","0","1","1","1","0","1","1","0","0","0","1","4","4","2","2","3","3","2","4","4","2","2","789237328983101441","黄","461","","","","match","","","","","","","","","","","","","","key","j","16.67145299145297","768","428","j","true","match","img/pentagon.png","五边","五边","ALT1_1","prac_ALT1_1","","","","","","","","","","","",""
"null","<span style='color:GreenYellow; font-size: 70px;'>正确! </span>","null","html-keyboard-response","24","224136","0.0-7.0-0.0-1.0-0.0-1.7","3","3","3","3","2","3","3","3","3","3","4","2","2","3","2","4","4","3","4","4","4","4","4","4","4","2","4","4","4","1","0","1","1","0","1","1","1","0","1","1","0","0","0","1","4","4","2","2","3","3","2","4","4","2","2","789237328983101441","黄","461","","","","","","","","","","","","","","","","","","","","","","","","","","","","","","feedback_test","","","","","","","","","","","",""
"724","","j","psychophysics","25","225868","0.0-7.0-0.0-1.0-0.0-0.8","3","3","3","3","2","3","3","3","3","3","4","2","2","3","2","4","4","3","4","4","4","4","4","4","4","2","4","4","4","1","0","1","1","0","1","1","1","0","1","1","0","0","0","1","4","4","2","2","3","3","2","4","4","2","2","789237328983101441","黄","461","","","","match","","","","","","","","","","","","","","key","j","16.672815533980753","768","428","j","true","match","img/diamond.png","菱形","菱形","ALT1_1","prac_ALT1_1","","","","","","","","","","","",""
"null","<span style='color:GreenYellow; font-size: 70px;'>正确! </span>","null","html-keyboard-response","26","226376","0.0-7.0-0.0-1.0-0.0-1.8","3","3","3","3","2","3","3","3","3","3","4","2","2","3","2","4","4","3","4","4","4","4","4","4","4","2","4","4","4","1","0","1","1","0","1","1","1","0","1","1","0","0","0","1","4","4","2","2","3","3","2","4","4","2","2","789237328983101441","黄","461","","","","","","","","","","","","","","","","","","","","","","","","","","","","","","feedback_test","","","","","","","","","","","",""
"918","","f","psychophysics","27","228313","0.0-7.0-0.0-1.0-0.0-0.9","3","3","3","3","2","3","3","3","3","3","4","2","2","3","2","4","4","3","4","4","4","4","4","4","4","2","4","4","4","1","0","1","1","0","1","1","1","0","1","1","0","0","0","1","4","4","2","2","3","3","2","4","4","2","2","789237328983101441","黄","461","","","","nonmatch","","","","","","","","","","","","","","key","f","16.67304347826107","768","428","f","true","nonmatch","img/pentagon.png","梯形","五边","ALT1_1","prac_ALT1_1","","","","","","","","","","","",""
"null","<span style='color:GreenYellow; font-size: 70px;'>正确! </span>","null","html-keyboard-response","28","228826","0.0-7.0-0.0-1.0-0.0-1.9","3","3","3","3","2","3","3","3","3","3","4","2","2","3","2","4","4","3","4","4","4","4","4","4","4","2","4","4","4","1","0","1","1","0","1","1","1","0","1","1","0","0","0","1","4","4","2","2","3","3","2","4","4","2","2","789237328983101441","黄","461","","","","","","","","","","","","","","","","","","","","","","","","","","","","","","feedback_test","","","","","","","","","","","",""
"1182","","f","psychophysics","29","231028","0.0-7.0-0.0-1.0-0.0-0.10","3","3","3","3","2","3","3","3","3","3","4","2","2","3","2","4","4","3","4","4","4","4","4","4","4","2","4","4","4","1","0","1","1","0","1","1","1","0","1","1","0","0","0","1","4","4","2","2","3","3","2","4","4","2","2","789237328983101441","黄","461","","","","nonmatch","","","","","","","","","","","","","","key","f","16.673076923076923","768","428","f","true","nonmatch","img/trapezoid.png","菱形","梯形","ALT1_1","prac_ALT1_1","","","","","","","","","","","",""
"null","<span style='color:GreenYellow; font-size: 70px;'>正确! </span>","null","html-keyboard-response","30","231546","0.0-7.0-0.0-1.0-0.0-1.10","3","3","3","3","2","3","3","3","3","3","4","2","2","3","2","4","4","3","4","4","4","4","4","4","4","2","4","4","4","1","0","1","1","0","1","1","1","0","1","1","0","0","0","1","4","4","2","2","3","3","2","4","4","2","2","789237328983101441","黄","461","","","","","","","","","","","","","","","","","","","","","","","","","","","","","","feedback_test","","","","","","","","","","","",""
"958","","f","psychophysics","31","233522","0.0-7.0-0.0-1.0-0.0-0.11","3","3","3","3","2","3","3","3","3","3","4","2","2","3","2","4","4","3","4","4","4","4","4","4","4","2","4","4","4","1","0","1","1","0","1","1","1","0","1","1","0","0","0","1","4","4","2","2","3","3","2","4","4","2","2","789237328983101441","黄","461","","","","nonmatch","","","","","","","","","","","","","","key","f","16.672136752136623","768","428","f","true","nonmatch","img/ellipse.png","菱形","椭圆","ALT1_1","prac_ALT1_1","","","","","","","","","","","",""
"null","<span style='color:GreenYellow; font-size: 70px;'>正确! </span>","null","html-keyboard-response","32","234026","0.0-7.0-0.0-1.0-0.0-1.11","3","3","3","3","2","3","3","3","3","3","4","2","2","3","2","4","4","3","4","4","4","4","4","4","4","2","4","4","4","1","0","1","1","0","1","1","1","0","1","1","0","0","0","1","4","4","2","2","3","3","2","4","4","2","2","789237328983101441","黄","461","","","","","","","","","","","","","","","","","","","","","","","","","","","","","","feedback_test","","","","","","","","","","","",""
"708","","j","psychophysics","33","235737","0.0-7.0-0.0-1.0-0.0-0.12","3","3","3","3","2","3","3","3","3","3","4","2","2","3","2","4","4","3","4","4","4","4","4","4","4","2","4","4","4","1","0","1","1","0","1","1","1","0","1","1","0","0","0","1","4","4","2","2","3","3","2","4","4","2","2","789237328983101441","黄","461","","","","match","","","","","","","","","","","","","","key","j","16.672079207920838","768","428","j","true","match","img/ellipse.png","椭圆","椭圆","ALT1_1","prac_ALT1_1","","","","","","","","","","","",""
"null","<span style='color:GreenYellow; font-size: 70px;'>正确! </span>","null","html-keyboard-response","34","236266","0.0-7.0-0.0-1.0-0.0-1.12","3","3","3","3","2","3","3","3","3","3","4","2","2","3","2","4","4","3","4","4","4","4","4","4","4","2","4","4","4","1","0","1","1","0","1","1","1","0","1","1","0","0","0","1","4","4","2","2","3","3","2","4","4","2","2","789237328983101441","黄","461","","","","","","","","","","","","","","","","","","","","","","","","","","","","","","feedback_test","","","","","","","","","","","",""
"947","","f","psychophysics","35","238229","0.0-7.0-0.0-1.0-0.0-0.13","3","3","3","3","2","3","3","3","3","3","4","2","2","3","2","4","4","3","4","4","4","4","4","4","4","2","4","4","4","1","0","1","1","0","1","1","1","0","1","1","0","0","0","1","4","4","2","2","3","3","2","4","4","2","2","789237328983101441","黄","461","","","","nonmatch","","","","","","","","","","","","","","key","f","16.67310344827575","768","428","f","true","nonmatch","img/diamond.png","梯形","菱形","ALT1_1","prac_ALT1_1","","","","","","","","","","","",""
"null","<span style='color:GreenYellow; font-size: 70px;'>正确! </span>","null","html-keyboard-response","36","238747","0.0-7.0-0.0-1.0-0.0-1.13","3","3","3","3","2","3","3","3","3","3","4","2","2","3","2","4","4","3","4","4","4","4","4","4","4","2","4","4","4","1","0","1","1","0","1","1","1","0","1","1","0","0","0","1","4","4","2","2","3","3","2","4","4","2","2","789237328983101441","黄","461","","","","","","","","","","","","","","","","","","","","","","","","","","","","","","feedback_test","","","","","","","","","","","",""
"829","","f","psychophysics","37","240676","0.0-7.0-0.0-1.0-0.0-0.14","3","3","3","3","2","3","3","3","3","3","4","2","2","3","2","4","4","3","4","4","4","4","4","4","4","2","4","4","4","1","0","1","1","0","1","1","1","0","1","1","0","0","0","1","4","4","2","2","3","3","2","4","4","2","2","789237328983101441","黄","461","","","","nonmatch","","","","","","","","","","","","","","key","f","16.672105263157853","768","428","j","false","match","img/pentagon.png","五边","五边","ALT1_1","prac_ALT1_1","","","","","","","","","","","",""
"null","<span style='color:red; font-size: 70px;'>错误! </span>","null","html-keyboard-response","38","241196","0.0-7.0-0.0-1.0-0.0-1.14","3","3","3","3","2","3","3","3","3","3","4","2","2","3","2","4","4","3","4","4","4","4","4","4","4","2","4","4","4","1","0","1","1","0","1","1","1","0","1","1","0","0","0","1","4","4","2","2","3","3","2","4","4","2","2","789237328983101441","黄","461","","","","","","","","","","","","","","","","","","","","","","","","","","","","","","feedback_test","","","","","","","","","","","",""
"774","","j","psychophysics","39","242972","0.0-7.0-0.0-1.0-0.0-0.15","3","3","3","3","2","3","3","3","3","3","4","2","2","3","2","4","4","3","4","4","4","4","4","4","4","2","4","4","4","1","0","1","1","0","1","1","1","0","1","1","0","0","0","1","4","4","2","2","3","3","2","4","4","2","2","789237328983101441","黄","461","","","","match","","","","","","","","","","","","","","key","j","16.67066666666679","768","428","f","false","nonmatch","img/diamond.png","五边","菱形","ALT1_1","prac_ALT1_1","","","","","","","","","","","",""
"null","<span style='color:red; font-size: 70px;'>错误! </span>","null","html-keyboard-response","40","243476","0.0-7.0-0.0-1.0-0.0-1.15","3","3","3","3","2","3","3","3","3","3","4","2","2","3","2","4","4","3","4","4","4","4","4","4","4","2","4","4","4","1","0","1","1","0","1","1","1","0","1","1","0","0","0","1","4","4","2","2","3","3","2","4","4","2","2","789237328983101441","黄","461","","","","","","","","","","","","","","","","","","","","","","","","","","","","","","feedback_test","","","","","","","","","","","",""
"778","","f","psychophysics","41","245262","0.0-7.0-0.0-1.0-0.0-0.16","3","3","3","3","2","3","3","3","3","3","4","2","2","3","2","4","4","3","4","4","4","4","4","4","4","2","4","4","4","1","0","1","1","0","1","1","1","0","1","1","0","0","0","1","4","4","2","2","3","3","2","4","4","2","2","789237328983101441","黄","461","","","","nonmatch","","","","","","","","","","","","","","key","f","16.673018867924494","768","428","f","true","nonmatch","img/ellipse.png","五边","椭圆","ALT1_1","prac_ALT1_1","","","","","","","","","","","",""
"null","<span style='color:GreenYellow; font-size: 70px;'>正确! </span>","null","html-keyboard-response","42","245766","0.0-7.0-0.0-1.0-0.0-1.16","3","3","3","3","2","3","3","3","3","3","4","2","2","3","2","4","4","3","4","4","4","4","4","4","4","2","4","4","4","1","0","1","1","0","1","1","1","0","1","1","0","0","0","1","4","4","2","2","3","3","2","4","4","2","2","789237328983101441","黄","461","","","","","","","","","","","","","","","","","","","","","","","","","","","","","","feedback_test","","","","","","","","","","","",""
"1009","","f","psychophysics","43","247794","0.0-7.0-0.0-1.0-0.0-0.17","3","3","3","3","2","3","3","3","3","3","4","2","2","3","2","4","4","3","4","4","4","4","4","4","4","2","4","4","4","1","0","1","1","0","1","1","1","0","1","1","0","0","0","1","4","4","2","2","3","3","2","4","4","2","2","789237328983101441","黄","461","","","","nonmatch","","","","","","","","","","","","","","key","f","16.673166666666656","768","428","f","true","nonmatch","img/diamond.png","椭圆","菱形","ALT1_1","prac_ALT1_1","","","","","","","","","","","",""
"null","<span style='color:GreenYellow; font-size: 70px;'>正确! </span>","null","html-keyboard-response","44","248306","0.0-7.0-0.0-1.0-0.0-1.17","3","3","3","3","2","3","3","3","3","3","4","2","2","3","2","4","4","3","4","4","4","4","4","4","4","2","4","4","4","1","0","1","1","0","1","1","1","0","1","1","0","0","0","1","4","4","2","2","3","3","2","4","4","2","2","789237328983101441","黄","461","","","","","","","","","","","","","","","","","","","","","","","","","","","","","","feedback_test","","","","","","","","","","","",""
"830","","f","psychophysics","45","250149","0.0-7.0-0.0-1.0-0.0-0.18","3","3","3","3","2","3","3","3","3","3","4","2","2","3","2","4","4","3","4","4","4","4","4","4","4","2","4","4","4","1","0","1","1","0","1","1","1","0","1","1","0","0","0","1","4","4","2","2","3","3","2","4","4","2","2","789237328983101441","黄","461","","","","nonmatch","","","","","","","","","","","","","","key","f","16.67192660550477","768","428","j","false","match","img/trapezoid.png","梯形","梯形","ALT1_1","prac_ALT1_1","","","","","","","","","","","",""
"null","<span style='color:red; font-size: 70px;'>错误! </span>","null","html-keyboard-response","46","250666","0.0-7.0-0.0-1.0-0.0-1.18","3","3","3","3","2","3","3","3","3","3","4","2","2","3","2","4","4","3","4","4","4","4","4","4","4","2","4","4","4","1","0","1","1","0","1","1","1","0","1","1","0","0","0","1","4","4","2","2","3","3","2","4","4","2","2","789237328983101441","黄","461","","","","","","","","","","","","","","","","","","","","","","","","","","","","","","feedback_test","","","","","","","","","","","",""
"null","","null","psychophysics","47","252869","0.0-7.0-0.0-1.0-0.0-0.19","3","3","3","3","2","3","3","3","3","3","4","2","2","3","2","4","4","3","4","4","4","4","4","4","4","2","4","4","4","1","0","1","1","0","1","1","1","0","1","1","0","0","0","1","4","4","2","2","3","3","2","4","4","2","2","789237328983101441","黄","461","","","","null","","","","","","","","","","","","","","key","null","16.6726153846154","768","428","f","false","nonmatch","img/ellipse.png","梯形","椭圆","ALT1_1","prac_ALT1_1","","","","","","","","","","","",""
"null","<span class='add_' style='color:yellow; font-size: 70px;'> 太慢! </span>","null","html-keyboard-response","48","253386","0.0-7.0-0.0-1.0-0.0-1.19","3","3","3","3","2","3","3","3","3","3","4","2","2","3","2","4","4","3","4","4","4","4","4","4","4","2","4","4","4","1","0","1","1","0","1","1","1","0","1","1","0","0","0","1","4","4","2","2","3","3","2","4","4","2","2","789237328983101441","黄","461","","","","","","","","","","","","","","","","","","","","","","","","","","","","","","feedback_test","","","","","","","","","","","",""
"1059","","j","psychophysics","49","255464","0.0-7.0-0.0-1.0-0.0-0.20","3","3","3","3","2","3","3","3","3","3","4","2","2","3","2","4","4","3","4","4","4","4","4","4","4","2","4","4","4","1","0","1","1","0","1","1","1","0","1","1","0","0","0","1","4","4","2","2","3","3","2","4","4","2","2","789237328983101441","黄","461","","","","match","","","","","","","","","","","","","","key","j","16.67235772357733","768","428","j","true","match","img/trapezoid.png","梯形","梯形","ALT1_1","prac_ALT1_1","","","","","","","","","","","",""
"null","<span style='color:GreenYellow; font-size: 70px;'>正确! </span>","null","html-keyboard-response","50","255966","0.0-7.0-0.0-1.0-0.0-1.20","3","3","3","3","2","3","3","3","3","3","4","2","2","3","2","4","4","3","4","4","4","4","4","4","4","2","4","4","4","1","0","1","1","0","1","1","1","0","1","1","0","0","0","1","4","4","2","2","3","3","2","4","4","2","2","789237328983101441","黄","461","","","","","","","","","","","","","","","","","","","","","","","","","","","","","","feedback_test","","","","","","","","","","","",""
"951","","f","psychophysics","51","258025","0.0-7.0-0.0-1.0-0.0-0.21","3","3","3","3","2","3","3","3","3","3","4","2","2","3","2","4","4","3","4","4","4","4","4","4","4","2","4","4","4","1","0","1","1","0","1","1","1","0","1","1","0","0","0","1","4","4","2","2","3","3","2","4","4","2","2","789237328983101441","黄","461","","","","nonmatch","","","","","","","","","","","","","","key","f","16.67295081967194","768","428","f","true","nonmatch","img/pentagon.png","菱形","五边","ALT1_1","prac_ALT1_1","","","","","","","","","","","",""
"null","<span style='color:GreenYellow; font-size: 70px;'>正确! </span>","null","html-keyboard-response","52","258537","0.0-7.0-0.0-1.0-0.0-1.21","3","3","3","3","2","3","3","3","3","3","4","2","2","3","2","4","4","3","4","4","4","4","4","4","4","2","4","4","4","1","0","1","1","0","1","1","1","0","1","1","0","0","0","1","4","4","2","2","3","3","2","4","4","2","2","789237328983101441","黄","461","","","","","","","","","","","","","","","","","","","","","","","","","","","","","","feedback_test","","","","","","","","","","","",""
"942","","j","psychophysics","53","260482","0.0-7.0-0.0-1.0-0.0-0.22","3","3","3","3","2","3","3","3","3","3","4","2","2","3","2","4","4","3","4","4","4","4","4","4","4","2","4","4","4","1","0","1","1","0","1","1","1","0","1","1","0","0","0","1","4","4","2","2","3","3","2","4","4","2","2","789237328983101441","黄","461","","","","match","","","","","","","","","","","","","","key","j","16.67008695652172","768","428","j","true","match","img/trapezoid.png","梯形","梯形","ALT1_1","prac_ALT1_1","","","","","","","","","","","",""
"null","<span style='color:GreenYellow; font-size: 70px;'>正确! </span>","null","html-keyboard-response","54","260996","0.0-7.0-0.0-1.0-0.0-1.22","3","3","3","3","2","3","3","3","3","3","4","2","2","3","2","4","4","3","4","4","4","4","4","4","4","2","4","4","4","1","0","1","1","0","1","1","1","0","1","1","0","0","0","1","4","4","2","2","3","3","2","4","4","2","2","789237328983101441","黄","461","","","","","","","","","","","","","","","","","","","","","","","","","","","","","","feedback_test","","","","","","","","","","","",""
"741","","f","psychophysics","55","262747","0.0-7.0-0.0-1.0-0.0-0.23","3","3","3","3","2","3","3","3","3","3","4","2","2","3","2","4","4","3","4","4","4","4","4","4","4","2","4","4","4","1","0","1","1","0","1","1","1","0","1","1","0","0","0","1","4","4","2","2","3","3","2","4","4","2","2","789237328983101441","黄","461","","","","nonmatch","","","","","","","","","","","","","","key","f","16.673076923076923","768","428","f","true","nonmatch","img/pentagon.png","椭圆","五边","ALT1_1","prac_ALT1_1","","","","","","","","","","","",""
"null","<span style='color:GreenYellow; font-size: 70px;'>正确! </span>","null","html-keyboard-response","56","263256","0.0-7.0-0.0-1.0-0.0-1.23","3","3","3","3","2","3","3","3","3","3","4","2","2","3","2","4","4","3","4","4","4","4","4","4","4","2","4","4","4","1","0","1","1","0","1","1","1","0","1","1","0","0","0","1","4","4","2","2","3","3","2","4","4","2","2","789237328983101441","黄","461","","","","","","","","","","","","","","","","","","","","","","","","","","","","","","feedback_test","","","","","","","","","","","",""
"870","","f","psychophysics","57","265147","0.0-7.0-0.0-1.0-0.0-0.24","3","3","3","3","2","3","3","3","3","3","4","2","2","3","2","4","4","3","4","4","4","4","4","4","4","2","4","4","4","1","0","1","1","0","1","1","1","0","1","1","0","0","0","1","4","4","2","2","3","3","2","4","4","2","2","789237328983101441","黄","461","","","","nonmatch","","","","","","","","","","","","","","key","f","16.669642857142858","768","428","j","false","match","img/pentagon.png","五边","五边","ALT1_1","prac_ALT1_1","","","","","","","","","","","",""
"null","<span style='color:red; font-size: 70px;'>错误! </span>","null","html-keyboard-response","58","265676","0.0-7.0-0.0-1.0-0.0-1.24","3","3","3","3","2","3","3","3","3","3","4","2","2","3","2","4","4","3","4","4","4","4","4","4","4","2","4","4","4","1","0","1","1","0","1","1","1","0","1","1","0","0","0","1","4","4","2","2","3","3","2","4","4","2","2","789237328983101441","黄","461","","","","","","","","","","","","","","","","","","","","","","","","","","","","","","feedback_test","","","","","","","","","","","",""
"596","","j","psychophysics","59","267289","0.0-7.0-0.0-1.0-0.0-0.25","3","3","3","3","2","3","3","3","3","3","4","2","2","3","2","4","4","3","4","4","4","4","4","4","4","2","4","4","4","1","0","1","1","0","1","1","1","0","1","1","0","0","0","1","4","4","2","2","3","3","2","4","4","2","2","789237328983101441","黄","461","","","","match","","","","","","","","","","","","","","key","j","16.67221052631564","768","428","f","false","nonmatch","img/ellipse.png","梯形","椭圆","ALT1_1","prac_ALT1_1","","","","","","","","","","","",""
"null","<span style='color:red; font-size: 70px;'>错误! </span>","null","html-keyboard-response","60","267806","0.0-7.0-0.0-1.0-0.0-1.25","3","3","3","3","2","3","3","3","3","3","4","2","2","3","2","4","4","3","4","4","4","4","4","4","4","2","4","4","4","1","0","1","1","0","1","1","1","0","1","1","0","0","0","1","4","4","2","2","3","3","2","4","4","2","2","789237328983101441","黄","461","","","","","","","","","","","","","","","","","","","","","","","","","","","","","","feedback_test","","","","","","","","","","","",""
"762","","f","psychophysics","61","269621","0.0-7.0-0.0-1.0-0.0-0.26","3","3","3","3","2","3","3","3","3","3","4","2","2","3","2","4","4","3","4","4","4","4","4","4","4","2","4","4","4","1","0","1","1","0","1","1","1","0","1","1","0","0","0","1","4","4","2","2","3","3","2","4","4","2","2","789237328983101441","黄","461","","","","nonmatch","","","","","","","","","","","","","","key","f","16.671962616822647","768","428","f","true","nonmatch","img/ellipse.png","菱形","椭圆","ALT1_1","prac_ALT1_1","","","","","","","","","","","",""
"null","<span style='color:GreenYellow; font-size: 70px;'>正确! </span>","null","html-keyboard-response","62","270126","0.0-7.0-0.0-1.0-0.0-1.26","3","3","3","3","2","3","3","3","3","3","4","2","2","3","2","4","4","3","4","4","4","4","4","4","4","2","4","4","4","1","0","1","1","0","1","1","1","0","1","1","0","0","0","1","4","4","2","2","3","3","2","4","4","2","2","789237328983101441","黄","461","","","","","","","","","","","","","","","","","","","","","","","","","","","","","","feedback_test","","","","","","","","","","","",""
"1266","","j","psychophysics","63","272409","0.0-7.0-0.0-1.0-0.0-0.27","3","3","3","3","2","3","3","3","3","3","4","2","2","3","2","4","4","3","4","4","4","4","4","4","4","2","4","4","4","1","0","1","1","0","1","1","1","0","1","1","0","0","0","1","4","4","2","2","3","3","2","4","4","2","2","789237328983101441","黄","461","","","","match","","","","","","","","","","","","","","key","j","16.671555555555365","768","428","j","true","match","img/pentagon.png","五边","五边","ALT1_1","prac_ALT1_1","","","","","","","","","","","",""
"null","<span class='add_' style='color:yellow; font-size: 70px;'> 太慢! </span>","null","html-keyboard-response","64","272926","0.0-7.0-0.0-1.0-0.0-1.27","3","3","3","3","2","3","3","3","3","3","4","2","2","3","2","4","4","3","4","4","4","4","4","4","4","2","4","4","4","1","0","1","1","0","1","1","1","0","1","1","0","0","0","1","4","4","2","2","3","3","2","4","4","2","2","789237328983101441","黄","461","","","","","","","","","","","","","","","","","","","","","","","","","","","","","","feedback_test","","","","","","","","","","","",""
"1141","","j","psychophysics","65","275088","0.0-7.0-0.0-1.0-0.0-0.28","3","3","3","3","2","3","3","3","3","3","4","2","2","3","2","4","4","3","4","4","4","4","4","4","4","2","4","4","4","1","0","1","1","0","1","1","1","0","1","1","0","0","0","1","4","4","2","2","3","3","2","4","4","2","2","789237328983101441","黄","461","","","","match","","","","","","","","","","","","","","key","j","16.672968749999654","768","428","j","true","match","img/trapezoid.png","梯形","梯形","ALT1_1","prac_ALT1_1","","","","","","","","","","","",""
"null","<span style='color:GreenYellow; font-size: 70px;'>正确! </span>","null","html-keyboard-response","66","275606","0.0-7.0-0.0-1.0-0.0-1.28","3","3","3","3","2","3","3","3","3","3","4","2","2","3","2","4","4","3","4","4","4","4","4","4","4","2","4","4","4","1","0","1","1","0","1","1","1","0","1","1","0","0","0","1","4","4","2","2","3","3","2","4","4","2","2","789237328983101441","黄","461","","","","","","","","","","","","","","","","","","","","","","","","","","","","","","feedback_test","","","","","","","","","","","",""
"811","","f","psychophysics","67","277424","0.0-7.0-0.0-1.0-0.0-0.29","3","3","3","3","2","3","3","3","3","3","4","2","2","3","2","4","4","3","4","4","4","4","4","4","4","2","4","4","4","1","0","1","1","0","1","1","1","0","1","1","0","0","0","1","4","4","2","2","3","3","2","4","4","2","2","789237328983101441","黄","461","","","","nonmatch","","","","","","","","","","","","","","key","f","16.829811320754914","768","428","f","true","nonmatch","img/diamond.png","椭圆","菱形","ALT1_1","prac_ALT1_1","","","","","","","","","","","",""
"null","<span style='color:GreenYellow; font-size: 70px;'>正确! </span>","null","html-keyboard-response","68","277927","0.0-7.0-0.0-1.0-0.0-1.29","3","3","3","3","2","3","3","3","3","3","4","2","2","3","2","4","4","3","4","4","4","4","4","4","4","2","4","4","4","1","0","1","1","0","1","1","1","0","1","1","0","0","0","1","4","4","2","2","3","3","2","4","4","2","2","789237328983101441","黄","461","","","","","","","","","","","","","","","","","","","","","","","","","","","","","","feedback_test","","","","","","","","","","","",""
"943","","j","psychophysics","69","279873","0.0-7.0-0.0-1.0-0.0-0.30","3","3","3","3","2","3","3","3","3","3","4","2","2","3","2","4","4","3","4","4","4","4","4","4","4","2","4","4","4","1","0","1","1","0","1","1","1","0","1","1","0","0","0","1","4","4","2","2","3","3","2","4","4","2","2","789237328983101441","黄","461","","","","match","","","","","","","","","","","","","","key","j","16.662434782608635","768","428","f","false","nonmatch","img/pentagon.png","梯形","五边","ALT1_1","prac_ALT1_1","","","","","","","","","","","",""
"null","<span style='color:red; font-size: 70px;'>错误! </span>","null","html-keyboard-response","70","280377","0.0-7.0-0.0-1.0-0.0-1.30","3","3","3","3","2","3","3","3","3","3","4","2","2","3","2","4","4","3","4","4","4","4","4","4","4","2","4","4","4","1","0","1","1","0","1","1","1","0","1","1","0","0","0","1","4","4","2","2","3","3","2","4","4","2","2","789237328983101441","黄","461","","","","","","","","","","","","","","","","","","","","","","","","","","","","","","feedback_test","","","","","","","","","","","",""
"625","","j","psychophysics","71","282140","0.0-7.0-0.0-1.0-0.0-0.31","3","3","3","3","2","3","3","3","3","3","4","2","2","3","2","4","4","3","4","4","4","4","4","4","4","2","4","4","4","1","0","1","1","0","1","1","1","0","1","1","0","0","0","1","4","4","2","2","3","3","2","4","4","2","2","789237328983101441","黄","461","","","","match","","","","","","","","","","","","","","key","j","16.672884615384994","768","428","j","true","match","img/ellipse.png","椭圆","椭圆","ALT1_1","prac_ALT1_1","","","","","","","","","","","",""
"null","<span style='color:GreenYellow; font-size: 70px;'>正确! </span>","null","html-keyboard-response","72","282656","0.0-7.0-0.0-1.0-0.0-1.31","3","3","3","3","2","3","3","3","3","3","4","2","2","3","2","4","4","3","4","4","4","4","4","4","4","2","4","4","4","1","0","1","1","0","1","1","1","0","1","1","0","0","0","1","4","4","2","2","3","3","2","4","4","2","2","789237328983101441","黄","461","","","","","","","","","","","","","","","","","","","","","","","","","","","","","","feedback_test","","","","","","","","","","","",""
"757","","f","psychophysics","73","284424","0.0-7.0-0.0-1.0-0.0-0.32","3","3","3","3","2","3","3","3","3","3","4","2","2","3","2","4","4","3","4","4","4","4","4","4","4","2","4","4","4","1","0","1","1","0","1","1","1","0","1","1","0","0","0","1","4","4","2","2","3","3","2","4","4","2","2","789237328983101441","黄","461","","","","nonmatch","","","","","","","","","","","","","","key","f","16.672190476190632","768","428","j","false","match","img/diamond.png","菱形","菱形","ALT1_1","prac_ALT1_1","","","","","","","","","","","",""
"null","<span style='color:red; font-size: 70px;'>错误! </span>","null","html-keyboard-response","74","284927","0.0-7.0-0.0-1.0-0.0-1.32","3","3","3","3","2","3","3","3","3","3","4","2","2","3","2","4","4","3","4","4","4","4","4","4","4","2","4","4","4","1","0","1","1","0","1","1","1","0","1","1","0","0","0","1","4","4","2","2","3","3","2","4","4","2","2","789237328983101441","黄","461","","","","","","","","","","","","","","","","","","","","","","","","","","","","","","feedback_test","","","","","","","","","","","",""
"1044","","j","psychophysics","75","286986","0.0-7.0-0.0-1.0-0.0-0.33","3","3","3","3","2","3","3","3","3","3","4","2","2","3","2","4","4","3","4","4","4","4","4","4","4","2","4","4","4","1","0","1","1","0","1","1","1","0","1","1","0","0","0","1","4","4","2","2","3","3","2","4","4","2","2","789237328983101441","黄","461","","","","match","","","","","","","","","","","","","","key","j","16.672622950819655","768","428","j","true","match","img/pentagon.png","五边","五边","ALT1_1","prac_ALT1_1","","","","","","","","","","","",""
"null","<span style='color:GreenYellow; font-size: 70px;'>正确! </span>","null","html-keyboard-response","76","287496","0.0-7.0-0.0-1.0-0.0-1.33","3","3","3","3","2","3","3","3","3","3","4","2","2","3","2","4","4","3","4","4","4","4","4","4","4","2","4","4","4","1","0","1","1","0","1","1","1","0","1","1","0","0","0","1","4","4","2","2","3","3","2","4","4","2","2","789237328983101441","黄","461","","","","","","","","","","","","","","","","","","","","","","","","","","","","","","feedback_test","","","","","","","","","","","",""
"809","","j","psychophysics","77","289392","0.0-7.0-0.0-1.0-0.0-0.34","3","3","3","3","2","3","3","3","3","3","4","2","2","3","2","4","4","3","4","4","4","4","4","4","4","2","4","4","4","1","0","1","1","0","1","1","1","0","1","1","0","0","0","1","4","4","2","2","3","3","2","4","4","2","2","789237328983101441","黄","461","","","","match","","","","","","","","","","","","","","key","j","16.672321428571326","768","428","j","true","match","img/trapezoid.png","梯形","梯形","ALT1_1","prac_ALT1_1","","","","","","","","","","","",""
"null","<span style='color:GreenYellow; font-size: 70px;'>正确! </span>","null","html-keyboard-response","78","289906","0.0-7.0-0.0-1.0-0.0-1.34","3","3","3","3","2","3","3","3","3","3","4","2","2","3","2","4","4","3","4","4","4","4","4","4","4","2","4","4","4","1","0","1","1","0","1","1","1","0","1","1","0","0","0","1","4","4","2","2","3","3","2","4","4","2","2","789237328983101441","黄","461","","","","","","","","","","","","","","","","","","","","","","","","","","","","","","feedback_test","","","","","","","","","","","",""
"729","","f","psychophysics","79","291646","0.0-7.0-0.0-1.0-0.0-0.35","3","3","3","3","2","3","3","3","3","3","4","2","2","3","2","4","4","3","4","4","4","4","4","4","4","2","4","4","4","1","0","1","1","0","1","1","1","0","1","1","0","0","0","1","4","4","2","2","3","3","2","4","4","2","2","789237328983101441","黄","461","","","","nonmatch","","","","","","","","","","","","","","key","f","16.67281553398047","768","428","f","true","nonmatch","img/trapezoid.png","椭圆","梯形","ALT1_1","prac_ALT1_1","","","","","","","","","","","",""
"null","<span style='color:GreenYellow; font-size: 70px;'>正确! </span>","null","html-keyboard-response","80","292176","0.0-7.0-0.0-1.0-0.0-1.35","3","3","3","3","2","3","3","3","3","3","4","2","2","3","2","4","4","3","4","4","4","4","4","4","4","2","4","4","4","1","0","1","1","0","1","1","1","0","1","1","0","0","0","1","4","4","2","2","3","3","2","4","4","2","2","789237328983101441","黄","461","","","","","","","","","","","","","","","","","","","","","","","","","","","","","","feedback_test","","","","","","","","","","","",""
"975","","j","psychophysics","81","294244","0.0-7.0-0.0-1.0-0.0-0.36","3","3","3","3","2","3","3","3","3","3","4","2","2","3","2","4","4","3","4","4","4","4","4","4","4","2","4","4","4","1","0","1","1","0","1","1","1","0","1","1","0","0","0","1","4","4","2","2","3","3","2","4","4","2","2","789237328983101441","黄","461","","","","match","","","","","","","","","","","","","","key","j","16.6718699186993","768","428","f","false","nonmatch","img/pentagon.png","菱形","五边","ALT1_1","prac_ALT1_1","","","","","","","","","","","",""
"null","<span style='color:red; font-size: 70px;'>错误! </span>","null","html-keyboard-response","82","294756","0.0-7.0-0.0-1.0-0.0-1.36","3","3","3","3","2","3","3","3","3","3","4","2","2","3","2","4","4","3","4","4","4","4","4","4","4","2","4","4","4","1","0","1","1","0","1","1","1","0","1","1","0","0","0","1","4","4","2","2","3","3","2","4","4","2","2","789237328983101441","黄","461","","","","","","","","","","","","","","","","","","","","","","","","","","","","","","feedback_test","","","","","","","","","","","",""
"null","","null","psychophysics","83","296971","0.0-7.0-0.0-1.0-0.0-0.37","3","3","3","3","2","3","3","3","3","3","4","2","2","3","2","4","4","3","4","4","4","4","4","4","4","2","4","4","4","1","0","1","1","0","1","1","1","0","1","1","0","0","0","1","4","4","2","2","3","3","2","4","4","2","2","789237328983101441","黄","461","","","","null","","","","","","","","","","","","","","key","null","16.67151515151526","768","428","f","false","nonmatch","img/diamond.png","五边","菱形","ALT1_1","prac_ALT1_1","","","","","","","","","","","",""
"null","<span class='add_' style='color:yellow; font-size: 70px;'> 太慢! </span>","null","html-keyboard-response","84","297486","0.0-7.0-0.0-1.0-0.0-1.37","3","3","3","3","2","3","3","3","3","3","4","2","2","3","2","4","4","3","4","4","4","4","4","4","4","2","4","4","4","1","0","1","1","0","1","1","1","0","1","1","0","0","0","1","4","4","2","2","3","3","2","4","4","2","2","789237328983101441","黄","461","","","","","","","","","","","","","","","","","","","","","","","","","","","","","","feedback_test","","","","","","","","","","","",""
"785","","f","psychophysics","85","299291","0.0-7.0-0.0-1.0-0.0-0.38","3","3","3","3","2","3","3","3","3","3","4","2","2","3","2","4","4","3","4","4","4","4","4","4","4","2","4","4","4","1","0","1","1","0","1","1","1","0","1","1","0","0","0","1","4","4","2","2","3","3","2","4","4","2","2","789237328983101441","黄","461","","","","nonmatch","","","","","","","","","","","","","","key","f","16.669158878504454","768","428","f","true","nonmatch","img/pentagon.png","椭圆","五边","ALT1_1","prac_ALT1_1","","","","","","","","","","","",""
"null","<span style='color:GreenYellow; font-size: 70px;'>正确! </span>","null","html-keyboard-response","86","299808","0.0-7.0-0.0-1.0-0.0-1.38","3","3","3","3","2","3","3","3","3","3","4","2","2","3","2","4","4","3","4","4","4","4","4","4","4","2","4","4","4","1","0","1","1","0","1","1","1","0","1","1","0","0","0","1","4","4","2","2","3","3","2","4","4","2","2","789237328983101441","黄","461","","","","","","","","","","","","","","","","","","","","","","","","","","","","","","feedback_test","","","","","","","","","","","",""
"649","","j","psychophysics","87","301471","0.0-7.0-0.0-1.0-0.0-0.39","3","3","3","3","2","3","3","3","3","3","4","2","2","3","2","4","4","3","4","4","4","4","4","4","4","2","4","4","4","1","0","1","1","0","1","1","1","0","1","1","0","0","0","1","4","4","2","2","3","3","2","4","4","2","2","789237328983101441","黄","461","","","","match","","","","","","","","","","","","","","key","j","16.67285714285717","768","428","j","true","match","img/ellipse.png","椭圆","椭圆","ALT1_1","prac_ALT1_1","","","","","","","","","","","",""
"null","<span style='color:GreenYellow; font-size: 70px;'>正确! </span>","null","html-keyboard-response","88","301976","0.0-7.0-0.0-1.0-0.0-1.39","3","3","3","3","2","3","3","3","3","3","4","2","2","3","2","4","4","3","4","4","4","4","4","4","4","2","4","4","4","1","0","1","1","0","1","1","1","0","1","1","0","0","0","1","4","4","2","2","3","3","2","4","4","2","2","789237328983101441","黄","461","","","","","","","","","","","","","","","","","","","","","","","","","","","","","","feedback_test","","","","","","","","","","","",""
"645","","j","psychophysics","89","303684","0.0-7.0-0.0-1.0-0.0-0.40","3","3","3","3","2","3","3","3","3","3","4","2","2","3","2","4","4","3","4","4","4","4","4","4","4","2","4","4","4","1","0","1","1","0","1","1","1","0","1","1","0","0","0","1","4","4","2","2","3","3","2","4","4","2","2","789237328983101441","黄","461","","","","match","","","","","","","","","","","","","","key","j","16.67287128712892","768","428","j","true","match","img/ellipse.png","椭圆","椭圆","ALT1_1","prac_ALT1_1","","","","","","","","","","","",""
"null","<span style='color:GreenYellow; font-size: 70px;'>正确! </span>","null","html-keyboard-response","90","304197","0.0-7.0-0.0-1.0-0.0-1.40","3","3","3","3","2","3","3","3","3","3","4","2","2","3","2","4","4","3","4","4","4","4","4","4","4","2","4","4","4","1","0","1","1","0","1","1","1","0","1","1","0","0","0","1","4","4","2","2","3","3","2","4","4","2","2","789237328983101441","黄","461","","","","","","","","","","","","","","","","","","","","","","","","","","","","","","feedback_test","","","","","","","","","","","",""
"754","","j","psychophysics","91","305960","0.0-7.0-0.0-1.0-0.0-0.41","3","3","3","3","2","3","3","3","3","3","4","2","2","3","2","4","4","3","4","4","4","4","4","4","4","2","4","4","4","1","0","1","1","0","1","1","1","0","1","1","0","0","0","1","4","4","2","2","3","3","2","4","4","2","2","789237328983101441","黄","461","","","","match","","","","","","","","","","","","","","key","j","16.67142857142857","768","428","j","true","match","img/diamond.png","菱形","菱形","ALT1_1","prac_ALT1_1","","","","","","","","","","","",""
"null","<span style='color:GreenYellow; font-size: 70px;'>正确! </span>","null","html-keyboard-response","92","306466","0.0-7.0-0.0-1.0-0.0-1.41","3","3","3","3","2","3","3","3","3","3","4","2","2","3","2","4","4","3","4","4","4","4","4","4","4","2","4","4","4","1","0","1","1","0","1","1","1","0","1","1","0","0","0","1","4","4","2","2","3","3","2","4","4","2","2","789237328983101441","黄","461","","","","","","","","","","","","","","","","","","","","","","","","","","","","","","feedback_test","","","","","","","","","","","",""
"889","","j","psychophysics","93","308481","0.0-7.0-0.0-1.0-0.0-0.42","3","3","3","3","2","3","3","3","3","3","4","2","2","3","2","4","4","3","4","4","4","4","4","4","4","2","4","4","4","1","0","1","1","0","1","1","1","0","1","1","0","0","0","1","4","4","2","2","3","3","2","4","4","2","2","789237328983101441","黄","461","","","","match","","","","","","","","","","","","","","key","j","16.673000000000076","768","428","f","false","nonmatch","img/trapezoid.png","五边","梯形","ALT1_1","prac_ALT1_1","","","","","","","","","","","",""
"null","<span style='color:red; font-size: 70px;'>错误! </span>","null","html-keyboard-response","94","308986","0.0-7.0-0.0-1.0-0.0-1.42","3","3","3","3","2","3","3","3","3","3","4","2","2","3","2","4","4","3","4","4","4","4","4","4","4","2","4","4","4","1","0","1","1","0","1","1","1","0","1","1","0","0","0","1","4","4","2","2","3","3","2","4","4","2","2","789237328983101441","黄","461","","","","","","","","","","","","","","","","","","","","","","","","","","","","","","feedback_test","","","","","","","","","","","",""
"801","","f","psychophysics","95","310859","0.0-7.0-0.0-1.0-0.0-0.43","3","3","3","3","2","3","3","3","3","3","4","2","2","3","2","4","4","3","4","4","4","4","4","4","4","2","4","4","4","1","0","1","1","0","1","1","1","0","1","1","0","0","0","1","4","4","2","2","3","3","2","4","4","2","2","789237328983101441","黄","461","","","","nonmatch","","","","","","","","","","","","","","key","f","16.672972972972552","768","428","f","true","nonmatch","img/ellipse.png","五边","椭圆","ALT1_1","prac_ALT1_1","","","","","","","","","","","",""
"null","<span style='color:GreenYellow; font-size: 70px;'>正确! </span>","null","html-keyboard-response","96","311365","0.0-7.0-0.0-1.0-0.0-1.43","3","3","3","3","2","3","3","3","3","3","4","2","2","3","2","4","4","3","4","4","4","4","4","4","4","2","4","4","4","1","0","1","1","0","1","1","1","0","1","1","0","0","0","1","4","4","2","2","3","3","2","4","4","2","2","789237328983101441","黄","461","","","","","","","","","","","","","","","","","","","","","","","","","","","","","","feedback_test","","","","","","","","","","","",""
"522","","j","psychophysics","97","312899","0.0-7.0-0.0-1.0-0.0-0.44","3","3","3","3","2","3","3","3","3","3","4","2","2","3","2","4","4","3","4","4","4","4","4","4","4","2","4","4","4","1","0","1","1","0","1","1","1","0","1","1","0","0","0","1","4","4","2","2","3","3","2","4","4","2","2","789237328983101441","黄","461","","","","match","","","","","","","","","","","","","","key","j","16.6725274725276","768","428","f","false","nonmatch","img/trapezoid.png","菱形","梯形","ALT1_1","prac_ALT1_1","","","","","","","","","","","",""
"null","<span style='color:red; font-size: 70px;'>错误! </span>","null","html-keyboard-response","98","313416","0.0-7.0-0.0-1.0-0.0-1.44","3","3","3","3","2","3","3","3","3","3","4","2","2","3","2","4","4","3","4","4","4","4","4","4","4","2","4","4","4","1","0","1","1","0","1","1","1","0","1","1","0","0","0","1","4","4","2","2","3","3","2","4","4","2","2","789237328983101441","黄","461","","","","","","","","","","","","","","","","","","","","","","","","","","","","","","feedback_test","","","","","","","","","","","",""
"728","","j","psychophysics","99","315155","0.0-7.0-0.0-1.0-0.0-0.45","3","3","3","3","2","3","3","3","3","3","4","2","2","3","2","4","4","3","4","4","4","4","4","4","4","2","4","4","4","1","0","1","1","0","1","1","1","0","1","1","0","0","0","1","4","4","2","2","3","3","2","4","4","2","2","789237328983101441","黄","461","","","","match","","","","","","","","","","","","","","key","j","16.672621359223573","768","428","j","true","match","img/trapezoid.png","梯形","梯形","ALT1_1","prac_ALT1_1","","","","","","","","","","","",""
"null","<span style='color:GreenYellow; font-size: 70px;'>正确! </span>","null","html-keyboard-response","100","315656","0.0-7.0-0.0-1.0-0.0-1.45","3","3","3","3","2","3","3","3","3","3","4","2","2","3","2","4","4","3","4","4","4","4","4","4","4","2","4","4","4","1","0","1","1","0","1","1","1","0","1","1","0","0","0","1","4","4","2","2","3","3","2","4","4","2","2","789237328983101441","黄","461","","","","","","","","","","","","","","","","","","","","","","","","","","","","","","feedback_test","","","","","","","","","","","",""
"727","","j","psychophysics","101","317489","0.0-7.0-0.0-1.0-0.0-0.46","3","3","3","3","2","3","3","3","3","3","4","2","2","3","2","4","4","3","4","4","4","4","4","4","4","2","4","4","4","1","0","1","1","0","1","1","1","0","1","1","0","0","0","1","4","4","2","2","3","3","2","4","4","2","2","789237328983101441","黄","461","","","","match","","","","","","","","","","","","","","key","j","16.672222222222008","768","428","j","true","match","img/diamond.png","菱形","菱形","ALT1_1","prac_ALT1_1","","","","","","","","","","","",""
"null","<span style='color:GreenYellow; font-size: 70px;'>正确! </span>","null","html-keyboard-response","102","318006","0.0-7.0-0.0-1.0-0.0-1.46","3","3","3","3","2","3","3","3","3","3","4","2","2","3","2","4","4","3","4","4","4","4","4","4","4","2","4","4","4","1","0","1","1","0","1","1","1","0","1","1","0","0","0","1","4","4","2","2","3","3","2","4","4","2","2","789237328983101441","黄","461","","","","","","","","","","","","","","","","","","","","","","","","","","","","","","feedback_test","","","","","","","","","","","",""
"878","","f","psychophysics","103","319891","0.0-7.0-0.0-1.0-0.0-0.47","3","3","3","3","2","3","3","3","3","3","4","2","2","3","2","4","4","3","4","4","4","4","4","4","4","2","4","4","4","1","0","1","1","0","1","1","1","0","1","1","0","0","0","1","4","4","2","2","3","3","2","4","4","2","2","789237328983101441","黄","461","","","","nonmatch","","","","","","","","","","","","","","key","f","16.673035714285756","768","428","f","true","nonmatch","img/diamond.png","梯形","菱形","ALT1_1","prac_ALT1_1","","","","","","","","","","","",""
"null","<span style='color:GreenYellow; font-size: 70px;'>正确! </span>","null","html-keyboard-response","104","320406","0.0-7.0-0.0-1.0-0.0-1.47","3","3","3","3","2","3","3","3","3","3","4","2","2","3","2","4","4","3","4","4","4","4","4","4","4","2","4","4","4","1","0","1","1","0","1","1","1","0","1","1","0","0","0","1","4","4","2","2","3","3","2","4","4","2","2","789237328983101441","黄","461","","","","","","","","","","","","","","","","","","","","","","","","","","","","","","feedback_test","","","","","","","","","","","",""
"19742","<style>.context{color:white; font-size: 35px; line-height:40px}</style>                            <div><p class='context'>您正确回答了69% 的试次。</p><p class='context'>您的平均反应时为861毫秒。</p><p class='context'>恭喜您完成练习。按空格键进入正式实验。</p><p class='footer' style='font-size: 35px; line-height:40px;'>请在进入正式实验之前将您的<span style='color: lightgreen;'>食指</span>放在电脑键盘的相应键位上进行按键。</p>","j","html-keyboard-response","105","340150","0.0-7.0-0.0-2.0","3","3","3","3","2","3","3","3","3","3","4","2","2","3","2","4","4","3","4","4","4","4","4","4","4","2","4","4","4","1","0","1","1","0","1","1","1","0","1","1","0","0","0","1","4","4","2","2","3","3","2","4","4","2","2","789237328983101441","黄","461","","","","","","","","","","","","","","","","","","","","","","","","","","","","","","","","","","","","","","","","","",""
"1408","
    <p style='color: white; font-size: 22px'>请您将手指放在按键上，准备进入正式的匹配任务。</p>
    <p> <div style = ""color: green""><按空格键进入下一阶段的匹配任务></div></p>
    "," ","html-keyboard-response","106","341559","0.0-7.0-0.0-3.0","3","3","3","3","2","3","3","3","3","3","4","2","2","3","2","4","4","3","4","4","4","4","4","4","4","2","4","4","4","1","0","1","1","0","1","1","1","0","1","1","0","0","0","1","4","4","2","2","3","3","2","4","4","2","2","789237328983101441","黄","461","","","","","","","","","","","","","","","","","","","","","","","","","","","","","","","","","","","","","","","","","",""
"712","","j","psychophysics","107","343286","0.0-7.0-0.0-4.0-0.0-0.0","3","3","3","3","2","3","3","3","3","3","4","2","2","3","2","4","4","3","4","4","4","4","4","4","4","2","4","4","4","1","0","1","1","0","1","1","1","0","1","1","0","0","0","1","4","4","2","2","3","3","2","4","4","2","2","789237328983101441","黄","461","","","","match","","","","","","","","","","","","","","key","j","16.67274509803917","768","428","f","false","nonmatch","img/diamond.png","梯形","菱形","ALT1","formal_ALT1_1","","","","","","","","","","","",""
"null","<span style='color:red; font-size: 70px;'>错误! </span>","null","html-keyboard-response","108","343796","0.0-7.0-0.0-4.0-0.0-1.0","3","3","3","3","2","3","3","3","3","3","4","2","2","3","2","4","4","3","4","4","4","4","4","4","4","2","4","4","4","1","0","1","1","0","1","1","1","0","1","1","0","0","0","1","4","4","2","2","3","3","2","4","4","2","2","789237328983101441","黄","461","","","","","","","","","","","","","","","","","","","","","","","","","","","","","","feedback_test","","","","","","","","","","","",""
"767","","f","psychophysics","109","345573","0.0-7.0-0.0-4.0-0.0-0.1","3","3","3","3","2","3","3","3","3","3","4","2","2","3","2","4","4","3","4","4","4","4","4","4","4","2","4","4","4","1","0","1","1","0","1","1","1","0","1","1","0","0","0","1","4","4","2","2","3","3","2","4","4","2","2","789237328983101441","黄","461","","","","nonmatch","","","","","","","","","","","","","","key","f","16.67301886792422","768","428","f","true","nonmatch","img/ellipse.png","五边","椭圆","ALT1","formal_ALT1_1","","","","","","","","","","","",""
"null","<span style='color:GreenYellow; font-size: 70px;'>正确! </span>","null","html-keyboard-response","110","346076","0.0-7.0-0.0-4.0-0.0-1.1","3","3","3","3","2","3","3","3","3","3","4","2","2","3","2","4","4","3","4","4","4","4","4","4","4","2","4","4","4","1","0","1","1","0","1","1","1","0","1","1","0","0","0","1","4","4","2","2","3","3","2","4","4","2","2","789237328983101441","黄","461","","","","","","","","","","","","","","","","","","","","","","","","","","","","","","feedback_test","","","","","","","","","","","",""
"714","","f","psychophysics","111","347806","0.0-7.0-0.0-4.0-0.0-0.2","3","3","3","3","2","3","3","3","3","3","4","2","2","3","2","4","4","3","4","4","4","4","4","4","4","2","4","4","4","1","0","1","1","0","1","1","1","0","1","1","0","0","0","1","4","4","2","2","3","3","2","4","4","2","2","789237328983101441","黄","461","","","","nonmatch","","","","","","","","","","","","","","key","f","16.66490196078438","768","428","f","true","nonmatch","img/ellipse.png","梯形","椭圆","ALT1","formal_ALT1_1","","","","","","","","","","","",""
"null","<span style='color:GreenYellow; font-size: 70px;'>正确! </span>","null","html-keyboard-response","112","348316","0.0-7.0-0.0-4.0-0.0-1.2","3","3","3","3","2","3","3","3","3","3","4","2","2","3","2","4","4","3","4","4","4","4","4","4","4","2","4","4","4","1","0","1","1","0","1","1","1","0","1","1","0","0","0","1","4","4","2","2","3","3","2","4","4","2","2","789237328983101441","黄","461","","","","","","","","","","","","","","","","","","","","","","","","","","","","","","feedback_test","","","","","","","","","","","",""
"745","","j","psychophysics","113","350069","0.0-7.0-0.0-4.0-0.0-0.3","3","3","3","3","2","3","3","3","3","3","4","2","2","3","2","4","4","3","4","4","4","4","4","4","4","2","4","4","4","1","0","1","1","0","1","1","1","0","1","1","0","0","0","1","4","4","2","2","3","3","2","4","4","2","2","789237328983101441","黄","461","","","","match","","","","","","","","","","","","","","key","j","16.672038834951184","768","428","j","true","match","img/pentagon.png","五边","五边","ALT1","formal_ALT1_1","","","","","","","","","","","",""
"null","<span style='color:GreenYellow; font-size: 70px;'>正确! </span>","null","html-keyboard-response","114","350586","0.0-7.0-0.0-4.0-0.0-1.3","3","3","3","3","2","3","3","3","3","3","4","2","2","3","2","4","4","3","4","4","4","4","4","4","4","2","4","4","4","1","0","1","1","0","1","1","1","0","1","1","0","0","0","1","4","4","2","2","3","3","2","4","4","2","2","789237328983101441","黄","461","","","","","","","","","","","","","","","","","","","","","","","","","","","","","","feedback_test","","","","","","","","","","","",""
"606","","f","psychophysics","115","352280","0.0-7.0-0.0-4.0-0.0-0.4","3","3","3","3","2","3","3","3","3","3","4","2","2","3","2","4","4","3","4","4","4","4","4","4","4","2","4","4","4","1","0","1","1","0","1","1","1","0","1","1","0","0","0","1","4","4","2","2","3","3","2","4","4","2","2","789237328983101441","黄","461","","","","nonmatch","","","","","","","","","","","","","","key","f","16.67140000000014","768","428","f","true","nonmatch","img/pentagon.png","椭圆","五边","ALT1","formal_ALT1_1","","","","","","","","","","","",""
"null","<span style='color:GreenYellow; font-size: 70px;'>正确! </span>","null","html-keyboard-response","116","352807","0.0-7.0-0.0-4.0-0.0-1.4","3","3","3","3","2","3","3","3","3","3","4","2","2","3","2","4","4","3","4","4","4","4","4","4","4","2","4","4","4","1","0","1","1","0","1","1","1","0","1","1","0","0","0","1","4","4","2","2","3","3","2","4","4","2","2","789237328983101441","黄","461","","","","","","","","","","","","","","","","","","","","","","","","","","","","","","feedback_test","","","","","","","","","","","",""
"1089","","f","psychophysics","117","354933","0.0-7.0-0.0-4.0-0.0-0.5","3","3","3","3","2","3","3","3","3","3","4","2","2","3","2","4","4","3","4","4","4","4","4","4","4","2","4","4","4","1","0","1","1","0","1","1","1","0","1","1","0","0","0","1","4","4","2","2","3","3","2","4","4","2","2","789237328983101441","黄","461","","","","nonmatch","","","","","","","","","","","","","","key","f","16.670952380952215","768","428","f","true","nonmatch","img/pentagon.png","菱形","五边","ALT1","formal_ALT1_1","","","","","","","","","","","",""
"null","<span style='color:GreenYellow; font-size: 70px;'>正确! </span>","null","html-keyboard-response","118","355436","0.0-7.0-0.0-4.0-0.0-1.5","3","3","3","3","2","3","3","3","3","3","4","2","2","3","2","4","4","3","4","4","4","4","4","4","4","2","4","4","4","1","0","1","1","0","1","1","1","0","1","1","0","0","0","1","4","4","2","2","3","3","2","4","4","2","2","789237328983101441","黄","461","","","","","","","","","","","","","","","","","","","","","","","","","","","","","","feedback_test","","","","","","","","","","","",""
"727","","j","psychophysics","119","357170","0.0-7.0-0.0-4.0-0.0-0.6","3","3","3","3","2","3","3","3","3","3","4","2","2","3","2","4","4","3","4","4","4","4","4","4","4","2","4","4","4","1","0","1","1","0","1","1","1","0","1","1","0","0","0","1","4","4","2","2","3","3","2","4","4","2","2","789237328983101441","黄","461","","","","match","","","","","","","","","","","","","","key","j","16.67242718446611","768","428","j","true","match","img/ellipse.png","椭圆","椭圆","ALT1","formal_ALT1_1","","","","","","","","","","","",""
"null","<span style='color:GreenYellow; font-size: 70px;'>正确! </span>","null","html-keyboard-response","120","357677","0.0-7.0-0.0-4.0-0.0-1.6","3","3","3","3","2","3","3","3","3","3","4","2","2","3","2","4","4","3","4","4","4","4","4","4","4","2","4","4","4","1","0","1","1","0","1","1","1","0","1","1","0","0","0","1","4","4","2","2","3","3","2","4","4","2","2","789237328983101441","黄","461","","","","","","","","","","","","","","","","","","","","","","","","","","","","","","feedback_test","","","","","","","","","","","",""
"671","","j","psychophysics","121","359367","0.0-7.0-0.0-4.0-0.0-0.7","3","3","3","3","2","3","3","3","3","3","4","2","2","3","2","4","4","3","4","4","4","4","4","4","4","2","4","4","4","1","0","1","1","0","1","1","1","0","1","1","0","0","0","1","4","4","2","2","3","3","2","4","4","2","2","789237328983101441","黄","461","","","","match","","","","","","","","","","","","","","key","j","16.67260000000009","768","428","j","true","match","img/diamond.png","菱形","菱形","ALT1","formal_ALT1_1","","","","","","","","","","","",""
"null","<span style='color:GreenYellow; font-size: 70px;'>正确! </span>","null","html-keyboard-response","122","359917","0.0-7.0-0.0-4.0-0.0-1.7","3","3","3","3","2","3","3","3","3","3","4","2","2","3","2","4","4","3","4","4","4","4","4","4","4","2","4","4","4","1","0","1","1","0","1","1","1","0","1","1","0","0","0","1","4","4","2","2","3","3","2","4","4","2","2","789237328983101441","黄","461","","","","","","","","","","","","","","","","","","","","","","","","","","","","","","feedback_test","","","","","","","","","","","",""
"1034","","f","psychophysics","123","361960","0.0-7.0-0.0-4.0-0.0-0.8","3","3","3","3","2","3","3","3","3","3","4","2","2","3","2","4","4","3","4","4","4","4","4","4","4","2","4","4","4","1","0","1","1","0","1","1","1","0","1","1","0","0","0","1","4","4","2","2","3","3","2","4","4","2","2","789237328983101441","黄","461","","","","nonmatch","","","","","","","","","","","","","","key","f","16.672892561983335","768","428","f","true","nonmatch","img/ellipse.png","菱形","椭圆","ALT1","formal_ALT1_1","","","","","","","","","","","",""
"null","<span style='color:GreenYellow; font-size: 70px;'>正确! </span>","null","html-keyboard-response","124","362476","0.0-7.0-0.0-4.0-0.0-1.8","3","3","3","3","2","3","3","3","3","3","4","2","2","3","2","4","4","3","4","4","4","4","4","4","4","2","4","4","4","1","0","1","1","0","1","1","1","0","1","1","0","0","0","1","4","4","2","2","3","3","2","4","4","2","2","789237328983101441","黄","461","","","","","","","","","","","","","","","","","","","","","","","","","","","","","","feedback_test","","","","","","","","","","","",""
"801","","j","psychophysics","125","364280","0.0-7.0-0.0-4.0-0.0-0.9","3","3","3","3","2","3","3","3","3","3","4","2","2","3","2","4","4","3","4","4","4","4","4","4","4","2","4","4","4","1","0","1","1","0","1","1","1","0","1","1","0","0","0","1","4","4","2","2","3","3","2","4","4","2","2","789237328983101441","黄","461","","","","match","","","","","","","","","","","","","","key","j","16.669906542056008","768","428","j","true","match","img/pentagon.png","五边","五边","ALT1","formal_ALT1_1","","","","","","","","","","","",""
"null","<span style='color:GreenYellow; font-size: 70px;'>正确! </span>","null","html-keyboard-response","126","364792","0.0-7.0-0.0-4.0-0.0-1.9","3","3","3","3","2","3","3","3","3","3","4","2","2","3","2","4","4","3","4","4","4","4","4","4","4","2","4","4","4","1","0","1","1","0","1","1","1","0","1","1","0","0","0","1","4","4","2","2","3","3","2","4","4","2","2","789237328983101441","黄","461","","","","","","","","","","","","","","","","","","","","","","","","","","","","","","feedback_test","","","","","","","","","","","",""
"870","","f","psychophysics","127","366666","0.0-7.0-0.0-4.0-0.0-0.10","3","3","3","3","2","3","3","3","3","3","4","2","2","3","2","4","4","3","4","4","4","4","4","4","4","2","4","4","4","1","0","1","1","0","1","1","1","0","1","1","0","0","0","1","4","4","2","2","3","3","2","4","4","2","2","789237328983101441","黄","461","","","","nonmatch","","","","","","","","","","","","","","key","f","16.672972972973078","768","428","f","true","nonmatch","img/trapezoid.png","五边","梯形","ALT1","formal_ALT1_1","","","","","","","","","","","",""
"null","<span style='color:GreenYellow; font-size: 70px;'>正确! </span>","null","html-keyboard-response","128","367177","0.0-7.0-0.0-4.0-0.0-1.10","3","3","3","3","2","3","3","3","3","3","4","2","2","3","2","4","4","3","4","4","4","4","4","4","4","2","4","4","4","1","0","1","1","0","1","1","1","0","1","1","0","0","0","1","4","4","2","2","3","3","2","4","4","2","2","789237328983101441","黄","461","","","","","","","","","","","","","","","","","","","","","","","","","","","","","","feedback_test","","","","","","","","","","","",""
"679","","j","psychophysics","129","368860","0.0-7.0-0.0-4.0-0.0-0.11","3","3","3","3","2","3","3","3","3","3","4","2","2","3","2","4","4","3","4","4","4","4","4","4","4","2","4","4","4","1","0","1","1","0","1","1","1","0","1","1","0","0","0","1","4","4","2","2","3","3","2","4","4","2","2","789237328983101441","黄","461","","","","match","","","","","","","","","","","","","","key","j","16.672929292929247","768","428","j","true","match","img/diamond.png","菱形","菱形","ALT1","formal_ALT1_1","","","","","","","","","","","",""
"null","<span style='color:GreenYellow; font-size: 70px;'>正确! </span>","null","html-keyboard-response","130","369376","0.0-7.0-0.0-4.0-0.0-1.11","3","3","3","3","2","3","3","3","3","3","4","2","2","3","2","4","4","3","4","4","4","4","4","4","4","2","4","4","4","1","0","1","1","0","1","1","1","0","1","1","0","0","0","1","4","4","2","2","3","3","2","4","4","2","2","789237328983101441","黄","461","","","","","","","","","","","","","","","","","","","","","","","","","","","","","","feedback_test","","","","","","","","","","","",""
"691","","f","psychophysics","131","371072","0.0-7.0-0.0-4.0-0.0-0.12","3","3","3","3","2","3","3","3","3","3","4","2","2","3","2","4","4","3","4","4","4","4","4","4","4","2","4","4","4","1","0","1","1","0","1","1","1","0","1","1","0","0","0","1","4","4","2","2","3","3","2","4","4","2","2","789237328983101441","黄","461","","","","nonmatch","","","","","","","","","","","","","","key","f","16.67280000000028","768","428","f","true","nonmatch","img/diamond.png","椭圆","菱形","ALT1","formal_ALT1_1","","","","","","","","","","","",""
"null","<span style='color:GreenYellow; font-size: 70px;'>正确! </span>","null","html-keyboard-response","132","371597","0.0-7.0-0.0-4.0-0.0-1.12","3","3","3","3","2","3","3","3","3","3","4","2","2","3","2","4","4","3","4","4","4","4","4","4","4","2","4","4","4","1","0","1","1","0","1","1","1","0","1","1","0","0","0","1","4","4","2","2","3","3","2","4","4","2","2","789237328983101441","黄","461","","","","","","","","","","","","","","","","","","","","","","","","","","","","","","feedback_test","","","","","","","","","","","",""
"793","","f","psychophysics","133","373392","0.0-7.0-0.0-4.0-0.0-0.13","3","3","3","3","2","3","3","3","3","3","4","2","2","3","2","4","4","3","4","4","4","4","4","4","4","2","4","4","4","1","0","1","1","0","1","1","1","0","1","1","0","0","0","1","4","4","2","2","3","3","2","4","4","2","2","789237328983101441","黄","461","","","","nonmatch","","","","","","","","","","","","","","key","f","16.62660377358475","768","428","f","true","nonmatch","img/trapezoid.png","椭圆","梯形","ALT1","formal_ALT1_1","","","","","","","","","","","",""
"null","<span style='color:GreenYellow; font-size: 70px;'>正确! </span>","null","html-keyboard-response","134","373906","0.0-7.0-0.0-4.0-0.0-1.13","3","3","3","3","2","3","3","3","3","3","4","2","2","3","2","4","4","3","4","4","4","4","4","4","4","2","4","4","4","1","0","1","1","0","1","1","1","0","1","1","0","0","0","1","4","4","2","2","3","3","2","4","4","2","2","789237328983101441","黄","461","","","","","","","","","","","","","","","","","","","","","","","","","","","","","","feedback_test","","","","","","","","","","","",""
"750","","f","psychophysics","135","375750","0.0-7.0-0.0-4.0-0.0-0.14","3","3","3","3","2","3","3","3","3","3","4","2","2","3","2","4","4","3","4","4","4","4","4","4","4","2","4","4","4","1","0","1","1","0","1","1","1","0","1","1","0","0","0","1","4","4","2","2","3","3","2","4","4","2","2","789237328983101441","黄","461","","","","nonmatch","","","","","","","","","","","","","","key","f","16.671926605504503","768","428","f","true","nonmatch","img/diamond.png","五边","菱形","ALT1","formal_ALT1_1","","","","","","","","","","","",""
"null","<span style='color:GreenYellow; font-size: 70px;'>正确! </span>","null","html-keyboard-response","136","376256","0.0-7.0-0.0-4.0-0.0-1.14","3","3","3","3","2","3","3","3","3","3","4","2","2","3","2","4","4","3","4","4","4","4","4","4","4","2","4","4","4","1","0","1","1","0","1","1","1","0","1","1","0","0","0","1","4","4","2","2","3","3","2","4","4","2","2","789237328983101441","黄","461","","","","","","","","","","","","","","","","","","","","","","","","","","","","","","feedback_test","","","","","","","","","","","",""
"970","","j","psychophysics","137","378236","0.0-7.0-0.0-4.0-0.0-0.15","3","3","3","3","2","3","3","3","3","3","4","2","2","3","2","4","4","3","4","4","4","4","4","4","4","2","4","4","4","1","0","1","1","0","1","1","1","0","1","1","0","0","0","1","4","4","2","2","3","3","2","4","4","2","2","789237328983101441","黄","461","","","","match","","","","","","","","","","","","","","key","j","16.673050847457983","768","428","j","true","match","img/trapezoid.png","梯形","梯形","ALT1","formal_ALT1_1","","","","","","","","","","","",""
"null","<span style='color:GreenYellow; font-size: 70px;'>正确! </span>","null","html-keyboard-response","138","378746","0.0-7.0-0.0-4.0-0.0-1.15","3","3","3","3","2","3","3","3","3","3","4","2","2","3","2","4","4","3","4","4","4","4","4","4","4","2","4","4","4","1","0","1","1","0","1","1","1","0","1","1","0","0","0","1","4","4","2","2","3","3","2","4","4","2","2","789237328983101441","黄","461","","","","","","","","","","","","","","","","","","","","","","","","","","","","","","feedback_test","","","","","","","","","","","",""
"626","","f","psychophysics","139","380379","0.0-7.0-0.0-4.0-0.0-0.16","3","3","3","3","2","3","3","3","3","3","4","2","2","3","2","4","4","3","4","4","4","4","4","4","4","2","4","4","4","1","0","1","1","0","1","1","1","0","1","1","0","0","0","1","4","4","2","2","3","3","2","4","4","2","2","789237328983101441","黄","461","","","","nonmatch","","","","","","","","","","","","","","key","f","16.67134020618552","768","428","j","false","match","img/trapezoid.png","梯形","梯形","ALT1","formal_ALT1_1","","","","","","","","","","","",""
"null","<span style='color:red; font-size: 70px;'>错误! </span>","null","html-keyboard-response","140","380896","0.0-7.0-0.0-4.0-0.0-1.16","3","3","3","3","2","3","3","3","3","3","4","2","2","3","2","4","4","3","4","4","4","4","4","4","4","2","4","4","4","1","0","1","1","0","1","1","1","0","1","1","0","0","0","1","4","4","2","2","3","3","2","4","4","2","2","789237328983101441","黄","461","","","","","","","","","","","","","","","","","","","","","","","","","","","","","","feedback_test","","","","","","","","","","","",""
"589","","j","psychophysics","141","382492","0.0-7.0-0.0-4.0-0.0-0.17","3","3","3","3","2","3","3","3","3","3","4","2","2","3","2","4","4","3","4","4","4","4","4","4","4","2","4","4","4","1","0","1","1","0","1","1","1","0","1","1","0","0","0","1","4","4","2","2","3","3","2","4","4","2","2","789237328983101441","黄","461","","","","match","","","","","","","","","","","","","","key","j","16.672842105262987","768","428","j","true","match","img/ellipse.png","椭圆","椭圆","ALT1","formal_ALT1_1","","","","","","","","","","","",""
"null","<span style='color:GreenYellow; font-size: 70px;'>正确! </span>","null","html-keyboard-response","142","382997","0.0-7.0-0.0-4.0-0.0-1.17","3","3","3","3","2","3","3","3","3","3","4","2","2","3","2","4","4","3","4","4","4","4","4","4","4","2","4","4","4","1","0","1","1","0","1","1","1","0","1","1","0","0","0","1","4","4","2","2","3","3","2","4","4","2","2","789237328983101441","黄","461","","","","","","","","","","","","","","","","","","","","","","","","","","","","","","feedback_test","","","","","","","","","","","",""
"764","","j","psychophysics","143","384768","0.0-7.0-0.0-4.0-0.0-0.18","3","3","3","3","2","3","3","3","3","3","4","2","2","3","2","4","4","3","4","4","4","4","4","4","4","2","4","4","4","1","0","1","1","0","1","1","1","0","1","1","0","0","0","1","4","4","2","2","3","3","2","4","4","2","2","789237328983101441","黄","461","","","","match","","","","","","","","","","","","","","key","j","16.67314285714279","768","428","j","true","match","img/pentagon.png","五边","五边","ALT1","formal_ALT1_1","","","","","","","","","","","",""
"null","<span style='color:GreenYellow; font-size: 70px;'>正确! </span>","null","html-keyboard-response","144","385286","0.0-7.0-0.0-4.0-0.0-1.18","3","3","3","3","2","3","3","3","3","3","4","2","2","3","2","4","4","3","4","4","4","4","4","4","4","2","4","4","4","1","0","1","1","0","1","1","1","0","1","1","0","0","0","1","4","4","2","2","3","3","2","4","4","2","2","789237328983101441","黄","461","","","","","","","","","","","","","","","","","","","","","","","","","","","","","","feedback_test","","","","","","","","","","","",""
"816","","j","psychophysics","145","387121","0.0-7.0-0.0-4.0-0.0-0.19","3","3","3","3","2","3","3","3","3","3","4","2","2","3","2","4","4","3","4","4","4","4","4","4","4","2","4","4","4","1","0","1","1","0","1","1","1","0","1","1","0","0","0","1","4","4","2","2","3","3","2","4","4","2","2","789237328983101441","黄","461","","","","match","","","","","","","","","","","","","","key","j","16.672844036696947","768","428","j","true","match","img/trapezoid.png","梯形","梯形","ALT1","formal_ALT1_1","","","","","","","","","","","",""
"null","<span style='color:GreenYellow; font-size: 70px;'>正确! </span>","null","html-keyboard-response","146","387636","0.0-7.0-0.0-4.0-0.0-1.19","3","3","3","3","2","3","3","3","3","3","4","2","2","3","2","4","4","3","4","4","4","4","4","4","4","2","4","4","4","1","0","1","1","0","1","1","1","0","1","1","0","0","0","1","4","4","2","2","3","3","2","4","4","2","2","789237328983101441","黄","461","","","","","","","","","","","","","","","","","","","","","","","","","","","","","","feedback_test","","","","","","","","","","","",""
"577","","j","psychophysics","147","389215","0.0-7.0-0.0-4.0-0.0-0.20","3","3","3","3","2","3","3","3","3","3","4","2","2","3","2","4","4","3","4","4","4","4","4","4","4","2","4","4","4","1","0","1","1","0","1","1","1","0","1","1","0","0","0","1","4","4","2","2","3","3","2","4","4","2","2","789237328983101441","黄","461","","","","match","","","","","","","","","","","","","","key","j","16.6694623655915","768","428","j","true","match","img/ellipse.png","椭圆","椭圆","ALT1","formal_ALT1_1","","","","","","","","","","","",""
"null","<span style='color:GreenYellow; font-size: 70px;'>正确! </span>","null","html-keyboard-response","148","389736","0.0-7.0-0.0-4.0-0.0-1.20","3","3","3","3","2","3","3","3","3","3","4","2","2","3","2","4","4","3","4","4","4","4","4","4","4","2","4","4","4","1","0","1","1","0","1","1","1","0","1","1","0","0","0","1","4","4","2","2","3","3","2","4","4","2","2","789237328983101441","黄","461","","","","","","","","","","","","","","","","","","","","","","","","","","","","","","feedback_test","","","","","","","","","","","",""
"894","","f","psychophysics","149","391633","0.0-7.0-0.0-4.0-0.0-0.21","3","3","3","3","2","3","3","3","3","3","4","2","2","3","2","4","4","3","4","4","4","4","4","4","4","2","4","4","4","1","0","1","1","0","1","1","1","0","1","1","0","0","0","1","4","4","2","2","3","3","2","4","4","2","2","789237328983101441","黄","461","","","","nonmatch","","","","","","","","","","","","","","key","f","16.625","768","428","f","true","nonmatch","img/trapezoid.png","菱形","梯形","ALT1","formal_ALT1_1","","","","","","","","","","","",""
"null","<span style='color:GreenYellow; font-size: 70px;'>正确! </span>","null","html-keyboard-response","150","392137","0.0-7.0-0.0-4.0-0.0-1.21","3","3","3","3","2","3","3","3","3","3","4","2","2","3","2","4","4","3","4","4","4","4","4","4","4","2","4","4","4","1","0","1","1","0","1","1","1","0","1","1","0","0","0","1","4","4","2","2","3","3","2","4","4","2","2","789237328983101441","黄","461","","","","","","","","","","","","","","","","","","","","","","","","","","","","","","feedback_test","","","","","","","","","","","",""
"757","","j","psychophysics","151","393897","0.0-7.0-0.0-4.0-0.0-0.22","3","3","3","3","2","3","3","3","3","3","4","2","2","3","2","4","4","3","4","4","4","4","4","4","4","2","4","4","4","1","0","1","1","0","1","1","1","0","1","1","0","0","0","1","4","4","2","2","3","3","2","4","4","2","2","789237328983101441","黄","461","","","","match","","","","","","","","","","","","","","key","j","16.673076923076923","768","428","j","true","match","img/diamond.png","菱形","菱形","ALT1","formal_ALT1_1","","","","","","","","","","","",""
"null","<span style='color:GreenYellow; font-size: 70px;'>正确! </span>","null","html-keyboard-response","152","394406","0.0-7.0-0.0-4.0-0.0-1.22","3","3","3","3","2","3","3","3","3","3","4","2","2","3","2","4","4","3","4","4","4","4","4","4","4","2","4","4","4","1","0","1","1","0","1","1","1","0","1","1","0","0","0","1","4","4","2","2","3","3","2","4","4","2","2","789237328983101441","黄","461","","","","","","","","","","","","","","","","","","","","","","","","","","","","","","feedback_test","","","","","","","","","","","",""
"899","","f","psychophysics","153","396325","0.0-7.0-0.0-4.0-0.0-0.23","3","3","3","3","2","3","3","3","3","3","4","2","2","3","2","4","4","3","4","4","4","4","4","4","4","2","4","4","4","1","0","1","1","0","1","1","1","0","1","1","0","0","0","1","4","4","2","2","3","3","2","4","4","2","2","789237328983101441","黄","461","","","","nonmatch","","","","","","","","","","","","","","key","f","16.67122807017509","768","428","f","true","nonmatch","img/pentagon.png","梯形","五边","ALT1","formal_ALT1_1","","","","","","","","","","","",""
"null","<span style='color:GreenYellow; font-size: 70px;'>正确! </span>","null","html-keyboard-response","154","396836","0.0-7.0-0.0-4.0-0.0-1.23","3","3","3","3","2","3","3","3","3","3","4","2","2","3","2","4","4","3","4","4","4","4","4","4","4","2","4","4","4","1","0","1","1","0","1","1","1","0","1","1","0","0","0","1","4","4","2","2","3","3","2","4","4","2","2","789237328983101441","黄","461","","","","","","","","","","","","","","","","","","","","","","","","","","","","","","feedback_test","","","","","","","","","","","",""
"794","","f","psychophysics","155","398638","0.0-7.0-0.0-4.0-0.0-0.24","3","3","3","3","2","3","3","3","3","3","4","2","2","3","2","4","4","3","4","4","4","4","4","4","4","2","4","4","4","1","0","1","1","0","1","1","1","0","1","1","0","0","0","1","4","4","2","2","3","3","2","4","4","2","2","789237328983101441","黄","461","","","","nonmatch","","","","","","","","","","","","","","key","f","16.67283018867931","768","428","f","true","nonmatch","img/diamond.png","梯形","菱形","ALT1","formal_ALT1_1","","","","","","","","","","","",""
"null","<span style='color:GreenYellow; font-size: 70px;'>正确! </span>","null","html-keyboard-response","156","399156","0.0-7.0-0.0-4.0-0.0-1.24","3","3","3","3","2","3","3","3","3","3","4","2","2","3","2","4","4","3","4","4","4","4","4","4","4","2","4","4","4","1","0","1","1","0","1","1","1","0","1","1","0","0","0","1","4","4","2","2","3","3","2","4","4","2","2","789237328983101441","黄","461","","","","","","","","","","","","","","","","","","","","","","","","","","","","","","feedback_test","","","","","","","","","","","",""
"1002","","f","psychophysics","157","401278","0.0-7.0-0.0-4.0-0.0-0.25","3","3","3","3","2","3","3","3","3","3","4","2","2","3","2","4","4","3","4","4","4","4","4","4","4","2","4","4","4","1","0","1","1","0","1","1","1","0","1","1","0","0","0","1","4","4","2","2","3","3","2","4","4","2","2","789237328983101441","黄","461","","","","nonmatch","","","","","","","","","","","","","","key","f","16.672698412698487","768","428","f","true","nonmatch","img/pentagon.png","菱形","五边","ALT1","formal_ALT1_1","","","","","","","","","","","",""
"null","<span style='color:GreenYellow; font-size: 70px;'>正确! </span>","null","html-keyboard-response","158","401797","0.0-7.0-0.0-4.0-0.0-1.25","3","3","3","3","2","3","3","3","3","3","4","2","2","3","2","4","4","3","4","4","4","4","4","4","4","2","4","4","4","1","0","1","1","0","1","1","1","0","1","1","0","0","0","1","4","4","2","2","3","3","2","4","4","2","2","789237328983101441","黄","461","","","","","","","","","","","","","","","","","","","","","","","","","","","","","","feedback_test","","","","","","","","","","","",""
"652","","j","psychophysics","159","403465","0.0-7.0-0.0-4.0-0.0-0.26","3","3","3","3","2","3","3","3","3","3","4","2","2","3","2","4","4","3","4","4","4","4","4","4","4","2","4","4","4","1","0","1","1","0","1","1","1","0","1","1","0","0","0","1","4","4","2","2","3","3","2","4","4","2","2","789237328983101441","黄","461","","","","match","","","","","","","","","","","","","","key","j","17.014020618556557","768","428","j","true","match","img/trapezoid.png","梯形","梯形","ALT1","formal_ALT1_1","","","","","","","","","","","",""
"null","<span style='color:GreenYellow; font-size: 70px;'>正确! </span>","null","html-keyboard-response","160","403987","0.0-7.0-0.0-4.0-0.0-1.26","3","3","3","3","2","3","3","3","3","3","4","2","2","3","2","4","4","3","4","4","4","4","4","4","4","2","4","4","4","1","0","1","1","0","1","1","1","0","1","1","0","0","0","1","4","4","2","2","3","3","2","4","4","2","2","789237328983101441","黄","461","","","","","","","","","","","","","","","","","","","","","","","","","","","","","","feedback_test","","","","","","","","","","","",""
"794","","j","psychophysics","161","405790","0.0-7.0-0.0-4.0-0.0-0.27","3","3","3","3","2","3","3","3","3","3","4","2","2","3","2","4","4","3","4","4","4","4","4","4","4","2","4","4","4","1","0","1","1","0","1","1","1","0","1","1","0","0","0","1","4","4","2","2","3","3","2","4","4","2","2","789237328983101441","黄","461","","","","match","","","","","","","","","","","","","","key","j","16.672897196261683","768","428","j","true","match","img/pentagon.png","五边","五边","ALT1","formal_ALT1_1","","","","","","","","","","","",""
"null","<span style='color:GreenYellow; font-size: 70px;'>正确! </span>","null","html-keyboard-response","162","406307","0.0-7.0-0.0-4.0-0.0-1.27","3","3","3","3","2","3","3","3","3","3","4","2","2","3","2","4","4","3","4","4","4","4","4","4","4","2","4","4","4","1","0","1","1","0","1","1","1","0","1","1","0","0","0","1","4","4","2","2","3","3","2","4","4","2","2","789237328983101441","黄","461","","","","","","","","","","","","","","","","","","","","","","","","","","","","","","feedback_test","","","","","","","","","","","",""
"761","","f","psychophysics","163","408074","0.0-7.0-0.0-4.0-0.0-0.28","3","3","3","3","2","3","3","3","3","3","4","2","2","3","2","4","4","3","4","4","4","4","4","4","4","2","4","4","4","1","0","1","1","0","1","1","1","0","1","1","0","0","0","1","4","4","2","2","3","3","2","4","4","2","2","789237328983101441","黄","461","","","","nonmatch","","","","","","","","","","","","","","key","f","16.673076923076923","768","428","f","true","nonmatch","img/diamond.png","五边","菱形","ALT1","formal_ALT1_1","","","","","","","","","","","",""
"null","<span style='color:GreenYellow; font-size: 70px;'>正确! </span>","null","html-keyboard-response","164","408577","0.0-7.0-0.0-4.0-0.0-1.28","3","3","3","3","2","3","3","3","3","3","4","2","2","3","2","4","4","3","4","4","4","4","4","4","4","2","4","4","4","1","0","1","1","0","1","1","1","0","1","1","0","0","0","1","4","4","2","2","3","3","2","4","4","2","2","789237328983101441","黄","461","","","","","","","","","","","","","","","","","","","","","","","","","","","","","","feedback_test","","","","","","","","","","","",""
"639","","j","psychophysics","165","410220","0.0-7.0-0.0-4.0-0.0-0.29","3","3","3","3","2","3","3","3","3","3","4","2","2","3","2","4","4","3","4","4","4","4","4","4","4","2","4","4","4","1","0","1","1","0","1","1","1","0","1","1","0","0","0","1","4","4","2","2","3","3","2","4","4","2","2","789237328983101441","黄","461","","","","match","","","","","","","","","","","","","","key","j","16.671958762886526","768","428","j","true","match","img/trapezoid.png","梯形","梯形","ALT1","formal_ALT1_1","","","","","","","","","","","",""
"null","<span style='color:GreenYellow; font-size: 70px;'>正确! </span>","null","html-keyboard-response","166","410736","0.0-7.0-0.0-4.0-0.0-1.29","3","3","3","3","2","3","3","3","3","3","4","2","2","3","2","4","4","3","4","4","4","4","4","4","4","2","4","4","4","1","0","1","1","0","1","1","1","0","1","1","0","0","0","1","4","4","2","2","3","3","2","4","4","2","2","789237328983101441","黄","461","","","","","","","","","","","","","","","","","","","","","","","","","","","","","","feedback_test","","","","","","","","","","","",""
"639","","j","psychophysics","167","412386","0.0-7.0-0.0-4.0-0.0-0.30","3","3","3","3","2","3","3","3","3","3","4","2","2","3","2","4","4","3","4","4","4","4","4","4","4","2","4","4","4","1","0","1","1","0","1","1","1","0","1","1","0","0","0","1","4","4","2","2","3","3","2","4","4","2","2","789237328983101441","黄","461","","","","match","","","","","","","","","","","","","","key","j","16.671428571428454","768","428","j","true","match","img/trapezoid.png","梯形","梯形","ALT1","formal_ALT1_1","","","","","","","","","","","",""
"null","<span style='color:GreenYellow; font-size: 70px;'>正确! </span>","null","html-keyboard-response","168","412897","0.0-7.0-0.0-4.0-0.0-1.30","3","3","3","3","2","3","3","3","3","3","4","2","2","3","2","4","4","3","4","4","4","4","4","4","4","2","4","4","4","1","0","1","1","0","1","1","1","0","1","1","0","0","0","1","4","4","2","2","3","3","2","4","4","2","2","789237328983101441","黄","461","","","","","","","","","","","","","","","","","","","","","","","","","","","","","","feedback_test","","","","","","","","","","","",""
"773","","f","psychophysics","169","414689","0.0-7.0-0.0-4.0-0.0-0.31","3","3","3","3","2","3","3","3","3","3","4","2","2","3","2","4","4","3","4","4","4","4","4","4","4","2","4","4","4","1","0","1","1","0","1","1","1","0","1","1","0","0","0","1","4","4","2","2","3","3","2","4","4","2","2","789237328983101441","黄","461","","","","nonmatch","","","","","","","","","","","","","","key","f","16.66905660377398","768","428","f","true","nonmatch","img/pentagon.png","梯形","五边","ALT1","formal_ALT1_1","","","","","","","","","","","",""
"null","<span style='color:GreenYellow; font-size: 70px;'>正确! </span>","null","html-keyboard-response","170","415196","0.0-7.0-0.0-4.0-0.0-1.31","3","3","3","3","2","3","3","3","3","3","4","2","2","3","2","4","4","3","4","4","4","4","4","4","4","2","4","4","4","1","0","1","1","0","1","1","1","0","1","1","0","0","0","1","4","4","2","2","3","3","2","4","4","2","2","789237328983101441","黄","461","","","","","","","","","","","","","","","","","","","","","","","","","","","","","","feedback_test","","","","","","","","","","","",""
"707","","j","psychophysics","171","416905","0.0-7.0-0.0-4.0-0.0-0.32","3","3","3","3","2","3","3","3","3","3","4","2","2","3","2","4","4","3","4","4","4","4","4","4","4","2","4","4","4","1","0","1","1","0","1","1","1","0","1","1","0","0","0","1","4","4","2","2","3","3","2","4","4","2","2","789237328983101441","黄","461","","","","match","","","","","","","","","","","","","","key","j","16.673069306931087","768","428","j","true","match","img/diamond.png","菱形","菱形","ALT1","formal_ALT1_1","","","","","","","","","","","",""
"null","<span style='color:GreenYellow; font-size: 70px;'>正确! </span>","null","html-keyboard-response","172","417417","0.0-7.0-0.0-4.0-0.0-1.32","3","3","3","3","2","3","3","3","3","3","4","2","2","3","2","4","4","3","4","4","4","4","4","4","4","2","4","4","4","1","0","1","1","0","1","1","1","0","1","1","0","0","0","1","4","4","2","2","3","3","2","4","4","2","2","789237328983101441","黄","461","","","","","","","","","","","","","","","","","","","","","","","","","","","","","","feedback_test","","","","","","","","","","","",""
"839","","f","psychophysics","173","419274","0.0-7.0-0.0-4.0-0.0-0.33","3","3","3","3","2","3","3","3","3","3","4","2","2","3","2","4","4","3","4","4","4","4","4","4","4","2","4","4","4","1","0","1","1","0","1","1","1","0","1","1","0","0","0","1","4","4","2","2","3","3","2","4","4","2","2","789237328983101441","黄","461","","","","nonmatch","","","","","","","","","","","","","","key","f","16.670181818182094","768","428","f","true","nonmatch","img/ellipse.png","菱形","椭圆","ALT1","formal_ALT1_1","","","","","","","","","","","",""
"null","<span style='color:GreenYellow; font-size: 70px;'>正确! </span>","null","html-keyboard-response","174","419776","0.0-7.0-0.0-4.0-0.0-1.33","3","3","3","3","2","3","3","3","3","3","4","2","2","3","2","4","4","3","4","4","4","4","4","4","4","2","4","4","4","1","0","1","1","0","1","1","1","0","1","1","0","0","0","1","4","4","2","2","3","3","2","4","4","2","2","789237328983101441","黄","461","","","","","","","","","","","","","","","","","","","","","","","","","","","","","","feedback_test","","","","","","","","","","","",""
"764","","j","psychophysics","175","421549","0.0-7.0-0.0-4.0-0.0-0.34","3","3","3","3","2","3","3","3","3","3","4","2","2","3","2","4","4","3","4","4","4","4","4","4","4","2","4","4","4","1","0","1","1","0","1","1","1","0","1","1","0","0","0","1","4","4","2","2","3","3","2","4","4","2","2","789237328983101441","黄","461","","","","match","","","","","","","","","","","","","","key","j","16.673142857143343","768","428","j","true","match","img/diamond.png","菱形","菱形","ALT1","formal_ALT1_1","","","","","","","","","","","",""
"null","<span style='color:GreenYellow; font-size: 70px;'>正确! </span>","null","html-keyboard-response","176","422056","0.0-7.0-0.0-4.0-0.0-1.34","3","3","3","3","2","3","3","3","3","3","4","2","2","3","2","4","4","3","4","4","4","4","4","4","4","2","4","4","4","1","0","1","1","0","1","1","1","0","1","1","0","0","0","1","4","4","2","2","3","3","2","4","4","2","2","789237328983101441","黄","461","","","","","","","","","","","","","","","","","","","","","","","","","","","","","","feedback_test","","","","","","","","","","","",""
"732","","f","psychophysics","177","423801","0.0-7.0-0.0-4.0-0.0-0.35","3","3","3","3","2","3","3","3","3","3","4","2","2","3","2","4","4","3","4","4","4","4","4","4","4","2","4","4","4","1","0","1","1","0","1","1","1","0","1","1","0","0","0","1","4","4","2","2","3","3","2","4","4","2","2","789237328983101441","黄","461","","","","nonmatch","","","","","","","","","","","","","","key","f","16.673009708737933","768","428","f","true","nonmatch","img/ellipse.png","梯形","椭圆","ALT1","formal_ALT1_1","","","","","","","","","","","",""
"null","<span style='color:GreenYellow; font-size: 70px;'>正确! </span>","null","html-keyboard-response","178","424317","0.0-7.0-0.0-4.0-0.0-1.35","3","3","3","3","2","3","3","3","3","3","4","2","2","3","2","4","4","3","4","4","4","4","4","4","4","2","4","4","4","1","0","1","1","0","1","1","1","0","1","1","0","0","0","1","4","4","2","2","3","3","2","4","4","2","2","789237328983101441","黄","461","","","","","","","","","","","","","","","","","","","","","","","","","","","","","","feedback_test","","","","","","","","","","","",""
"772","","j","psychophysics","179","426092","0.0-7.0-0.0-4.0-0.0-0.36","3","3","3","3","2","3","3","3","3","3","4","2","2","3","2","4","4","3","4","4","4","4","4","4","4","2","4","4","4","1","0","1","1","0","1","1","1","0","1","1","0","0","0","1","4","4","2","2","3","3","2","4","4","2","2","789237328983101441","黄","461","","","","match","","","","","","","","","","","","","","key","j","16.672190476190078","768","428","j","true","match","img/diamond.png","菱形","菱形","ALT1","formal_ALT1_1","","","","","","","","","","","",""
"null","<span style='color:GreenYellow; font-size: 70px;'>正确! </span>","null","html-keyboard-response","180","426606","0.0-7.0-0.0-4.0-0.0-1.36","3","3","3","3","2","3","3","3","3","3","4","2","2","3","2","4","4","3","4","4","4","4","4","4","4","2","4","4","4","1","0","1","1","0","1","1","1","0","1","1","0","0","0","1","4","4","2","2","3","3","2","4","4","2","2","789237328983101441","黄","461","","","","","","","","","","","","","","","","","","","","","","","","","","","","","","feedback_test","","","","","","","","","","","",""
"694","","j","psychophysics","181","428431","0.0-7.0-0.0-4.0-0.0-0.37","3","3","3","3","2","3","3","3","3","3","4","2","2","3","2","4","4","3","4","4","4","4","4","4","4","2","4","4","4","1","0","1","1","0","1","1","1","0","1","1","0","0","0","1","4","4","2","2","3","3","2","4","4","2","2","789237328983101441","黄","461","","","","match","","","","","","","","","","","","","","key","j","16.6729629629629","768","428","j","true","match","img/pentagon.png","五边","五边","ALT1","formal_ALT1_1","","","","","","","","","","","",""
"null","<span style='color:GreenYellow; font-size: 70px;'>正确! </span>","null","html-keyboard-response","182","428936","0.0-7.0-0.0-4.0-0.0-1.37","3","3","3","3","2","3","3","3","3","3","4","2","2","3","2","4","4","3","4","4","4","4","4","4","4","2","4","4","4","1","0","1","1","0","1","1","1","0","1","1","0","0","0","1","4","4","2","2","3","3","2","4","4","2","2","789237328983101441","黄","461","","","","","","","","","","","","","","","","","","","","","","","","","","","","","","feedback_test","","","","","","","","","","","",""
