"rt","stimulus","response","trial_type","trial_index","time_elapsed","internal_node_id","ses_1","ses_2","ses_3","ses_4","ses_5","ses_6","ses_7","ses_8","ses_9","ses_10","coreself_1","coreself_2","coreself_3","coreself_4","coreself_5","coreself_6","coreself_7","coreself_8","coreself_9","coreself_10","SGPS_1","SGPS_2","SGPS_3","SGPS_4","SGPS_5","SGPS_6","SGPS_7","SGPS_8","SGPS_9","NPI1","NPI2","NPI3","NPI4","NPI5","NPI6","NPI7","NPI8","NPI9","NPI10","NPI11","NPI12","NPI13","NPI14","NPI15","hsns_1","hsns_2","hsns_3","hsns_4","hsns_5","trap1","hsns_6","hsns_7","hsns_8","hsns_9","hsns_10","subj_idx","friend_name","ParticipantID","value","success","user_agent","responses","item_order","radio_event_ids","radio_event_times","key_event_times","mouse_event_times","straightlining","zigzagging","honeypot","timeout","failed_images","failed_audio","failed_video","view_history","response_type","key_press","avg_frame_time","center_x","center_y","correct_response","correct","identity","Image","word","condition","task_id","screen_id","time_stamp","version_attrib2","version_target2","IAT","RT","varname","summary","version_attrib","version_target","question_order","correct_answer","trap1_item"
"49185","
   <p><div style = ""color: white;font-size:25px;"">您好，欢迎参加本次实验。</div> </p>
   <p><div style = ""color: white;font-size:25px;"">为充分保障您的权利，请确保您已经知晓并同意《参与实验同意书》以及《数据公开知情同意书》。</div></p>
   <p><div style = ""color: white;font-size:25px;"">如果您未见过上述内容，请咨询实验员。</div></p>
   <p><div style = ""color: white;font-size:25px;"">如果您选择继续实验，则表示您已经清楚两份知情同意书的内容并同意。</div></p>
   <p><div style = ""color: pink;font-size:30px;"">请确保您记得day0的实验编号，您将在本次实验输入该编号，若您忘记，请咨询实验员后作答。</div></p>
   <p><div style = ""color: lightblue;font-size:25px;"">请您尽可能认真地作答，我们将依据您在各问卷和按键任务中的作答质量发放报酬。</div></p>
   <p> <div style = ""color: green;font-size:25px;""><按空格键至下页></div> </p>
   "," ","html-keyboard-response","0","49191","0.0-0.0","3","4","4","3","3","4","3","4","4","3","4","4","2","4","4","4","2","2","5","4","2","4","2","3","2","2","2","2","2","1","0","0","1","0","0","0","1","0","1","1","0","1","0","1","5","2","2","2","4","3","4","4","2","4","2","766966737248980993","吴","697","","","","","","","","","","","","","","","","","","","","","","","","","","","","","","","","","","","","","","","","","",""
"","","","call-function","1","49201","0.0-1.0-0.0","3","4","4","3","3","4","3","4","4","3","4","4","2","4","4","4","2","2","5","4","2","4","2","3","2","2","2","2","2","1","0","0","1","0","0","0","1","0","1","1","0","1","0","1","5","2","2","2","4","3","4","4","2","4","2","766966737248980993","吴","697","","","","","","","","","","","","","","","","","","","","","","","","","","","","","","","","","","","","","","","","","",""
"21031","","{""friend_name"":""吴"",""ParticipantID"":""697""}","survey-html-form","2","70235","0.0-1.0-1.0","3","4","4","3","3","4","3","4","4","3","4","4","2","4","4","4","2","2","5","4","2","4","2","3","2","2","2","2","2","1","0","0","1","0","0","0","1","0","1","1","0","1","0","1","5","2","2","2","4","3","4","4","2","4","2","766966737248980993","吴","697","","","","","","","","","","","","","","","","","","","","","","","","","","","","","","","","","","","","","","","","","",""
"","","","fullscreen","3","75513","0.0-2.0","3","4","4","3","3","4","3","4","4","3","4","4","2","4","4","4","2","2","5","4","2","4","2","3","2","2","2","2","2","1","0","0","1","0","0","0","1","0","1","1","0","1","0","1","5","2","2","2","4","3","4","4","2","4","2","766966737248980993","吴","697","","true","{}","","","","","","","","","","","","","","","","","","","","","","","","","","","","","","","","","","","","","","",""
"28098","","{""Q01"":""3"",""Q02"":""4"",""Q03"":""4"",""Q04"":""3"",""Q05"":""3"",""Q06"":""4"",""Q07"":""3"",""Q08"":""4"",""Q09"":""4"",""Q10"":""3""}","survey-template","4","103629","0.0-3.0","3","4","4","3","3","4","3","4","4","3","4","4","2","4","4","4","2","2","5","4","2","4","2","3","2","2","2","2","2","1","0","0","1","0","0","0","1","0","1","1","0","1","0","1","5","2","2","2","4","3","4","4","2","4","2","766966737248980993","吴","697","","","","{""Q01"":""3"",""Q02"":""4"",""Q03"":""4"",""Q04"":""3"",""Q05"":""3"",""Q06"":""4"",""Q07"":""3"",""Q08"":""4"",""Q09"":""4"",""Q10"":""3""}","[0,1,2,3,4,5,6,7,8,9]","[""Q01"",""Q02"",""Q03"",""Q04"",""Q05"",""Q06"",""Q07"",""Q08"",""Q09"",""Q10""]","[9003,10133,13043,16002,17178,18370,19851,22530,23970,26282]","[]","[9003,10133,13043,16002,17178,18370,19851,22530,23970,26282,28091]","0.3","0.5555555555555556","0","","","","","","","","","","","","","","","","","","","","","","","","","","","","","",""
"25531","","{""Q01"":""4"",""Q02"":""4"",""Q03"":""2"",""Q04"":""4"",""Q05"":""4"",""Q06"":""4"",""Q07"":""2"",""Q08"":""2"",""Q09"":""5"",""Q10"":""4""}","survey-template","5","129188","0.0-4.0","3","4","4","3","3","4","3","4","4","3","4","4","2","4","4","4","2","2","5","4","2","4","2","3","2","2","2","2","2","1","0","0","1","0","0","0","1","0","1","1","0","1","0","1","5","2","2","2","4","3","4","4","2","4","2","766966737248980993","吴","697","","","","{""Q01"":""4"",""Q02"":""4"",""Q03"":""2"",""Q04"":""4"",""Q05"":""4"",""Q06"":""4"",""Q07"":""2"",""Q08"":""2"",""Q09"":""5"",""Q10"":""4""}","[0,1,2,3,4,5,6,7,8,9]","[""Q01"",""Q02"",""Q03"",""Q04"",""Q05"",""Q06"",""Q07"",""Q08"",""Q09"",""Q10""]","[5755,7475,9523,11659,13171,14532,19211,20418,21971,24722]","[]","[5755,7475,9523,11659,13171,14532,17836,19211,20418,21971,24722,25523]","0.6","0.1111111111111111","0","","","","","","","","","","","","","","","","","","","","","","","","","","","","","",""
"","","","preload","6","129461","0.0-5.0","3","4","4","3","3","4","3","4","4","3","4","4","2","4","4","4","2","2","5","4","2","4","2","3","2","2","2","2","2","1","0","0","1","0","0","0","1","0","1","1","0","1","0","1","5","2","2","2","4","3","4","4","2","4","2","766966737248980993","吴","697","","true","","","","","","","","","","","false","[]","[]","[]","","","","","","","","","","","","","","","","","","","","","","","","","",""
"6948","","","instructions","7","136411","0.0-6.0","3","4","4","3","3","4","3","4","4","3","4","4","2","4","4","4","2","2","5","4","2","4","2","3","2","2","2","2","2","1","0","0","1","0","0","0","1","0","1","1","0","1","0","1","5","2","2","2","4","3","4","4","2","4","2","766966737248980993","吴","697","","","","","","","","","","","","","","","","","[{""page_index"":0,""viewing_time"":6947}]","","","","","","","","","","","","","","","","","","","","","","","","",""
"27399","","","instructions","8","163818","0.0-7.0-1.0-0.0","3","4","4","3","3","4","3","4","4","3","4","4","2","4","4","4","2","2","5","4","2","4","2","3","2","2","2","2","2","1","0","0","1","0","0","0","1","0","1","1","0","1","0","1","5","2","2","2","4","3","4","4","2","4","2","766966737248980993","吴","697","","","","","","","","","","","","","","","","","[{""page_index"":0,""viewing_time"":19446},{""page_index"":1,""viewing_time"":6136},{""page_index"":2,""viewing_time"":1816}]","","","","","","","","","","","","","","","","","","","","","","","","",""
"null","","null","psychophysics","9","166039","0.0-7.0-1.0-1.0-0.0-0.0","3","4","4","3","3","4","3","4","4","3","4","4","2","4","4","4","2","2","5","4","2","4","2","3","2","2","2","2","2","1","0","0","1","0","0","0","1","0","1","1","0","1","0","1","5","2","2","2","4","3","4","4","2","4","2","766966737248980993","吴","697","","","","null","","","","","","","","","","","","","","key","null","22.92374736842099","640","396","f","false","nonmatch","img/diamond.png","方形","菱形","ALT1_2","prac_ALT1_2","","","","","","","","","","","",""
"null","<span class='add_' style='color:yellow; font-size: 70px;'> 太慢! </span>","null","html-keyboard-response","10","166542","0.0-7.0-1.0-1.0-0.0-1.0","3","4","4","3","3","4","3","4","4","3","4","4","2","4","4","4","2","2","5","4","2","4","2","3","2","2","2","2","2","1","0","0","1","0","0","0","1","0","1","1","0","1","0","1","5","2","2","2","4","3","4","4","2","4","2","766966737248980993","吴","697","","","","","","","","","","","","","","","","","","","","","","","","","","","","","","feedback_test","","","","","","","","","","","",""
"null","","null","psychophysics","11","168748","0.0-7.0-1.0-1.0-0.0-0.1","3","4","4","3","3","4","3","4","4","3","4","4","2","4","4","4","2","2","5","4","2","4","2","3","2","2","2","2","2","1","0","0","1","0","0","0","1","0","1","1","0","1","0","1","5","2","2","2","4","3","4","4","2","4","2","766966737248980993","吴","697","","","","null","","","","","","","","","","","","","","key","null","22.68495833333327","640","396","f","false","nonmatch","img/diamond.png","圆形","菱形","ALT1_2","prac_ALT1_2","","","","","","","","","","","",""
"null","<span class='add_' style='color:yellow; font-size: 70px;'> 太慢! </span>","null","html-keyboard-response","12","169249","0.0-7.0-1.0-1.0-0.0-1.1","3","4","4","3","3","4","3","4","4","3","4","4","2","4","4","4","2","2","5","4","2","4","2","3","2","2","2","2","2","1","0","0","1","0","0","0","1","0","1","1","0","1","0","1","5","2","2","2","4","3","4","4","2","4","2","766966737248980993","吴","697","","","","","","","","","","","","","","","","","","","","","","","","","","","","","","feedback_test","","","","","","","","","","","",""
"749","","f","psychophysics","13","171003","0.0-7.0-1.0-1.0-0.0-0.2","3","4","4","3","3","4","3","4","4","3","4","4","2","4","4","4","2","2","5","4","2","4","2","3","2","2","2","2","2","1","0","0","1","0","0","0","1","0","1","1","0","1","0","1","5","2","2","2","4","3","4","4","2","4","2","766966737248980993","吴","697","","","","nonmatch","","","","","","","","","","","","","","key","f","22.510597402597295","640","396","f","true","nonmatch","img/square.png","圆形","方形","ALT1_2","prac_ALT1_2","","","","","","","","","","","",""
"null","<span style='color:GreenYellow; font-size: 70px;'>正确! </span>","null","html-keyboard-response","14","171504","0.0-7.0-1.0-1.0-0.0-1.2","3","4","4","3","3","4","3","4","4","3","4","4","2","4","4","4","2","2","5","4","2","4","2","3","2","2","2","2","2","1","0","0","1","0","0","0","1","0","1","1","0","1","0","1","5","2","2","2","4","3","4","4","2","4","2","766966737248980993","吴","697","","","","","","","","","","","","","","","","","","","","","","","","","","","","","","feedback_test","","","","","","","","","","","",""
"958","","j","psychophysics","15","173464","0.0-7.0-1.0-1.0-0.0-0.3","3","4","4","3","3","4","3","4","4","3","4","4","2","4","4","4","2","2","5","4","2","4","2","3","2","2","2","2","2","1","0","0","1","0","0","0","1","0","1","1","0","1","0","1","5","2","2","2","4","3","4","4","2","4","2","766966737248980993","吴","697","","","","match","","","","","","","","","","","","","","key","j","22.22200000000015","640","396","f","false","nonmatch","img/circle.png","菱形","圆形","ALT1_2","prac_ALT1_2","","","","","","","","","","","",""
"null","<span style='color:red; font-size: 70px;'>错误! </span>","null","html-keyboard-response","16","173965","0.0-7.0-1.0-1.0-0.0-1.3","3","4","4","3","3","4","3","4","4","3","4","4","2","4","4","4","2","2","5","4","2","4","2","3","2","2","2","2","2","1","0","0","1","0","0","0","1","0","1","1","0","1","0","1","5","2","2","2","4","3","4","4","2","4","2","766966737248980993","吴","697","","","","","","","","","","","","","","","","","","","","","","","","","","","","","","feedback_test","","","","","","","","","","","",""
"782","","f","psychophysics","17","175750","0.0-7.0-1.0-1.0-0.0-0.4","3","4","4","3","3","4","3","4","4","3","4","4","2","4","4","4","2","2","5","4","2","4","2","3","2","2","2","2","2","1","0","0","1","0","0","0","1","0","1","1","0","1","0","1","5","2","2","2","4","3","4","4","2","4","2","766966737248980993","吴","697","","","","nonmatch","","","","","","","","","","","","","","key","f","22.506897435897443","640","396","f","true","nonmatch","img/hexagon.png","菱形","六边","ALT1_2","prac_ALT1_2","","","","","","","","","","","",""
"null","<span style='color:GreenYellow; font-size: 70px;'>正确! </span>","null","html-keyboard-response","18","176254","0.0-7.0-1.0-1.0-0.0-1.4","3","4","4","3","3","4","3","4","4","3","4","4","2","4","4","4","2","2","5","4","2","4","2","3","2","2","2","2","2","1","0","0","1","0","0","0","1","0","1","1","0","1","0","1","5","2","2","2","4","3","4","4","2","4","2","766966737248980993","吴","697","","","","","","","","","","","","","","","","","","","","","","","","","","","","","","feedback_test","","","","","","","","","","","",""
"798","","f","psychophysics","19","178055","0.0-7.0-1.0-1.0-0.0-0.5","3","4","4","3","3","4","3","4","4","3","4","4","2","4","4","4","2","2","5","4","2","4","2","3","2","2","2","2","2","1","0","0","1","0","0","0","1","0","1","1","0","1","0","1","5","2","2","2","4","3","4","4","2","4","2","766966737248980993","吴","697","","","","nonmatch","","","","","","","","","","","","","","key","f","22.222000000000115","640","396","j","false","match","img/square.png","方形","方形","ALT1_2","prac_ALT1_2","","","","","","","","","","","",""
"null","<span style='color:red; font-size: 70px;'>错误! </span>","null","html-keyboard-response","20","178557","0.0-7.0-1.0-1.0-0.0-1.5","3","4","4","3","3","4","3","4","4","3","4","4","2","4","4","4","2","2","5","4","2","4","2","3","2","2","2","2","2","1","0","0","1","0","0","0","1","0","1","1","0","1","0","1","5","2","2","2","4","3","4","4","2","4","2","766966737248980993","吴","697","","","","","","","","","","","","","","","","","","","","","","","","","","","","","","feedback_test","","","","","","","","","","","",""
"936","","f","psychophysics","21","180496","0.0-7.0-1.0-1.0-0.0-0.6","3","4","4","3","3","4","3","4","4","3","4","4","2","4","4","4","2","2","5","4","2","4","2","3","2","2","2","2","2","1","0","0","1","0","0","0","1","0","1","1","0","1","0","1","5","2","2","2","4","3","4","4","2","4","2","766966737248980993","吴","697","","","","nonmatch","","","","","","","","","","","","","","key","f","22.22200000000029","640","396","j","false","match","img/diamond.png","菱形","菱形","ALT1_2","prac_ALT1_2","","","","","","","","","","","",""
"null","<span style='color:red; font-size: 70px;'>错误! </span>","null","html-keyboard-response","22","180997","0.0-7.0-1.0-1.0-0.0-1.6","3","4","4","3","3","4","3","4","4","3","4","4","2","4","4","4","2","2","5","4","2","4","2","3","2","2","2","2","2","1","0","0","1","0","0","0","1","0","1","1","0","1","0","1","5","2","2","2","4","3","4","4","2","4","2","766966737248980993","吴","697","","","","","","","","","","","","","","","","","","","","","","","","","","","","","","feedback_test","","","","","","","","","","","",""
"894","","f","psychophysics","23","182894","0.0-7.0-1.0-1.0-0.0-0.7","3","4","4","3","3","4","3","4","4","3","4","4","2","4","4","4","2","2","5","4","2","4","2","3","2","2","2","2","2","1","0","0","1","0","0","0","1","0","1","1","0","1","0","1","5","2","2","2","4","3","4","4","2","4","2","766966737248980993","吴","697","","","","nonmatch","","","","","","","","","","","","","","key","f","22.222000000000186","640","396","f","true","nonmatch","img/circle.png","方形","圆形","ALT1_2","prac_ALT1_2","","","","","","","","","","","",""
"null","<span style='color:GreenYellow; font-size: 70px;'>正确! </span>","null","html-keyboard-response","24","183394","0.0-7.0-1.0-1.0-0.0-1.7","3","4","4","3","3","4","3","4","4","3","4","4","2","4","4","4","2","2","5","4","2","4","2","3","2","2","2","2","2","1","0","0","1","0","0","0","1","0","1","1","0","1","0","1","5","2","2","2","4","3","4","4","2","4","2","766966737248980993","吴","697","","","","","","","","","","","","","","","","","","","","","","","","","","","","","","feedback_test","","","","","","","","","","","",""
"795","","j","psychophysics","25","185191","0.0-7.0-1.0-1.0-0.0-0.8","3","4","4","3","3","4","3","4","4","3","4","4","2","4","4","4","2","2","5","4","2","4","2","3","2","2","2","2","2","1","0","0","1","0","0","0","1","0","1","1","0","1","0","1","5","2","2","2","4","3","4","4","2","4","2","766966737248980993","吴","697","","","","match","","","","","","","","","","","","","","key","j","22.222000000000005","640","396","j","true","match","img/circle.png","圆形","圆形","ALT1_2","prac_ALT1_2","","","","","","","","","","","",""
"null","<span style='color:GreenYellow; font-size: 70px;'>正确! </span>","null","html-keyboard-response","26","185692","0.0-7.0-1.0-1.0-0.0-1.8","3","4","4","3","3","4","3","4","4","3","4","4","2","4","4","4","2","2","5","4","2","4","2","3","2","2","2","2","2","1","0","0","1","0","0","0","1","0","1","1","0","1","0","1","5","2","2","2","4","3","4","4","2","4","2","766966737248980993","吴","697","","","","","","","","","","","","","","","","","","","","","","","","","","","","","","feedback_test","","","","","","","","","","","",""
"983","","j","psychophysics","27","187678","0.0-7.0-1.0-1.0-0.0-0.9","3","4","4","3","3","4","3","4","4","3","4","4","2","4","4","4","2","2","5","4","2","4","2","3","2","2","2","2","2","1","0","0","1","0","0","0","1","0","1","1","0","1","0","1","5","2","2","2","4","3","4","4","2","4","2","766966737248980993","吴","697","","","","match","","","","","","","","","","","","","","key","j","22.221999999999944","640","396","j","true","match","img/diamond.png","菱形","菱形","ALT1_2","prac_ALT1_2","","","","","","","","","","","",""
"null","<span style='color:GreenYellow; font-size: 70px;'>正确! </span>","null","html-keyboard-response","28","188180","0.0-7.0-1.0-1.0-0.0-1.9","3","4","4","3","3","4","3","4","4","3","4","4","2","4","4","4","2","2","5","4","2","4","2","3","2","2","2","2","2","1","0","0","1","0","0","0","1","0","1","1","0","1","0","1","5","2","2","2","4","3","4","4","2","4","2","766966737248980993","吴","697","","","","","","","","","","","","","","","","","","","","","","","","","","","","","","feedback_test","","","","","","","","","","","",""
"751","","j","psychophysics","29","189933","0.0-7.0-1.0-1.0-0.0-0.10","3","4","4","3","3","4","3","4","4","3","4","4","2","4","4","4","2","2","5","4","2","4","2","3","2","2","2","2","2","1","0","0","1","0","0","0","1","0","1","1","0","1","0","1","5","2","2","2","4","3","4","4","2","4","2","766966737248980993","吴","697","","","","match","","","","","","","","","","","","","","key","j","22.514394736842263","640","396","j","true","match","img/square.png","方形","方形","ALT1_2","prac_ALT1_2","","","","","","","","","","","",""
"null","<span style='color:GreenYellow; font-size: 70px;'>正确! </span>","null","html-keyboard-response","30","190435","0.0-7.0-1.0-1.0-0.0-1.10","3","4","4","3","3","4","3","4","4","3","4","4","2","4","4","4","2","2","5","4","2","4","2","3","2","2","2","2","2","1","0","0","1","0","0","0","1","0","1","1","0","1","0","1","5","2","2","2","4","3","4","4","2","4","2","766966737248980993","吴","697","","","","","","","","","","","","","","","","","","","","","","","","","","","","","","feedback_test","","","","","","","","","","","",""
"866","","f","psychophysics","31","192304","0.0-7.0-1.0-1.0-0.0-0.11","3","4","4","3","3","4","3","4","4","3","4","4","2","4","4","4","2","2","5","4","2","4","2","3","2","2","2","2","2","1","0","0","1","0","0","0","1","0","1","1","0","1","0","1","5","2","2","2","4","3","4","4","2","4","2","766966737248980993","吴","697","","","","nonmatch","","","","","","","","","","","","","","key","f","22.770691358024774","640","396","f","true","nonmatch","img/hexagon.png","圆形","六边","ALT1_2","prac_ALT1_2","","","","","","","","","","","",""
"null","<span style='color:GreenYellow; font-size: 70px;'>正确! </span>","null","html-keyboard-response","32","192805","0.0-7.0-1.0-1.0-0.0-1.11","3","4","4","3","3","4","3","4","4","3","4","4","2","4","4","4","2","2","5","4","2","4","2","3","2","2","2","2","2","1","0","0","1","0","0","0","1","0","1","1","0","1","0","1","5","2","2","2","4","3","4","4","2","4","2","766966737248980993","吴","697","","","","","","","","","","","","","","","","","","","","","","","","","","","","","","feedback_test","","","","","","","","","","","",""
"951","","j","psychophysics","33","194759","0.0-7.0-1.0-1.0-0.0-0.12","3","4","4","3","3","4","3","4","4","3","4","4","2","4","4","4","2","2","5","4","2","4","2","3","2","2","2","2","2","1","0","0","1","0","0","0","1","0","1","1","0","1","0","1","5","2","2","2","4","3","4","4","2","4","2","766966737248980993","吴","697","","","","match","","","","","","","","","","","","","","key","j","22.48039534883702","640","396","j","true","match","img/hexagon.png","六边","六边","ALT1_2","prac_ALT1_2","","","","","","","","","","","",""
"null","<span style='color:GreenYellow; font-size: 70px;'>正确! </span>","null","html-keyboard-response","34","195260","0.0-7.0-1.0-1.0-0.0-1.12","3","4","4","3","3","4","3","4","4","3","4","4","2","4","4","4","2","2","5","4","2","4","2","3","2","2","2","2","2","1","0","0","1","0","0","0","1","0","1","1","0","1","0","1","5","2","2","2","4","3","4","4","2","4","2","766966737248980993","吴","697","","","","","","","","","","","","","","","","","","","","","","","","","","","","","","feedback_test","","","","","","","","","","","",""
"1050","","f","psychophysics","35","197312","0.0-7.0-1.0-1.0-0.0-0.13","3","4","4","3","3","4","3","4","4","3","4","4","2","4","4","4","2","2","5","4","2","4","2","3","2","2","2","2","2","1","0","0","1","0","0","0","1","0","1","1","0","1","0","1","5","2","2","2","4","3","4","4","2","4","2","766966737248980993","吴","697","","","","nonmatch","","","","","","","","","","","","","","key","f","22.22199999999989","640","396","j","false","match","img/diamond.png","菱形","菱形","ALT1_2","prac_ALT1_2","","","","","","","","","","","",""
"null","<span style='color:red; font-size: 70px;'>错误! </span>","null","html-keyboard-response","36","197813","0.0-7.0-1.0-1.0-0.0-1.13","3","4","4","3","3","4","3","4","4","3","4","4","2","4","4","4","2","2","5","4","2","4","2","3","2","2","2","2","2","1","0","0","1","0","0","0","1","0","1","1","0","1","0","1","5","2","2","2","4","3","4","4","2","4","2","766966737248980993","吴","697","","","","","","","","","","","","","","","","","","","","","","","","","","","","","","feedback_test","","","","","","","","","","","",""
"788","","j","psychophysics","37","199603","0.0-7.0-1.0-1.0-0.0-0.14","3","4","4","3","3","4","3","4","4","3","4","4","2","4","4","4","2","2","5","4","2","4","2","3","2","2","2","2","2","1","0","0","1","0","0","0","1","0","1","1","0","1","0","1","5","2","2","2","4","3","4","4","2","4","2","766966737248980993","吴","697","","","","match","","","","","","","","","","","","","","key","j","22.222000000000005","640","396","j","true","match","img/circle.png","圆形","圆形","ALT1_2","prac_ALT1_2","","","","","","","","","","","",""
"null","<span style='color:GreenYellow; font-size: 70px;'>正确! </span>","null","html-keyboard-response","38","200108","0.0-7.0-1.0-1.0-0.0-1.14","3","4","4","3","3","4","3","4","4","3","4","4","2","4","4","4","2","2","5","4","2","4","2","3","2","2","2","2","2","1","0","0","1","0","0","0","1","0","1","1","0","1","0","1","5","2","2","2","4","3","4","4","2","4","2","766966737248980993","吴","697","","","","","","","","","","","","","","","","","","","","","","","","","","","","","","feedback_test","","","","","","","","","","","",""
"753","","j","psychophysics","39","201865","0.0-7.0-1.0-1.0-0.0-0.15","3","4","4","3","3","4","3","4","4","3","4","4","2","4","4","4","2","2","5","4","2","4","2","3","2","2","2","2","2","1","0","0","1","0","0","0","1","0","1","1","0","1","0","1","5","2","2","2","4","3","4","4","2","4","2","766966737248980993","吴","697","","","","match","","","","","","","","","","","","","","key","j","22.506897435897443","640","396","j","true","match","img/hexagon.png","六边","六边","ALT1_2","prac_ALT1_2","","","","","","","","","","","",""
"null","<span style='color:GreenYellow; font-size: 70px;'>正确! </span>","null","html-keyboard-response","40","202367","0.0-7.0-1.0-1.0-0.0-1.15","3","4","4","3","3","4","3","4","4","3","4","4","2","4","4","4","2","2","5","4","2","4","2","3","2","2","2","2","2","1","0","0","1","0","0","0","1","0","1","1","0","1","0","1","5","2","2","2","4","3","4","4","2","4","2","766966737248980993","吴","697","","","","","","","","","","","","","","","","","","","","","","","","","","","","","","feedback_test","","","","","","","","","","","",""
"717","","j","psychophysics","41","204086","0.0-7.0-1.0-1.0-0.0-0.16","3","4","4","3","3","4","3","4","4","3","4","4","2","4","4","4","2","2","5","4","2","4","2","3","2","2","2","2","2","1","0","0","1","0","0","0","1","0","1","1","0","1","0","1","5","2","2","2","4","3","4","4","2","4","2","766966737248980993","吴","697","","","","match","","","","","","","","","","","","","","key","j","22.22200000000004","640","396","j","true","match","img/circle.png","圆形","圆形","ALT1_2","prac_ALT1_2","","","","","","","","","","","",""
"null","<span style='color:GreenYellow; font-size: 70px;'>正确! </span>","null","html-keyboard-response","42","204587","0.0-7.0-1.0-1.0-0.0-1.16","3","4","4","3","3","4","3","4","4","3","4","4","2","4","4","4","2","2","5","4","2","4","2","3","2","2","2","2","2","1","0","0","1","0","0","0","1","0","1","1","0","1","0","1","5","2","2","2","4","3","4","4","2","4","2","766966737248980993","吴","697","","","","","","","","","","","","","","","","","","","","","","","","","","","","","","feedback_test","","","","","","","","","","","",""
"802","","j","psychophysics","43","206391","0.0-7.0-1.0-1.0-0.0-0.17","3","4","4","3","3","4","3","4","4","3","4","4","2","4","4","4","2","2","5","4","2","4","2","3","2","2","2","2","2","1","0","0","1","0","0","0","1","0","1","1","0","1","0","1","5","2","2","2","4","3","4","4","2","4","2","766966737248980993","吴","697","","","","match","","","","","","","","","","","","","","key","j","22.222000000000005","640","396","f","false","nonmatch","img/diamond.png","六边","菱形","ALT1_2","prac_ALT1_2","","","","","","","","","","","",""
"null","<span style='color:red; font-size: 70px;'>错误! </span>","null","html-keyboard-response","44","206892","0.0-7.0-1.0-1.0-0.0-1.17","3","4","4","3","3","4","3","4","4","3","4","4","2","4","4","4","2","2","5","4","2","4","2","3","2","2","2","2","2","1","0","0","1","0","0","0","1","0","1","1","0","1","0","1","5","2","2","2","4","3","4","4","2","4","2","766966737248980993","吴","697","","","","","","","","","","","","","","","","","","","","","","","","","","","","","","feedback_test","","","","","","","","","","","",""
"713","","j","psychophysics","45","208607","0.0-7.0-1.0-1.0-0.0-0.18","3","4","4","3","3","4","3","4","4","3","4","4","2","4","4","4","2","2","5","4","2","4","2","3","2","2","2","2","2","1","0","0","1","0","0","0","1","0","1","1","0","1","0","1","5","2","2","2","4","3","4","4","2","4","2","766966737248980993","吴","697","","","","match","","","","","","","","","","","","","","key","j","22.22200000000004","640","396","j","true","match","img/square.png","方形","方形","ALT1_2","prac_ALT1_2","","","","","","","","","","","",""
"null","<span style='color:GreenYellow; font-size: 70px;'>正确! </span>","null","html-keyboard-response","46","209108","0.0-7.0-1.0-1.0-0.0-1.18","3","4","4","3","3","4","3","4","4","3","4","4","2","4","4","4","2","2","5","4","2","4","2","3","2","2","2","2","2","1","0","0","1","0","0","0","1","0","1","1","0","1","0","1","5","2","2","2","4","3","4","4","2","4","2","766966737248980993","吴","697","","","","","","","","","","","","","","","","","","","","","","","","","","","","","","feedback_test","","","","","","","","","","","",""
"785","","j","psychophysics","47","210895","0.0-7.0-1.0-1.0-0.0-0.19","3","4","4","3","3","4","3","4","4","3","4","4","2","4","4","4","2","2","5","4","2","4","2","3","2","2","2","2","2","1","0","0","1","0","0","0","1","0","1","1","0","1","0","1","5","2","2","2","4","3","4","4","2","4","2","766966737248980993","吴","697","","","","match","","","","","","","","","","","","","","key","j","22.222000000000005","640","396","j","true","match","img/hexagon.png","六边","六边","ALT1_2","prac_ALT1_2","","","","","","","","","","","",""
"null","<span style='color:GreenYellow; font-size: 70px;'>正确! </span>","null","html-keyboard-response","48","211396","0.0-7.0-1.0-1.0-0.0-1.19","3","4","4","3","3","4","3","4","4","3","4","4","2","4","4","4","2","2","5","4","2","4","2","3","2","2","2","2","2","1","0","0","1","0","0","0","1","0","1","1","0","1","0","1","5","2","2","2","4","3","4","4","2","4","2","766966737248980993","吴","697","","","","","","","","","","","","","","","","","","","","","","","","","","","","","","feedback_test","","","","","","","","","","","",""
"907","","f","psychophysics","49","213305","0.0-7.0-1.0-1.0-0.0-0.20","3","4","4","3","3","4","3","4","4","3","4","4","2","4","4","4","2","2","5","4","2","4","2","3","2","2","2","2","2","1","0","0","1","0","0","0","1","0","1","1","0","1","0","1","5","2","2","2","4","3","4","4","2","4","2","766966737248980993","吴","697","","","","nonmatch","","","","","","","","","","","","","","key","f","22.222000000000083","640","396","f","true","nonmatch","img/square.png","菱形","方形","ALT1_2","prac_ALT1_2","","","","","","","","","","","",""
"null","<span style='color:GreenYellow; font-size: 70px;'>正确! </span>","null","html-keyboard-response","50","213806","0.0-7.0-1.0-1.0-0.0-1.20","3","4","4","3","3","4","3","4","4","3","4","4","2","4","4","4","2","2","5","4","2","4","2","3","2","2","2","2","2","1","0","0","1","0","0","0","1","0","1","1","0","1","0","1","5","2","2","2","4","3","4","4","2","4","2","766966737248980993","吴","697","","","","","","","","","","","","","","","","","","","","","","","","","","","","","","feedback_test","","","","","","","","","","","",""
"964","","f","psychophysics","51","215774","0.0-7.0-1.0-1.0-0.0-0.21","3","4","4","3","3","4","3","4","4","3","4","4","2","4","4","4","2","2","5","4","2","4","2","3","2","2","2","2","2","1","0","0","1","0","0","0","1","0","1","1","0","1","0","1","5","2","2","2","4","3","4","4","2","4","2","766966737248980993","吴","697","","","","nonmatch","","","","","","","","","","","","","","key","f","22.221999999999944","640","396","f","true","nonmatch","img/square.png","六边","方形","ALT1_2","prac_ALT1_2","","","","","","","","","","","",""
"null","<span style='color:GreenYellow; font-size: 70px;'>正确! </span>","null","html-keyboard-response","52","216275","0.0-7.0-1.0-1.0-0.0-1.21","3","4","4","3","3","4","3","4","4","3","4","4","2","4","4","4","2","2","5","4","2","4","2","3","2","2","2","2","2","1","0","0","1","0","0","0","1","0","1","1","0","1","0","1","5","2","2","2","4","3","4","4","2","4","2","766966737248980993","吴","697","","","","","","","","","","","","","","","","","","","","","","","","","","","","","","feedback_test","","","","","","","","","","","",""
"865","","f","psychophysics","53","218143","0.0-7.0-1.0-1.0-0.0-0.22","3","4","4","3","3","4","3","4","4","3","4","4","2","4","4","4","2","2","5","4","2","4","2","3","2","2","2","2","2","1","0","0","1","0","0","0","1","0","1","1","0","1","0","1","5","2","2","2","4","3","4","4","2","4","2","766966737248980993","吴","697","","","","nonmatch","","","","","","","","","","","","","","key","f","22.222000000000115","640","396","f","true","nonmatch","img/circle.png","六边","圆形","ALT1_2","prac_ALT1_2","","","","","","","","","","","",""
"null","<span style='color:GreenYellow; font-size: 70px;'>正确! </span>","null","html-keyboard-response","54","218645","0.0-7.0-1.0-1.0-0.0-1.22","3","4","4","3","3","4","3","4","4","3","4","4","2","4","4","4","2","2","5","4","2","4","2","3","2","2","2","2","2","1","0","0","1","0","0","0","1","0","1","1","0","1","0","1","5","2","2","2","4","3","4","4","2","4","2","766966737248980993","吴","697","","","","","","","","","","","","","","","","","","","","","","","","","","","","","","feedback_test","","","","","","","","","","","",""
"967","","f","psychophysics","55","220615","0.0-7.0-1.0-1.0-0.0-0.23","3","4","4","3","3","4","3","4","4","3","4","4","2","4","4","4","2","2","5","4","2","4","2","3","2","2","2","2","2","1","0","0","1","0","0","0","1","0","1","1","0","1","0","1","5","2","2","2","4","3","4","4","2","4","2","766966737248980993","吴","697","","","","nonmatch","","","","","","","","","","","","","","key","f","22.22200000000015","640","396","f","true","nonmatch","img/hexagon.png","方形","六边","ALT1_2","prac_ALT1_2","","","","","","","","","","","",""
"null","<span style='color:GreenYellow; font-size: 70px;'>正确! </span>","null","html-keyboard-response","56","221116","0.0-7.0-1.0-1.0-0.0-1.23","3","4","4","3","3","4","3","4","4","3","4","4","2","4","4","4","2","2","5","4","2","4","2","3","2","2","2","2","2","1","0","0","1","0","0","0","1","0","1","1","0","1","0","1","5","2","2","2","4","3","4","4","2","4","2","766966737248980993","吴","697","","","","","","","","","","","","","","","","","","","","","","","","","","","","","","feedback_test","","","","","","","","","","","",""
"884","","f","psychophysics","57","223006","0.0-7.0-1.0-1.0-0.0-0.24","3","4","4","3","3","4","3","4","4","3","4","4","2","4","4","4","2","2","5","4","2","4","2","3","2","2","2","2","2","1","0","0","1","0","0","0","1","0","1","1","0","1","0","1","5","2","2","2","4","3","4","4","2","4","2","766966737248980993","吴","697","","","","nonmatch","","","","","","","","","","","","","","key","f","22.221999999999973","640","396","f","true","nonmatch","img/circle.png","菱形","圆形","ALT1_2","prac_ALT1_2","","","","","","","","","","","",""
"null","<span style='color:GreenYellow; font-size: 70px;'>正确! </span>","null","html-keyboard-response","58","223508","0.0-7.0-1.0-1.0-0.0-1.24","3","4","4","3","3","4","3","4","4","3","4","4","2","4","4","4","2","2","5","4","2","4","2","3","2","2","2","2","2","1","0","0","1","0","0","0","1","0","1","1","0","1","0","1","5","2","2","2","4","3","4","4","2","4","2","766966737248980993","吴","697","","","","","","","","","","","","","","","","","","","","","","","","","","","","","","feedback_test","","","","","","","","","","","",""
"873","","f","psychophysics","59","225383","0.0-7.0-1.0-1.0-0.0-0.25","3","4","4","3","3","4","3","4","4","3","4","4","2","4","4","4","2","2","5","4","2","4","2","3","2","2","2","2","2","1","0","0","1","0","0","0","1","0","1","1","0","1","0","1","5","2","2","2","4","3","4","4","2","4","2","766966737248980993","吴","697","","","","nonmatch","","","","","","","","","","","","","","key","f","22.222000000000083","640","396","f","true","nonmatch","img/diamond.png","圆形","菱形","ALT1_2","prac_ALT1_2","","","","","","","","","","","",""
"null","<span style='color:GreenYellow; font-size: 70px;'>正确! </span>","null","html-keyboard-response","60","225884","0.0-7.0-1.0-1.0-0.0-1.25","3","4","4","3","3","4","3","4","4","3","4","4","2","4","4","4","2","2","5","4","2","4","2","3","2","2","2","2","2","1","0","0","1","0","0","0","1","0","1","1","0","1","0","1","5","2","2","2","4","3","4","4","2","4","2","766966737248980993","吴","697","","","","","","","","","","","","","","","","","","","","","","","","","","","","","","feedback_test","","","","","","","","","","","",""
"945","","j","psychophysics","61","227832","0.0-7.0-1.0-1.0-0.0-0.26","3","4","4","3","3","4","3","4","4","3","4","4","2","4","4","4","2","2","5","4","2","4","2","3","2","2","2","2","2","1","0","0","1","0","0","0","1","0","1","1","0","1","0","1","5","2","2","2","4","3","4","4","2","4","2","766966737248980993","吴","697","","","","match","","","","","","","","","","","","","","key","j","22.222000000000047","640","396","j","true","match","img/diamond.png","菱形","菱形","ALT1_2","prac_ALT1_2","","","","","","","","","","","",""
"null","<span style='color:GreenYellow; font-size: 70px;'>正确! </span>","null","html-keyboard-response","62","228333","0.0-7.0-1.0-1.0-0.0-1.26","3","4","4","3","3","4","3","4","4","3","4","4","2","4","4","4","2","2","5","4","2","4","2","3","2","2","2","2","2","1","0","0","1","0","0","0","1","0","1","1","0","1","0","1","5","2","2","2","4","3","4","4","2","4","2","766966737248980993","吴","697","","","","","","","","","","","","","","","","","","","","","","","","","","","","","","feedback_test","","","","","","","","","","","",""
"783","","j","psychophysics","63","230118","0.0-7.0-1.0-1.0-0.0-0.27","3","4","4","3","3","4","3","4","4","3","4","4","2","4","4","4","2","2","5","4","2","4","2","3","2","2","2","2","2","1","0","0","1","0","0","0","1","0","1","1","0","1","0","1","5","2","2","2","4","3","4","4","2","4","2","766966737248980993","吴","697","","","","match","","","","","","","","","","","","","","key","j","22.222000000000005","640","396","j","true","match","img/circle.png","圆形","圆形","ALT1_2","prac_ALT1_2","","","","","","","","","","","",""
"null","<span style='color:GreenYellow; font-size: 70px;'>正确! </span>","null","html-keyboard-response","64","230620","0.0-7.0-1.0-1.0-0.0-1.27","3","4","4","3","3","4","3","4","4","3","4","4","2","4","4","4","2","2","5","4","2","4","2","3","2","2","2","2","2","1","0","0","1","0","0","0","1","0","1","1","0","1","0","1","5","2","2","2","4","3","4","4","2","4","2","766966737248980993","吴","697","","","","","","","","","","","","","","","","","","","","","","","","","","","","","","feedback_test","","","","","","","","","","","",""
"784","","f","psychophysics","65","232407","0.0-7.0-1.0-1.0-0.0-0.28","3","4","4","3","3","4","3","4","4","3","4","4","2","4","4","4","2","2","5","4","2","4","2","3","2","2","2","2","2","1","0","0","1","0","0","0","1","0","1","1","0","1","0","1","5","2","2","2","4","3","4","4","2","4","2","766966737248980993","吴","697","","","","nonmatch","","","","","","","","","","","","","","key","f","22.222000000000005","640","396","f","true","nonmatch","img/square.png","圆形","方形","ALT1_2","prac_ALT1_2","","","","","","","","","","","",""
"null","<span style='color:GreenYellow; font-size: 70px;'>正确! </span>","null","html-keyboard-response","66","232908","0.0-7.0-1.0-1.0-0.0-1.28","3","4","4","3","3","4","3","4","4","3","4","4","2","4","4","4","2","2","5","4","2","4","2","3","2","2","2","2","2","1","0","0","1","0","0","0","1","0","1","1","0","1","0","1","5","2","2","2","4","3","4","4","2","4","2","766966737248980993","吴","697","","","","","","","","","","","","","","","","","","","","","","","","","","","","","","feedback_test","","","","","","","","","","","",""
"728","","j","psychophysics","67","234639","0.0-7.0-1.0-1.0-0.0-0.29","3","4","4","3","3","4","3","4","4","3","4","4","2","4","4","4","2","2","5","4","2","4","2","3","2","2","2","2","2","1","0","0","1","0","0","0","1","0","1","1","0","1","0","1","5","2","2","2","4","3","4","4","2","4","2","766966737248980993","吴","697","","","","match","","","","","","","","","","","","","","key","j","22.221999999999923","640","396","j","true","match","img/circle.png","圆形","圆形","ALT1_2","prac_ALT1_2","","","","","","","","","","","",""
"null","<span style='color:GreenYellow; font-size: 70px;'>正确! </span>","null","html-keyboard-response","68","235140","0.0-7.0-1.0-1.0-0.0-1.29","3","4","4","3","3","4","3","4","4","3","4","4","2","4","4","4","2","2","5","4","2","4","2","3","2","2","2","2","2","1","0","0","1","0","0","0","1","0","1","1","0","1","0","1","5","2","2","2","4","3","4","4","2","4","2","766966737248980993","吴","697","","","","","","","","","","","","","","","","","","","","","","","","","","","","","","feedback_test","","","","","","","","","","","",""
"922","","f","psychophysics","69","237063","0.0-7.0-1.0-1.0-0.0-0.30","3","4","4","3","3","4","3","4","4","3","4","4","2","4","4","4","2","2","5","4","2","4","2","3","2","2","2","2","2","1","0","0","1","0","0","0","1","0","1","1","0","1","0","1","5","2","2","2","4","3","4","4","2","4","2","766966737248980993","吴","697","","","","nonmatch","","","","","","","","","","","","","","key","f","22.221999999999973","640","396","f","true","nonmatch","img/square.png","菱形","方形","ALT1_2","prac_ALT1_2","","","","","","","","","","","",""
"null","<span style='color:GreenYellow; font-size: 70px;'>正确! </span>","null","html-keyboard-response","70","237565","0.0-7.0-1.0-1.0-0.0-1.30","3","4","4","3","3","4","3","4","4","3","4","4","2","4","4","4","2","2","5","4","2","4","2","3","2","2","2","2","2","1","0","0","1","0","0","0","1","0","1","1","0","1","0","1","5","2","2","2","4","3","4","4","2","4","2","766966737248980993","吴","697","","","","","","","","","","","","","","","","","","","","","","","","","","","","","","feedback_test","","","","","","","","","","","",""
"1097","","f","psychophysics","71","239665","0.0-7.0-1.0-1.0-0.0-0.31","3","4","4","3","3","4","3","4","4","3","4","4","2","4","4","4","2","2","5","4","2","4","2","3","2","2","2","2","2","1","0","0","1","0","0","0","1","0","1","1","0","1","0","1","5","2","2","2","4","3","4","4","2","4","2","766966737248980993","吴","697","","","","nonmatch","","","","","","","","","","","","","","key","f","22.22199999999999","640","396","f","true","nonmatch","img/hexagon.png","圆形","六边","ALT1_2","prac_ALT1_2","","","","","","","","","","","",""
"null","<span style='color:GreenYellow; font-size: 70px;'>正确! </span>","null","html-keyboard-response","72","240168","0.0-7.0-1.0-1.0-0.0-1.31","3","4","4","3","3","4","3","4","4","3","4","4","2","4","4","4","2","2","5","4","2","4","2","3","2","2","2","2","2","1","0","0","1","0","0","0","1","0","1","1","0","1","0","1","5","2","2","2","4","3","4","4","2","4","2","766966737248980993","吴","697","","","","","","","","","","","","","","","","","","","","","","","","","","","","","","feedback_test","","","","","","","","","","","",""
"845","","f","psychophysics","73","242016","0.0-7.0-1.0-1.0-0.0-0.32","3","4","4","3","3","4","3","4","4","3","4","4","2","4","4","4","2","2","5","4","2","4","2","3","2","2","2","2","2","1","0","0","1","0","0","0","1","0","1","1","0","1","0","1","5","2","2","2","4","3","4","4","2","4","2","766966737248980993","吴","697","","","","nonmatch","","","","","","","","","","","","","","key","f","22.222000000000005","640","396","f","true","nonmatch","img/square.png","六边","方形","ALT1_2","prac_ALT1_2","","","","","","","","","","","",""
"null","<span style='color:GreenYellow; font-size: 70px;'>正确! </span>","null","html-keyboard-response","74","242519","0.0-7.0-1.0-1.0-0.0-1.32","3","4","4","3","3","4","3","4","4","3","4","4","2","4","4","4","2","2","5","4","2","4","2","3","2","2","2","2","2","1","0","0","1","0","0","0","1","0","1","1","0","1","0","1","5","2","2","2","4","3","4","4","2","4","2","766966737248980993","吴","697","","","","","","","","","","","","","","","","","","","","","","","","","","","","","","feedback_test","","","","","","","","","","","",""
"742","","j","psychophysics","75","244264","0.0-7.0-1.0-1.0-0.0-0.33","3","4","4","3","3","4","3","4","4","3","4","4","2","4","4","4","2","2","5","4","2","4","2","3","2","2","2","2","2","1","0","0","1","0","0","0","1","0","1","1","0","1","0","1","5","2","2","2","4","3","4","4","2","4","2","766966737248980993","吴","697","","","","match","","","","","","","","","","","","","","key","j","22.221999999999777","640","396","j","true","match","img/square.png","方形","方形","ALT1_2","prac_ALT1_2","","","","","","","","","","","",""
"null","<span style='color:GreenYellow; font-size: 70px;'>正确! </span>","null","html-keyboard-response","76","244765","0.0-7.0-1.0-1.0-0.0-1.33","3","4","4","3","3","4","3","4","4","3","4","4","2","4","4","4","2","2","5","4","2","4","2","3","2","2","2","2","2","1","0","0","1","0","0","0","1","0","1","1","0","1","0","1","5","2","2","2","4","3","4","4","2","4","2","766966737248980993","吴","697","","","","","","","","","","","","","","","","","","","","","","","","","","","","","","feedback_test","","","","","","","","","","","",""
"873","","j","psychophysics","77","246640","0.0-7.0-1.0-1.0-0.0-0.34","3","4","4","3","3","4","3","4","4","3","4","4","2","4","4","4","2","2","5","4","2","4","2","3","2","2","2","2","2","1","0","0","1","0","0","0","1","0","1","1","0","1","0","1","5","2","2","2","4","3","4","4","2","4","2","766966737248980993","吴","697","","","","match","","","","","","","","","","","","","","key","j","22.222000000000083","640","396","j","true","match","img/square.png","方形","方形","ALT1_2","prac_ALT1_2","","","","","","","","","","","",""
"null","<span style='color:GreenYellow; font-size: 70px;'>正确! </span>","null","html-keyboard-response","78","247142","0.0-7.0-1.0-1.0-0.0-1.34","3","4","4","3","3","4","3","4","4","3","4","4","2","4","4","4","2","2","5","4","2","4","2","3","2","2","2","2","2","1","0","0","1","0","0","0","1","0","1","1","0","1","0","1","5","2","2","2","4","3","4","4","2","4","2","766966737248980993","吴","697","","","","","","","","","","","","","","","","","","","","","","","","","","","","","","feedback_test","","","","","","","","","","","",""
"720","","j","psychophysics","79","248864","0.0-7.0-1.0-1.0-0.0-0.35","3","4","4","3","3","4","3","4","4","3","4","4","2","4","4","4","2","2","5","4","2","4","2","3","2","2","2","2","2","1","0","0","1","0","0","0","1","0","1","1","0","1","0","1","5","2","2","2","4","3","4","4","2","4","2","766966737248980993","吴","697","","","","match","","","","","","","","","","","","","","key","j","22.518293333332984","640","396","j","true","match","img/square.png","方形","方形","ALT1_2","prac_ALT1_2","","","","","","","","","","","",""
"null","<span style='color:GreenYellow; font-size: 70px;'>正确! </span>","null","html-keyboard-response","80","249366","0.0-7.0-1.0-1.0-0.0-1.35","3","4","4","3","3","4","3","4","4","3","4","4","2","4","4","4","2","2","5","4","2","4","2","3","2","2","2","2","2","1","0","0","1","0","0","0","1","0","1","1","0","1","0","1","5","2","2","2","4","3","4","4","2","4","2","766966737248980993","吴","697","","","","","","","","","","","","","","","","","","","","","","","","","","","","","","feedback_test","","","","","","","","","","","",""
"820","","j","psychophysics","81","251193","0.0-7.0-1.0-1.0-0.0-0.36","3","4","4","3","3","4","3","4","4","3","4","4","2","4","4","4","2","2","5","4","2","4","2","3","2","2","2","2","2","1","0","0","1","0","0","0","1","0","1","1","0","1","0","1","5","2","2","2","4","3","4","4","2","4","2","766966737248980993","吴","697","","","","match","","","","","","","","","","","","","","key","j","22.222000000000264","640","396","j","true","match","img/hexagon.png","六边","六边","ALT1_2","prac_ALT1_2","","","","","","","","","","","",""
"null","<span style='color:GreenYellow; font-size: 70px;'>正确! </span>","null","html-keyboard-response","82","251694","0.0-7.0-1.0-1.0-0.0-1.36","3","4","4","3","3","4","3","4","4","3","4","4","2","4","4","4","2","2","5","4","2","4","2","3","2","2","2","2","2","1","0","0","1","0","0","0","1","0","1","1","0","1","0","1","5","2","2","2","4","3","4","4","2","4","2","766966737248980993","吴","697","","","","","","","","","","","","","","","","","","","","","","","","","","","","","","feedback_test","","","","","","","","","","","",""
"711","","f","psychophysics","83","253407","0.0-7.0-1.0-1.0-0.0-0.37","3","4","4","3","3","4","3","4","4","3","4","4","2","4","4","4","2","2","5","4","2","4","2","3","2","2","2","2","2","1","0","0","1","0","0","0","1","0","1","1","0","1","0","1","5","2","2","2","4","3","4","4","2","4","2","766966737248980993","吴","697","","","","nonmatch","","","","","","","","","","","","","","key","f","22.22200000000004","640","396","f","true","nonmatch","img/circle.png","六边","圆形","ALT1_2","prac_ALT1_2","","","","","","","","","","","",""
"null","<span style='color:GreenYellow; font-size: 70px;'>正确! </span>","null","html-keyboard-response","84","253908","0.0-7.0-1.0-1.0-0.0-1.37","3","4","4","3","3","4","3","4","4","3","4","4","2","4","4","4","2","2","5","4","2","4","2","3","2","2","2","2","2","1","0","0","1","0","0","0","1","0","1","1","0","1","0","1","5","2","2","2","4","3","4","4","2","4","2","766966737248980993","吴","697","","","","","","","","","","","","","","","","","","","","","","","","","","","","","","feedback_test","","","","","","","","","","","",""
"721","","j","psychophysics","85","255631","0.0-7.0-1.0-1.0-0.0-0.38","3","4","4","3","3","4","3","4","4","3","4","4","2","4","4","4","2","2","5","4","2","4","2","3","2","2","2","2","2","1","0","0","1","0","0","0","1","0","1","1","0","1","0","1","5","2","2","2","4","3","4","4","2","4","2","766966737248980993","吴","697","","","","match","","","","","","","","","","","","","","key","j","22.22200000000004","640","396","j","true","match","img/circle.png","圆形","圆形","ALT1_2","prac_ALT1_2","","","","","","","","","","","",""
"null","<span style='color:GreenYellow; font-size: 70px;'>正确! </span>","null","html-keyboard-response","86","256133","0.0-7.0-1.0-1.0-0.0-1.38","3","4","4","3","3","4","3","4","4","3","4","4","2","4","4","4","2","2","5","4","2","4","2","3","2","2","2","2","2","1","0","0","1","0","0","0","1","0","1","1","0","1","0","1","5","2","2","2","4","3","4","4","2","4","2","766966737248980993","吴","697","","","","","","","","","","","","","","","","","","","","","","","","","","","","","","feedback_test","","","","","","","","","","","",""
"921","","f","psychophysics","87","258056","0.0-7.0-1.0-1.0-0.0-0.39","3","4","4","3","3","4","3","4","4","3","4","4","2","4","4","4","2","2","5","4","2","4","2","3","2","2","2","2","2","1","0","0","1","0","0","0","1","0","1","1","0","1","0","1","5","2","2","2","4","3","4","4","2","4","2","766966737248980993","吴","697","","","","nonmatch","","","","","","","","","","","","","","key","f","22.22200000000029","640","396","f","true","nonmatch","img/diamond.png","六边","菱形","ALT1_2","prac_ALT1_2","","","","","","","","","","","",""
"null","<span style='color:GreenYellow; font-size: 70px;'>正确! </span>","null","html-keyboard-response","88","258559","0.0-7.0-1.0-1.0-0.0-1.39","3","4","4","3","3","4","3","4","4","3","4","4","2","4","4","4","2","2","5","4","2","4","2","3","2","2","2","2","2","1","0","0","1","0","0","0","1","0","1","1","0","1","0","1","5","2","2","2","4","3","4","4","2","4","2","766966737248980993","吴","697","","","","","","","","","","","","","","","","","","","","","","","","","","","","","","feedback_test","","","","","","","","","","","",""
"839","","j","psychophysics","89","260401","0.0-7.0-1.0-1.0-0.0-0.40","3","4","4","3","3","4","3","4","4","3","4","4","2","4","4","4","2","2","5","4","2","4","2","3","2","2","2","2","2","1","0","0","1","0","0","0","1","0","1","1","0","1","0","1","5","2","2","2","4","3","4","4","2","4","2","766966737248980993","吴","697","","","","match","","","","","","","","","","","","","","key","j","22.221999999999753","640","396","j","true","match","img/diamond.png","菱形","菱形","ALT1_2","prac_ALT1_2","","","","","","","","","","","",""
"null","<span style='color:GreenYellow; font-size: 70px;'>正确! </span>","null","html-keyboard-response","90","260902","0.0-7.0-1.0-1.0-0.0-1.40","3","4","4","3","3","4","3","4","4","3","4","4","2","4","4","4","2","2","5","4","2","4","2","3","2","2","2","2","2","1","0","0","1","0","0","0","1","0","1","1","0","1","0","1","5","2","2","2","4","3","4","4","2","4","2","766966737248980993","吴","697","","","","","","","","","","","","","","","","","","","","","","","","","","","","","","feedback_test","","","","","","","","","","","",""
"689","","j","psychophysics","91","262593","0.0-7.0-1.0-1.0-0.0-0.41","3","4","4","3","3","4","3","4","4","3","4","4","2","4","4","4","2","2","5","4","2","4","2","3","2","2","2","2","2","1","0","0","1","0","0","0","1","0","1","1","0","1","0","1","5","2","2","2","4","3","4","4","2","4","2","766966737248980993","吴","697","","","","match","","","","","","","","","","","","","","key","j","22.222000000000197","640","396","j","true","match","img/diamond.png","菱形","菱形","ALT1_2","prac_ALT1_2","","","","","","","","","","","",""
"null","<span style='color:GreenYellow; font-size: 70px;'>正确! </span>","null","html-keyboard-response","92","263094","0.0-7.0-1.0-1.0-0.0-1.41","3","4","4","3","3","4","3","4","4","3","4","4","2","4","4","4","2","2","5","4","2","4","2","3","2","2","2","2","2","1","0","0","1","0","0","0","1","0","1","1","0","1","0","1","5","2","2","2","4","3","4","4","2","4","2","766966737248980993","吴","697","","","","","","","","","","","","","","","","","","","","","","","","","","","","","","feedback_test","","","","","","","","","","","",""
"929","","f","psychophysics","93","265026","0.0-7.0-1.0-1.0-0.0-0.42","3","4","4","3","3","4","3","4","4","3","4","4","2","4","4","4","2","2","5","4","2","4","2","3","2","2","2","2","2","1","0","0","1","0","0","0","1","0","1","1","0","1","0","1","5","2","2","2","4","3","4","4","2","4","2","766966737248980993","吴","697","","","","nonmatch","","","","","","","","","","","","","","key","f","22.221999999999838","640","396","f","true","nonmatch","img/hexagon.png","方形","六边","ALT1_2","prac_ALT1_2","","","","","","","","","","","",""
"null","<span style='color:GreenYellow; font-size: 70px;'>正确! </span>","null","html-keyboard-response","94","265528","0.0-7.0-1.0-1.0-0.0-1.42","3","4","4","3","3","4","3","4","4","3","4","4","2","4","4","4","2","2","5","4","2","4","2","3","2","2","2","2","2","1","0","0","1","0","0","0","1","0","1","1","0","1","0","1","5","2","2","2","4","3","4","4","2","4","2","766966737248980993","吴","697","","","","","","","","","","","","","","","","","","","","","","","","","","","","","","feedback_test","","","","","","","","","","","",""
"740","","f","psychophysics","95","267279","0.0-7.0-1.0-1.0-0.0-0.43","3","4","4","3","3","4","3","4","4","3","4","4","2","4","4","4","2","2","5","4","2","4","2","3","2","2","2","2","2","1","0","0","1","0","0","0","1","0","1","1","0","1","0","1","5","2","2","2","4","3","4","4","2","4","2","766966737248980993","吴","697","","","","nonmatch","","","","","","","","","","","","","","key","f","22.22199999999989","640","396","f","true","nonmatch","img/circle.png","方形","圆形","ALT1_2","prac_ALT1_2","","","","","","","","","","","",""
"null","<span style='color:GreenYellow; font-size: 70px;'>正确! </span>","null","html-keyboard-response","96","267780","0.0-7.0-1.0-1.0-0.0-1.43","3","4","4","3","3","4","3","4","4","3","4","4","2","4","4","4","2","2","5","4","2","4","2","3","2","2","2","2","2","1","0","0","1","0","0","0","1","0","1","1","0","1","0","1","5","2","2","2","4","3","4","4","2","4","2","766966737248980993","吴","697","","","","","","","","","","","","","","","","","","","","","","","","","","","","","","feedback_test","","","","","","","","","","","",""
"930","","f","psychophysics","97","269712","0.0-7.0-1.0-1.0-0.0-0.44","3","4","4","3","3","4","3","4","4","3","4","4","2","4","4","4","2","2","5","4","2","4","2","3","2","2","2","2","2","1","0","0","1","0","0","0","1","0","1","1","0","1","0","1","5","2","2","2","4","3","4","4","2","4","2","766966737248980993","吴","697","","","","nonmatch","","","","","","","","","","","","","","key","f","22.483435294117697","640","396","f","true","nonmatch","img/diamond.png","方形","菱形","ALT1_2","prac_ALT1_2","","","","","","","","","","","",""
"null","<span style='color:GreenYellow; font-size: 70px;'>正确! </span>","null","html-keyboard-response","98","270214","0.0-7.0-1.0-1.0-0.0-1.44","3","4","4","3","3","4","3","4","4","3","4","4","2","4","4","4","2","2","5","4","2","4","2","3","2","2","2","2","2","1","0","0","1","0","0","0","1","0","1","1","0","1","0","1","5","2","2","2","4","3","4","4","2","4","2","766966737248980993","吴","697","","","","","","","","","","","","","","","","","","","","","","","","","","","","","","feedback_test","","","","","","","","","","","",""
"767","","j","psychophysics","99","271983","0.0-7.0-1.0-1.0-0.0-0.45","3","4","4","3","3","4","3","4","4","3","4","4","2","4","4","4","2","2","5","4","2","4","2","3","2","2","2","2","2","1","0","0","1","0","0","0","1","0","1","1","0","1","0","1","5","2","2","2","4","3","4","4","2","4","2","766966737248980993","吴","697","","","","match","","","","","","","","","","","","","","key","j","22.222000000000637","640","396","j","true","match","img/hexagon.png","六边","六边","ALT1_2","prac_ALT1_2","","","","","","","","","","","",""
"null","<span style='color:GreenYellow; font-size: 70px;'>正确! </span>","null","html-keyboard-response","100","272486","0.0-7.0-1.0-1.0-0.0-1.45","3","4","4","3","3","4","3","4","4","3","4","4","2","4","4","4","2","2","5","4","2","4","2","3","2","2","2","2","2","1","0","0","1","0","0","0","1","0","1","1","0","1","0","1","5","2","2","2","4","3","4","4","2","4","2","766966737248980993","吴","697","","","","","","","","","","","","","","","","","","","","","","","","","","","","","","feedback_test","","","","","","","","","","","",""
"824","","f","psychophysics","101","274312","0.0-7.0-1.0-1.0-0.0-0.46","3","4","4","3","3","4","3","4","4","3","4","4","2","4","4","4","2","2","5","4","2","4","2","3","2","2","2","2","2","1","0","0","1","0","0","0","1","0","1","1","0","1","0","1","5","2","2","2","4","3","4","4","2","4","2","766966737248980993","吴","697","","","","nonmatch","","","","","","","","","","","","","","key","f","22.222000000000115","640","396","f","true","nonmatch","img/hexagon.png","菱形","六边","ALT1_2","prac_ALT1_2","","","","","","","","","","","",""
"null","<span style='color:GreenYellow; font-size: 70px;'>正确! </span>","null","html-keyboard-response","102","274813","0.0-7.0-1.0-1.0-0.0-1.46","3","4","4","3","3","4","3","4","4","3","4","4","2","4","4","4","2","2","5","4","2","4","2","3","2","2","2","2","2","1","0","0","1","0","0","0","1","0","1","1","0","1","0","1","5","2","2","2","4","3","4","4","2","4","2","766966737248980993","吴","697","","","","","","","","","","","","","","","","","","","","","","","","","","","","","","feedback_test","","","","","","","","","","","",""
"817","","j","psychophysics","103","276632","0.0-7.0-1.0-1.0-0.0-0.47","3","4","4","3","3","4","3","4","4","3","4","4","2","4","4","4","2","2","5","4","2","4","2","3","2","2","2","2","2","1","0","0","1","0","0","0","1","0","1","1","0","1","0","1","5","2","2","2","4","3","4","4","2","4","2","766966737248980993","吴","697","","","","match","","","","","","","","","","","","","","key","j","22.222000000000115","640","396","j","true","match","img/hexagon.png","六边","六边","ALT1_2","prac_ALT1_2","","","","","","","","","","","",""
"null","<span style='color:GreenYellow; font-size: 70px;'>正确! </span>","null","html-keyboard-response","104","277133","0.0-7.0-1.0-1.0-0.0-1.47","3","4","4","3","3","4","3","4","4","3","4","4","2","4","4","4","2","2","5","4","2","4","2","3","2","2","2","2","2","1","0","0","1","0","0","0","1","0","1","1","0","1","0","1","5","2","2","2","4","3","4","4","2","4","2","766966737248980993","吴","697","","","","","","","","","","","","","","","","","","","","","","","","","","","","","","feedback_test","","","","","","","","","","","",""
"4525","<style>.context{color:white; font-size: 35px; line-height:40px}</style>                          <div><p class='context'>您正确回答了85% 的试次。</p><p class='context'>您的平均反应时为833毫秒。</p><p class='context'>恭喜您完成练习。按空格键进入正式实验。</p><p class='footer' style='font-size: 35px; line-height:40px;'>请在进入正式实验实验之前将您的<span style='color: lightgreen;'>食指</span>放在电脑键盘的相应键位上进行按键。</p>"," ","html-keyboard-response","105","281673","0.0-7.0-1.0-2.0","3","4","4","3","3","4","3","4","4","3","4","4","2","4","4","4","2","2","5","4","2","4","2","3","2","2","2","2","2","1","0","0","1","0","0","0","1","0","1","1","0","1","0","1","5","2","2","2","4","3","4","4","2","4","2","766966737248980993","吴","697","","","","","","","","","","","","","","","","","","","","","","","","","","","","","","","","","","","","","","","","","",""
"2034","
  <p style='color: white; font-size: 22px'>请您将手指放在按键上，准备进入正式的匹配任务。</p>
  <p> <div style = ""color: green""><按空格键进入下一阶段的匹配任务></div></p>
  "," ","html-keyboard-response","106","283728","0.0-7.0-1.0-3.0","3","4","4","3","3","4","3","4","4","3","4","4","2","4","4","4","2","2","5","4","2","4","2","3","2","2","2","2","2","1","0","0","1","0","0","0","1","0","1","1","0","1","0","1","5","2","2","2","4","3","4","4","2","4","2","766966737248980993","吴","697","","","","","","","","","","","","","","","","","","","","","","","","","","","","","","","","","","","","","","","","","",""
"860","","j","psychophysics","107","285593","0.0-7.0-1.0-4.0-0.0-0.0","3","4","4","3","3","4","3","4","4","3","4","4","2","4","4","4","2","2","5","4","2","4","2","3","2","2","2","2","2","1","0","0","1","0","0","0","1","0","1","1","0","1","0","1","5","2","2","2","4","3","4","4","2","4","2","766966737248980993","吴","697","","","","match","","","","","","","","","","","","","","key","j","22.49634567901196","640","396","j","true","match","img/hexagon.png","六边","六边","ALT1","formal_ALT1_2","","","","","","","","","","","",""
"null","<span style='color:GreenYellow; font-size: 70px;'>正确! </span>","null","html-keyboard-response","108","286094","0.0-7.0-1.0-4.0-0.0-1.0","3","4","4","3","3","4","3","4","4","3","4","4","2","4","4","4","2","2","5","4","2","4","2","3","2","2","2","2","2","1","0","0","1","0","0","0","1","0","1","1","0","1","0","1","5","2","2","2","4","3","4","4","2","4","2","766966737248980993","吴","697","","","","","","","","","","","","","","","","","","","","","","","","","","","","","","feedback_test","","","","","","","","","","","",""
"968","","f","psychophysics","109","288066","0.0-7.0-1.0-4.0-0.0-0.1","3","4","4","3","3","4","3","4","4","3","4","4","2","4","4","4","2","2","5","4","2","4","2","3","2","2","2","2","2","1","0","0","1","0","0","0","1","0","1","1","0","1","0","1","5","2","2","2","4","3","4","4","2","4","2","766966737248980993","吴","697","","","","nonmatch","","","","","","","","","","","","","","key","f","22.221999999999372","640","396","f","true","nonmatch","img/hexagon.png","方形","六边","ALT1","formal_ALT1_2","","","","","","","","","","","",""
"null","<span style='color:GreenYellow; font-size: 70px;'>正确! </span>","null","html-keyboard-response","110","288567","0.0-7.0-1.0-4.0-0.0-1.1","3","4","4","3","3","4","3","4","4","3","4","4","2","4","4","4","2","2","5","4","2","4","2","3","2","2","2","2","2","1","0","0","1","0","0","0","1","0","1","1","0","1","0","1","5","2","2","2","4","3","4","4","2","4","2","766966737248980993","吴","697","","","","","","","","","","","","","","","","","","","","","","","","","","","","","","feedback_test","","","","","","","","","","","",""
"742","","f","psychophysics","111","290312","0.0-7.0-1.0-4.0-0.0-0.2","3","4","4","3","3","4","3","4","4","3","4","4","2","4","4","4","2","2","5","4","2","4","2","3","2","2","2","2","2","1","0","0","1","0","0","0","1","0","1","1","0","1","0","1","5","2","2","2","4","3","4","4","2","4","2","766966737248980993","吴","697","","","","nonmatch","","","","","","","","","","","","","","key","f","22.22199999999989","640","396","f","true","nonmatch","img/diamond.png","六边","菱形","ALT1","formal_ALT1_2","","","","","","","","","","","",""
"null","<span style='color:GreenYellow; font-size: 70px;'>正确! </span>","null","html-keyboard-response","112","290813","0.0-7.0-1.0-4.0-0.0-1.2","3","4","4","3","3","4","3","4","4","3","4","4","2","4","4","4","2","2","5","4","2","4","2","3","2","2","2","2","2","1","0","0","1","0","0","0","1","0","1","1","0","1","0","1","5","2","2","2","4","3","4","4","2","4","2","766966737248980993","吴","697","","","","","","","","","","","","","","","","","","","","","","","","","","","","","","feedback_test","","","","","","","","","","","",""
"727","","j","psychophysics","113","292543","0.0-7.0-1.0-4.0-0.0-0.3","3","4","4","3","3","4","3","4","4","3","4","4","2","4","4","4","2","2","5","4","2","4","2","3","2","2","2","2","2","1","0","0","1","0","0","0","1","0","1","1","0","1","0","1","5","2","2","2","4","3","4","4","2","4","2","766966737248980993","吴","697","","","","match","","","","","","","","","","","","","","key","j","22.222000000000197","640","396","j","true","match","img/square.png","方形","方形","ALT1","formal_ALT1_2","","","","","","","","","","","",""
"null","<span style='color:GreenYellow; font-size: 70px;'>正确! </span>","null","html-keyboard-response","114","293045","0.0-7.0-1.0-4.0-0.0-1.3","3","4","4","3","3","4","3","4","4","3","4","4","2","4","4","4","2","2","5","4","2","4","2","3","2","2","2","2","2","1","0","0","1","0","0","0","1","0","1","1","0","1","0","1","5","2","2","2","4","3","4","4","2","4","2","766966737248980993","吴","697","","","","","","","","","","","","","","","","","","","","","","","","","","","","","","feedback_test","","","","","","","","","","","",""
"697","","j","psychophysics","115","294744","0.0-7.0-1.0-4.0-0.0-0.4","3","4","4","3","3","4","3","4","4","3","4","4","2","4","4","4","2","2","5","4","2","4","2","3","2","2","2","2","2","1","0","0","1","0","0","0","1","0","1","1","0","1","0","1","5","2","2","2","4","3","4","4","2","4","2","766966737248980993","吴","697","","","","match","","","","","","","","","","","","","","key","j","22.222000000000076","640","396","j","true","match","img/circle.png","圆形","圆形","ALT1","formal_ALT1_2","","","","","","","","","","","",""
"null","<span style='color:GreenYellow; font-size: 70px;'>正确! </span>","null","html-keyboard-response","116","295246","0.0-7.0-1.0-4.0-0.0-1.4","3","4","4","3","3","4","3","4","4","3","4","4","2","4","4","4","2","2","5","4","2","4","2","3","2","2","2","2","2","1","0","0","1","0","0","0","1","0","1","1","0","1","0","1","5","2","2","2","4","3","4","4","2","4","2","766966737248980993","吴","697","","","","","","","","","","","","","","","","","","","","","","","","","","","","","","feedback_test","","","","","","","","","","","",""
"713","","j","psychophysics","117","296961","0.0-7.0-1.0-4.0-0.0-0.5","3","4","4","3","3","4","3","4","4","3","4","4","2","4","4","4","2","2","5","4","2","4","2","3","2","2","2","2","2","1","0","0","1","0","0","0","1","0","1","1","0","1","0","1","5","2","2","2","4","3","4","4","2","4","2","766966737248980993","吴","697","","","","match","","","","","","","","","","","","","","key","j","22.222000000000424","640","396","j","true","match","img/hexagon.png","六边","六边","ALT1","formal_ALT1_2","","","","","","","","","","","",""
"null","<span style='color:GreenYellow; font-size: 70px;'>正确! </span>","null","html-keyboard-response","118","297463","0.0-7.0-1.0-4.0-0.0-1.5","3","4","4","3","3","4","3","4","4","3","4","4","2","4","4","4","2","2","5","4","2","4","2","3","2","2","2","2","2","1","0","0","1","0","0","0","1","0","1","1","0","1","0","1","5","2","2","2","4","3","4","4","2","4","2","766966737248980993","吴","697","","","","","","","","","","","","","","","","","","","","","","","","","","","","","","feedback_test","","","","","","","","","","","",""
"765","","f","psychophysics","119","299232","0.0-7.0-1.0-4.0-0.0-0.6","3","4","4","3","3","4","3","4","4","3","4","4","2","4","4","4","2","2","5","4","2","4","2","3","2","2","2","2","2","1","0","0","1","0","0","0","1","0","1","1","0","1","0","1","5","2","2","2","4","3","4","4","2","4","2","766966737248980993","吴","697","","","","nonmatch","","","","","","","","","","","","","","key","f","22.22199999999989","640","396","f","true","nonmatch","img/square.png","圆形","方形","ALT1","formal_ALT1_2","","","","","","","","","","","",""
"null","<span style='color:GreenYellow; font-size: 70px;'>正确! </span>","null","html-keyboard-response","120","299732","0.0-7.0-1.0-4.0-0.0-1.6","3","4","4","3","3","4","3","4","4","3","4","4","2","4","4","4","2","2","5","4","2","4","2","3","2","2","2","2","2","1","0","0","1","0","0","0","1","0","1","1","0","1","0","1","5","2","2","2","4","3","4","4","2","4","2","766966737248980993","吴","697","","","","","","","","","","","","","","","","","","","","","","","","","","","","","","feedback_test","","","","","","","","","","","",""
"1017","","j","psychophysics","121","301751","0.0-7.0-1.0-4.0-0.0-0.7","3","4","4","3","3","4","3","4","4","3","4","4","2","4","4","4","2","2","5","4","2","4","2","3","2","2","2","2","2","1","0","0","1","0","0","0","1","0","1","1","0","1","0","1","5","2","2","2","4","3","4","4","2","4","2","766966737248980993","吴","697","","","","match","","","","","","","","","","","","","","key","j","22.22200000000015","640","396","j","true","match","img/diamond.png","菱形","菱形","ALT1","formal_ALT1_2","","","","","","","","","","","",""
"null","<span style='color:GreenYellow; font-size: 70px;'>正确! </span>","null","html-keyboard-response","122","302253","0.0-7.0-1.0-4.0-0.0-1.7","3","4","4","3","3","4","3","4","4","3","4","4","2","4","4","4","2","2","5","4","2","4","2","3","2","2","2","2","2","1","0","0","1","0","0","0","1","0","1","1","0","1","0","1","5","2","2","2","4","3","4","4","2","4","2","766966737248980993","吴","697","","","","","","","","","","","","","","","","","","","","","","","","","","","","","","feedback_test","","","","","","","","","","","",""
"767","","f","psychophysics","123","304023","0.0-7.0-1.0-4.0-0.0-0.8","3","4","4","3","3","4","3","4","4","3","4","4","2","4","4","4","2","2","5","4","2","4","2","3","2","2","2","2","2","1","0","0","1","0","0","0","1","0","1","1","0","1","0","1","5","2","2","2","4","3","4","4","2","4","2","766966737248980993","吴","697","","","","nonmatch","","","","","","","","","","","","","","key","f","22.22199999999989","640","396","f","true","nonmatch","img/circle.png","菱形","圆形","ALT1","formal_ALT1_2","","","","","","","","","","","",""
"null","<span style='color:GreenYellow; font-size: 70px;'>正确! </span>","null","html-keyboard-response","124","304525","0.0-7.0-1.0-4.0-0.0-1.8","3","4","4","3","3","4","3","4","4","3","4","4","2","4","4","4","2","2","5","4","2","4","2","3","2","2","2","2","2","1","0","0","1","0","0","0","1","0","1","1","0","1","0","1","5","2","2","2","4","3","4","4","2","4","2","766966737248980993","吴","697","","","","","","","","","","","","","","","","","","","","","","","","","","","","","","feedback_test","","","","","","","","","","","",""
"783","","f","psychophysics","125","306311","0.0-7.0-1.0-4.0-0.0-0.9","3","4","4","3","3","4","3","4","4","3","4","4","2","4","4","4","2","2","5","4","2","4","2","3","2","2","2","2","2","1","0","0","1","0","0","0","1","0","1","1","0","1","0","1","5","2","2","2","4","3","4","4","2","4","2","766966737248980993","吴","697","","","","nonmatch","","","","","","","","","","","","","","key","f","22.222000000000005","640","396","f","true","nonmatch","img/circle.png","方形","圆形","ALT1","formal_ALT1_2","","","","","","","","","","","",""
"null","<span style='color:GreenYellow; font-size: 70px;'>正确! </span>","null","html-keyboard-response","126","306812","0.0-7.0-1.0-4.0-0.0-1.9","3","4","4","3","3","4","3","4","4","3","4","4","2","4","4","4","2","2","5","4","2","4","2","3","2","2","2","2","2","1","0","0","1","0","0","0","1","0","1","1","0","1","0","1","5","2","2","2","4","3","4","4","2","4","2","766966737248980993","吴","697","","","","","","","","","","","","","","","","","","","","","","","","","","","","","","feedback_test","","","","","","","","","","","",""
"832","","f","psychophysics","127","308646","0.0-7.0-1.0-4.0-0.0-0.10","3","4","4","3","3","4","3","4","4","3","4","4","2","4","4","4","2","2","5","4","2","4","2","3","2","2","2","2","2","1","0","0","1","0","0","0","1","0","1","1","0","1","0","1","5","2","2","2","4","3","4","4","2","4","2","766966737248980993","吴","697","","","","nonmatch","","","","","","","","","","","","","","key","f","22.222000000000225","640","396","f","true","nonmatch","img/square.png","菱形","方形","ALT1","formal_ALT1_2","","","","","","","","","","","",""
"null","<span style='color:GreenYellow; font-size: 70px;'>正确! </span>","null","html-keyboard-response","128","309148","0.0-7.0-1.0-4.0-0.0-1.10","3","4","4","3","3","4","3","4","4","3","4","4","2","4","4","4","2","2","5","4","2","4","2","3","2","2","2","2","2","1","0","0","1","0","0","0","1","0","1","1","0","1","0","1","5","2","2","2","4","3","4","4","2","4","2","766966737248980993","吴","697","","","","","","","","","","","","","","","","","","","","","","","","","","","","","","feedback_test","","","","","","","","","","","",""
"721","","j","psychophysics","129","310879","0.0-7.0-1.0-4.0-0.0-0.11","3","4","4","3","3","4","3","4","4","3","4","4","2","4","4","4","2","2","5","4","2","4","2","3","2","2","2","2","2","1","0","0","1","0","0","0","1","0","1","1","0","1","0","1","5","2","2","2","4","3","4","4","2","4","2","766966737248980993","吴","697","","","","match","","","","","","","","","","","","","","key","j","22.22200000000031","640","396","j","true","match","img/circle.png","圆形","圆形","ALT1","formal_ALT1_2","","","","","","","","","","","",""
"null","<span style='color:GreenYellow; font-size: 70px;'>正确! </span>","null","html-keyboard-response","130","311379","0.0-7.0-1.0-4.0-0.0-1.11","3","4","4","3","3","4","3","4","4","3","4","4","2","4","4","4","2","2","5","4","2","4","2","3","2","2","2","2","2","1","0","0","1","0","0","0","1","0","1","1","0","1","0","1","5","2","2","2","4","3","4","4","2","4","2","766966737248980993","吴","697","","","","","","","","","","","","","","","","","","","","","","","","","","","","","","feedback_test","","","","","","","","","","","",""
"698","","j","psychophysics","131","313080","0.0-7.0-1.0-4.0-0.0-0.12","3","4","4","3","3","4","3","4","4","3","4","4","2","4","4","4","2","2","5","4","2","4","2","3","2","2","2","2","2","1","0","0","1","0","0","0","1","0","1","1","0","1","0","1","5","2","2","2","4","3","4","4","2","4","2","766966737248980993","吴","697","","","","match","","","","","","","","","","","","","","key","j","22.221999999999536","640","396","j","true","match","img/square.png","方形","方形","ALT1","formal_ALT1_2","","","","","","","","","","","",""
"null","<span style='color:GreenYellow; font-size: 70px;'>正确! </span>","null","html-keyboard-response","132","313581","0.0-7.0-1.0-4.0-0.0-1.12","3","4","4","3","3","4","3","4","4","3","4","4","2","4","4","4","2","2","5","4","2","4","2","3","2","2","2","2","2","1","0","0","1","0","0","0","1","0","1","1","0","1","0","1","5","2","2","2","4","3","4","4","2","4","2","766966737248980993","吴","697","","","","","","","","","","","","","","","","","","","","","","","","","","","","","","feedback_test","","","","","","","","","","","",""
"760","","f","psychophysics","133","315343","0.0-7.0-1.0-4.0-0.0-0.13","3","4","4","3","3","4","3","4","4","3","4","4","2","4","4","4","2","2","5","4","2","4","2","3","2","2","2","2","2","1","0","0","1","0","0","0","1","0","1","1","0","1","0","1","5","2","2","2","4","3","4","4","2","4","2","766966737248980993","吴","697","","","","nonmatch","","","","","","","","","","","","","","key","f","22.221999999999657","640","396","f","true","nonmatch","img/circle.png","六边","圆形","ALT1","formal_ALT1_2","","","","","","","","","","","",""
"null","<span style='color:GreenYellow; font-size: 70px;'>正确! </span>","null","html-keyboard-response","134","315844","0.0-7.0-1.0-4.0-0.0-1.13","3","4","4","3","3","4","3","4","4","3","4","4","2","4","4","4","2","2","5","4","2","4","2","3","2","2","2","2","2","1","0","0","1","0","0","0","1","0","1","1","0","1","0","1","5","2","2","2","4","3","4","4","2","4","2","766966737248980993","吴","697","","","","","","","","","","","","","","","","","","","","","","","","","","","","","","feedback_test","","","","","","","","","","","",""
"849","","j","psychophysics","135","317695","0.0-7.0-1.0-4.0-0.0-0.14","3","4","4","3","3","4","3","4","4","3","4","4","2","4","4","4","2","2","5","4","2","4","2","3","2","2","2","2","2","1","0","0","1","0","0","0","1","0","1","1","0","1","0","1","5","2","2","2","4","3","4","4","2","4","2","766966737248980993","吴","697","","","","match","","","","","","","","","","","","","","key","j","22.222000000000115","640","396","j","true","match","img/diamond.png","菱形","菱形","ALT1","formal_ALT1_2","","","","","","","","","","","",""
"null","<span style='color:GreenYellow; font-size: 70px;'>正确! </span>","null","html-keyboard-response","136","318196","0.0-7.0-1.0-4.0-0.0-1.14","3","4","4","3","3","4","3","4","4","3","4","4","2","4","4","4","2","2","5","4","2","4","2","3","2","2","2","2","2","1","0","0","1","0","0","0","1","0","1","1","0","1","0","1","5","2","2","2","4","3","4","4","2","4","2","766966737248980993","吴","697","","","","","","","","","","","","","","","","","","","","","","","","","","","","","","feedback_test","","","","","","","","","","","",""
"769","","j","psychophysics","137","319968","0.0-7.0-1.0-4.0-0.0-0.15","3","4","4","3","3","4","3","4","4","3","4","4","2","4","4","4","2","2","5","4","2","4","2","3","2","2","2","2","2","1","0","0","1","0","0","0","1","0","1","1","0","1","0","1","5","2","2","2","4","3","4","4","2","4","2","766966737248980993","吴","697","","","","match","","","","","","","","","","","","","","key","j","22.221999999999657","640","396","f","false","nonmatch","img/hexagon.png","菱形","六边","ALT1","formal_ALT1_2","","","","","","","","","","","",""
"null","<span style='color:red; font-size: 70px;'>错误! </span>","null","html-keyboard-response","138","320470","0.0-7.0-1.0-4.0-0.0-1.15","3","4","4","3","3","4","3","4","4","3","4","4","2","4","4","4","2","2","5","4","2","4","2","3","2","2","2","2","2","1","0","0","1","0","0","0","1","0","1","1","0","1","0","1","5","2","2","2","4","3","4","4","2","4","2","766966737248980993","吴","697","","","","","","","","","","","","","","","","","","","","","","","","","","","","","","feedback_test","","","","","","","","","","","",""
"782","","j","psychophysics","139","322255","0.0-7.0-1.0-4.0-0.0-0.16","3","4","4","3","3","4","3","4","4","3","4","4","2","4","4","4","2","2","5","4","2","4","2","3","2","2","2","2","2","1","0","0","1","0","0","0","1","0","1","1","0","1","0","1","5","2","2","2","4","3","4","4","2","4","2","766966737248980993","吴","697","","","","match","","","","","","","","","","","","","","key","j","22.222000000000005","640","396","j","true","match","img/square.png","方形","方形","ALT1","formal_ALT1_2","","","","","","","","","","","",""
"null","<span style='color:GreenYellow; font-size: 70px;'>正确! </span>","null","html-keyboard-response","140","322756","0.0-7.0-1.0-4.0-0.0-1.16","3","4","4","3","3","4","3","4","4","3","4","4","2","4","4","4","2","2","5","4","2","4","2","3","2","2","2","2","2","1","0","0","1","0","0","0","1","0","1","1","0","1","0","1","5","2","2","2","4","3","4","4","2","4","2","766966737248980993","吴","697","","","","","","","","","","","","","","","","","","","","","","","","","","","","","","feedback_test","","","","","","","","","","","",""
"832","","j","psychophysics","141","324590","0.0-7.0-1.0-4.0-0.0-0.17","3","4","4","3","3","4","3","4","4","3","4","4","2","4","4","4","2","2","5","4","2","4","2","3","2","2","2","2","2","1","0","0","1","0","0","0","1","0","1","1","0","1","0","1","5","2","2","2","4","3","4","4","2","4","2","766966737248980993","吴","697","","","","match","","","","","","","","","","","","","","key","j","22.222000000000225","640","396","j","true","match","img/diamond.png","菱形","菱形","ALT1","formal_ALT1_2","","","","","","","","","","","",""
"null","<span style='color:GreenYellow; font-size: 70px;'>正确! </span>","null","html-keyboard-response","142","325092","0.0-7.0-1.0-4.0-0.0-1.17","3","4","4","3","3","4","3","4","4","3","4","4","2","4","4","4","2","2","5","4","2","4","2","3","2","2","2","2","2","1","0","0","1","0","0","0","1","0","1","1","0","1","0","1","5","2","2","2","4","3","4","4","2","4","2","766966737248980993","吴","697","","","","","","","","","","","","","","","","","","","","","","","","","","","","","","feedback_test","","","","","","","","","","","",""
"802","","j","psychophysics","143","326896","0.0-7.0-1.0-4.0-0.0-0.18","3","4","4","3","3","4","3","4","4","3","4","4","2","4","4","4","2","2","5","4","2","4","2","3","2","2","2","2","2","1","0","0","1","0","0","0","1","0","1","1","0","1","0","1","5","2","2","2","4","3","4","4","2","4","2","766966737248980993","吴","697","","","","match","","","","","","","","","","","","","","key","j","22.22199999999989","640","396","j","true","match","img/hexagon.png","六边","六边","ALT1","formal_ALT1_2","","","","","","","","","","","",""
"null","<span style='color:GreenYellow; font-size: 70px;'>正确! </span>","null","html-keyboard-response","144","327397","0.0-7.0-1.0-4.0-0.0-1.18","3","4","4","3","3","4","3","4","4","3","4","4","2","4","4","4","2","2","5","4","2","4","2","3","2","2","2","2","2","1","0","0","1","0","0","0","1","0","1","1","0","1","0","1","5","2","2","2","4","3","4","4","2","4","2","766966737248980993","吴","697","","","","","","","","","","","","","","","","","","","","","","","","","","","","","","feedback_test","","","","","","","","","","","",""
"793","","f","psychophysics","145","329191","0.0-7.0-1.0-4.0-0.0-0.19","3","4","4","3","3","4","3","4","4","3","4","4","2","4","4","4","2","2","5","4","2","4","2","3","2","2","2","2","2","1","0","0","1","0","0","0","1","0","1","1","0","1","0","1","5","2","2","2","4","3","4","4","2","4","2","766966737248980993","吴","697","","","","nonmatch","","","","","","","","","","","","","","key","f","22.221999999999777","640","396","f","true","nonmatch","img/diamond.png","圆形","菱形","ALT1","formal_ALT1_2","","","","","","","","","","","",""
"null","<span style='color:GreenYellow; font-size: 70px;'>正确! </span>","null","html-keyboard-response","146","329693","0.0-7.0-1.0-4.0-0.0-1.19","3","4","4","3","3","4","3","4","4","3","4","4","2","4","4","4","2","2","5","4","2","4","2","3","2","2","2","2","2","1","0","0","1","0","0","0","1","0","1","1","0","1","0","1","5","2","2","2","4","3","4","4","2","4","2","766966737248980993","吴","697","","","","","","","","","","","","","","","","","","","","","","","","","","","","","","feedback_test","","","","","","","","","","","",""
"825","","f","psychophysics","147","331520","0.0-7.0-1.0-4.0-0.0-0.20","3","4","4","3","3","4","3","4","4","3","4","4","2","4","4","4","2","2","5","4","2","4","2","3","2","2","2","2","2","1","0","0","1","0","0","0","1","0","1","1","0","1","0","1","5","2","2","2","4","3","4","4","2","4","2","766966737248980993","吴","697","","","","nonmatch","","","","","","","","","","","","","","key","f","22.4997749999995","640","396","f","true","nonmatch","img/square.png","六边","方形","ALT1","formal_ALT1_2","","","","","","","","","","","",""
"null","<span style='color:GreenYellow; font-size: 70px;'>正确! </span>","null","html-keyboard-response","148","332021","0.0-7.0-1.0-4.0-0.0-1.20","3","4","4","3","3","4","3","4","4","3","4","4","2","4","4","4","2","2","5","4","2","4","2","3","2","2","2","2","2","1","0","0","1","0","0","0","1","0","1","1","0","1","0","1","5","2","2","2","4","3","4","4","2","4","2","766966737248980993","吴","697","","","","","","","","","","","","","","","","","","","","","","","","","","","","","","feedback_test","","","","","","","","","","","",""
"784","","j","psychophysics","149","333807","0.0-7.0-1.0-4.0-0.0-0.21","3","4","4","3","3","4","3","4","4","3","4","4","2","4","4","4","2","2","5","4","2","4","2","3","2","2","2","2","2","1","0","0","1","0","0","0","1","0","1","1","0","1","0","1","5","2","2","2","4","3","4","4","2","4","2","766966737248980993","吴","697","","","","match","","","","","","","","","","","","","","key","j","22.222000000000005","640","396","j","true","match","img/circle.png","圆形","圆形","ALT1","formal_ALT1_2","","","","","","","","","","","",""
"null","<span style='color:GreenYellow; font-size: 70px;'>正确! </span>","null","html-keyboard-response","150","334308","0.0-7.0-1.0-4.0-0.0-1.21","3","4","4","3","3","4","3","4","4","3","4","4","2","4","4","4","2","2","5","4","2","4","2","3","2","2","2","2","2","1","0","0","1","0","0","0","1","0","1","1","0","1","0","1","5","2","2","2","4","3","4","4","2","4","2","766966737248980993","吴","697","","","","","","","","","","","","","","","","","","","","","","","","","","","","","","feedback_test","","","","","","","","","","","",""
"912","","f","psychophysics","151","336223","0.0-7.0-1.0-4.0-0.0-0.22","3","4","4","3","3","4","3","4","4","3","4","4","2","4","4","4","2","2","5","4","2","4","2","3","2","2","2","2","2","1","0","0","1","0","0","0","1","0","1","1","0","1","0","1","5","2","2","2","4","3","4","4","2","4","2","766966737248980993","吴","697","","","","nonmatch","","","","","","","","","","","","","","key","f","22.22199999999973","640","396","f","true","nonmatch","img/diamond.png","方形","菱形","ALT1","formal_ALT1_2","","","","","","","","","","","",""
"null","<span style='color:GreenYellow; font-size: 70px;'>正确! </span>","null","html-keyboard-response","152","336725","0.0-7.0-1.0-4.0-0.0-1.22","3","4","4","3","3","4","3","4","4","3","4","4","2","4","4","4","2","2","5","4","2","4","2","3","2","2","2","2","2","1","0","0","1","0","0","0","1","0","1","1","0","1","0","1","5","2","2","2","4","3","4","4","2","4","2","766966737248980993","吴","697","","","","","","","","","","","","","","","","","","","","","","","","","","","","","","feedback_test","","","","","","","","","","","",""
"855","","f","psychophysics","153","338582","0.0-7.0-1.0-4.0-0.0-0.23","3","4","4","3","3","4","3","4","4","3","4","4","2","4","4","4","2","2","5","4","2","4","2","3","2","2","2","2","2","1","0","0","1","0","0","0","1","0","1","1","0","1","0","1","5","2","2","2","4","3","4","4","2","4","2","766966737248980993","吴","697","","","","nonmatch","","","","","","","","","","","","","","key","f","22.222000000000328","640","396","f","true","nonmatch","img/hexagon.png","圆形","六边","ALT1","formal_ALT1_2","","","","","","","","","","","",""
"null","<span style='color:GreenYellow; font-size: 70px;'>正确! </span>","null","html-keyboard-response","154","339083","0.0-7.0-1.0-4.0-0.0-1.23","3","4","4","3","3","4","3","4","4","3","4","4","2","4","4","4","2","2","5","4","2","4","2","3","2","2","2","2","2","1","0","0","1","0","0","0","1","0","1","1","0","1","0","1","5","2","2","2","4","3","4","4","2","4","2","766966737248980993","吴","697","","","","","","","","","","","","","","","","","","","","","","","","","","","","","","feedback_test","","","","","","","","","","","",""
"853","","f","psychophysics","155","340943","0.0-7.0-1.0-4.0-0.0-0.24","3","4","4","3","3","4","3","4","4","3","4","4","2","4","4","4","2","2","5","4","2","4","2","3","2","2","2","2","2","1","0","0","1","0","0","0","1","0","1","1","0","1","0","1","5","2","2","2","4","3","4","4","2","4","2","766966737248980993","吴","697","","","","nonmatch","","","","","","","","","","","","","","key","f","22.222000000000328","640","396","f","true","nonmatch","img/square.png","圆形","方形","ALT1","formal_ALT1_2","","","","","","","","","","","",""
"null","<span style='color:GreenYellow; font-size: 70px;'>正确! </span>","null","html-keyboard-response","156","341444","0.0-7.0-1.0-4.0-0.0-1.24","3","4","4","3","3","4","3","4","4","3","4","4","2","4","4","4","2","2","5","4","2","4","2","3","2","2","2","2","2","1","0","0","1","0","0","0","1","0","1","1","0","1","0","1","5","2","2","2","4","3","4","4","2","4","2","766966737248980993","吴","697","","","","","","","","","","","","","","","","","","","","","","","","","","","","","","feedback_test","","","","","","","","","","","",""
"729","","f","psychophysics","157","343175","0.0-7.0-1.0-4.0-0.0-0.25","3","4","4","3","3","4","3","4","4","3","4","4","2","4","4","4","2","2","5","4","2","4","2","3","2","2","2","2","2","1","0","0","1","0","0","0","1","0","1","1","0","1","0","1","5","2","2","2","4","3","4","4","2","4","2","766966737248980993","吴","697","","","","nonmatch","","","","","","","","","","","","","","key","f","22.22200000000053","640","396","f","true","nonmatch","img/circle.png","菱形","圆形","ALT1","formal_ALT1_2","","","","","","","","","","","",""
"null","<span style='color:GreenYellow; font-size: 70px;'>正确! </span>","null","html-keyboard-response","158","343677","0.0-7.0-1.0-4.0-0.0-1.25","3","4","4","3","3","4","3","4","4","3","4","4","2","4","4","4","2","2","5","4","2","4","2","3","2","2","2","2","2","1","0","0","1","0","0","0","1","0","1","1","0","1","0","1","5","2","2","2","4","3","4","4","2","4","2","766966737248980993","吴","697","","","","","","","","","","","","","","","","","","","","","","","","","","","","","","feedback_test","","","","","","","","","","","",""
"832","","f","psychophysics","159","345511","0.0-7.0-1.0-4.0-0.0-0.26","3","4","4","3","3","4","3","4","4","3","4","4","2","4","4","4","2","2","5","4","2","4","2","3","2","2","2","2","2","1","0","0","1","0","0","0","1","0","1","1","0","1","0","1","5","2","2","2","4","3","4","4","2","4","2","766966737248980993","吴","697","","","","nonmatch","","","","","","","","","","","","","","key","f","22.222000000000225","640","396","f","true","nonmatch","img/square.png","菱形","方形","ALT1","formal_ALT1_2","","","","","","","","","","","",""
"null","<span style='color:GreenYellow; font-size: 70px;'>正确! </span>","null","html-keyboard-response","160","346013","0.0-7.0-1.0-4.0-0.0-1.26","3","4","4","3","3","4","3","4","4","3","4","4","2","4","4","4","2","2","5","4","2","4","2","3","2","2","2","2","2","1","0","0","1","0","0","0","1","0","1","1","0","1","0","1","5","2","2","2","4","3","4","4","2","4","2","766966737248980993","吴","697","","","","","","","","","","","","","","","","","","","","","","","","","","","","","","feedback_test","","","","","","","","","","","",""
"744","","j","psychophysics","161","347759","0.0-7.0-1.0-4.0-0.0-0.27","3","4","4","3","3","4","3","4","4","3","4","4","2","4","4","4","2","2","5","4","2","4","2","3","2","2","2","2","2","1","0","0","1","0","0","0","1","0","1","1","0","1","0","1","5","2","2","2","4","3","4","4","2","4","2","766966737248980993","吴","697","","","","match","","","","","","","","","","","","","","key","j","22.221999999999777","640","396","j","true","match","img/circle.png","圆形","圆形","ALT1","formal_ALT1_2","","","","","","","","","","","",""
"null","<span style='color:GreenYellow; font-size: 70px;'>正确! </span>","null","html-keyboard-response","162","348260","0.0-7.0-1.0-4.0-0.0-1.27","3","4","4","3","3","4","3","4","4","3","4","4","2","4","4","4","2","2","5","4","2","4","2","3","2","2","2","2","2","1","0","0","1","0","0","0","1","0","1","1","0","1","0","1","5","2","2","2","4","3","4","4","2","4","2","766966737248980993","吴","697","","","","","","","","","","","","","","","","","","","","","","","","","","","","","","feedback_test","","","","","","","","","","","",""
"808","","f","psychophysics","163","350071","0.0-7.0-1.0-4.0-0.0-0.28","3","4","4","3","3","4","3","4","4","3","4","4","2","4","4","4","2","2","5","4","2","4","2","3","2","2","2","2","2","1","0","0","1","0","0","0","1","0","1","1","0","1","0","1","5","2","2","2","4","3","4","4","2","4","2","766966737248980993","吴","697","","","","nonmatch","","","","","","","","","","","","","","key","f","22.22199999999939","640","396","f","true","nonmatch","img/diamond.png","圆形","菱形","ALT1","formal_ALT1_2","","","","","","","","","","","",""
"null","<span style='color:GreenYellow; font-size: 70px;'>正确! </span>","null","html-keyboard-response","164","350574","0.0-7.0-1.0-4.0-0.0-1.28","3","4","4","3","3","4","3","4","4","3","4","4","2","4","4","4","2","2","5","4","2","4","2","3","2","2","2","2","2","1","0","0","1","0","0","0","1","0","1","1","0","1","0","1","5","2","2","2","4","3","4","4","2","4","2","766966737248980993","吴","697","","","","","","","","","","","","","","","","","","","","","","","","","","","","","","feedback_test","","","","","","","","","","","",""
"734","","f","psychophysics","165","352311","0.0-7.0-1.0-4.0-0.0-0.29","3","4","4","3","3","4","3","4","4","3","4","4","2","4","4","4","2","2","5","4","2","4","2","3","2","2","2","2","2","1","0","0","1","0","0","0","1","0","1","1","0","1","0","1","5","2","2","2","4","3","4","4","2","4","2","766966737248980993","吴","697","","","","nonmatch","","","","","","","","","","","","","","key","f","22.221999999999777","640","396","f","true","nonmatch","img/circle.png","方形","圆形","ALT1","formal_ALT1_2","","","","","","","","","","","",""
"null","<span style='color:GreenYellow; font-size: 70px;'>正确! </span>","null","html-keyboard-response","166","352812","0.0-7.0-1.0-4.0-0.0-1.29","3","4","4","3","3","4","3","4","4","3","4","4","2","4","4","4","2","2","5","4","2","4","2","3","2","2","2","2","2","1","0","0","1","0","0","0","1","0","1","1","0","1","0","1","5","2","2","2","4","3","4","4","2","4","2","766966737248980993","吴","697","","","","","","","","","","","","","","","","","","","","","","","","","","","","","","feedback_test","","","","","","","","","","","",""
"784","","j","psychophysics","167","354600","0.0-7.0-1.0-4.0-0.0-0.30","3","4","4","3","3","4","3","4","4","3","4","4","2","4","4","4","2","2","5","4","2","4","2","3","2","2","2","2","2","1","0","0","1","0","0","0","1","0","1","1","0","1","0","1","5","2","2","2","4","3","4","4","2","4","2","766966737248980993","吴","697","","","","match","","","","","","","","","","","","","","key","j","22.222000000000005","640","396","j","true","match","img/circle.png","圆形","圆形","ALT1","formal_ALT1_2","","","","","","","","","","","",""
"null","<span style='color:GreenYellow; font-size: 70px;'>正确! </span>","null","html-keyboard-response","168","355101","0.0-7.0-1.0-4.0-0.0-1.30","3","4","4","3","3","4","3","4","4","3","4","4","2","4","4","4","2","2","5","4","2","4","2","3","2","2","2","2","2","1","0","0","1","0","0","0","1","0","1","1","0","1","0","1","5","2","2","2","4","3","4","4","2","4","2","766966737248980993","吴","697","","","","","","","","","","","","","","","","","","","","","","","","","","","","","","feedback_test","","","","","","","","","","","",""
"823","","j","psychophysics","169","356926","0.0-7.0-1.0-4.0-0.0-0.31","3","4","4","3","3","4","3","4","4","3","4","4","2","4","4","4","2","2","5","4","2","4","2","3","2","2","2","2","2","1","0","0","1","0","0","0","1","0","1","1","0","1","0","1","5","2","2","2","4","3","4","4","2","4","2","766966737248980993","吴","697","","","","match","","","","","","","","","","","","","","key","j","22.506897435897443","640","396","j","true","match","img/square.png","方形","方形","ALT1","formal_ALT1_2","","","","","","","","","","","",""
"null","<span style='color:GreenYellow; font-size: 70px;'>正确! </span>","null","html-keyboard-response","170","357427","0.0-7.0-1.0-4.0-0.0-1.31","3","4","4","3","3","4","3","4","4","3","4","4","2","4","4","4","2","2","5","4","2","4","2","3","2","2","2","2","2","1","0","0","1","0","0","0","1","0","1","1","0","1","0","1","5","2","2","2","4","3","4","4","2","4","2","766966737248980993","吴","697","","","","","","","","","","","","","","","","","","","","","","","","","","","","","","feedback_test","","","","","","","","","","","",""
"882","","f","psychophysics","171","359311","0.0-7.0-1.0-4.0-0.0-0.32","3","4","4","3","3","4","3","4","4","3","4","4","2","4","4","4","2","2","5","4","2","4","2","3","2","2","2","2","2","1","0","0","1","0","0","0","1","0","1","1","0","1","0","1","5","2","2","2","4","3","4","4","2","4","2","766966737248980993","吴","697","","","","nonmatch","","","","","","","","","","","","","","key","f","22.221999999999838","640","396","f","true","nonmatch","img/hexagon.png","菱形","六边","ALT1","formal_ALT1_2","","","","","","","","","","","",""
"null","<span style='color:GreenYellow; font-size: 70px;'>正确! </span>","null","html-keyboard-response","172","359813","0.0-7.0-1.0-4.0-0.0-1.32","3","4","4","3","3","4","3","4","4","3","4","4","2","4","4","4","2","2","5","4","2","4","2","3","2","2","2","2","2","1","0","0","1","0","0","0","1","0","1","1","0","1","0","1","5","2","2","2","4","3","4","4","2","4","2","766966737248980993","吴","697","","","","","","","","","","","","","","","","","","","","","","","","","","","","","","feedback_test","","","","","","","","","","","",""
"762","","f","psychophysics","173","361576","0.0-7.0-1.0-4.0-0.0-0.33","3","4","4","3","3","4","3","4","4","3","4","4","2","4","4","4","2","2","5","4","2","4","2","3","2","2","2","2","2","1","0","0","1","0","0","0","1","0","1","1","0","1","0","1","5","2","2","2","4","3","4","4","2","4","2","766966737248980993","吴","697","","","","nonmatch","","","","","","","","","","","","","","key","f","22.222000000000005","640","396","f","true","nonmatch","img/square.png","六边","方形","ALT1","formal_ALT1_2","","","","","","","","","","","",""
"null","<span style='color:GreenYellow; font-size: 70px;'>正确! </span>","null","html-keyboard-response","174","362077","0.0-7.0-1.0-4.0-0.0-1.33","3","4","4","3","3","4","3","4","4","3","4","4","2","4","4","4","2","2","5","4","2","4","2","3","2","2","2","2","2","1","0","0","1","0","0","0","1","0","1","1","0","1","0","1","5","2","2","2","4","3","4","4","2","4","2","766966737248980993","吴","697","","","","","","","","","","","","","","","","","","","","","","","","","","","","","","feedback_test","","","","","","","","","","","",""
"689","","f","psychophysics","175","363767","0.0-7.0-1.0-4.0-0.0-0.34","3","4","4","3","3","4","3","4","4","3","4","4","2","4","4","4","2","2","5","4","2","4","2","3","2","2","2","2","2","1","0","0","1","0","0","0","1","0","1","1","0","1","0","1","5","2","2","2","4","3","4","4","2","4","2","766966737248980993","吴","697","","","","nonmatch","","","","","","","","","","","","","","key","f","22.22200000000031","640","396","f","true","nonmatch","img/circle.png","六边","圆形","ALT1","formal_ALT1_2","","","","","","","","","","","",""
"null","<span style='color:GreenYellow; font-size: 70px;'>正确! </span>","null","html-keyboard-response","176","364268","0.0-7.0-1.0-4.0-0.0-1.34","3","4","4","3","3","4","3","4","4","3","4","4","2","4","4","4","2","2","5","4","2","4","2","3","2","2","2","2","2","1","0","0","1","0","0","0","1","0","1","1","0","1","0","1","5","2","2","2","4","3","4","4","2","4","2","766966737248980993","吴","697","","","","","","","","","","","","","","","","","","","","","","","","","","","","","","feedback_test","","","","","","","","","","","",""
"1010","","j","psychophysics","177","366280","0.0-7.0-1.0-4.0-0.0-0.35","3","4","4","3","3","4","3","4","4","3","4","4","2","4","4","4","2","2","5","4","2","4","2","3","2","2","2","2","2","1","0","0","1","0","0","0","1","0","1","1","0","1","0","1","5","2","2","2","4","3","4","4","2","4","2","766966737248980993","吴","697","","","","match","","","","","","","","","","","","","","key","j","22.738790697674673","640","396","j","true","match","img/diamond.png","菱形","菱形","ALT1","formal_ALT1_2","","","","","","","","","","","",""
"null","<span style='color:GreenYellow; font-size: 70px;'>正确! </span>","null","html-keyboard-response","178","366781","0.0-7.0-1.0-4.0-0.0-1.35","3","4","4","3","3","4","3","4","4","3","4","4","2","4","4","4","2","2","5","4","2","4","2","3","2","2","2","2","2","1","0","0","1","0","0","0","1","0","1","1","0","1","0","1","5","2","2","2","4","3","4","4","2","4","2","766966737248980993","吴","697","","","","","","","","","","","","","","","","","","","","","","","","","","","","","","feedback_test","","","","","","","","","","","",""
"785","","j","psychophysics","179","368567","0.0-7.0-1.0-4.0-0.0-0.36","3","4","4","3","3","4","3","4","4","3","4","4","2","4","4","4","2","2","5","4","2","4","2","3","2","2","2","2","2","1","0","0","1","0","0","0","1","0","1","1","0","1","0","1","5","2","2","2","4","3","4","4","2","4","2","766966737248980993","吴","697","","","","match","","","","","","","","","","","","","","key","j","22.221999999999777","640","396","j","true","match","img/hexagon.png","六边","六边","ALT1","formal_ALT1_2","","","","","","","","","","","",""
"null","<span style='color:GreenYellow; font-size: 70px;'>正确! </span>","null","html-keyboard-response","180","369068","0.0-7.0-1.0-4.0-0.0-1.36","3","4","4","3","3","4","3","4","4","3","4","4","2","4","4","4","2","2","5","4","2","4","2","3","2","2","2","2","2","1","0","0","1","0","0","0","1","0","1","1","0","1","0","1","5","2","2","2","4","3","4","4","2","4","2","766966737248980993","吴","697","","","","","","","","","","","","","","","","","","","","","","","","","","","","","","feedback_test","","","","","","","","","","","",""
"778","","j","psychophysics","181","370847","0.0-7.0-1.0-4.0-0.0-0.37","3","4","4","3","3","4","3","4","4","3","4","4","2","4","4","4","2","2","5","4","2","4","2","3","2","2","2","2","2","1","0","0","1","0","0","0","1","0","1","1","0","1","0","1","5","2","2","2","4","3","4","4","2","4","2","766966737248980993","吴","697","","","","match","","","","","","","","","","","","","","key","j","22.22199999999989","640","396","j","true","match","img/hexagon.png","六边","六边","ALT1","formal_ALT1_2","","","","","","","","","","","",""
"null","<span style='color:GreenYellow; font-size: 70px;'>正确! </span>","null","html-keyboard-response","182","371382","0.0-7.0-1.0-4.0-0.0-1.37","3","4","4","3","3","4","3","4","4","3","4","4","2","4","4","4","2","2","5","4","2","4","2","3","2","2","2","2","2","1","0","0","1","0","0","0","1","0","1","1","0","1","0","1","5","2","2","2","4","3","4","4","2","4","2","766966737248980993","吴","697","","","","","","","","","","","","","","","","","","","","","","","","","","","","","","feedback_test","","","","","","","","","","","",""
