"rt","stimulus","response","trial_type","trial_index","time_elapsed","internal_node_id","ses_1","ses_2","ses_3","ses_4","ses_5","ses_6","ses_7","ses_8","ses_9","ses_10","coreself_1","coreself_2","coreself_3","coreself_4","coreself_5","coreself_6","coreself_7","coreself_8","coreself_9","coreself_10","SGPS_1","SGPS_2","SGPS_3","SGPS_4","SGPS_5","SGPS_6","SGPS_7","SGPS_8","SGPS_9","NPI1","NPI2","NPI3","NPI4","NPI5","NPI6","NPI7","NPI8","NPI9","NPI10","NPI11","NPI12","NPI13","NPI14","NPI15","hsns_1","hsns_2","hsns_3","hsns_4","hsns_5","trap1","hsns_6","hsns_7","hsns_8","hsns_9","hsns_10","subj_idx","friend_name","ParticipantID","value","success","user_agent","responses","item_order","radio_event_ids","radio_event_times","key_event_times","mouse_event_times","straightlining","zigzagging","honeypot","timeout","failed_images","failed_audio","failed_video","version_attrib2","version_target2","correct","IAT","screen_id","task_id","RT","condition","word","varname","summary","version_attrib","version_target","time_stamp","view_history","response_type","key_press","avg_frame_time","center_x","center_y","correct_response","identity","Image","question_order","correct_answer","trap1_item"
"14530","
   <p><div style = ""color: white;font-size:25px;"">您好，欢迎参加本次实验。</div> </p>
   <p><div style = ""color: white;font-size:25px;"">为充分保障您的权利，请确保您已经知晓并同意《参与实验同意书》以及《数据公开知情同意书》。</div></p>
   <p><div style = ""color: white;font-size:25px;"">如果您未见过上述内容，请咨询实验员。</div></p>
   <p><div style = ""color: white;font-size:25px;"">如果您选择继续实验，则表示您已经清楚两份知情同意书的内容并同意。</div></p>
   <p><div style = ""color: pink;font-size:30px;"">请确保您记得day0的实验编号，您将在本次实验输入该编号，若您忘记，请咨询实验员后作答。</div></p>
   <p><div style = ""color: lightblue;font-size:25px;"">请您尽可能认真地作答，我们将依据您在各问卷和按键任务中的作答质量发放报酬。</div></p>
   <p> <div style = ""color: green;font-size:25px;""><按空格键至下页></div> </p>
   "," ","html-keyboard-response","0","14533","0.0-0.0","4","3","2","3","3","2","2","2","2","2","3","2","2","3","2","3","2","1","4","1","4","4","3","2","3","4","2","3","1","1","0","1","1","0","1","1","1","1","0","1","0","1","0","1","3","2","4","3","3","2","4","4","3","5","3","791708952864890881","吴","375","","","","","","","","","","","","","","","","","","","","","","","","","","","","","","","","","","","","","","","","","",""
"","","","call-function","1","14540","0.0-1.0-0.0","4","3","2","3","3","2","2","2","2","2","3","2","2","3","2","3","2","1","4","1","4","4","3","2","3","4","2","3","1","1","0","1","1","0","1","1","1","1","0","1","0","1","0","1","3","2","4","3","3","2","4","4","3","5","3","791708952864890881","吴","375","","","","","","","","","","","","","","","","","","","","","","","","","","","","","","","","","","","","","","","","","",""
"16366","","{""friend_name"":""吴"",""ParticipantID"":""375""}","survey-html-form","2","30909","0.0-1.0-1.0","4","3","2","3","3","2","2","2","2","2","3","2","2","3","2","3","2","1","4","1","4","4","3","2","3","4","2","3","1","1","0","1","1","0","1","1","1","1","0","1","0","1","0","1","3","2","4","3","3","2","4","4","3","5","3","791708952864890881","吴","375","","","","","","","","","","","","","","","","","","","","","","","","","","","","","","","","","","","","","","","","","",""
"","","","fullscreen","3","35143","0.0-2.0","4","3","2","3","3","2","2","2","2","2","3","2","2","3","2","3","2","1","4","1","4","4","3","2","3","4","2","3","1","1","0","1","1","0","1","1","1","1","0","1","0","1","0","1","3","2","4","3","3","2","4","4","3","5","3","791708952864890881","吴","375","","true","{}","","","","","","","","","","","","","","","","","","","","","","","","","","","","","","","","","","","","","","",""
"41781.80000000002","","{""Q01"":""4"",""Q02"":""3"",""Q03"":""2"",""Q04"":""3"",""Q05"":""3"",""Q06"":""2"",""Q07"":""2"",""Q08"":""2"",""Q09"":""2"",""Q10"":""2""}","survey-template","4","76936","0.0-3.0","4","3","2","3","3","2","2","2","2","2","3","2","2","3","2","3","2","1","4","1","4","4","3","2","3","4","2","3","1","1","0","1","1","0","1","1","1","1","0","1","0","1","0","1","3","2","4","3","3","2","4","4","3","5","3","791708952864890881","吴","375","","","","{""Q01"":""4"",""Q02"":""3"",""Q03"":""2"",""Q04"":""3"",""Q05"":""3"",""Q06"":""2"",""Q07"":""2"",""Q08"":""2"",""Q09"":""2"",""Q10"":""2""}","[0,1,2,3,4,5,6,7,8,9]","[""Q01"",""Q02"",""Q03"",""Q04"",""Q05"",""Q06"",""Q07"",""Q08"",""Q08"",""Q09"",""Q10""]","[7000.600000000006,9102.800000000017,12115.600000000006,18519.70000000001,19695.600000000006,22753.199999999983,24443.699999999983,27351.800000000017,33824.399999999994,35163.19999999998,36320.19999999998]","[]","[7000.600000000006,9102.800000000017,12115.600000000006,18519.70000000001,19695.600000000006,22753.199999999983,24443.699999999983,27351.800000000017,33824.399999999994,35163.19999999998,36320.19999999998,41777.399999999994]","0.6","0.3333333333333333","0","","","","","","","","","","","","","","","","","","","","","","","","","","","","","",""
"40118.79999999999","","{""Q01"":""3"",""Q02"":""2"",""Q03"":""2"",""Q04"":""3"",""Q05"":""2"",""Q06"":""3"",""Q07"":""2"",""Q08"":""1"",""Q09"":""4"",""Q10"":""1""}","survey-template","5","117080","0.0-4.0","4","3","2","3","3","2","2","2","2","2","3","2","2","3","2","3","2","1","4","1","4","4","3","2","3","4","2","3","1","1","0","1","1","0","1","1","1","1","0","1","0","1","0","1","3","2","4","3","3","2","4","4","3","5","3","791708952864890881","吴","375","","","","{""Q01"":""3"",""Q02"":""2"",""Q03"":""2"",""Q04"":""3"",""Q05"":""2"",""Q06"":""3"",""Q07"":""2"",""Q08"":""1"",""Q09"":""4"",""Q10"":""1""}","[0,1,2,3,4,5,6,7,8,9]","[""Q01"",""Q02"",""Q03"",""Q04"",""Q05"",""Q06"",""Q07"",""Q08"",""Q09"",""Q10""]","[6908.799999999988,11374.200000000012,14631,17004.5,21093.099999999977,24724.099999999977,26898,31386.899999999965,35915,38588.399999999965]","[]","[6908.799999999988,11374.200000000012,14631,17004.5,21093.099999999977,23930.399999999965,24724.099999999977,26898,31386.899999999965,35915,38588.399999999965,40114.09999999998]","0.5","0.8888888888888888","0","","","","","","","","","","","","","","","","","","","","","","","","","","","","","",""
"","","","preload","6","117379","0.0-5.0","4","3","2","3","3","2","2","2","2","2","3","2","2","3","2","3","2","1","4","1","4","4","3","2","3","4","2","3","1","1","0","1","1","0","1","1","1","1","0","1","0","1","0","1","3","2","4","3","3","2","4","4","3","5","3","791708952864890881","吴","375","","true","","","","","","","","","","","false","[]","[]","[]","","","","","","","","","","","","","","","","","","","","","","","","","",""
"25494","
    <h3>词语分类任务</h3>
    <p>在接下来的任务中，你需要对一系列词语进行分类。<p/>
    请先熟悉这些词语，这有利于你完成接下来的任务。</p>
    <table align=""center"" border=1 cellpadding=3 cellspacing=0>
    <tr> <th>类别</th> <th>词语</th> </tr>
    <tr> <td>&emsp;积极&emsp;</td> <td>&emsp;高尚、诚信、善良、君子、廉正、正直&emsp;</td> </tr>
    <tr> <td>&emsp;消极&emsp;</td> <td>&emsp;缺德、卑鄙、不孝、不仁、小人、黑心&emsp;</td> </tr>
    <tr> <td>&emsp;自我&emsp;</td> <td>&emsp;我、我的、自己、自己的、本人、本人的&emsp;</td> </tr>
    <tr> <td>&emsp;他人&emsp;</td> <td>&emsp;他、他的、别人、别人的、他人、他人的&emsp;</td> </tr>
    </table><br/>","0","html-button-response","7","142878","0.0-6.0-1.0-0.0","4","3","2","3","3","2","2","2","2","2","3","2","2","3","2","3","2","1","4","1","4","4","3","2","3","4","2","3","1","1","0","1","1","0","1","1","1","1","0","1","0","1","0","1","3","2","4","3","3","2","4","4","3","5","3","791708952864890881","吴","375","","","","","","","","","","","","","","","","","2","2","","","","","","","","","","","","","","","","","","","","","","","",""
"18048","
    <div class=""tag-bottom""><p>
    —— 任务1：对“他人”词和“自我”词分类 ——<p/>
    不同词语会出现在屏幕中央，类别标签将始终显示在屏幕上方<p/>   
    <span style=""color:#FFD866""><b>请根据上方标签的提示，尽可能正确并且快速地做出按键反应</b></span><p/>
    当按键错误时屏幕中会出现<span style=""color:red""> X </span>，需要按另一个键纠正才能继续<br/><p/>
    请把双手食指分别放在键盘的“E”键和“I”键上<p/>
    按<空格键>开始
    </p></div>"," ","html-keyboard-response","8","160943","0.0-6.0-1.0-1.0","4","3","2","3","3","2","2","2","2","2","3","2","2","3","2","3","2","1","4","1","4","4","3","2","3","4","2","3","1","1","0","1","1","0","1","1","1","1","0","1","0","1","0","1","3","2","4","3","3","2","4","4","3","5","3","791708952864890881","吴","375","","","","","","","","","","","","","","","","","","","","","","","","","","","","","","","","","","","","","","","","","",""
"null","","null","html-keyboard-response","9","161196","0.0-6.0-1.0-2.0-0.0","4","3","2","3","3","2","2","2","2","2","3","2","2","3","2","3","2","1","4","1","4","4","3","2","3","4","2","3","1","1","0","1","1","0","1","1","1","1","0","1","0","1","0","1","3","2","4","3","3","2","4","4","3","5","3","791708952864890881","吴","375","","","","","","","","","","","","","","","","","","","","","","","","","","","","","","","","","","","","","","","","","",""
"2498","<p style=""color:rgb(150, 250, 100); font-size: 35px;"">他</p>","i","categorize-html","10","165305","0.0-6.0-1.0-2.0-1.0","4","3","2","3","3","2","2","2","2","2","3","2","2","3","2","3","2","1","4","1","4","4","3","2","3","4","2","3","1","1","0","1","1","0","1","1","1","1","0","1","0","1","0","1","3","2","4","3","3","2","4","4","3","5","3","791708952864890881","吴","375","","","","","","","","","","","","","","","","","","","false","11","1","moral","2498","other","他","","","","","","","","","","","","","","","","",""
"null","","null","html-keyboard-response","11","165558","0.0-6.0-1.0-2.0-0.1","4","3","2","3","3","2","2","2","2","2","3","2","2","3","2","3","2","1","4","1","4","4","3","2","3","4","2","3","1","1","0","1","1","0","1","1","1","1","0","1","0","1","0","1","3","2","4","3","3","2","4","4","3","5","3","791708952864890881","吴","375","","","","","","","","","","","","","","","","","","","","","","","","","","","","","","","","","","","","","","","","","",""
"1925","<p style=""color:rgb(150, 250, 100); font-size: 35px;"">本人的</p>","i","categorize-html","12","167489","0.0-6.0-1.0-2.0-1.1","4","3","2","3","3","2","2","2","2","2","3","2","2","3","2","3","2","1","4","1","4","4","3","2","3","4","2","3","1","1","0","1","1","0","1","1","1","1","0","1","0","1","0","1","3","2","4","3","3","2","4","4","3","5","3","791708952864890881","吴","375","","","","","","","","","","","","","","","","","","","true","11","1","moral","1925","self","本人的","","","","","","","","","","","","","","","","",""
"null","","null","html-keyboard-response","13","167741","0.0-6.0-1.0-2.0-0.2","4","3","2","3","3","2","2","2","2","2","3","2","2","3","2","3","2","1","4","1","4","4","3","2","3","4","2","3","1","1","0","1","1","0","1","1","1","1","0","1","0","1","0","1","3","2","4","3","3","2","4","4","3","5","3","791708952864890881","吴","375","","","","","","","","","","","","","","","","","","","","","","","","","","","","","","","","","","","","","","","","","",""
"909","<p style=""color:rgb(150, 250, 100); font-size: 35px;"">自己</p>","i","categorize-html","14","168656","0.0-6.0-1.0-2.0-1.2","4","3","2","3","3","2","2","2","2","2","3","2","2","3","2","3","2","1","4","1","4","4","3","2","3","4","2","3","1","1","0","1","1","0","1","1","1","1","0","1","0","1","0","1","3","2","4","3","3","2","4","4","3","5","3","791708952864890881","吴","375","","","","","","","","","","","","","","","","","","","true","11","1","moral","909","self","自己","","","","","","","","","","","","","","","","",""
"null","","null","html-keyboard-response","15","168908","0.0-6.0-1.0-2.0-0.3","4","3","2","3","3","2","2","2","2","2","3","2","2","3","2","3","2","1","4","1","4","4","3","2","3","4","2","3","1","1","0","1","1","0","1","1","1","1","0","1","0","1","0","1","3","2","4","3","3","2","4","4","3","5","3","791708952864890881","吴","375","","","","","","","","","","","","","","","","","","","","","","","","","","","","","","","","","","","","","","","","","",""
"766","<p style=""color:rgb(150, 250, 100); font-size: 35px;"">自己的</p>","i","categorize-html","16","169680","0.0-6.0-1.0-2.0-1.3","4","3","2","3","3","2","2","2","2","2","3","2","2","3","2","3","2","1","4","1","4","4","3","2","3","4","2","3","1","1","0","1","1","0","1","1","1","1","0","1","0","1","0","1","3","2","4","3","3","2","4","4","3","5","3","791708952864890881","吴","375","","","","","","","","","","","","","","","","","","","true","11","1","moral","766","self","自己的","","","","","","","","","","","","","","","","",""
"null","","null","html-keyboard-response","17","169932","0.0-6.0-1.0-2.0-0.4","4","3","2","3","3","2","2","2","2","2","3","2","2","3","2","3","2","1","4","1","4","4","3","2","3","4","2","3","1","1","0","1","1","0","1","1","1","1","0","1","0","1","0","1","3","2","4","3","3","2","4","4","3","5","3","791708952864890881","吴","375","","","","","","","","","","","","","","","","","","","","","","","","","","","","","","","","","","","","","","","","","",""
"663","<p style=""color:rgb(150, 250, 100); font-size: 35px;"">我的</p>","i","categorize-html","18","170601","0.0-6.0-1.0-2.0-1.4","4","3","2","3","3","2","2","2","2","2","3","2","2","3","2","3","2","1","4","1","4","4","3","2","3","4","2","3","1","1","0","1","1","0","1","1","1","1","0","1","0","1","0","1","3","2","4","3","3","2","4","4","3","5","3","791708952864890881","吴","375","","","","","","","","","","","","","","","","","","","true","11","1","moral","663","self","我的","","","","","","","","","","","","","","","","",""
"null","","null","html-keyboard-response","19","170854","0.0-6.0-1.0-2.0-0.5","4","3","2","3","3","2","2","2","2","2","3","2","2","3","2","3","2","1","4","1","4","4","3","2","3","4","2","3","1","1","0","1","1","0","1","1","1","1","0","1","0","1","0","1","3","2","4","3","3","2","4","4","3","5","3","791708952864890881","吴","375","","","","","","","","","","","","","","","","","","","","","","","","","","","","","","","","","","","","","","","","","",""
"644","<p style=""color:rgb(150, 250, 100); font-size: 35px;"">本人</p>","i","categorize-html","20","171504","0.0-6.0-1.0-2.0-1.5","4","3","2","3","3","2","2","2","2","2","3","2","2","3","2","3","2","1","4","1","4","4","3","2","3","4","2","3","1","1","0","1","1","0","1","1","1","1","0","1","0","1","0","1","3","2","4","3","3","2","4","4","3","5","3","791708952864890881","吴","375","","","","","","","","","","","","","","","","","","","true","11","1","moral","644","self","本人","","","","","","","","","","","","","","","","",""
"null","","null","html-keyboard-response","21","171756","0.0-6.0-1.0-2.0-0.6","4","3","2","3","3","2","2","2","2","2","3","2","2","3","2","3","2","1","4","1","4","4","3","2","3","4","2","3","1","1","0","1","1","0","1","1","1","1","0","1","0","1","0","1","3","2","4","3","3","2","4","4","3","5","3","791708952864890881","吴","375","","","","","","","","","","","","","","","","","","","","","","","","","","","","","","","","","","","","","","","","","",""
"631","<p style=""color:rgb(150, 250, 100); font-size: 35px;"">我</p>","i","categorize-html","22","172393","0.0-6.0-1.0-2.0-1.6","4","3","2","3","3","2","2","2","2","2","3","2","2","3","2","3","2","1","4","1","4","4","3","2","3","4","2","3","1","1","0","1","1","0","1","1","1","1","0","1","0","1","0","1","3","2","4","3","3","2","4","4","3","5","3","791708952864890881","吴","375","","","","","","","","","","","","","","","","","","","true","11","1","moral","631","self","我","","","","","","","","","","","","","","","","",""
"null","","null","html-keyboard-response","23","172646","0.0-6.0-1.0-2.0-0.7","4","3","2","3","3","2","2","2","2","2","3","2","2","3","2","3","2","1","4","1","4","4","3","2","3","4","2","3","1","1","0","1","1","0","1","1","1","1","0","1","0","1","0","1","3","2","4","3","3","2","4","4","3","5","3","791708952864890881","吴","375","","","","","","","","","","","","","","","","","","","","","","","","","","","","","","","","","","","","","","","","","",""
"993","<p style=""color:rgb(150, 250, 100); font-size: 35px;"">他人</p>","e","categorize-html","24","173645","0.0-6.0-1.0-2.0-1.7","4","3","2","3","3","2","2","2","2","2","3","2","2","3","2","3","2","1","4","1","4","4","3","2","3","4","2","3","1","1","0","1","1","0","1","1","1","1","0","1","0","1","0","1","3","2","4","3","3","2","4","4","3","5","3","791708952864890881","吴","375","","","","","","","","","","","","","","","","","","","true","11","1","moral","993","other","他人","","","","","","","","","","","","","","","","",""
"null","","null","html-keyboard-response","25","173897","0.0-6.0-1.0-2.0-0.8","4","3","2","3","3","2","2","2","2","2","3","2","2","3","2","3","2","1","4","1","4","4","3","2","3","4","2","3","1","1","0","1","1","0","1","1","1","1","0","1","0","1","0","1","3","2","4","3","3","2","4","4","3","5","3","791708952864890881","吴","375","","","","","","","","","","","","","","","","","","","","","","","","","","","","","","","","","","","","","","","","","",""
"957","<p style=""color:rgb(150, 250, 100); font-size: 35px;"">别人</p>","e","categorize-html","26","174860","0.0-6.0-1.0-2.0-1.8","4","3","2","3","3","2","2","2","2","2","3","2","2","3","2","3","2","1","4","1","4","4","3","2","3","4","2","3","1","1","0","1","1","0","1","1","1","1","0","1","0","1","0","1","3","2","4","3","3","2","4","4","3","5","3","791708952864890881","吴","375","","","","","","","","","","","","","","","","","","","true","11","1","moral","957","other","别人","","","","","","","","","","","","","","","","",""
"null","","null","html-keyboard-response","27","175112","0.0-6.0-1.0-2.0-0.9","4","3","2","3","3","2","2","2","2","2","3","2","2","3","2","3","2","1","4","1","4","4","3","2","3","4","2","3","1","1","0","1","1","0","1","1","1","1","0","1","0","1","0","1","3","2","4","3","3","2","4","4","3","5","3","791708952864890881","吴","375","","","","","","","","","","","","","","","","","","","","","","","","","","","","","","","","","","","","","","","","","",""
"1340","<p style=""color:rgb(150, 250, 100); font-size: 35px;"">他的</p>","e","categorize-html","28","176458","0.0-6.0-1.0-2.0-1.9","4","3","2","3","3","2","2","2","2","2","3","2","2","3","2","3","2","1","4","1","4","4","3","2","3","4","2","3","1","1","0","1","1","0","1","1","1","1","0","1","0","1","0","1","3","2","4","3","3","2","4","4","3","5","3","791708952864890881","吴","375","","","","","","","","","","","","","","","","","","","true","11","1","moral","1340","other","他的","","","","","","","","","","","","","","","","",""
"null","","null","html-keyboard-response","29","176709","0.0-6.0-1.0-2.0-0.10","4","3","2","3","3","2","2","2","2","2","3","2","2","3","2","3","2","1","4","1","4","4","3","2","3","4","2","3","1","1","0","1","1","0","1","1","1","1","0","1","0","1","0","1","3","2","4","3","3","2","4","4","3","5","3","791708952864890881","吴","375","","","","","","","","","","","","","","","","","","","","","","","","","","","","","","","","","","","","","","","","","",""
"682","<p style=""color:rgb(150, 250, 100); font-size: 35px;"">他人的</p>","e","categorize-html","30","177397","0.0-6.0-1.0-2.0-1.10","4","3","2","3","3","2","2","2","2","2","3","2","2","3","2","3","2","1","4","1","4","4","3","2","3","4","2","3","1","1","0","1","1","0","1","1","1","1","0","1","0","1","0","1","3","2","4","3","3","2","4","4","3","5","3","791708952864890881","吴","375","","","","","","","","","","","","","","","","","","","true","11","1","moral","682","other","他人的","","","","","","","","","","","","","","","","",""
"null","","null","html-keyboard-response","31","177648","0.0-6.0-1.0-2.0-0.11","4","3","2","3","3","2","2","2","2","2","3","2","2","3","2","3","2","1","4","1","4","4","3","2","3","4","2","3","1","1","0","1","1","0","1","1","1","1","0","1","0","1","0","1","3","2","4","3","3","2","4","4","3","5","3","791708952864890881","吴","375","","","","","","","","","","","","","","","","","","","","","","","","","","","","","","","","","","","","","","","","","",""
"828","<p style=""color:rgb(150, 250, 100); font-size: 35px;"">别人的</p>","e","categorize-html","32","178482","0.0-6.0-1.0-2.0-1.11","4","3","2","3","3","2","2","2","2","2","3","2","2","3","2","3","2","1","4","1","4","4","3","2","3","4","2","3","1","1","0","1","1","0","1","1","1","1","0","1","0","1","0","1","3","2","4","3","3","2","4","4","3","5","3","791708952864890881","吴","375","","","","","","","","","","","","","","","","","","","true","11","1","moral","828","other","别人的","","","","","","","","","","","","","","","","",""
"10207","
    <div class=""tag-bottom""><p>
    —— 任务2：对“消极”词和“积极”词分类 ——<p/>   
    <span style=""color:#78DCE8""><b>注意上方，类别标签和需要分类的词语都已经改变</b></span><p/>
    <span style=""color:#FFD866""><b>请根据上方标签的提示，尽可能正确并且快速地做出按键反应</b></span><p/>
    当按键错误时屏幕中会出现<span style=""color:red""> X </span>，需要按另一个键纠正才能继续<br/><p/>
    请把双手食指分别放在键盘的“E”键和“I”键上<p/>
    按<空格键>开始
    </p></div>"," ","html-keyboard-response","33","188691","0.0-6.0-1.0-3.0","4","3","2","3","3","2","2","2","2","2","3","2","2","3","2","3","2","1","4","1","4","4","3","2","3","4","2","3","1","1","0","1","1","0","1","1","1","1","0","1","0","1","0","1","3","2","4","3","3","2","4","4","3","5","3","791708952864890881","吴","375","","","","","","","","","","","","","","","","","","","","","","","","","","","","","","","","","","","","","","","","","",""
"null","","null","html-keyboard-response","34","188943","0.0-6.0-1.0-4.0-0.0","4","3","2","3","3","2","2","2","2","2","3","2","2","3","2","3","2","1","4","1","4","4","3","2","3","4","2","3","1","1","0","1","1","0","1","1","1","1","0","1","0","1","0","1","3","2","4","3","3","2","4","4","3","5","3","791708952864890881","吴","375","","","","","","","","","","","","","","","","","","","","","","","","","","","","","","","","","","","","","","","","","",""
"2733","<p style=""color:white; font-size: 35px;"">卑鄙</p>","e","categorize-html","35","191683","0.0-6.0-1.0-4.0-1.0","4","3","2","3","3","2","2","2","2","2","3","2","2","3","2","3","2","1","4","1","4","4","3","2","3","4","2","3","1","1","0","1","1","0","1","1","1","1","0","1","0","1","0","1","3","2","4","3","3","2","4","4","3","5","3","791708952864890881","吴","375","","","","","","","","","","","","","","","","","","","true","12","2","moral","2733","negative","卑鄙","","","","","","","","","","","","","","","","",""
"null","","null","html-keyboard-response","36","191935","0.0-6.0-1.0-4.0-0.1","4","3","2","3","3","2","2","2","2","2","3","2","2","3","2","3","2","1","4","1","4","4","3","2","3","4","2","3","1","1","0","1","1","0","1","1","1","1","0","1","0","1","0","1","3","2","4","3","3","2","4","4","3","5","3","791708952864890881","吴","375","","","","","","","","","","","","","","","","","","","","","","","","","","","","","","","","","","","","","","","","","",""
"1033","<p style=""color:white; font-size: 35px;"">善良</p>","i","categorize-html","37","192973","0.0-6.0-1.0-4.0-1.1","4","3","2","3","3","2","2","2","2","2","3","2","2","3","2","3","2","1","4","1","4","4","3","2","3","4","2","3","1","1","0","1","1","0","1","1","1","1","0","1","0","1","0","1","3","2","4","3","3","2","4","4","3","5","3","791708952864890881","吴","375","","","","","","","","","","","","","","","","","","","true","12","2","moral","1033","positive","善良","","","","","","","","","","","","","","","","",""
"null","","null","html-keyboard-response","38","193225","0.0-6.0-1.0-4.0-0.2","4","3","2","3","3","2","2","2","2","2","3","2","2","3","2","3","2","1","4","1","4","4","3","2","3","4","2","3","1","1","0","1","1","0","1","1","1","1","0","1","0","1","0","1","3","2","4","3","3","2","4","4","3","5","3","791708952864890881","吴","375","","","","","","","","","","","","","","","","","","","","","","","","","","","","","","","","","","","","","","","","","",""
"590","<p style=""color:white; font-size: 35px;"">高尚</p>","i","categorize-html","39","193820","0.0-6.0-1.0-4.0-1.2","4","3","2","3","3","2","2","2","2","2","3","2","2","3","2","3","2","1","4","1","4","4","3","2","3","4","2","3","1","1","0","1","1","0","1","1","1","1","0","1","0","1","0","1","3","2","4","3","3","2","4","4","3","5","3","791708952864890881","吴","375","","","","","","","","","","","","","","","","","","","true","12","2","moral","590","positive","高尚","","","","","","","","","","","","","","","","",""
"null","","null","html-keyboard-response","40","194073","0.0-6.0-1.0-4.0-0.3","4","3","2","3","3","2","2","2","2","2","3","2","2","3","2","3","2","1","4","1","4","4","3","2","3","4","2","3","1","1","0","1","1","0","1","1","1","1","0","1","0","1","0","1","3","2","4","3","3","2","4","4","3","5","3","791708952864890881","吴","375","","","","","","","","","","","","","","","","","","","","","","","","","","","","","","","","","","","","","","","","","",""
"546","<p style=""color:white; font-size: 35px;"">君子</p>","i","categorize-html","41","194624","0.0-6.0-1.0-4.0-1.3","4","3","2","3","3","2","2","2","2","2","3","2","2","3","2","3","2","1","4","1","4","4","3","2","3","4","2","3","1","1","0","1","1","0","1","1","1","1","0","1","0","1","0","1","3","2","4","3","3","2","4","4","3","5","3","791708952864890881","吴","375","","","","","","","","","","","","","","","","","","","true","12","2","moral","546","positive","君子","","","","","","","","","","","","","","","","",""
"null","","null","html-keyboard-response","42","194876","0.0-6.0-1.0-4.0-0.4","4","3","2","3","3","2","2","2","2","2","3","2","2","3","2","3","2","1","4","1","4","4","3","2","3","4","2","3","1","1","0","1","1","0","1","1","1","1","0","1","0","1","0","1","3","2","4","3","3","2","4","4","3","5","3","791708952864890881","吴","375","","","","","","","","","","","","","","","","","","","","","","","","","","","","","","","","","","","","","","","","","",""
"493","<p style=""color:white; font-size: 35px;"">诚信</p>","i","categorize-html","43","195374","0.0-6.0-1.0-4.0-1.4","4","3","2","3","3","2","2","2","2","2","3","2","2","3","2","3","2","1","4","1","4","4","3","2","3","4","2","3","1","1","0","1","1","0","1","1","1","1","0","1","0","1","0","1","3","2","4","3","3","2","4","4","3","5","3","791708952864890881","吴","375","","","","","","","","","","","","","","","","","","","true","12","2","moral","493","positive","诚信","","","","","","","","","","","","","","","","",""
"null","","null","html-keyboard-response","44","195626","0.0-6.0-1.0-4.0-0.5","4","3","2","3","3","2","2","2","2","2","3","2","2","3","2","3","2","1","4","1","4","4","3","2","3","4","2","3","1","1","0","1","1","0","1","1","1","1","0","1","0","1","0","1","3","2","4","3","3","2","4","4","3","5","3","791708952864890881","吴","375","","","","","","","","","","","","","","","","","","","","","","","","","","","","","","","","","","","","","","","","","",""
"687","<p style=""color:white; font-size: 35px;"">小人</p>","e","categorize-html","45","196318","0.0-6.0-1.0-4.0-1.5","4","3","2","3","3","2","2","2","2","2","3","2","2","3","2","3","2","1","4","1","4","4","3","2","3","4","2","3","1","1","0","1","1","0","1","1","1","1","0","1","0","1","0","1","3","2","4","3","3","2","4","4","3","5","3","791708952864890881","吴","375","","","","","","","","","","","","","","","","","","","true","12","2","moral","687","negative","小人","","","","","","","","","","","","","","","","",""
"null","","null","html-keyboard-response","46","196570","0.0-6.0-1.0-4.0-0.6","4","3","2","3","3","2","2","2","2","2","3","2","2","3","2","3","2","1","4","1","4","4","3","2","3","4","2","3","1","1","0","1","1","0","1","1","1","1","0","1","0","1","0","1","3","2","4","3","3","2","4","4","3","5","3","791708952864890881","吴","375","","","","","","","","","","","","","","","","","","","","","","","","","","","","","","","","","","","","","","","","","",""
"2115","<p style=""color:white; font-size: 35px;"">不仁</p>","e","categorize-html","47","198691","0.0-6.0-1.0-4.0-1.6","4","3","2","3","3","2","2","2","2","2","3","2","2","3","2","3","2","1","4","1","4","4","3","2","3","4","2","3","1","1","0","1","1","0","1","1","1","1","0","1","0","1","0","1","3","2","4","3","3","2","4","4","3","5","3","791708952864890881","吴","375","","","","","","","","","","","","","","","","","","","true","12","2","moral","2115","negative","不仁","","","","","","","","","","","","","","","","",""
"null","","null","html-keyboard-response","48","198943","0.0-6.0-1.0-4.0-0.7","4","3","2","3","3","2","2","2","2","2","3","2","2","3","2","3","2","1","4","1","4","4","3","2","3","4","2","3","1","1","0","1","1","0","1","1","1","1","0","1","0","1","0","1","3","2","4","3","3","2","4","4","3","5","3","791708952864890881","吴","375","","","","","","","","","","","","","","","","","","","","","","","","","","","","","","","","","","","","","","","","","",""
"1156","<p style=""color:white; font-size: 35px;"">正直</p>","i","categorize-html","49","200105","0.0-6.0-1.0-4.0-1.7","4","3","2","3","3","2","2","2","2","2","3","2","2","3","2","3","2","1","4","1","4","4","3","2","3","4","2","3","1","1","0","1","1","0","1","1","1","1","0","1","0","1","0","1","3","2","4","3","3","2","4","4","3","5","3","791708952864890881","吴","375","","","","","","","","","","","","","","","","","","","true","12","2","moral","1156","positive","正直","","","","","","","","","","","","","","","","",""
"null","","null","html-keyboard-response","50","200356","0.0-6.0-1.0-4.0-0.8","4","3","2","3","3","2","2","2","2","2","3","2","2","3","2","3","2","1","4","1","4","4","3","2","3","4","2","3","1","1","0","1","1","0","1","1","1","1","0","1","0","1","0","1","3","2","4","3","3","2","4","4","3","5","3","791708952864890881","吴","375","","","","","","","","","","","","","","","","","","","","","","","","","","","","","","","","","","","","","","","","","",""
"3026","<p style=""color:white; font-size: 35px;"">黑心</p>","e","categorize-html","51","203387","0.0-6.0-1.0-4.0-1.8","4","3","2","3","3","2","2","2","2","2","3","2","2","3","2","3","2","1","4","1","4","4","3","2","3","4","2","3","1","1","0","1","1","0","1","1","1","1","0","1","0","1","0","1","3","2","4","3","3","2","4","4","3","5","3","791708952864890881","吴","375","","","","","","","","","","","","","","","","","","","true","12","2","moral","3026","negative","黑心","","","","","","","","","","","","","","","","",""
"null","","null","html-keyboard-response","52","203640","0.0-6.0-1.0-4.0-0.9","4","3","2","3","3","2","2","2","2","2","3","2","2","3","2","3","2","1","4","1","4","4","3","2","3","4","2","3","1","1","0","1","1","0","1","1","1","1","0","1","0","1","0","1","3","2","4","3","3","2","4","4","3","5","3","791708952864890881","吴","375","","","","","","","","","","","","","","","","","","","","","","","","","","","","","","","","","","","","","","","","","",""
"1045","<p style=""color:white; font-size: 35px;"">廉正</p>","i","categorize-html","53","204690","0.0-6.0-1.0-4.0-1.9","4","3","2","3","3","2","2","2","2","2","3","2","2","3","2","3","2","1","4","1","4","4","3","2","3","4","2","3","1","1","0","1","1","0","1","1","1","1","0","1","0","1","0","1","3","2","4","3","3","2","4","4","3","5","3","791708952864890881","吴","375","","","","","","","","","","","","","","","","","","","true","12","2","moral","1045","positive","廉正","","","","","","","","","","","","","","","","",""
"null","","null","html-keyboard-response","54","204942","0.0-6.0-1.0-4.0-0.10","4","3","2","3","3","2","2","2","2","2","3","2","2","3","2","3","2","1","4","1","4","4","3","2","3","4","2","3","1","1","0","1","1","0","1","1","1","1","0","1","0","1","0","1","3","2","4","3","3","2","4","4","3","5","3","791708952864890881","吴","375","","","","","","","","","","","","","","","","","","","","","","","","","","","","","","","","","","","","","","","","","",""
"1580","<p style=""color:white; font-size: 35px;"">不孝</p>","e","categorize-html","55","206528","0.0-6.0-1.0-4.0-1.10","4","3","2","3","3","2","2","2","2","2","3","2","2","3","2","3","2","1","4","1","4","4","3","2","3","4","2","3","1","1","0","1","1","0","1","1","1","1","0","1","0","1","0","1","3","2","4","3","3","2","4","4","3","5","3","791708952864890881","吴","375","","","","","","","","","","","","","","","","","","","true","12","2","moral","1580","negative","不孝","","","","","","","","","","","","","","","","",""
"null","","null","html-keyboard-response","56","206779","0.0-6.0-1.0-4.0-0.11","4","3","2","3","3","2","2","2","2","2","3","2","2","3","2","3","2","1","4","1","4","4","3","2","3","4","2","3","1","1","0","1","1","0","1","1","1","1","0","1","0","1","0","1","3","2","4","3","3","2","4","4","3","5","3","791708952864890881","吴","375","","","","","","","","","","","","","","","","","","","","","","","","","","","","","","","","","","","","","","","","","",""
"2364","<p style=""color:white; font-size: 35px;"">缺德</p>","e","categorize-html","57","209149","0.0-6.0-1.0-4.0-1.11","4","3","2","3","3","2","2","2","2","2","3","2","2","3","2","3","2","1","4","1","4","4","3","2","3","4","2","3","1","1","0","1","1","0","1","1","1","1","0","1","0","1","0","1","3","2","4","3","3","2","4","4","3","5","3","791708952864890881","吴","375","","","","","","","","","","","","","","","","","","","true","12","2","moral","2364","negative","缺德","","","","","","","","","","","","","","","","",""
"6717","
    <div class=""tag-bottom""><p>
    —— 任务3：对“他人/消极”词和“自我/积极”词分类 ——<p/>
    <span style=""color:#78DCE8""><b>注意上方，之前的四类词语将混合在一起交替呈现</b></span><p/>
    <span style=""color:#FFD866""><b>请根据上方标签的提示，尽可能正确并且快速地做出按键反应</b></span><p/>
    当按键错误时屏幕中会出现<span style=""color:red""> X </span>，需要按另一个键纠正才能继续<br/><p/>
    请把双手食指分别放在键盘的“E”键和“I”键上<p/>
    按<空格键>开始
    </p></div>"," ","html-keyboard-response","58","215868","0.0-6.0-1.0-5.0","4","3","2","3","3","2","2","2","2","2","3","2","2","3","2","3","2","1","4","1","4","4","3","2","3","4","2","3","1","1","0","1","1","0","1","1","1","1","0","1","0","1","0","1","3","2","4","3","3","2","4","4","3","5","3","791708952864890881","吴","375","","","","","","","","","","","","","","","","","","","","","","","","","","","","","","","","","","","","","","","","","",""
"null","","null","html-keyboard-response","59","216120","0.0-6.0-1.0-6.0-0.0","4","3","2","3","3","2","2","2","2","2","3","2","2","3","2","3","2","1","4","1","4","4","3","2","3","4","2","3","1","1","0","1","1","0","1","1","1","1","0","1","0","1","0","1","3","2","4","3","3","2","4","4","3","5","3","791708952864890881","吴","375","","","","","","","","","","","","","","","","","","","","","","","","","","","","","","","","","","","","","","","","","",""
"1476","<p style=""color:rgb(150, 250, 100); font-size: 35px;"">他人</p>","e","categorize-html","60","217604","0.0-6.0-1.0-6.0-1.0","4","3","2","3","3","2","2","2","2","2","3","2","2","3","2","3","2","1","4","1","4","4","3","2","3","4","2","3","1","1","0","1","1","0","1","1","1","1","0","1","0","1","0","1","3","2","4","3","3","2","4","4","3","5","3","791708952864890881","吴","375","","","","","","","","","","","","","","","","","","","true","13","3","moral","1476","other","他人","","","","","","","","","","","","","","","","",""
"null","","null","html-keyboard-response","61","217856","0.0-6.0-1.0-6.0-0.1","4","3","2","3","3","2","2","2","2","2","3","2","2","3","2","3","2","1","4","1","4","4","3","2","3","4","2","3","1","1","0","1","1","0","1","1","1","1","0","1","0","1","0","1","3","2","4","3","3","2","4","4","3","5","3","791708952864890881","吴","375","","","","","","","","","","","","","","","","","","","","","","","","","","","","","","","","","","","","","","","","","",""
"1137","<p style=""color:white; font-size: 35px;"">君子</p>","i","categorize-html","62","218999","0.0-6.0-1.0-6.0-1.1","4","3","2","3","3","2","2","2","2","2","3","2","2","3","2","3","2","1","4","1","4","4","3","2","3","4","2","3","1","1","0","1","1","0","1","1","1","1","0","1","0","1","0","1","3","2","4","3","3","2","4","4","3","5","3","791708952864890881","吴","375","","","","","","","","","","","","","","","","","","","true","13","3","moral","1137","positive","君子","","","","","","","","","","","","","","","","",""
"null","","null","html-keyboard-response","63","219250","0.0-6.0-1.0-6.0-0.2","4","3","2","3","3","2","2","2","2","2","3","2","2","3","2","3","2","1","4","1","4","4","3","2","3","4","2","3","1","1","0","1","1","0","1","1","1","1","0","1","0","1","0","1","3","2","4","3","3","2","4","4","3","5","3","791708952864890881","吴","375","","","","","","","","","","","","","","","","","","","","","","","","","","","","","","","","","","","","","","","","","",""
"1460","<p style=""color:rgb(150, 250, 100); font-size: 35px;"">本人</p>","i","categorize-html","64","220716","0.0-6.0-1.0-6.0-1.2","4","3","2","3","3","2","2","2","2","2","3","2","2","3","2","3","2","1","4","1","4","4","3","2","3","4","2","3","1","1","0","1","1","0","1","1","1","1","0","1","0","1","0","1","3","2","4","3","3","2","4","4","3","5","3","791708952864890881","吴","375","","","","","","","","","","","","","","","","","","","true","13","3","moral","1460","self","本人","","","","","","","","","","","","","","","","",""
"null","","null","html-keyboard-response","65","220968","0.0-6.0-1.0-6.0-0.3","4","3","2","3","3","2","2","2","2","2","3","2","2","3","2","3","2","1","4","1","4","4","3","2","3","4","2","3","1","1","0","1","1","0","1","1","1","1","0","1","0","1","0","1","3","2","4","3","3","2","4","4","3","5","3","791708952864890881","吴","375","","","","","","","","","","","","","","","","","","","","","","","","","","","","","","","","","","","","","","","","","",""
"827","<p style=""color:white; font-size: 35px;"">不仁</p>","e","categorize-html","66","221802","0.0-6.0-1.0-6.0-1.3","4","3","2","3","3","2","2","2","2","2","3","2","2","3","2","3","2","1","4","1","4","4","3","2","3","4","2","3","1","1","0","1","1","0","1","1","1","1","0","1","0","1","0","1","3","2","4","3","3","2","4","4","3","5","3","791708952864890881","吴","375","","","","","","","","","","","","","","","","","","","true","13","3","moral","827","negative","不仁","","","","","","","","","","","","","","","","",""
"null","","null","html-keyboard-response","67","222053","0.0-6.0-1.0-6.0-0.4","4","3","2","3","3","2","2","2","2","2","3","2","2","3","2","3","2","1","4","1","4","4","3","2","3","4","2","3","1","1","0","1","1","0","1","1","1","1","0","1","0","1","0","1","3","2","4","3","3","2","4","4","3","5","3","791708952864890881","吴","375","","","","","","","","","","","","","","","","","","","","","","","","","","","","","","","","","","","","","","","","","",""
"684","<p style=""color:rgb(150, 250, 100); font-size: 35px;"">自己的</p>","i","categorize-html","68","222744","0.0-6.0-1.0-6.0-1.4","4","3","2","3","3","2","2","2","2","2","3","2","2","3","2","3","2","1","4","1","4","4","3","2","3","4","2","3","1","1","0","1","1","0","1","1","1","1","0","1","0","1","0","1","3","2","4","3","3","2","4","4","3","5","3","791708952864890881","吴","375","","","","","","","","","","","","","","","","","","","true","13","3","moral","684","self","自己的","","","","","","","","","","","","","","","","",""
"null","","null","html-keyboard-response","69","222996","0.0-6.0-1.0-6.0-0.5","4","3","2","3","3","2","2","2","2","2","3","2","2","3","2","3","2","1","4","1","4","4","3","2","3","4","2","3","1","1","0","1","1","0","1","1","1","1","0","1","0","1","0","1","3","2","4","3","3","2","4","4","3","5","3","791708952864890881","吴","375","","","","","","","","","","","","","","","","","","","","","","","","","","","","","","","","","","","","","","","","","",""
"592","<p style=""color:white; font-size: 35px;"">黑心</p>","e","categorize-html","70","223594","0.0-6.0-1.0-6.0-1.5","4","3","2","3","3","2","2","2","2","2","3","2","2","3","2","3","2","1","4","1","4","4","3","2","3","4","2","3","1","1","0","1","1","0","1","1","1","1","0","1","0","1","0","1","3","2","4","3","3","2","4","4","3","5","3","791708952864890881","吴","375","","","","","","","","","","","","","","","","","","","true","13","3","moral","592","negative","黑心","","","","","","","","","","","","","","","","",""
"null","","null","html-keyboard-response","71","223846","0.0-6.0-1.0-6.0-0.6","4","3","2","3","3","2","2","2","2","2","3","2","2","3","2","3","2","1","4","1","4","4","3","2","3","4","2","3","1","1","0","1","1","0","1","1","1","1","0","1","0","1","0","1","3","2","4","3","3","2","4","4","3","5","3","791708952864890881","吴","375","","","","","","","","","","","","","","","","","","","","","","","","","","","","","","","","","","","","","","","","","",""
"643","<p style=""color:rgb(150, 250, 100); font-size: 35px;"">他</p>","e","categorize-html","72","224495","0.0-6.0-1.0-6.0-1.6","4","3","2","3","3","2","2","2","2","2","3","2","2","3","2","3","2","1","4","1","4","4","3","2","3","4","2","3","1","1","0","1","1","0","1","1","1","1","0","1","0","1","0","1","3","2","4","3","3","2","4","4","3","5","3","791708952864890881","吴","375","","","","","","","","","","","","","","","","","","","true","13","3","moral","643","other","他","","","","","","","","","","","","","","","","",""
"null","","null","html-keyboard-response","73","224747","0.0-6.0-1.0-6.0-0.7","4","3","2","3","3","2","2","2","2","2","3","2","2","3","2","3","2","1","4","1","4","4","3","2","3","4","2","3","1","1","0","1","1","0","1","1","1","1","0","1","0","1","0","1","3","2","4","3","3","2","4","4","3","5","3","791708952864890881","吴","375","","","","","","","","","","","","","","","","","","","","","","","","","","","","","","","","","","","","","","","","","",""
"579","<p style=""color:white; font-size: 35px;"">善良</p>","i","categorize-html","74","225332","0.0-6.0-1.0-6.0-1.7","4","3","2","3","3","2","2","2","2","2","3","2","2","3","2","3","2","1","4","1","4","4","3","2","3","4","2","3","1","1","0","1","1","0","1","1","1","1","0","1","0","1","0","1","3","2","4","3","3","2","4","4","3","5","3","791708952864890881","吴","375","","","","","","","","","","","","","","","","","","","true","13","3","moral","579","positive","善良","","","","","","","","","","","","","","","","",""
"null","","null","html-keyboard-response","75","225584","0.0-6.0-1.0-6.0-0.8","4","3","2","3","3","2","2","2","2","2","3","2","2","3","2","3","2","1","4","1","4","4","3","2","3","4","2","3","1","1","0","1","1","0","1","1","1","1","0","1","0","1","0","1","3","2","4","3","3","2","4","4","3","5","3","791708952864890881","吴","375","","","","","","","","","","","","","","","","","","","","","","","","","","","","","","","","","","","","","","","","","",""
"575","<p style=""color:rgb(150, 250, 100); font-size: 35px;"">我</p>","i","categorize-html","76","226165","0.0-6.0-1.0-6.0-1.8","4","3","2","3","3","2","2","2","2","2","3","2","2","3","2","3","2","1","4","1","4","4","3","2","3","4","2","3","1","1","0","1","1","0","1","1","1","1","0","1","0","1","0","1","3","2","4","3","3","2","4","4","3","5","3","791708952864890881","吴","375","","","","","","","","","","","","","","","","","","","true","13","3","moral","575","self","我","","","","","","","","","","","","","","","","",""
"null","","null","html-keyboard-response","77","226417","0.0-6.0-1.0-6.0-0.9","4","3","2","3","3","2","2","2","2","2","3","2","2","3","2","3","2","1","4","1","4","4","3","2","3","4","2","3","1","1","0","1","1","0","1","1","1","1","0","1","0","1","0","1","3","2","4","3","3","2","4","4","3","5","3","791708952864890881","吴","375","","","","","","","","","","","","","","","","","","","","","","","","","","","","","","","","","","","","","","","","","",""
"528","<p style=""color:white; font-size: 35px;"">小人</p>","e","categorize-html","78","226952","0.0-6.0-1.0-6.0-1.9","4","3","2","3","3","2","2","2","2","2","3","2","2","3","2","3","2","1","4","1","4","4","3","2","3","4","2","3","1","1","0","1","1","0","1","1","1","1","0","1","0","1","0","1","3","2","4","3","3","2","4","4","3","5","3","791708952864890881","吴","375","","","","","","","","","","","","","","","","","","","true","13","3","moral","528","negative","小人","","","","","","","","","","","","","","","","",""
"null","","null","html-keyboard-response","79","227204","0.0-6.0-1.0-6.0-0.10","4","3","2","3","3","2","2","2","2","2","3","2","2","3","2","3","2","1","4","1","4","4","3","2","3","4","2","3","1","1","0","1","1","0","1","1","1","1","0","1","0","1","0","1","3","2","4","3","3","2","4","4","3","5","3","791708952864890881","吴","375","","","","","","","","","","","","","","","","","","","","","","","","","","","","","","","","","","","","","","","","","",""
"1876","<p style=""color:rgb(150, 250, 100); font-size: 35px;"">别人</p>","e","categorize-html","80","229086","0.0-6.0-1.0-6.0-1.10","4","3","2","3","3","2","2","2","2","2","3","2","2","3","2","3","2","1","4","1","4","4","3","2","3","4","2","3","1","1","0","1","1","0","1","1","1","1","0","1","0","1","0","1","3","2","4","3","3","2","4","4","3","5","3","791708952864890881","吴","375","","","","","","","","","","","","","","","","","","","true","13","3","moral","1876","other","别人","","","","","","","","","","","","","","","","",""
"null","","null","html-keyboard-response","81","229339","0.0-6.0-1.0-6.0-0.11","4","3","2","3","3","2","2","2","2","2","3","2","2","3","2","3","2","1","4","1","4","4","3","2","3","4","2","3","1","1","0","1","1","0","1","1","1","1","0","1","0","1","0","1","3","2","4","3","3","2","4","4","3","5","3","791708952864890881","吴","375","","","","","","","","","","","","","","","","","","","","","","","","","","","","","","","","","","","","","","","","","",""
"704","<p style=""color:white; font-size: 35px;"">廉正</p>","i","categorize-html","82","230049","0.0-6.0-1.0-6.0-1.11","4","3","2","3","3","2","2","2","2","2","3","2","2","3","2","3","2","1","4","1","4","4","3","2","3","4","2","3","1","1","0","1","1","0","1","1","1","1","0","1","0","1","0","1","3","2","4","3","3","2","4","4","3","5","3","791708952864890881","吴","375","","","","","","","","","","","","","","","","","","","true","13","3","moral","704","positive","廉正","","","","","","","","","","","","","","","","",""
"null","","null","html-keyboard-response","83","230301","0.0-6.0-1.0-6.0-0.12","4","3","2","3","3","2","2","2","2","2","3","2","2","3","2","3","2","1","4","1","4","4","3","2","3","4","2","3","1","1","0","1","1","0","1","1","1","1","0","1","0","1","0","1","3","2","4","3","3","2","4","4","3","5","3","791708952864890881","吴","375","","","","","","","","","","","","","","","","","","","","","","","","","","","","","","","","","","","","","","","","","",""
"1170","<p style=""color:rgb(150, 250, 100); font-size: 35px;"">他的</p>","e","categorize-html","84","231478","0.0-6.0-1.0-6.0-1.12","4","3","2","3","3","2","2","2","2","2","3","2","2","3","2","3","2","1","4","1","4","4","3","2","3","4","2","3","1","1","0","1","1","0","1","1","1","1","0","1","0","1","0","1","3","2","4","3","3","2","4","4","3","5","3","791708952864890881","吴","375","","","","","","","","","","","","","","","","","","","true","13","3","moral","1170","other","他的","","","","","","","","","","","","","","","","",""
"null","","null","html-keyboard-response","85","231730","0.0-6.0-1.0-6.0-0.13","4","3","2","3","3","2","2","2","2","2","3","2","2","3","2","3","2","1","4","1","4","4","3","2","3","4","2","3","1","1","0","1","1","0","1","1","1","1","0","1","0","1","0","1","3","2","4","3","3","2","4","4","3","5","3","791708952864890881","吴","375","","","","","","","","","","","","","","","","","","","","","","","","","","","","","","","","","","","","","","","","","",""
"778","<p style=""color:white; font-size: 35px;"">正直</p>","i","categorize-html","86","232515","0.0-6.0-1.0-6.0-1.13","4","3","2","3","3","2","2","2","2","2","3","2","2","3","2","3","2","1","4","1","4","4","3","2","3","4","2","3","1","1","0","1","1","0","1","1","1","1","0","1","0","1","0","1","3","2","4","3","3","2","4","4","3","5","3","791708952864890881","吴","375","","","","","","","","","","","","","","","","","","","true","13","3","moral","778","positive","正直","","","","","","","","","","","","","","","","",""
"null","","null","html-keyboard-response","87","232767","0.0-6.0-1.0-6.0-0.14","4","3","2","3","3","2","2","2","2","2","3","2","2","3","2","3","2","1","4","1","4","4","3","2","3","4","2","3","1","1","0","1","1","0","1","1","1","1","0","1","0","1","0","1","3","2","4","3","3","2","4","4","3","5","3","791708952864890881","吴","375","","","","","","","","","","","","","","","","","","","","","","","","","","","","","","","","","","","","","","","","","",""
"975","<p style=""color:rgb(150, 250, 100); font-size: 35px;"">我的</p>","i","categorize-html","88","233748","0.0-6.0-1.0-6.0-1.14","4","3","2","3","3","2","2","2","2","2","3","2","2","3","2","3","2","1","4","1","4","4","3","2","3","4","2","3","1","1","0","1","1","0","1","1","1","1","0","1","0","1","0","1","3","2","4","3","3","2","4","4","3","5","3","791708952864890881","吴","375","","","","","","","","","","","","","","","","","","","true","13","3","moral","975","self","我的","","","","","","","","","","","","","","","","",""
"null","","null","html-keyboard-response","89","234000","0.0-6.0-1.0-6.0-0.15","4","3","2","3","3","2","2","2","2","2","3","2","2","3","2","3","2","1","4","1","4","4","3","2","3","4","2","3","1","1","0","1","1","0","1","1","1","1","0","1","0","1","0","1","3","2","4","3","3","2","4","4","3","5","3","791708952864890881","吴","375","","","","","","","","","","","","","","","","","","","","","","","","","","","","","","","","","","","","","","","","","",""
"718","<p style=""color:white; font-size: 35px;"">缺德</p>","e","categorize-html","90","234724","0.0-6.0-1.0-6.0-1.15","4","3","2","3","3","2","2","2","2","2","3","2","2","3","2","3","2","1","4","1","4","4","3","2","3","4","2","3","1","1","0","1","1","0","1","1","1","1","0","1","0","1","0","1","3","2","4","3","3","2","4","4","3","5","3","791708952864890881","吴","375","","","","","","","","","","","","","","","","","","","true","13","3","moral","718","negative","缺德","","","","","","","","","","","","","","","","",""
"null","","null","html-keyboard-response","91","234976","0.0-6.0-1.0-6.0-0.16","4","3","2","3","3","2","2","2","2","2","3","2","2","3","2","3","2","1","4","1","4","4","3","2","3","4","2","3","1","1","0","1","1","0","1","1","1","1","0","1","0","1","0","1","3","2","4","3","3","2","4","4","3","5","3","791708952864890881","吴","375","","","","","","","","","","","","","","","","","","","","","","","","","","","","","","","","","","","","","","","","","",""
"822","<p style=""color:rgb(150, 250, 100); font-size: 35px;"">他人的</p>","i","categorize-html","92","236676","0.0-6.0-1.0-6.0-1.16","4","3","2","3","3","2","2","2","2","2","3","2","2","3","2","3","2","1","4","1","4","4","3","2","3","4","2","3","1","1","0","1","1","0","1","1","1","1","0","1","0","1","0","1","3","2","4","3","3","2","4","4","3","5","3","791708952864890881","吴","375","","","","","","","","","","","","","","","","","","","false","13","3","moral","1737.3478260869565","other","他人的","","","","","","","","","","","","","","","","",""
"null","","null","html-keyboard-response","93","236928","0.0-6.0-1.0-6.0-0.17","4","3","2","3","3","2","2","2","2","2","3","2","2","3","2","3","2","1","4","1","4","4","3","2","3","4","2","3","1","1","0","1","1","0","1","1","1","1","0","1","0","1","0","1","3","2","4","3","3","2","4","4","3","5","3","791708952864890881","吴","375","","","","","","","","","","","","","","","","","","","","","","","","","","","","","","","","","","","","","","","","","",""
"2059","<p style=""color:white; font-size: 35px;"">诚信</p>","i","categorize-html","94","238993","0.0-6.0-1.0-6.0-1.17","4","3","2","3","3","2","2","2","2","2","3","2","2","3","2","3","2","1","4","1","4","4","3","2","3","4","2","3","1","1","0","1","1","0","1","1","1","1","0","1","0","1","0","1","3","2","4","3","3","2","4","4","3","5","3","791708952864890881","吴","375","","","","","","","","","","","","","","","","","","","true","13","3","moral","2059","positive","诚信","","","","","","","","","","","","","","","","",""
"null","","null","html-keyboard-response","95","239245","0.0-6.0-1.0-6.0-0.18","4","3","2","3","3","2","2","2","2","2","3","2","2","3","2","3","2","1","4","1","4","4","3","2","3","4","2","3","1","1","0","1","1","0","1","1","1","1","0","1","0","1","0","1","3","2","4","3","3","2","4","4","3","5","3","791708952864890881","吴","375","","","","","","","","","","","","","","","","","","","","","","","","","","","","","","","","","","","","","","","","","",""
"695","<p style=""color:rgb(150, 250, 100); font-size: 35px;"">自己</p>","i","categorize-html","96","239945","0.0-6.0-1.0-6.0-1.18","4","3","2","3","3","2","2","2","2","2","3","2","2","3","2","3","2","1","4","1","4","4","3","2","3","4","2","3","1","1","0","1","1","0","1","1","1","1","0","1","0","1","0","1","3","2","4","3","3","2","4","4","3","5","3","791708952864890881","吴","375","","","","","","","","","","","","","","","","","","","true","13","3","moral","695","self","自己","","","","","","","","","","","","","","","","",""
"null","","null","html-keyboard-response","97","240197","0.0-6.0-1.0-6.0-0.19","4","3","2","3","3","2","2","2","2","2","3","2","2","3","2","3","2","1","4","1","4","4","3","2","3","4","2","3","1","1","0","1","1","0","1","1","1","1","0","1","0","1","0","1","3","2","4","3","3","2","4","4","3","5","3","791708952864890881","吴","375","","","","","","","","","","","","","","","","","","","","","","","","","","","","","","","","","","","","","","","","","",""
"2534","<p style=""color:white; font-size: 35px;"">卑鄙</p>","e","categorize-html","98","242738","0.0-6.0-1.0-6.0-1.19","4","3","2","3","3","2","2","2","2","2","3","2","2","3","2","3","2","1","4","1","4","4","3","2","3","4","2","3","1","1","0","1","1","0","1","1","1","1","0","1","0","1","0","1","3","2","4","3","3","2","4","4","3","5","3","791708952864890881","吴","375","","","","","","","","","","","","","","","","","","","true","13","3","moral","2534","negative","卑鄙","","","","","","","","","","","","","","","","",""
"null","","null","html-keyboard-response","99","242990","0.0-6.0-1.0-6.0-0.20","4","3","2","3","3","2","2","2","2","2","3","2","2","3","2","3","2","1","4","1","4","4","3","2","3","4","2","3","1","1","0","1","1","0","1","1","1","1","0","1","0","1","0","1","3","2","4","3","3","2","4","4","3","5","3","791708952864890881","吴","375","","","","","","","","","","","","","","","","","","","","","","","","","","","","","","","","","","","","","","","","","",""
"617","<p style=""color:rgb(150, 250, 100); font-size: 35px;"">本人的</p>","i","categorize-html","100","243613","0.0-6.0-1.0-6.0-1.20","4","3","2","3","3","2","2","2","2","2","3","2","2","3","2","3","2","1","4","1","4","4","3","2","3","4","2","3","1","1","0","1","1","0","1","1","1","1","0","1","0","1","0","1","3","2","4","3","3","2","4","4","3","5","3","791708952864890881","吴","375","","","","","","","","","","","","","","","","","","","true","13","3","moral","617","self","本人的","","","","","","","","","","","","","","","","",""
"null","","null","html-keyboard-response","101","243865","0.0-6.0-1.0-6.0-0.21","4","3","2","3","3","2","2","2","2","2","3","2","2","3","2","3","2","1","4","1","4","4","3","2","3","4","2","3","1","1","0","1","1","0","1","1","1","1","0","1","0","1","0","1","3","2","4","3","3","2","4","4","3","5","3","791708952864890881","吴","375","","","","","","","","","","","","","","","","","","","","","","","","","","","","","","","","","","","","","","","","","",""
"4015","<p style=""color:white; font-size: 35px;"">不孝</p>","e","categorize-html","102","247886","0.0-6.0-1.0-6.0-1.21","4","3","2","3","3","2","2","2","2","2","3","2","2","3","2","3","2","1","4","1","4","4","3","2","3","4","2","3","1","1","0","1","1","0","1","1","1","1","0","1","0","1","0","1","3","2","4","3","3","2","4","4","3","5","3","791708952864890881","吴","375","","","","","","","","","","","","","","","","","","","true","13","3","moral","4015","negative","不孝","","","","","","","","","","","","","","","","",""
"null","","null","html-keyboard-response","103","248138","0.0-6.0-1.0-6.0-0.22","4","3","2","3","3","2","2","2","2","2","3","2","2","3","2","3","2","1","4","1","4","4","3","2","3","4","2","3","1","1","0","1","1","0","1","1","1","1","0","1","0","1","0","1","3","2","4","3","3","2","4","4","3","5","3","791708952864890881","吴","375","","","","","","","","","","","","","","","","","","","","","","","","","","","","","","","","","","","","","","","","","",""
"785","<p style=""color:rgb(150, 250, 100); font-size: 35px;"">别人的</p>","e","categorize-html","104","248929","0.0-6.0-1.0-6.0-1.22","4","3","2","3","3","2","2","2","2","2","3","2","2","3","2","3","2","1","4","1","4","4","3","2","3","4","2","3","1","1","0","1","1","0","1","1","1","1","0","1","0","1","0","1","3","2","4","3","3","2","4","4","3","5","3","791708952864890881","吴","375","","","","","","","","","","","","","","","","","","","true","13","3","moral","785","other","别人的","","","","","","","","","","","","","","","","",""
"null","","null","html-keyboard-response","105","249181","0.0-6.0-1.0-6.0-0.23","4","3","2","3","3","2","2","2","2","2","3","2","2","3","2","3","2","1","4","1","4","4","3","2","3","4","2","3","1","1","0","1","1","0","1","1","1","1","0","1","0","1","0","1","3","2","4","3","3","2","4","4","3","5","3","791708952864890881","吴","375","","","","","","","","","","","","","","","","","","","","","","","","","","","","","","","","","","","","","","","","","",""
"732","<p style=""color:white; font-size: 35px;"">高尚</p>","i","categorize-html","106","249919","0.0-6.0-1.0-6.0-1.23","4","3","2","3","3","2","2","2","2","2","3","2","2","3","2","3","2","1","4","1","4","4","3","2","3","4","2","3","1","1","0","1","1","0","1","1","1","1","0","1","0","1","0","1","3","2","4","3","3","2","4","4","3","5","3","791708952864890881","吴","375","","","","","","","","","","","","","","","","","","","true","13","3","moral","732","positive","高尚","","","","","","","","","","","","","","","","",""
"9248","
    <div class=""tag-bottom""><p>
    —— 任务4：对“他人/消极”词和“自我/积极”词分类 ——<p/>
    <span style=""color:#78DCE8""><b>与刚才的任务完全相同，请再次对这四类词语分类</b></span><p/>
    <span style=""color:#FFD866""><b>请根据上方标签的提示，尽可能正确并且快速地做出按键反应</b></span><p/>
    当按键错误时屏幕中会出现<span style=""color:red""> X </span>，需要按另一个键纠正才能继续<br/><p/>
    请把双手食指分别放在键盘的“E”键和“I”键上<p/>
    按<空格键>开始
    </p></div>"," ","html-keyboard-response","107","259169","0.0-6.0-1.0-7.0","4","3","2","3","3","2","2","2","2","2","3","2","2","3","2","3","2","1","4","1","4","4","3","2","3","4","2","3","1","1","0","1","1","0","1","1","1","1","0","1","0","1","0","1","3","2","4","3","3","2","4","4","3","5","3","791708952864890881","吴","375","","","","","","","","","","","","","","","","","","","","","","","","","","","","","","","","","","","","","","","","","",""
"null","","null","html-keyboard-response","108","259421","0.0-6.0-1.0-8.0-0.0","4","3","2","3","3","2","2","2","2","2","3","2","2","3","2","3","2","1","4","1","4","4","3","2","3","4","2","3","1","1","0","1","1","0","1","1","1","1","0","1","0","1","0","1","3","2","4","3","3","2","4","4","3","5","3","791708952864890881","吴","375","","","","","","","","","","","","","","","","","","","","","","","","","","","","","","","","","","","","","","","","","",""
"709","<p style=""color:rgb(150, 250, 100); font-size: 35px;"">自己</p>","i","categorize-html","109","260137","0.0-6.0-1.0-8.0-1.0","4","3","2","3","3","2","2","2","2","2","3","2","2","3","2","3","2","1","4","1","4","4","3","2","3","4","2","3","1","1","0","1","1","0","1","1","1","1","0","1","0","1","0","1","3","2","4","3","3","2","4","4","3","5","3","791708952864890881","吴","375","","","","","","","","","","","","","","","","","","","true","14","4","moral","709","self","自己","","","","","","","","","","","","","","","","",""
"null","","null","html-keyboard-response","110","260390","0.0-6.0-1.0-8.0-0.1","4","3","2","3","3","2","2","2","2","2","3","2","2","3","2","3","2","1","4","1","4","4","3","2","3","4","2","3","1","1","0","1","1","0","1","1","1","1","0","1","0","1","0","1","3","2","4","3","3","2","4","4","3","5","3","791708952864890881","吴","375","","","","","","","","","","","","","","","","","","","","","","","","","","","","","","","","","","","","","","","","","",""
"906","<p style=""color:white; font-size: 35px;"">卑鄙</p>","e","categorize-html","111","261302","0.0-6.0-1.0-8.0-1.1","4","3","2","3","3","2","2","2","2","2","3","2","2","3","2","3","2","1","4","1","4","4","3","2","3","4","2","3","1","1","0","1","1","0","1","1","1","1","0","1","0","1","0","1","3","2","4","3","3","2","4","4","3","5","3","791708952864890881","吴","375","","","","","","","","","","","","","","","","","","","true","14","4","moral","906","negative","卑鄙","","","","","","","","","","","","","","","","",""
"null","","null","html-keyboard-response","112","261554","0.0-6.0-1.0-8.0-0.2","4","3","2","3","3","2","2","2","2","2","3","2","2","3","2","3","2","1","4","1","4","4","3","2","3","4","2","3","1","1","0","1","1","0","1","1","1","1","0","1","0","1","0","1","3","2","4","3","3","2","4","4","3","5","3","791708952864890881","吴","375","","","","","","","","","","","","","","","","","","","","","","","","","","","","","","","","","","","","","","","","","",""
"950","<p style=""color:rgb(150, 250, 100); font-size: 35px;"">他</p>","e","categorize-html","113","262510","0.0-6.0-1.0-8.0-1.2","4","3","2","3","3","2","2","2","2","2","3","2","2","3","2","3","2","1","4","1","4","4","3","2","3","4","2","3","1","1","0","1","1","0","1","1","1","1","0","1","0","1","0","1","3","2","4","3","3","2","4","4","3","5","3","791708952864890881","吴","375","","","","","","","","","","","","","","","","","","","true","14","4","moral","950","other","他","","","","","","","","","","","","","","","","",""
"null","","null","html-keyboard-response","114","262762","0.0-6.0-1.0-8.0-0.3","4","3","2","3","3","2","2","2","2","2","3","2","2","3","2","3","2","1","4","1","4","4","3","2","3","4","2","3","1","1","0","1","1","0","1","1","1","1","0","1","0","1","0","1","3","2","4","3","3","2","4","4","3","5","3","791708952864890881","吴","375","","","","","","","","","","","","","","","","","","","","","","","","","","","","","","","","","","","","","","","","","",""
"715","<p style=""color:white; font-size: 35px;"">善良</p>","i","categorize-html","115","263482","0.0-6.0-1.0-8.0-1.3","4","3","2","3","3","2","2","2","2","2","3","2","2","3","2","3","2","1","4","1","4","4","3","2","3","4","2","3","1","1","0","1","1","0","1","1","1","1","0","1","0","1","0","1","3","2","4","3","3","2","4","4","3","5","3","791708952864890881","吴","375","","","","","","","","","","","","","","","","","","","true","14","4","moral","715","positive","善良","","","","","","","","","","","","","","","","",""
"null","","null","html-keyboard-response","116","263734","0.0-6.0-1.0-8.0-0.4","4","3","2","3","3","2","2","2","2","2","3","2","2","3","2","3","2","1","4","1","4","4","3","2","3","4","2","3","1","1","0","1","1","0","1","1","1","1","0","1","0","1","0","1","3","2","4","3","3","2","4","4","3","5","3","791708952864890881","吴","375","","","","","","","","","","","","","","","","","","","","","","","","","","","","","","","","","","","","","","","","","",""
"779","<p style=""color:rgb(150, 250, 100); font-size: 35px;"">自己</p>","i","categorize-html","117","264519","0.0-6.0-1.0-8.0-1.4","4","3","2","3","3","2","2","2","2","2","3","2","2","3","2","3","2","1","4","1","4","4","3","2","3","4","2","3","1","1","0","1","1","0","1","1","1","1","0","1","0","1","0","1","3","2","4","3","3","2","4","4","3","5","3","791708952864890881","吴","375","","","","","","","","","","","","","","","","","","","true","14","4","moral","779","self","自己","","","","","","","","","","","","","","","","",""
"null","","null","html-keyboard-response","118","264771","0.0-6.0-1.0-8.0-0.5","4","3","2","3","3","2","2","2","2","2","3","2","2","3","2","3","2","1","4","1","4","4","3","2","3","4","2","3","1","1","0","1","1","0","1","1","1","1","0","1","0","1","0","1","3","2","4","3","3","2","4","4","3","5","3","791708952864890881","吴","375","","","","","","","","","","","","","","","","","","","","","","","","","","","","","","","","","","","","","","","","","",""
"751","<p style=""color:white; font-size: 35px;"">高尚</p>","i","categorize-html","119","265527","0.0-6.0-1.0-8.0-1.5","4","3","2","3","3","2","2","2","2","2","3","2","2","3","2","3","2","1","4","1","4","4","3","2","3","4","2","3","1","1","0","1","1","0","1","1","1","1","0","1","0","1","0","1","3","2","4","3","3","2","4","4","3","5","3","791708952864890881","吴","375","","","","","","","","","","","","","","","","","","","true","14","4","moral","751","positive","高尚","","","","","","","","","","","","","","","","",""
"null","","null","html-keyboard-response","120","265780","0.0-6.0-1.0-8.0-0.6","4","3","2","3","3","2","2","2","2","2","3","2","2","3","2","3","2","1","4","1","4","4","3","2","3","4","2","3","1","1","0","1","1","0","1","1","1","1","0","1","0","1","0","1","3","2","4","3","3","2","4","4","3","5","3","791708952864890881","吴","375","","","","","","","","","","","","","","","","","","","","","","","","","","","","","","","","","","","","","","","","","",""
"615","<p style=""color:rgb(150, 250, 100); font-size: 35px;"">他人的</p>","e","categorize-html","121","266400","0.0-6.0-1.0-8.0-1.6","4","3","2","3","3","2","2","2","2","2","3","2","2","3","2","3","2","1","4","1","4","4","3","2","3","4","2","3","1","1","0","1","1","0","1","1","1","1","0","1","0","1","0","1","3","2","4","3","3","2","4","4","3","5","3","791708952864890881","吴","375","","","","","","","","","","","","","","","","","","","true","14","4","moral","615","other","他人的","","","","","","","","","","","","","","","","",""
"null","","null","html-keyboard-response","122","266652","0.0-6.0-1.0-8.0-0.7","4","3","2","3","3","2","2","2","2","2","3","2","2","3","2","3","2","1","4","1","4","4","3","2","3","4","2","3","1","1","0","1","1","0","1","1","1","1","0","1","0","1","0","1","3","2","4","3","3","2","4","4","3","5","3","791708952864890881","吴","375","","","","","","","","","","","","","","","","","","","","","","","","","","","","","","","","","","","","","","","","","",""
"940","<p style=""color:white; font-size: 35px;"">小人</p>","e","categorize-html","123","267598","0.0-6.0-1.0-8.0-1.7","4","3","2","3","3","2","2","2","2","2","3","2","2","3","2","3","2","1","4","1","4","4","3","2","3","4","2","3","1","1","0","1","1","0","1","1","1","1","0","1","0","1","0","1","3","2","4","3","3","2","4","4","3","5","3","791708952864890881","吴","375","","","","","","","","","","","","","","","","","","","true","14","4","moral","940","negative","小人","","","","","","","","","","","","","","","","",""
"null","","null","html-keyboard-response","124","267850","0.0-6.0-1.0-8.0-0.8","4","3","2","3","3","2","2","2","2","2","3","2","2","3","2","3","2","1","4","1","4","4","3","2","3","4","2","3","1","1","0","1","1","0","1","1","1","1","0","1","0","1","0","1","3","2","4","3","3","2","4","4","3","5","3","791708952864890881","吴","375","","","","","","","","","","","","","","","","","","","","","","","","","","","","","","","","","","","","","","","","","",""
"558","<p style=""color:rgb(150, 250, 100); font-size: 35px;"">他的</p>","e","categorize-html","125","268415","0.0-6.0-1.0-8.0-1.8","4","3","2","3","3","2","2","2","2","2","3","2","2","3","2","3","2","1","4","1","4","4","3","2","3","4","2","3","1","1","0","1","1","0","1","1","1","1","0","1","0","1","0","1","3","2","4","3","3","2","4","4","3","5","3","791708952864890881","吴","375","","","","","","","","","","","","","","","","","","","true","14","4","moral","558","other","他的","","","","","","","","","","","","","","","","",""
"null","","null","html-keyboard-response","126","268666","0.0-6.0-1.0-8.0-0.9","4","3","2","3","3","2","2","2","2","2","3","2","2","3","2","3","2","1","4","1","4","4","3","2","3","4","2","3","1","1","0","1","1","0","1","1","1","1","0","1","0","1","0","1","3","2","4","3","3","2","4","4","3","5","3","791708952864890881","吴","375","","","","","","","","","","","","","","","","","","","","","","","","","","","","","","","","","","","","","","","","","",""
"780","<p style=""color:white; font-size: 35px;"">诚信</p>","i","categorize-html","127","269453","0.0-6.0-1.0-8.0-1.9","4","3","2","3","3","2","2","2","2","2","3","2","2","3","2","3","2","1","4","1","4","4","3","2","3","4","2","3","1","1","0","1","1","0","1","1","1","1","0","1","0","1","0","1","3","2","4","3","3","2","4","4","3","5","3","791708952864890881","吴","375","","","","","","","","","","","","","","","","","","","true","14","4","moral","780","positive","诚信","","","","","","","","","","","","","","","","",""
"null","","null","html-keyboard-response","128","269705","0.0-6.0-1.0-8.0-0.10","4","3","2","3","3","2","2","2","2","2","3","2","2","3","2","3","2","1","4","1","4","4","3","2","3","4","2","3","1","1","0","1","1","0","1","1","1","1","0","1","0","1","0","1","3","2","4","3","3","2","4","4","3","5","3","791708952864890881","吴","375","","","","","","","","","","","","","","","","","","","","","","","","","","","","","","","","","","","","","","","","","",""
"840","<p style=""color:rgb(150, 250, 100); font-size: 35px;"">本人</p>","i","categorize-html","129","270552","0.0-6.0-1.0-8.0-1.10","4","3","2","3","3","2","2","2","2","2","3","2","2","3","2","3","2","1","4","1","4","4","3","2","3","4","2","3","1","1","0","1","1","0","1","1","1","1","0","1","0","1","0","1","3","2","4","3","3","2","4","4","3","5","3","791708952864890881","吴","375","","","","","","","","","","","","","","","","","","","true","14","4","moral","840","self","本人","","","","","","","","","","","","","","","","",""
"null","","null","html-keyboard-response","130","270804","0.0-6.0-1.0-8.0-0.11","4","3","2","3","3","2","2","2","2","2","3","2","2","3","2","3","2","1","4","1","4","4","3","2","3","4","2","3","1","1","0","1","1","0","1","1","1","1","0","1","0","1","0","1","3","2","4","3","3","2","4","4","3","5","3","791708952864890881","吴","375","","","","","","","","","","","","","","","","","","","","","","","","","","","","","","","","","","","","","","","","","",""
"610","<p style=""color:white; font-size: 35px;"">黑心</p>","e","categorize-html","131","271419","0.0-6.0-1.0-8.0-1.11","4","3","2","3","3","2","2","2","2","2","3","2","2","3","2","3","2","1","4","1","4","4","3","2","3","4","2","3","1","1","0","1","1","0","1","1","1","1","0","1","0","1","0","1","3","2","4","3","3","2","4","4","3","5","3","791708952864890881","吴","375","","","","","","","","","","","","","","","","","","","true","14","4","moral","610","negative","黑心","","","","","","","","","","","","","","","","",""
"null","","null","html-keyboard-response","132","271672","0.0-6.0-1.0-8.0-0.12","4","3","2","3","3","2","2","2","2","2","3","2","2","3","2","3","2","1","4","1","4","4","3","2","3","4","2","3","1","1","0","1","1","0","1","1","1","1","0","1","0","1","0","1","3","2","4","3","3","2","4","4","3","5","3","791708952864890881","吴","375","","","","","","","","","","","","","","","","","","","","","","","","","","","","","","","","","","","","","","","","","",""
"643","<p style=""color:rgb(150, 250, 100); font-size: 35px;"">别人的</p>","e","categorize-html","133","272321","0.0-6.0-1.0-8.0-1.12","4","3","2","3","3","2","2","2","2","2","3","2","2","3","2","3","2","1","4","1","4","4","3","2","3","4","2","3","1","1","0","1","1","0","1","1","1","1","0","1","0","1","0","1","3","2","4","3","3","2","4","4","3","5","3","791708952864890881","吴","375","","","","","","","","","","","","","","","","","","","true","14","4","moral","643","other","别人的","","","","","","","","","","","","","","","","",""
"null","","null","html-keyboard-response","134","272573","0.0-6.0-1.0-8.0-0.13","4","3","2","3","3","2","2","2","2","2","3","2","2","3","2","3","2","1","4","1","4","4","3","2","3","4","2","3","1","1","0","1","1","0","1","1","1","1","0","1","0","1","0","1","3","2","4","3","3","2","4","4","3","5","3","791708952864890881","吴","375","","","","","","","","","","","","","","","","","","","","","","","","","","","","","","","","","","","","","","","","","",""
"609","<p style=""color:white; font-size: 35px;"">卑鄙</p>","e","categorize-html","135","273188","0.0-6.0-1.0-8.0-1.13","4","3","2","3","3","2","2","2","2","2","3","2","2","3","2","3","2","1","4","1","4","4","3","2","3","4","2","3","1","1","0","1","1","0","1","1","1","1","0","1","0","1","0","1","3","2","4","3","3","2","4","4","3","5","3","791708952864890881","吴","375","","","","","","","","","","","","","","","","","","","true","14","4","moral","609","negative","卑鄙","","","","","","","","","","","","","","","","",""
"null","","null","html-keyboard-response","136","273440","0.0-6.0-1.0-8.0-0.14","4","3","2","3","3","2","2","2","2","2","3","2","2","3","2","3","2","1","4","1","4","4","3","2","3","4","2","3","1","1","0","1","1","0","1","1","1","1","0","1","0","1","0","1","3","2","4","3","3","2","4","4","3","5","3","791708952864890881","吴","375","","","","","","","","","","","","","","","","","","","","","","","","","","","","","","","","","","","","","","","","","",""
"499","<p style=""color:rgb(150, 250, 100); font-size: 35px;"">自己的</p>","i","categorize-html","137","273946","0.0-6.0-1.0-8.0-1.14","4","3","2","3","3","2","2","2","2","2","3","2","2","3","2","3","2","1","4","1","4","4","3","2","3","4","2","3","1","1","0","1","1","0","1","1","1","1","0","1","0","1","0","1","3","2","4","3","3","2","4","4","3","5","3","791708952864890881","吴","375","","","","","","","","","","","","","","","","","","","true","14","4","moral","499","self","自己的","","","","","","","","","","","","","","","","",""
"null","","null","html-keyboard-response","138","274197","0.0-6.0-1.0-8.0-0.15","4","3","2","3","3","2","2","2","2","2","3","2","2","3","2","3","2","1","4","1","4","4","3","2","3","4","2","3","1","1","0","1","1","0","1","1","1","1","0","1","0","1","0","1","3","2","4","3","3","2","4","4","3","5","3","791708952864890881","吴","375","","","","","","","","","","","","","","","","","","","","","","","","","","","","","","","","","","","","","","","","","",""
"800","<p style=""color:white; font-size: 35px;"">正直</p>","i","categorize-html","139","275003","0.0-6.0-1.0-8.0-1.15","4","3","2","3","3","2","2","2","2","2","3","2","2","3","2","3","2","1","4","1","4","4","3","2","3","4","2","3","1","1","0","1","1","0","1","1","1","1","0","1","0","1","0","1","3","2","4","3","3","2","4","4","3","5","3","791708952864890881","吴","375","","","","","","","","","","","","","","","","","","","true","14","4","moral","800","positive","正直","","","","","","","","","","","","","","","","",""
"null","","null","html-keyboard-response","140","275255","0.0-6.0-1.0-8.0-0.16","4","3","2","3","3","2","2","2","2","2","3","2","2","3","2","3","2","1","4","1","4","4","3","2","3","4","2","3","1","1","0","1","1","0","1","1","1","1","0","1","0","1","0","1","3","2","4","3","3","2","4","4","3","5","3","791708952864890881","吴","375","","","","","","","","","","","","","","","","","","","","","","","","","","","","","","","","","","","","","","","","","",""
"589","<p style=""color:rgb(150, 250, 100); font-size: 35px;"">他</p>","e","categorize-html","141","275850","0.0-6.0-1.0-8.0-1.16","4","3","2","3","3","2","2","2","2","2","3","2","2","3","2","3","2","1","4","1","4","4","3","2","3","4","2","3","1","1","0","1","1","0","1","1","1","1","0","1","0","1","0","1","3","2","4","3","3","2","4","4","3","5","3","791708952864890881","吴","375","","","","","","","","","","","","","","","","","","","true","14","4","moral","589","other","他","","","","","","","","","","","","","","","","",""
"null","","null","html-keyboard-response","142","276102","0.0-6.0-1.0-8.0-0.17","4","3","2","3","3","2","2","2","2","2","3","2","2","3","2","3","2","1","4","1","4","4","3","2","3","4","2","3","1","1","0","1","1","0","1","1","1","1","0","1","0","1","0","1","3","2","4","3","3","2","4","4","3","5","3","791708952864890881","吴","375","","","","","","","","","","","","","","","","","","","","","","","","","","","","","","","","","","","","","","","","","",""
"783","<p style=""color:white; font-size: 35px;"">君子</p>","i","categorize-html","143","276892","0.0-6.0-1.0-8.0-1.17","4","3","2","3","3","2","2","2","2","2","3","2","2","3","2","3","2","1","4","1","4","4","3","2","3","4","2","3","1","1","0","1","1","0","1","1","1","1","0","1","0","1","0","1","3","2","4","3","3","2","4","4","3","5","3","791708952864890881","吴","375","","","","","","","","","","","","","","","","","","","true","14","4","moral","783","positive","君子","","","","","","","","","","","","","","","","",""
"null","","null","html-keyboard-response","144","277144","0.0-6.0-1.0-8.0-0.18","4","3","2","3","3","2","2","2","2","2","3","2","2","3","2","3","2","1","4","1","4","4","3","2","3","4","2","3","1","1","0","1","1","0","1","1","1","1","0","1","0","1","0","1","3","2","4","3","3","2","4","4","3","5","3","791708952864890881","吴","375","","","","","","","","","","","","","","","","","","","","","","","","","","","","","","","","","","","","","","","","","",""
"679","<p style=""color:rgb(150, 250, 100); font-size: 35px;"">本人</p>","i","categorize-html","145","277829","0.0-6.0-1.0-8.0-1.18","4","3","2","3","3","2","2","2","2","2","3","2","2","3","2","3","2","1","4","1","4","4","3","2","3","4","2","3","1","1","0","1","1","0","1","1","1","1","0","1","0","1","0","1","3","2","4","3","3","2","4","4","3","5","3","791708952864890881","吴","375","","","","","","","","","","","","","","","","","","","true","14","4","moral","679","self","本人","","","","","","","","","","","","","","","","",""
"null","","null","html-keyboard-response","146","278081","0.0-6.0-1.0-8.0-0.19","4","3","2","3","3","2","2","2","2","2","3","2","2","3","2","3","2","1","4","1","4","4","3","2","3","4","2","3","1","1","0","1","1","0","1","1","1","1","0","1","0","1","0","1","3","2","4","3","3","2","4","4","3","5","3","791708952864890881","吴","375","","","","","","","","","","","","","","","","","","","","","","","","","","","","","","","","","","","","","","","","","",""
"635","<p style=""color:white; font-size: 35px;"">不孝</p>","e","categorize-html","147","278722","0.0-6.0-1.0-8.0-1.19","4","3","2","3","3","2","2","2","2","2","3","2","2","3","2","3","2","1","4","1","4","4","3","2","3","4","2","3","1","1","0","1","1","0","1","1","1","1","0","1","0","1","0","1","3","2","4","3","3","2","4","4","3","5","3","791708952864890881","吴","375","","","","","","","","","","","","","","","","","","","true","14","4","moral","635","negative","不孝","","","","","","","","","","","","","","","","",""
"null","","null","html-keyboard-response","148","278974","0.0-6.0-1.0-8.0-0.20","4","3","2","3","3","2","2","2","2","2","3","2","2","3","2","3","2","1","4","1","4","4","3","2","3","4","2","3","1","1","0","1","1","0","1","1","1","1","0","1","0","1","0","1","3","2","4","3","3","2","4","4","3","5","3","791708952864890881","吴","375","","","","","","","","","","","","","","","","","","","","","","","","","","","","","","","","","","","","","","","","","",""
"1839","<p style=""color:rgb(150, 250, 100); font-size: 35px;"">本人的</p>","i","categorize-html","149","280820","0.0-6.0-1.0-8.0-1.20","4","3","2","3","3","2","2","2","2","2","3","2","2","3","2","3","2","1","4","1","4","4","3","2","3","4","2","3","1","1","0","1","1","0","1","1","1","1","0","1","0","1","0","1","3","2","4","3","3","2","4","4","3","5","3","791708952864890881","吴","375","","","","","","","","","","","","","","","","","","","true","14","4","moral","1839","self","本人的","","","","","","","","","","","","","","","","",""
"null","","null","html-keyboard-response","150","281072","0.0-6.0-1.0-8.0-0.21","4","3","2","3","3","2","2","2","2","2","3","2","2","3","2","3","2","1","4","1","4","4","3","2","3","4","2","3","1","1","0","1","1","0","1","1","1","1","0","1","0","1","0","1","3","2","4","3","3","2","4","4","3","5","3","791708952864890881","吴","375","","","","","","","","","","","","","","","","","","","","","","","","","","","","","","","","","","","","","","","","","",""
"1043","<p style=""color:white; font-size: 35px;"">缺德</p>","e","categorize-html","151","282121","0.0-6.0-1.0-8.0-1.21","4","3","2","3","3","2","2","2","2","2","3","2","2","3","2","3","2","1","4","1","4","4","3","2","3","4","2","3","1","1","0","1","1","0","1","1","1","1","0","1","0","1","0","1","3","2","4","3","3","2","4","4","3","5","3","791708952864890881","吴","375","","","","","","","","","","","","","","","","","","","true","14","4","moral","1043","negative","缺德","","","","","","","","","","","","","","","","",""
"null","","null","html-keyboard-response","152","282373","0.0-6.0-1.0-8.0-0.22","4","3","2","3","3","2","2","2","2","2","3","2","2","3","2","3","2","1","4","1","4","4","3","2","3","4","2","3","1","1","0","1","1","0","1","1","1","1","0","1","0","1","0","1","3","2","4","3","3","2","4","4","3","5","3","791708952864890881","吴","375","","","","","","","","","","","","","","","","","","","","","","","","","","","","","","","","","","","","","","","","","",""
"811","<p style=""color:rgb(150, 250, 100); font-size: 35px;"">他人</p>","e","categorize-html","153","283187","0.0-6.0-1.0-8.0-1.22","4","3","2","3","3","2","2","2","2","2","3","2","2","3","2","3","2","1","4","1","4","4","3","2","3","4","2","3","1","1","0","1","1","0","1","1","1","1","0","1","0","1","0","1","3","2","4","3","3","2","4","4","3","5","3","791708952864890881","吴","375","","","","","","","","","","","","","","","","","","","true","14","4","moral","811","other","他人","","","","","","","","","","","","","","","","",""
"null","","null","html-keyboard-response","154","283439","0.0-6.0-1.0-8.0-0.23","4","3","2","3","3","2","2","2","2","2","3","2","2","3","2","3","2","1","4","1","4","4","3","2","3","4","2","3","1","1","0","1","1","0","1","1","1","1","0","1","0","1","0","1","3","2","4","3","3","2","4","4","3","5","3","791708952864890881","吴","375","","","","","","","","","","","","","","","","","","","","","","","","","","","","","","","","","","","","","","","","","",""
"1128","<p style=""color:white; font-size: 35px;"">君子</p>","i","categorize-html","155","284573","0.0-6.0-1.0-8.0-1.23","4","3","2","3","3","2","2","2","2","2","3","2","2","3","2","3","2","1","4","1","4","4","3","2","3","4","2","3","1","1","0","1","1","0","1","1","1","1","0","1","0","1","0","1","3","2","4","3","3","2","4","4","3","5","3","791708952864890881","吴","375","","","","","","","","","","","","","","","","","","","true","14","4","moral","1128","positive","君子","","","","","","","","","","","","","","","","",""
"null","","null","html-keyboard-response","156","284826","0.0-6.0-1.0-8.0-0.24","4","3","2","3","3","2","2","2","2","2","3","2","2","3","2","3","2","1","4","1","4","4","3","2","3","4","2","3","1","1","0","1","1","0","1","1","1","1","0","1","0","1","0","1","3","2","4","3","3","2","4","4","3","5","3","791708952864890881","吴","375","","","","","","","","","","","","","","","","","","","","","","","","","","","","","","","","","","","","","","","","","",""
"929","<p style=""color:rgb(150, 250, 100); font-size: 35px;"">本人的</p>","i","categorize-html","157","285761","0.0-6.0-1.0-8.0-1.24","4","3","2","3","3","2","2","2","2","2","3","2","2","3","2","3","2","1","4","1","4","4","3","2","3","4","2","3","1","1","0","1","1","0","1","1","1","1","0","1","0","1","0","1","3","2","4","3","3","2","4","4","3","5","3","791708952864890881","吴","375","","","","","","","","","","","","","","","","","","","true","14","4","moral","929","self","本人的","","","","","","","","","","","","","","","","",""
"null","","null","html-keyboard-response","158","286013","0.0-6.0-1.0-8.0-0.25","4","3","2","3","3","2","2","2","2","2","3","2","2","3","2","3","2","1","4","1","4","4","3","2","3","4","2","3","1","1","0","1","1","0","1","1","1","1","0","1","0","1","0","1","3","2","4","3","3","2","4","4","3","5","3","791708952864890881","吴","375","","","","","","","","","","","","","","","","","","","","","","","","","","","","","","","","","","","","","","","","","",""
"663","<p style=""color:white; font-size: 35px;"">黑心</p>","e","categorize-html","159","286682","0.0-6.0-1.0-8.0-1.25","4","3","2","3","3","2","2","2","2","2","3","2","2","3","2","3","2","1","4","1","4","4","3","2","3","4","2","3","1","1","0","1","1","0","1","1","1","1","0","1","0","1","0","1","3","2","4","3","3","2","4","4","3","5","3","791708952864890881","吴","375","","","","","","","","","","","","","","","","","","","true","14","4","moral","663","negative","黑心","","","","","","","","","","","","","","","","",""
"null","","null","html-keyboard-response","160","286935","0.0-6.0-1.0-8.0-0.26","4","3","2","3","3","2","2","2","2","2","3","2","2","3","2","3","2","1","4","1","4","4","3","2","3","4","2","3","1","1","0","1","1","0","1","1","1","1","0","1","0","1","0","1","3","2","4","3","3","2","4","4","3","5","3","791708952864890881","吴","375","","","","","","","","","","","","","","","","","","","","","","","","","","","","","","","","","","","","","","","","","",""
"1636","<p style=""color:rgb(150, 250, 100); font-size: 35px;"">别人</p>","e","categorize-html","161","288576","0.0-6.0-1.0-8.0-1.26","4","3","2","3","3","2","2","2","2","2","3","2","2","3","2","3","2","1","4","1","4","4","3","2","3","4","2","3","1","1","0","1","1","0","1","1","1","1","0","1","0","1","0","1","3","2","4","3","3","2","4","4","3","5","3","791708952864890881","吴","375","","","","","","","","","","","","","","","","","","","true","14","4","moral","1636","other","别人","","","","","","","","","","","","","","","","",""
"null","","null","html-keyboard-response","162","288829","0.0-6.0-1.0-8.0-0.27","4","3","2","3","3","2","2","2","2","2","3","2","2","3","2","3","2","1","4","1","4","4","3","2","3","4","2","3","1","1","0","1","1","0","1","1","1","1","0","1","0","1","0","1","3","2","4","3","3","2","4","4","3","5","3","791708952864890881","吴","375","","","","","","","","","","","","","","","","","","","","","","","","","","","","","","","","","","","","","","","","","",""
"515","<p style=""color:white; font-size: 35px;"">正直</p>","i","categorize-html","163","289349","0.0-6.0-1.0-8.0-1.27","4","3","2","3","3","2","2","2","2","2","3","2","2","3","2","3","2","1","4","1","4","4","3","2","3","4","2","3","1","1","0","1","1","0","1","1","1","1","0","1","0","1","0","1","3","2","4","3","3","2","4","4","3","5","3","791708952864890881","吴","375","","","","","","","","","","","","","","","","","","","true","14","4","moral","515","positive","正直","","","","","","","","","","","","","","","","",""
"null","","null","html-keyboard-response","164","289601","0.0-6.0-1.0-8.0-0.28","4","3","2","3","3","2","2","2","2","2","3","2","2","3","2","3","2","1","4","1","4","4","3","2","3","4","2","3","1","1","0","1","1","0","1","1","1","1","0","1","0","1","0","1","3","2","4","3","3","2","4","4","3","5","3","791708952864890881","吴","375","","","","","","","","","","","","","","","","","","","","","","","","","","","","","","","","","","","","","","","","","",""
"648","<p style=""color:rgb(150, 250, 100); font-size: 35px;"">他人的</p>","e","categorize-html","165","290256","0.0-6.0-1.0-8.0-1.28","4","3","2","3","3","2","2","2","2","2","3","2","2","3","2","3","2","1","4","1","4","4","3","2","3","4","2","3","1","1","0","1","1","0","1","1","1","1","0","1","0","1","0","1","3","2","4","3","3","2","4","4","3","5","3","791708952864890881","吴","375","","","","","","","","","","","","","","","","","","","true","14","4","moral","648","other","他人的","","","","","","","","","","","","","","","","",""
"null","","null","html-keyboard-response","166","290507","0.0-6.0-1.0-8.0-0.29","4","3","2","3","3","2","2","2","2","2","3","2","2","3","2","3","2","1","4","1","4","4","3","2","3","4","2","3","1","1","0","1","1","0","1","1","1","1","0","1","0","1","0","1","3","2","4","3","3","2","4","4","3","5","3","791708952864890881","吴","375","","","","","","","","","","","","","","","","","","","","","","","","","","","","","","","","","","","","","","","","","",""
"1085","<p style=""color:white; font-size: 35px;"">廉正</p>","i","categorize-html","167","291599","0.0-6.0-1.0-8.0-1.29","4","3","2","3","3","2","2","2","2","2","3","2","2","3","2","3","2","1","4","1","4","4","3","2","3","4","2","3","1","1","0","1","1","0","1","1","1","1","0","1","0","1","0","1","3","2","4","3","3","2","4","4","3","5","3","791708952864890881","吴","375","","","","","","","","","","","","","","","","","","","true","14","4","moral","1085","positive","廉正","","","","","","","","","","","","","","","","",""
"null","","null","html-keyboard-response","168","291851","0.0-6.0-1.0-8.0-0.30","4","3","2","3","3","2","2","2","2","2","3","2","2","3","2","3","2","1","4","1","4","4","3","2","3","4","2","3","1","1","0","1","1","0","1","1","1","1","0","1","0","1","0","1","3","2","4","3","3","2","4","4","3","5","3","791708952864890881","吴","375","","","","","","","","","","","","","","","","","","","","","","","","","","","","","","","","","","","","","","","","","",""
"2136","<p style=""color:rgb(150, 250, 100); font-size: 35px;"">自己的</p>","i","categorize-html","169","293994","0.0-6.0-1.0-8.0-1.30","4","3","2","3","3","2","2","2","2","2","3","2","2","3","2","3","2","1","4","1","4","4","3","2","3","4","2","3","1","1","0","1","1","0","1","1","1","1","0","1","0","1","0","1","3","2","4","3","3","2","4","4","3","5","3","791708952864890881","吴","375","","","","","","","","","","","","","","","","","","","true","14","4","moral","2136","self","自己的","","","","","","","","","","","","","","","","",""
"null","","null","html-keyboard-response","170","294245","0.0-6.0-1.0-8.0-0.31","4","3","2","3","3","2","2","2","2","2","3","2","2","3","2","3","2","1","4","1","4","4","3","2","3","4","2","3","1","1","0","1","1","0","1","1","1","1","0","1","0","1","0","1","3","2","4","3","3","2","4","4","3","5","3","791708952864890881","吴","375","","","","","","","","","","","","","","","","","","","","","","","","","","","","","","","","","","","","","","","","","",""
"879","<p style=""color:white; font-size: 35px;"">不仁</p>","e","categorize-html","171","295130","0.0-6.0-1.0-8.0-1.31","4","3","2","3","3","2","2","2","2","2","3","2","2","3","2","3","2","1","4","1","4","4","3","2","3","4","2","3","1","1","0","1","1","0","1","1","1","1","0","1","0","1","0","1","3","2","4","3","3","2","4","4","3","5","3","791708952864890881","吴","375","","","","","","","","","","","","","","","","","","","true","14","4","moral","879","negative","不仁","","","","","","","","","","","","","","","","",""
"null","","null","html-keyboard-response","172","295382","0.0-6.0-1.0-8.0-0.32","4","3","2","3","3","2","2","2","2","2","3","2","2","3","2","3","2","1","4","1","4","4","3","2","3","4","2","3","1","1","0","1","1","0","1","1","1","1","0","1","0","1","0","1","3","2","4","3","3","2","4","4","3","5","3","791708952864890881","吴","375","","","","","","","","","","","","","","","","","","","","","","","","","","","","","","","","","","","","","","","","","",""
"581","<p style=""color:rgb(150, 250, 100); font-size: 35px;"">我的</p>","e","categorize-html","173","296774","0.0-6.0-1.0-8.0-1.32","4","3","2","3","3","2","2","2","2","2","3","2","2","3","2","3","2","1","4","1","4","4","3","2","3","4","2","3","1","1","0","1","1","0","1","1","1","1","0","1","0","1","0","1","3","2","4","3","3","2","4","4","3","5","3","791708952864890881","吴","375","","","","","","","","","","","","","","","","","","","false","14","4","moral","1520.595744680851","self","我的","","","","","","","","","","","","","","","","",""
"null","","null","html-keyboard-response","174","297026","0.0-6.0-1.0-8.0-0.33","4","3","2","3","3","2","2","2","2","2","3","2","2","3","2","3","2","1","4","1","4","4","3","2","3","4","2","3","1","1","0","1","1","0","1","1","1","1","0","1","0","1","0","1","3","2","4","3","3","2","4","4","3","5","3","791708952864890881","吴","375","","","","","","","","","","","","","","","","","","","","","","","","","","","","","","","","","","","","","","","","","",""
"842","<p style=""color:white; font-size: 35px;"">诚信</p>","i","categorize-html","175","297874","0.0-6.0-1.0-8.0-1.33","4","3","2","3","3","2","2","2","2","2","3","2","2","3","2","3","2","1","4","1","4","4","3","2","3","4","2","3","1","1","0","1","1","0","1","1","1","1","0","1","0","1","0","1","3","2","4","3","3","2","4","4","3","5","3","791708952864890881","吴","375","","","","","","","","","","","","","","","","","","","true","14","4","moral","842","positive","诚信","","","","","","","","","","","","","","","","",""
"null","","null","html-keyboard-response","176","298126","0.0-6.0-1.0-8.0-0.34","4","3","2","3","3","2","2","2","2","2","3","2","2","3","2","3","2","1","4","1","4","4","3","2","3","4","2","3","1","1","0","1","1","0","1","1","1","1","0","1","0","1","0","1","3","2","4","3","3","2","4","4","3","5","3","791708952864890881","吴","375","","","","","","","","","","","","","","","","","","","","","","","","","","","","","","","","","","","","","","","","","",""
"2808","<p style=""color:rgb(150, 250, 100); font-size: 35px;"">别人</p>","e","categorize-html","177","300940","0.0-6.0-1.0-8.0-1.34","4","3","2","3","3","2","2","2","2","2","3","2","2","3","2","3","2","1","4","1","4","4","3","2","3","4","2","3","1","1","0","1","1","0","1","1","1","1","0","1","0","1","0","1","3","2","4","3","3","2","4","4","3","5","3","791708952864890881","吴","375","","","","","","","","","","","","","","","","","","","true","14","4","moral","2808","other","别人","","","","","","","","","","","","","","","","",""
"null","","null","html-keyboard-response","178","301192","0.0-6.0-1.0-8.0-0.35","4","3","2","3","3","2","2","2","2","2","3","2","2","3","2","3","2","1","4","1","4","4","3","2","3","4","2","3","1","1","0","1","1","0","1","1","1","1","0","1","0","1","0","1","3","2","4","3","3","2","4","4","3","5","3","791708952864890881","吴","375","","","","","","","","","","","","","","","","","","","","","","","","","","","","","","","","","","","","","","","","","",""
"2799","<p style=""color:white; font-size: 35px;"">不仁</p>","e","categorize-html","179","303998","0.0-6.0-1.0-8.0-1.35","4","3","2","3","3","2","2","2","2","2","3","2","2","3","2","3","2","1","4","1","4","4","3","2","3","4","2","3","1","1","0","1","1","0","1","1","1","1","0","1","0","1","0","1","3","2","4","3","3","2","4","4","3","5","3","791708952864890881","吴","375","","","","","","","","","","","","","","","","","","","true","14","4","moral","2799","negative","不仁","","","","","","","","","","","","","","","","",""
"null","","null","html-keyboard-response","180","304250","0.0-6.0-1.0-8.0-0.36","4","3","2","3","3","2","2","2","2","2","3","2","2","3","2","3","2","1","4","1","4","4","3","2","3","4","2","3","1","1","0","1","1","0","1","1","1","1","0","1","0","1","0","1","3","2","4","3","3","2","4","4","3","5","3","791708952864890881","吴","375","","","","","","","","","","","","","","","","","","","","","","","","","","","","","","","","","","","","","","","","","",""
"826","<p style=""color:rgb(150, 250, 100); font-size: 35px;"">他人</p>","e","categorize-html","181","305082","0.0-6.0-1.0-8.0-1.36","4","3","2","3","3","2","2","2","2","2","3","2","2","3","2","3","2","1","4","1","4","4","3","2","3","4","2","3","1","1","0","1","1","0","1","1","1","1","0","1","0","1","0","1","3","2","4","3","3","2","4","4","3","5","3","791708952864890881","吴","375","","","","","","","","","","","","","","","","","","","true","14","4","moral","826","other","他人","","","","","","","","","","","","","","","","",""
"null","","null","html-keyboard-response","182","305334","0.0-6.0-1.0-8.0-0.37","4","3","2","3","3","2","2","2","2","2","3","2","2","3","2","3","2","1","4","1","4","4","3","2","3","4","2","3","1","1","0","1","1","0","1","1","1","1","0","1","0","1","0","1","3","2","4","3","3","2","4","4","3","5","3","791708952864890881","吴","375","","","","","","","","","","","","","","","","","","","","","","","","","","","","","","","","","","","","","","","","","",""
"622","<p style=""color:white; font-size: 35px;"">高尚</p>","i","categorize-html","183","305962","0.0-6.0-1.0-8.0-1.37","4","3","2","3","3","2","2","2","2","2","3","2","2","3","2","3","2","1","4","1","4","4","3","2","3","4","2","3","1","1","0","1","1","0","1","1","1","1","0","1","0","1","0","1","3","2","4","3","3","2","4","4","3","5","3","791708952864890881","吴","375","","","","","","","","","","","","","","","","","","","true","14","4","moral","622","positive","高尚","","","","","","","","","","","","","","","","",""
"null","","null","html-keyboard-response","184","306214","0.0-6.0-1.0-8.0-0.38","4","3","2","3","3","2","2","2","2","2","3","2","2","3","2","3","2","1","4","1","4","4","3","2","3","4","2","3","1","1","0","1","1","0","1","1","1","1","0","1","0","1","0","1","3","2","4","3","3","2","4","4","3","5","3","791708952864890881","吴","375","","","","","","","","","","","","","","","","","","","","","","","","","","","","","","","","","","","","","","","","","",""
"612","<p style=""color:rgb(150, 250, 100); font-size: 35px;"">我</p>","i","categorize-html","185","306832","0.0-6.0-1.0-8.0-1.38","4","3","2","3","3","2","2","2","2","2","3","2","2","3","2","3","2","1","4","1","4","4","3","2","3","4","2","3","1","1","0","1","1","0","1","1","1","1","0","1","0","1","0","1","3","2","4","3","3","2","4","4","3","5","3","791708952864890881","吴","375","","","","","","","","","","","","","","","","","","","true","14","4","moral","612","self","我","","","","","","","","","","","","","","","","",""
"null","","null","html-keyboard-response","186","307084","0.0-6.0-1.0-8.0-0.39","4","3","2","3","3","2","2","2","2","2","3","2","2","3","2","3","2","1","4","1","4","4","3","2","3","4","2","3","1","1","0","1","1","0","1","1","1","1","0","1","0","1","0","1","3","2","4","3","3","2","4","4","3","5","3","791708952864890881","吴","375","","","","","","","","","","","","","","","","","","","","","","","","","","","","","","","","","","","","","","","","","",""
"489","<p style=""color:white; font-size: 35px;"">缺德</p>","e","categorize-html","187","307580","0.0-6.0-1.0-8.0-1.39","4","3","2","3","3","2","2","2","2","2","3","2","2","3","2","3","2","1","4","1","4","4","3","2","3","4","2","3","1","1","0","1","1","0","1","1","1","1","0","1","0","1","0","1","3","2","4","3","3","2","4","4","3","5","3","791708952864890881","吴","375","","","","","","","","","","","","","","","","","","","true","14","4","moral","489","negative","缺德","","","","","","","","","","","","","","","","",""
"null","","null","html-keyboard-response","188","307832","0.0-6.0-1.0-8.0-0.40","4","3","2","3","3","2","2","2","2","2","3","2","2","3","2","3","2","1","4","1","4","4","3","2","3","4","2","3","1","1","0","1","1","0","1","1","1","1","0","1","0","1","0","1","3","2","4","3","3","2","4","4","3","5","3","791708952864890881","吴","375","","","","","","","","","","","","","","","","","","","","","","","","","","","","","","","","","","","","","","","","","",""
"646","<p style=""color:rgb(150, 250, 100); font-size: 35px;"">别人的</p>","e","categorize-html","189","308483","0.0-6.0-1.0-8.0-1.40","4","3","2","3","3","2","2","2","2","2","3","2","2","3","2","3","2","1","4","1","4","4","3","2","3","4","2","3","1","1","0","1","1","0","1","1","1","1","0","1","0","1","0","1","3","2","4","3","3","2","4","4","3","5","3","791708952864890881","吴","375","","","","","","","","","","","","","","","","","","","true","14","4","moral","646","other","别人的","","","","","","","","","","","","","","","","",""
"null","","null","html-keyboard-response","190","308735","0.0-6.0-1.0-8.0-0.41","4","3","2","3","3","2","2","2","2","2","3","2","2","3","2","3","2","1","4","1","4","4","3","2","3","4","2","3","1","1","0","1","1","0","1","1","1","1","0","1","0","1","0","1","3","2","4","3","3","2","4","4","3","5","3","791708952864890881","吴","375","","","","","","","","","","","","","","","","","","","","","","","","","","","","","","","","","","","","","","","","","",""
"771","<p style=""color:white; font-size: 35px;"">不孝</p>","e","categorize-html","191","309512","0.0-6.0-1.0-8.0-1.41","4","3","2","3","3","2","2","2","2","2","3","2","2","3","2","3","2","1","4","1","4","4","3","2","3","4","2","3","1","1","0","1","1","0","1","1","1","1","0","1","0","1","0","1","3","2","4","3","3","2","4","4","3","5","3","791708952864890881","吴","375","","","","","","","","","","","","","","","","","","","true","14","4","moral","771","negative","不孝","","","","","","","","","","","","","","","","",""
"null","","null","html-keyboard-response","192","309764","0.0-6.0-1.0-8.0-0.42","4","3","2","3","3","2","2","2","2","2","3","2","2","3","2","3","2","1","4","1","4","4","3","2","3","4","2","3","1","1","0","1","1","0","1","1","1","1","0","1","0","1","0","1","3","2","4","3","3","2","4","4","3","5","3","791708952864890881","吴","375","","","","","","","","","","","","","","","","","","","","","","","","","","","","","","","","","","","","","","","","","",""
"666","<p style=""color:rgb(150, 250, 100); font-size: 35px;"">我的</p>","i","categorize-html","193","310436","0.0-6.0-1.0-8.0-1.42","4","3","2","3","3","2","2","2","2","2","3","2","2","3","2","3","2","1","4","1","4","4","3","2","3","4","2","3","1","1","0","1","1","0","1","1","1","1","0","1","0","1","0","1","3","2","4","3","3","2","4","4","3","5","3","791708952864890881","吴","375","","","","","","","","","","","","","","","","","","","true","14","4","moral","666","self","我的","","","","","","","","","","","","","","","","",""
