"rt","stimulus","response","trial_type","trial_index","time_elapsed","internal_node_id","ses_1","ses_2","ses_3","ses_4","ses_5","ses_6","ses_7","ses_8","ses_9","ses_10","coreself_1","coreself_2","coreself_3","coreself_4","coreself_5","coreself_6","coreself_7","coreself_8","coreself_9","coreself_10","SGPS_1","SGPS_2","SGPS_3","SGPS_4","SGPS_5","SGPS_6","SGPS_7","SGPS_8","SGPS_9","NPI1","NPI2","NPI3","NPI4","NPI5","NPI6","NPI7","NPI8","NPI9","NPI10","NPI11","NPI12","NPI13","NPI14","NPI15","hsns_1","hsns_2","hsns_3","hsns_4","hsns_5","hsns_6","hsns_7","hsns_8","hsns_9","hsns_10","subj_idx","friend_name","ParticipantID","value","success","user_agent","responses","item_order","radio_event_ids","radio_event_times","key_event_times","mouse_event_times","straightlining","zigzagging","honeypot","timeout","failed_images","failed_audio","failed_video","version_attrib2","version_target2","correct","IAT","screen_id","task_id","RT","condition","word","varname","summary","version_attrib","version_target","time_stamp","view_history","response_type","key_press","avg_frame_time","center_x","center_y","correct_response","identity","Image","question_order"
"9690","
   <p><div style = ""color: white;font-size:25px;"">您好，欢迎参加本次实验。</div> </p>
   <p><div style = ""color: white;font-size:25px;"">为充分保障您的权利，请确保您已经知晓并同意《参与实验同意书》以及《数据公开知情同意书》。</div></p>
   <p><div style = ""color: white;font-size:25px;"">如果您未见过上述内容，请咨询实验员。</div></p>
   <p><div style = ""color: white;font-size:25px;"">如果您选择继续实验，则表示您已经清楚两份知情同意书的内容并同意。</div></p>
   <p><div style = ""color: red;font-size:30px;"">请确保您记得day0的实验编号，您将在本次实验输入该编号，若您忘记，请咨询实验员后作答。</div></p>
   <p> <div style = ""color: green;font-size:25px;""><按空格键至下页></div> </p>
   "," ","html-keyboard-response","0","9694","0.0-0.0","3","4","4","3","3","3","4","2","4","3","5","4","5","4","4","4","5","4","1","4","4","5","4","4","3","4","4","5","4","1","0","1","1","0","0","1","1","1","1","1","0","0","0","0","4","5","4","1","4","5","4","4","5","4","598932304420667392","刘","416","","","","","","","","","","","","","","","","","","","","","","","","","","","","","","","","","","","","","","","",""
"","","","call-function","1","9704","0.0-1.0-0.0","3","4","4","3","3","3","4","2","4","3","5","4","5","4","4","4","5","4","1","4","4","5","4","4","3","4","4","5","4","1","0","1","1","0","0","1","1","1","1","1","0","0","0","0","4","5","4","1","4","5","4","4","5","4","598932304420667392","刘","416","","","","","","","","","","","","","","","","","","","","","","","","","","","","","","","","","","","","","","","",""
"136680","","{""friend_name"":""刘"",""ParticipantID"":""416""}","survey-html-form","2","146390","0.0-1.0-1.0","3","4","4","3","3","3","4","2","4","3","5","4","5","4","4","4","5","4","1","4","4","5","4","4","3","4","4","5","4","1","0","1","1","0","0","1","1","1","1","1","0","0","0","0","4","5","4","1","4","5","4","4","5","4","598932304420667392","刘","416","","","","","","","","","","","","","","","","","","","","","","","","","","","","","","","","","","","","","","","",""
"","","","fullscreen","3","154863","0.0-2.0","3","4","4","3","3","3","4","2","4","3","5","4","5","4","4","4","5","4","1","4","4","5","4","4","3","4","4","5","4","1","0","1","1","0","0","1","1","1","1","1","0","0","0","0","4","5","4","1","4","5","4","4","5","4","598932304420667392","刘","416","","true","{}","","","","","","","","","","","","","","","","","","","","","","","","","","","","","","","","","","","","",""
"16399.799999952316","","{""Q01"":""3"",""Q02"":""4"",""Q03"":""4"",""Q04"":""3"",""Q05"":""3"",""Q06"":""3"",""Q07"":""4"",""Q08"":""2"",""Q09"":""4"",""Q10"":""3""}","survey-template","4","171274","0.0-3.0","3","4","4","3","3","3","4","2","4","3","5","4","5","4","4","4","5","4","1","4","4","5","4","4","3","4","4","5","4","1","0","1","1","0","0","1","1","1","1","1","0","0","0","0","4","5","4","1","4","5","4","4","5","4","598932304420667392","刘","416","","","","{""Q01"":""3"",""Q02"":""4"",""Q03"":""4"",""Q04"":""3"",""Q05"":""3"",""Q06"":""3"",""Q07"":""4"",""Q08"":""2"",""Q09"":""4"",""Q10"":""3""}","[0,1,2,3,4,5,6,7,8,9]","[""Q01"",""Q02"",""Q03"",""Q03"",""Q04"",""Q05"",""Q06"",""Q07"",""Q08"",""Q09"",""Q10""]","[2447.2999999523163,3646.100000023842,5758,5773.899999976158,7142.100000023842,8318.600000023842,9733.899999976158,11414,12670.399999976158,13893.899999976158,15710]","[]","[2447.2999999523163,3646.100000023842,5758,5773.899999976158,6830.100000023842,7142.100000023842,8318.600000023842,9733.899999976158,10870,11085.699999928474,11414,12670.399999976158,13893.899999976158,14886.100000023842,15294,15710,16397.899999976158]","0.4","0.7777777777777778","0","","","","","","","","","","","","","","","","","","","","","","","","","","","",""
"22668.300000071526","","{""Q01"":""5"",""Q02"":""4"",""Q03"":""5"",""Q04"":""4"",""Q05"":""4"",""Q06"":""4"",""Q07"":""5"",""Q08"":""4"",""Q09"":""1"",""Q10"":""4""}","survey-template","5","193950","0.0-4.0","3","4","4","3","3","3","4","2","4","3","5","4","5","4","4","4","5","4","1","4","4","5","4","4","3","4","4","5","4","1","0","1","1","0","0","1","1","1","1","1","0","0","0","0","4","5","4","1","4","5","4","4","5","4","598932304420667392","刘","416","","","","{""Q01"":""5"",""Q02"":""4"",""Q03"":""5"",""Q04"":""4"",""Q05"":""4"",""Q06"":""4"",""Q07"":""5"",""Q08"":""4"",""Q09"":""1"",""Q10"":""4""}","[0,1,2,3,4,5,6,7,8,9]","[""Q01"",""Q02"",""Q03"",""Q04"",""Q05"",""Q06"",""Q07"",""Q08"",""Q09"",""Q10""]","[7546.200000047684,9066.300000071526,10658,12242,13626.600000023842,15147.600000023842,16354.100000023842,18105.700000047684,20226.100000023842,21970]","[]","[7546.200000047684,9066.300000071526,10658,11962.200000047684,12242,13626.600000023842,14618.600000023842,15147.600000023842,16083.300000071526,16354.100000023842,18105.700000047684,18610.300000071526,19739.100000023842,20226.100000023842,21650.200000047684,21970,22666.600000023842]","0.4","0.4444444444444444","0","","","","","","","","","","","","","","","","","","","","","","","","","","","",""
"","","","preload","6","194960","0.0-5.0","3","4","4","3","3","3","4","2","4","3","5","4","5","4","4","4","5","4","1","4","4","5","4","4","3","4","4","5","4","1","0","1","1","0","0","1","1","1","1","1","0","0","0","0","4","5","4","1","4","5","4","4","5","4","598932304420667392","刘","416","","true","","","","","","","","","","","false","[]","[]","[]","","","","","","","","","","","","","","","","","","","","","","","",""
"26405","
    <h3>词语分类任务</h3>
    <p>在接下来的任务中，你需要对一系列词语进行分类。<p/>
    请先熟悉这些词语，这有利于你完成接下来的任务。</p>
    <table align=""center"" border=1 cellpadding=3 cellspacing=0>
    <tr> <th>类别</th> <th>词语</th> </tr>
    <tr> <td>&emsp;积极&emsp;</td> <td>&emsp;高尚、诚信、善良、君子、廉正、正直&emsp;</td> </tr>
    <tr> <td>&emsp;消极&emsp;</td> <td>&emsp;缺德、卑鄙、不孝、不仁、小人、黑心&emsp;</td> </tr>
    <tr> <td>&emsp;自我&emsp;</td> <td>&emsp;我、我的、自己、自己的、本人、本人的&emsp;</td> </tr>
    <tr> <td>&emsp;他人&emsp;</td> <td>&emsp;他、他的、别人、别人的、他人、他人的&emsp;</td> </tr>
    </table><br/>","0","html-button-response","7","221372","0.0-6.0-1.0-0.0","3","4","4","3","3","3","4","2","4","3","5","4","5","4","4","4","5","4","1","4","4","5","4","4","3","4","4","5","4","1","0","1","1","0","0","1","1","1","1","1","0","0","0","0","4","5","4","1","4","5","4","4","5","4","598932304420667392","刘","416","","","","","","","","","","","","","","","","","1","1","","","","","","","","","","","","","","","","","","","","","",""
"1987","
    <div class=""tag-bottom""><p>
    —— 任务1：对“自我”词和“他人”词分类 ——<p/>
    不同词语会出现在屏幕中央，类别标签将始终显示在屏幕上方<p/>   
    <span style=""color:#FFD866""><b>请根据上方标签的提示，尽可能正确并且快速地做出按键反应</b></span><p/>
    当按键错误时屏幕中会出现<span style=""color:red""> X </span>，需要按另一个键纠正才能继续<br/><p/>
    请把双手食指分别放在键盘的“E”键和“I”键上<p/>
    按<空格键>开始
    </p></div>"," ","html-keyboard-response","8","223363","0.0-6.0-1.0-1.0","3","4","4","3","3","3","4","2","4","3","5","4","5","4","4","4","5","4","1","4","4","5","4","4","3","4","4","5","4","1","0","1","1","0","0","1","1","1","1","1","0","0","0","0","4","5","4","1","4","5","4","4","5","4","598932304420667392","刘","416","","","","","","","","","","","","","","","","","","","","","","","","","","","","","","","","","","","","","","","",""
"null","","null","html-keyboard-response","9","223616","0.0-6.0-1.0-2.0-0.0","3","4","4","3","3","3","4","2","4","3","5","4","5","4","4","4","5","4","1","4","4","5","4","4","3","4","4","5","4","1","0","1","1","0","0","1","1","1","1","1","0","0","0","0","4","5","4","1","4","5","4","4","5","4","598932304420667392","刘","416","","","","","","","","","","","","","","","","","","","","","","","","","","","","","","","","","","","","","","","",""
"1271","<p style=""color:rgb(150, 250, 100); font-size: 35px;"">本人的</p>","e","categorize-html","10","224898","0.0-6.0-1.0-2.0-1.0","3","4","4","3","3","3","4","2","4","3","5","4","5","4","4","4","5","4","1","4","4","5","4","4","3","4","4","5","4","1","0","1","1","0","0","1","1","1","1","1","0","0","0","0","4","5","4","1","4","5","4","4","5","4","598932304420667392","刘","416","","","","","","","","","","","","","","","","","","","true","11","1","moral","1271","self","本人的","","","","","","","","","","","","","","",""
"null","","null","html-keyboard-response","11","225152","0.0-6.0-1.0-2.0-0.1","3","4","4","3","3","3","4","2","4","3","5","4","5","4","4","4","5","4","1","4","4","5","4","4","3","4","4","5","4","1","0","1","1","0","0","1","1","1","1","1","0","0","0","0","4","5","4","1","4","5","4","4","5","4","598932304420667392","刘","416","","","","","","","","","","","","","","","","","","","","","","","","","","","","","","","","","","","","","","","",""
"748","<p style=""color:rgb(150, 250, 100); font-size: 35px;"">别人</p>","i","categorize-html","12","225909","0.0-6.0-1.0-2.0-1.1","3","4","4","3","3","3","4","2","4","3","5","4","5","4","4","4","5","4","1","4","4","5","4","4","3","4","4","5","4","1","0","1","1","0","0","1","1","1","1","1","0","0","0","0","4","5","4","1","4","5","4","4","5","4","598932304420667392","刘","416","","","","","","","","","","","","","","","","","","","true","11","1","moral","748","other","别人","","","","","","","","","","","","","","",""
"null","","null","html-keyboard-response","13","226162","0.0-6.0-1.0-2.0-0.2","3","4","4","3","3","3","4","2","4","3","5","4","5","4","4","4","5","4","1","4","4","5","4","4","3","4","4","5","4","1","0","1","1","0","0","1","1","1","1","1","0","0","0","0","4","5","4","1","4","5","4","4","5","4","598932304420667392","刘","416","","","","","","","","","","","","","","","","","","","","","","","","","","","","","","","","","","","","","","","",""
"493","<p style=""color:rgb(150, 250, 100); font-size: 35px;"">本人</p>","e","categorize-html","14","226661","0.0-6.0-1.0-2.0-1.2","3","4","4","3","3","3","4","2","4","3","5","4","5","4","4","4","5","4","1","4","4","5","4","4","3","4","4","5","4","1","0","1","1","0","0","1","1","1","1","1","0","0","0","0","4","5","4","1","4","5","4","4","5","4","598932304420667392","刘","416","","","","","","","","","","","","","","","","","","","true","11","1","moral","493","self","本人","","","","","","","","","","","","","","",""
"null","","null","html-keyboard-response","15","226919","0.0-6.0-1.0-2.0-0.3","3","4","4","3","3","3","4","2","4","3","5","4","5","4","4","4","5","4","1","4","4","5","4","4","3","4","4","5","4","1","0","1","1","0","0","1","1","1","1","1","0","0","0","0","4","5","4","1","4","5","4","4","5","4","598932304420667392","刘","416","","","","","","","","","","","","","","","","","","","","","","","","","","","","","","","","","","","","","","","",""
"507","<p style=""color:rgb(150, 250, 100); font-size: 35px;"">他</p>","i","categorize-html","16","227434","0.0-6.0-1.0-2.0-1.3","3","4","4","3","3","3","4","2","4","3","5","4","5","4","4","4","5","4","1","4","4","5","4","4","3","4","4","5","4","1","0","1","1","0","0","1","1","1","1","1","0","0","0","0","4","5","4","1","4","5","4","4","5","4","598932304420667392","刘","416","","","","","","","","","","","","","","","","","","","true","11","1","moral","507","other","他","","","","","","","","","","","","","","",""
"null","","null","html-keyboard-response","17","227687","0.0-6.0-1.0-2.0-0.4","3","4","4","3","3","3","4","2","4","3","5","4","5","4","4","4","5","4","1","4","4","5","4","4","3","4","4","5","4","1","0","1","1","0","0","1","1","1","1","1","0","0","0","0","4","5","4","1","4","5","4","4","5","4","598932304420667392","刘","416","","","","","","","","","","","","","","","","","","","","","","","","","","","","","","","","","","","","","","","",""
"527","<p style=""color:rgb(150, 250, 100); font-size: 35px;"">自己</p>","e","categorize-html","18","228223","0.0-6.0-1.0-2.0-1.4","3","4","4","3","3","3","4","2","4","3","5","4","5","4","4","4","5","4","1","4","4","5","4","4","3","4","4","5","4","1","0","1","1","0","0","1","1","1","1","1","0","0","0","0","4","5","4","1","4","5","4","4","5","4","598932304420667392","刘","416","","","","","","","","","","","","","","","","","","","true","11","1","moral","527","self","自己","","","","","","","","","","","","","","",""
"null","","null","html-keyboard-response","19","228476","0.0-6.0-1.0-2.0-0.5","3","4","4","3","3","3","4","2","4","3","5","4","5","4","4","4","5","4","1","4","4","5","4","4","3","4","4","5","4","1","0","1","1","0","0","1","1","1","1","1","0","0","0","0","4","5","4","1","4","5","4","4","5","4","598932304420667392","刘","416","","","","","","","","","","","","","","","","","","","","","","","","","","","","","","","","","","","","","","","",""
"540","<p style=""color:rgb(150, 250, 100); font-size: 35px;"">他人的</p>","i","categorize-html","20","229022","0.0-6.0-1.0-2.0-1.5","3","4","4","3","3","3","4","2","4","3","5","4","5","4","4","4","5","4","1","4","4","5","4","4","3","4","4","5","4","1","0","1","1","0","0","1","1","1","1","1","0","0","0","0","4","5","4","1","4","5","4","4","5","4","598932304420667392","刘","416","","","","","","","","","","","","","","","","","","","true","11","1","moral","540","other","他人的","","","","","","","","","","","","","","",""
"null","","null","html-keyboard-response","21","229275","0.0-6.0-1.0-2.0-0.6","3","4","4","3","3","3","4","2","4","3","5","4","5","4","4","4","5","4","1","4","4","5","4","4","3","4","4","5","4","1","0","1","1","0","0","1","1","1","1","1","0","0","0","0","4","5","4","1","4","5","4","4","5","4","598932304420667392","刘","416","","","","","","","","","","","","","","","","","","","","","","","","","","","","","","","","","","","","","","","",""
"650","<p style=""color:rgb(150, 250, 100); font-size: 35px;"">自己的</p>","i","categorize-html","22","230348","0.0-6.0-1.0-2.0-1.6","3","4","4","3","3","3","4","2","4","3","5","4","5","4","4","4","5","4","1","4","4","5","4","4","3","4","4","5","4","1","0","1","1","0","0","1","1","1","1","1","0","0","0","0","4","5","4","1","4","5","4","4","5","4","598932304420667392","刘","416","","","","","","","","","","","","","","","","","","","false","11","1","moral","650","self","自己的","","","","","","","","","","","","","","",""
"null","","null","html-keyboard-response","23","230600","0.0-6.0-1.0-2.0-0.7","3","4","4","3","3","3","4","2","4","3","5","4","5","4","4","4","5","4","1","4","4","5","4","4","3","4","4","5","4","1","0","1","1","0","0","1","1","1","1","1","0","0","0","0","4","5","4","1","4","5","4","4","5","4","598932304420667392","刘","416","","","","","","","","","","","","","","","","","","","","","","","","","","","","","","","","","","","","","","","",""
"493","<p style=""color:rgb(150, 250, 100); font-size: 35px;"">他人</p>","i","categorize-html","24","231099","0.0-6.0-1.0-2.0-1.7","3","4","4","3","3","3","4","2","4","3","5","4","5","4","4","4","5","4","1","4","4","5","4","4","3","4","4","5","4","1","0","1","1","0","0","1","1","1","1","1","0","0","0","0","4","5","4","1","4","5","4","4","5","4","598932304420667392","刘","416","","","","","","","","","","","","","","","","","","","true","11","1","moral","493","other","他人","","","","","","","","","","","","","","",""
"null","","null","html-keyboard-response","25","231352","0.0-6.0-1.0-2.0-0.8","3","4","4","3","3","3","4","2","4","3","5","4","5","4","4","4","5","4","1","4","4","5","4","4","3","4","4","5","4","1","0","1","1","0","0","1","1","1","1","1","0","0","0","0","4","5","4","1","4","5","4","4","5","4","598932304420667392","刘","416","","","","","","","","","","","","","","","","","","","","","","","","","","","","","","","","","","","","","","","",""
"561","<p style=""color:rgb(150, 250, 100); font-size: 35px;"">他的</p>","i","categorize-html","26","231920","0.0-6.0-1.0-2.0-1.8","3","4","4","3","3","3","4","2","4","3","5","4","5","4","4","4","5","4","1","4","4","5","4","4","3","4","4","5","4","1","0","1","1","0","0","1","1","1","1","1","0","0","0","0","4","5","4","1","4","5","4","4","5","4","598932304420667392","刘","416","","","","","","","","","","","","","","","","","","","true","11","1","moral","561","other","他的","","","","","","","","","","","","","","",""
"null","","null","html-keyboard-response","27","232174","0.0-6.0-1.0-2.0-0.9","3","4","4","3","3","3","4","2","4","3","5","4","5","4","4","4","5","4","1","4","4","5","4","4","3","4","4","5","4","1","0","1","1","0","0","1","1","1","1","1","0","0","0","0","4","5","4","1","4","5","4","4","5","4","598932304420667392","刘","416","","","","","","","","","","","","","","","","","","","","","","","","","","","","","","","","","","","","","","","",""
"577","<p style=""color:rgb(150, 250, 100); font-size: 35px;"">别人的</p>","i","categorize-html","28","232756","0.0-6.0-1.0-2.0-1.9","3","4","4","3","3","3","4","2","4","3","5","4","5","4","4","4","5","4","1","4","4","5","4","4","3","4","4","5","4","1","0","1","1","0","0","1","1","1","1","1","0","0","0","0","4","5","4","1","4","5","4","4","5","4","598932304420667392","刘","416","","","","","","","","","","","","","","","","","","","true","11","1","moral","577","other","别人的","","","","","","","","","","","","","","",""
"null","","null","html-keyboard-response","29","233009","0.0-6.0-1.0-2.0-0.10","3","4","4","3","3","3","4","2","4","3","5","4","5","4","4","4","5","4","1","4","4","5","4","4","3","4","4","5","4","1","0","1","1","0","0","1","1","1","1","1","0","0","0","0","4","5","4","1","4","5","4","4","5","4","598932304420667392","刘","416","","","","","","","","","","","","","","","","","","","","","","","","","","","","","","","","","","","","","","","",""
"435","<p style=""color:rgb(150, 250, 100); font-size: 35px;"">我</p>","e","categorize-html","30","233450","0.0-6.0-1.0-2.0-1.10","3","4","4","3","3","3","4","2","4","3","5","4","5","4","4","4","5","4","1","4","4","5","4","4","3","4","4","5","4","1","0","1","1","0","0","1","1","1","1","1","0","0","0","0","4","5","4","1","4","5","4","4","5","4","598932304420667392","刘","416","","","","","","","","","","","","","","","","","","","true","11","1","moral","435","self","我","","","","","","","","","","","","","","",""
"null","","null","html-keyboard-response","31","233703","0.0-6.0-1.0-2.0-0.11","3","4","4","3","3","3","4","2","4","3","5","4","5","4","4","4","5","4","1","4","4","5","4","4","3","4","4","5","4","1","0","1","1","0","0","1","1","1","1","1","0","0","0","0","4","5","4","1","4","5","4","4","5","4","598932304420667392","刘","416","","","","","","","","","","","","","","","","","","","","","","","","","","","","","","","","","","","","","","","",""
"539","<p style=""color:rgb(150, 250, 100); font-size: 35px;"">我的</p>","e","categorize-html","32","234252","0.0-6.0-1.0-2.0-1.11","3","4","4","3","3","3","4","2","4","3","5","4","5","4","4","4","5","4","1","4","4","5","4","4","3","4","4","5","4","1","0","1","1","0","0","1","1","1","1","1","0","0","0","0","4","5","4","1","4","5","4","4","5","4","598932304420667392","刘","416","","","","","","","","","","","","","","","","","","","true","11","1","moral","539","self","我的","","","","","","","","","","","","","","",""
"893","
    <div class=""tag-bottom""><p>
    —— 任务2：对“积极”词和“消极”词分类 ——<p/>   
    <span style=""color:#78DCE8""><b>注意上方，类别标签和需要分类的词语都已经改变</b></span><p/>
    <span style=""color:#FFD866""><b>请根据上方标签的提示，尽可能正确并且快速地做出按键反应</b></span><p/>
    当按键错误时屏幕中会出现<span style=""color:red""> X </span>，需要按另一个键纠正才能继续<br/><p/>
    请把双手食指分别放在键盘的“E”键和“I”键上<p/>
    按<空格键>开始
    </p></div>"," ","html-keyboard-response","33","235147","0.0-6.0-1.0-3.0","3","4","4","3","3","3","4","2","4","3","5","4","5","4","4","4","5","4","1","4","4","5","4","4","3","4","4","5","4","1","0","1","1","0","0","1","1","1","1","1","0","0","0","0","4","5","4","1","4","5","4","4","5","4","598932304420667392","刘","416","","","","","","","","","","","","","","","","","","","","","","","","","","","","","","","","","","","","","","","",""
"null","","null","html-keyboard-response","34","235399","0.0-6.0-1.0-4.0-0.0","3","4","4","3","3","3","4","2","4","3","5","4","5","4","4","4","5","4","1","4","4","5","4","4","3","4","4","5","4","1","0","1","1","0","0","1","1","1","1","1","0","0","0","0","4","5","4","1","4","5","4","4","5","4","598932304420667392","刘","416","","","","","","","","","","","","","","","","","","","","","","","","","","","","","","","","","","","","","","","",""
"751","<p style=""color:white; font-size: 35px;"">不孝</p>","i","categorize-html","35","236159","0.0-6.0-1.0-4.0-1.0","3","4","4","3","3","3","4","2","4","3","5","4","5","4","4","4","5","4","1","4","4","5","4","4","3","4","4","5","4","1","0","1","1","0","0","1","1","1","1","1","0","0","0","0","4","5","4","1","4","5","4","4","5","4","598932304420667392","刘","416","","","","","","","","","","","","","","","","","","","true","12","2","moral","751","negative","不孝","","","","","","","","","","","","","","",""
"null","","null","html-keyboard-response","36","236411","0.0-6.0-1.0-4.0-0.1","3","4","4","3","3","3","4","2","4","3","5","4","5","4","4","4","5","4","1","4","4","5","4","4","3","4","4","5","4","1","0","1","1","0","0","1","1","1","1","1","0","0","0","0","4","5","4","1","4","5","4","4","5","4","598932304420667392","刘","416","","","","","","","","","","","","","","","","","","","","","","","","","","","","","","","","","","","","","","","",""
"574","<p style=""color:white; font-size: 35px;"">不仁</p>","i","categorize-html","37","236990","0.0-6.0-1.0-4.0-1.1","3","4","4","3","3","3","4","2","4","3","5","4","5","4","4","4","5","4","1","4","4","5","4","4","3","4","4","5","4","1","0","1","1","0","0","1","1","1","1","1","0","0","0","0","4","5","4","1","4","5","4","4","5","4","598932304420667392","刘","416","","","","","","","","","","","","","","","","","","","true","12","2","moral","574","negative","不仁","","","","","","","","","","","","","","",""
"null","","null","html-keyboard-response","38","237244","0.0-6.0-1.0-4.0-0.2","3","4","4","3","3","3","4","2","4","3","5","4","5","4","4","4","5","4","1","4","4","5","4","4","3","4","4","5","4","1","0","1","1","0","0","1","1","1","1","1","0","0","0","0","4","5","4","1","4","5","4","4","5","4","598932304420667392","刘","416","","","","","","","","","","","","","","","","","","","","","","","","","","","","","","","","","","","","","","","",""
"662","<p style=""color:white; font-size: 35px;"">正直</p>","e","categorize-html","39","237912","0.0-6.0-1.0-4.0-1.2","3","4","4","3","3","3","4","2","4","3","5","4","5","4","4","4","5","4","1","4","4","5","4","4","3","4","4","5","4","1","0","1","1","0","0","1","1","1","1","1","0","0","0","0","4","5","4","1","4","5","4","4","5","4","598932304420667392","刘","416","","","","","","","","","","","","","","","","","","","true","12","2","moral","662","positive","正直","","","","","","","","","","","","","","",""
"null","","null","html-keyboard-response","40","238166","0.0-6.0-1.0-4.0-0.3","3","4","4","3","3","3","4","2","4","3","5","4","5","4","4","4","5","4","1","4","4","5","4","4","3","4","4","5","4","1","0","1","1","0","0","1","1","1","1","1","0","0","0","0","4","5","4","1","4","5","4","4","5","4","598932304420667392","刘","416","","","","","","","","","","","","","","","","","","","","","","","","","","","","","","","","","","","","","","","",""
"577","<p style=""color:white; font-size: 35px;"">卑鄙</p>","i","categorize-html","41","238750","0.0-6.0-1.0-4.0-1.3","3","4","4","3","3","3","4","2","4","3","5","4","5","4","4","4","5","4","1","4","4","5","4","4","3","4","4","5","4","1","0","1","1","0","0","1","1","1","1","1","0","0","0","0","4","5","4","1","4","5","4","4","5","4","598932304420667392","刘","416","","","","","","","","","","","","","","","","","","","true","12","2","moral","577","negative","卑鄙","","","","","","","","","","","","","","",""
"null","","null","html-keyboard-response","42","239004","0.0-6.0-1.0-4.0-0.4","3","4","4","3","3","3","4","2","4","3","5","4","5","4","4","4","5","4","1","4","4","5","4","4","3","4","4","5","4","1","0","1","1","0","0","1","1","1","1","1","0","0","0","0","4","5","4","1","4","5","4","4","5","4","598932304420667392","刘","416","","","","","","","","","","","","","","","","","","","","","","","","","","","","","","","","","","","","","","","",""
"506","<p style=""color:white; font-size: 35px;"">诚信</p>","e","categorize-html","43","239512","0.0-6.0-1.0-4.0-1.4","3","4","4","3","3","3","4","2","4","3","5","4","5","4","4","4","5","4","1","4","4","5","4","4","3","4","4","5","4","1","0","1","1","0","0","1","1","1","1","1","0","0","0","0","4","5","4","1","4","5","4","4","5","4","598932304420667392","刘","416","","","","","","","","","","","","","","","","","","","true","12","2","moral","506","positive","诚信","","","","","","","","","","","","","","",""
"null","","null","html-keyboard-response","44","239764","0.0-6.0-1.0-4.0-0.5","3","4","4","3","3","3","4","2","4","3","5","4","5","4","4","4","5","4","1","4","4","5","4","4","3","4","4","5","4","1","0","1","1","0","0","1","1","1","1","1","0","0","0","0","4","5","4","1","4","5","4","4","5","4","598932304420667392","刘","416","","","","","","","","","","","","","","","","","","","","","","","","","","","","","","","","","","","","","","","",""
"539","<p style=""color:white; font-size: 35px;"">君子</p>","e","categorize-html","45","240305","0.0-6.0-1.0-4.0-1.5","3","4","4","3","3","3","4","2","4","3","5","4","5","4","4","4","5","4","1","4","4","5","4","4","3","4","4","5","4","1","0","1","1","0","0","1","1","1","1","1","0","0","0","0","4","5","4","1","4","5","4","4","5","4","598932304420667392","刘","416","","","","","","","","","","","","","","","","","","","true","12","2","moral","539","positive","君子","","","","","","","","","","","","","","",""
"null","","null","html-keyboard-response","46","240564","0.0-6.0-1.0-4.0-0.6","3","4","4","3","3","3","4","2","4","3","5","4","5","4","4","4","5","4","1","4","4","5","4","4","3","4","4","5","4","1","0","1","1","0","0","1","1","1","1","1","0","0","0","0","4","5","4","1","4","5","4","4","5","4","598932304420667392","刘","416","","","","","","","","","","","","","","","","","","","","","","","","","","","","","","","","","","","","","","","",""
"524","<p style=""color:white; font-size: 35px;"">缺德</p>","i","categorize-html","47","241096","0.0-6.0-1.0-4.0-1.6","3","4","4","3","3","3","4","2","4","3","5","4","5","4","4","4","5","4","1","4","4","5","4","4","3","4","4","5","4","1","0","1","1","0","0","1","1","1","1","1","0","0","0","0","4","5","4","1","4","5","4","4","5","4","598932304420667392","刘","416","","","","","","","","","","","","","","","","","","","true","12","2","moral","524","negative","缺德","","","","","","","","","","","","","","",""
"null","","null","html-keyboard-response","48","241348","0.0-6.0-1.0-4.0-0.7","3","4","4","3","3","3","4","2","4","3","5","4","5","4","4","4","5","4","1","4","4","5","4","4","3","4","4","5","4","1","0","1","1","0","0","1","1","1","1","1","0","0","0","0","4","5","4","1","4","5","4","4","5","4","598932304420667392","刘","416","","","","","","","","","","","","","","","","","","","","","","","","","","","","","","","","","","","","","","","",""
"643","<p style=""color:white; font-size: 35px;"">廉正</p>","e","categorize-html","49","241998","0.0-6.0-1.0-4.0-1.7","3","4","4","3","3","3","4","2","4","3","5","4","5","4","4","4","5","4","1","4","4","5","4","4","3","4","4","5","4","1","0","1","1","0","0","1","1","1","1","1","0","0","0","0","4","5","4","1","4","5","4","4","5","4","598932304420667392","刘","416","","","","","","","","","","","","","","","","","","","true","12","2","moral","643","positive","廉正","","","","","","","","","","","","","","",""
"null","","null","html-keyboard-response","50","242250","0.0-6.0-1.0-4.0-0.8","3","4","4","3","3","3","4","2","4","3","5","4","5","4","4","4","5","4","1","4","4","5","4","4","3","4","4","5","4","1","0","1","1","0","0","1","1","1","1","1","0","0","0","0","4","5","4","1","4","5","4","4","5","4","598932304420667392","刘","416","","","","","","","","","","","","","","","","","","","","","","","","","","","","","","","","","","","","","","","",""
"519","<p style=""color:white; font-size: 35px;"">高尚</p>","e","categorize-html","51","242775","0.0-6.0-1.0-4.0-1.8","3","4","4","3","3","3","4","2","4","3","5","4","5","4","4","4","5","4","1","4","4","5","4","4","3","4","4","5","4","1","0","1","1","0","0","1","1","1","1","1","0","0","0","0","4","5","4","1","4","5","4","4","5","4","598932304420667392","刘","416","","","","","","","","","","","","","","","","","","","true","12","2","moral","519","positive","高尚","","","","","","","","","","","","","","",""
"null","","null","html-keyboard-response","52","243030","0.0-6.0-1.0-4.0-0.9","3","4","4","3","3","3","4","2","4","3","5","4","5","4","4","4","5","4","1","4","4","5","4","4","3","4","4","5","4","1","0","1","1","0","0","1","1","1","1","1","0","0","0","0","4","5","4","1","4","5","4","4","5","4","598932304420667392","刘","416","","","","","","","","","","","","","","","","","","","","","","","","","","","","","","","","","","","","","","","",""
"568","<p style=""color:white; font-size: 35px;"">善良</p>","e","categorize-html","53","243604","0.0-6.0-1.0-4.0-1.9","3","4","4","3","3","3","4","2","4","3","5","4","5","4","4","4","5","4","1","4","4","5","4","4","3","4","4","5","4","1","0","1","1","0","0","1","1","1","1","1","0","0","0","0","4","5","4","1","4","5","4","4","5","4","598932304420667392","刘","416","","","","","","","","","","","","","","","","","","","true","12","2","moral","568","positive","善良","","","","","","","","","","","","","","",""
"null","","null","html-keyboard-response","54","243858","0.0-6.0-1.0-4.0-0.10","3","4","4","3","3","3","4","2","4","3","5","4","5","4","4","4","5","4","1","4","4","5","4","4","3","4","4","5","4","1","0","1","1","0","0","1","1","1","1","1","0","0","0","0","4","5","4","1","4","5","4","4","5","4","598932304420667392","刘","416","","","","","","","","","","","","","","","","","","","","","","","","","","","","","","","","","","","","","","","",""
"642","<p style=""color:white; font-size: 35px;"">黑心</p>","i","categorize-html","55","244505","0.0-6.0-1.0-4.0-1.10","3","4","4","3","3","3","4","2","4","3","5","4","5","4","4","4","5","4","1","4","4","5","4","4","3","4","4","5","4","1","0","1","1","0","0","1","1","1","1","1","0","0","0","0","4","5","4","1","4","5","4","4","5","4","598932304420667392","刘","416","","","","","","","","","","","","","","","","","","","true","12","2","moral","642","negative","黑心","","","","","","","","","","","","","","",""
"null","","null","html-keyboard-response","56","244758","0.0-6.0-1.0-4.0-0.11","3","4","4","3","3","3","4","2","4","3","5","4","5","4","4","4","5","4","1","4","4","5","4","4","3","4","4","5","4","1","0","1","1","0","0","1","1","1","1","1","0","0","0","0","4","5","4","1","4","5","4","4","5","4","598932304420667392","刘","416","","","","","","","","","","","","","","","","","","","","","","","","","","","","","","","","","","","","","","","",""
"698","<p style=""color:white; font-size: 35px;"">小人</p>","e","categorize-html","57","245947","0.0-6.0-1.0-4.0-1.11","3","4","4","3","3","3","4","2","4","3","5","4","5","4","4","4","5","4","1","4","4","5","4","4","3","4","4","5","4","1","0","1","1","0","0","1","1","1","1","1","0","0","0","0","4","5","4","1","4","5","4","4","5","4","598932304420667392","刘","416","","","","","","","","","","","","","","","","","","","false","12","2","moral","698","negative","小人","","","","","","","","","","","","","","",""
"1943","
    <div class=""tag-bottom""><p>
    —— 任务3：对“自我/积极”词和“他人/消极”词分类 ——<p/>
    <span style=""color:#78DCE8""><b>注意上方，之前的四类词语将混合在一起交替呈现</b></span><p/>
    <span style=""color:#FFD866""><b>请根据上方标签的提示，尽可能正确并且快速地做出按键反应</b></span><p/>
    当按键错误时屏幕中会出现<span style=""color:red""> X </span>，需要按另一个键纠正才能继续<br/><p/>
    请把双手食指分别放在键盘的“E”键和“I”键上<p/>
    按<空格键>开始
    </p></div>"," ","html-keyboard-response","58","247892","0.0-6.0-1.0-5.0","3","4","4","3","3","3","4","2","4","3","5","4","5","4","4","4","5","4","1","4","4","5","4","4","3","4","4","5","4","1","0","1","1","0","0","1","1","1","1","1","0","0","0","0","4","5","4","1","4","5","4","4","5","4","598932304420667392","刘","416","","","","","","","","","","","","","","","","","","","","","","","","","","","","","","","","","","","","","","","",""
"null","","null","html-keyboard-response","59","248145","0.0-6.0-1.0-6.0-0.0","3","4","4","3","3","3","4","2","4","3","5","4","5","4","4","4","5","4","1","4","4","5","4","4","3","4","4","5","4","1","0","1","1","0","0","1","1","1","1","1","0","0","0","0","4","5","4","1","4","5","4","4","5","4","598932304420667392","刘","416","","","","","","","","","","","","","","","","","","","","","","","","","","","","","","","","","","","","","","","",""
"828","<p style=""color:rgb(150, 250, 100); font-size: 35px;"">他</p>","e","categorize-html","60","249425","0.0-6.0-1.0-6.0-1.0","3","4","4","3","3","3","4","2","4","3","5","4","5","4","4","4","5","4","1","4","4","5","4","4","3","4","4","5","4","1","0","1","1","0","0","1","1","1","1","1","0","0","0","0","4","5","4","1","4","5","4","4","5","4","598932304420667392","刘","416","","","","","","","","","","","","","","","","","","","false","13","3","moral","1285.3333333333335","other","他","","","","","","","","","","","","","","",""
"null","","null","html-keyboard-response","61","249677","0.0-6.0-1.0-6.0-0.1","3","4","4","3","3","3","4","2","4","3","5","4","5","4","4","4","5","4","1","4","4","5","4","4","3","4","4","5","4","1","0","1","1","0","0","1","1","1","1","1","0","0","0","0","4","5","4","1","4","5","4","4","5","4","598932304420667392","刘","416","","","","","","","","","","","","","","","","","","","","","","","","","","","","","","","","","","","","","","","",""
"622","<p style=""color:white; font-size: 35px;"">缺德</p>","i","categorize-html","62","250306","0.0-6.0-1.0-6.0-1.1","3","4","4","3","3","3","4","2","4","3","5","4","5","4","4","4","5","4","1","4","4","5","4","4","3","4","4","5","4","1","0","1","1","0","0","1","1","1","1","1","0","0","0","0","4","5","4","1","4","5","4","4","5","4","598932304420667392","刘","416","","","","","","","","","","","","","","","","","","","true","13","3","moral","622","negative","缺德","","","","","","","","","","","","","","",""
"null","","null","html-keyboard-response","63","250558","0.0-6.0-1.0-6.0-0.2","3","4","4","3","3","3","4","2","4","3","5","4","5","4","4","4","5","4","1","4","4","5","4","4","3","4","4","5","4","1","0","1","1","0","0","1","1","1","1","1","0","0","0","0","4","5","4","1","4","5","4","4","5","4","598932304420667392","刘","416","","","","","","","","","","","","","","","","","","","","","","","","","","","","","","","","","","","","","","","",""
"791","<p style=""color:rgb(150, 250, 100); font-size: 35px;"">自己的</p>","e","categorize-html","64","251356","0.0-6.0-1.0-6.0-1.2","3","4","4","3","3","3","4","2","4","3","5","4","5","4","4","4","5","4","1","4","4","5","4","4","3","4","4","5","4","1","0","1","1","0","0","1","1","1","1","1","0","0","0","0","4","5","4","1","4","5","4","4","5","4","598932304420667392","刘","416","","","","","","","","","","","","","","","","","","","true","13","3","moral","791","self","自己的","","","","","","","","","","","","","","",""
"null","","null","html-keyboard-response","65","251609","0.0-6.0-1.0-6.0-0.3","3","4","4","3","3","3","4","2","4","3","5","4","5","4","4","4","5","4","1","4","4","5","4","4","3","4","4","5","4","1","0","1","1","0","0","1","1","1","1","1","0","0","0","0","4","5","4","1","4","5","4","4","5","4","598932304420667392","刘","416","","","","","","","","","","","","","","","","","","","","","","","","","","","","","","","","","","","","","","","",""
"585","<p style=""color:white; font-size: 35px;"">诚信</p>","e","categorize-html","66","252200","0.0-6.0-1.0-6.0-1.3","3","4","4","3","3","3","4","2","4","3","5","4","5","4","4","4","5","4","1","4","4","5","4","4","3","4","4","5","4","1","0","1","1","0","0","1","1","1","1","1","0","0","0","0","4","5","4","1","4","5","4","4","5","4","598932304420667392","刘","416","","","","","","","","","","","","","","","","","","","true","13","3","moral","585","positive","诚信","","","","","","","","","","","","","","",""
"null","","null","html-keyboard-response","67","252454","0.0-6.0-1.0-6.0-0.4","3","4","4","3","3","3","4","2","4","3","5","4","5","4","4","4","5","4","1","4","4","5","4","4","3","4","4","5","4","1","0","1","1","0","0","1","1","1","1","1","0","0","0","0","4","5","4","1","4","5","4","4","5","4","598932304420667392","刘","416","","","","","","","","","","","","","","","","","","","","","","","","","","","","","","","","","","","","","","","",""
"693","<p style=""color:rgb(150, 250, 100); font-size: 35px;"">我的</p>","e","categorize-html","68","253154","0.0-6.0-1.0-6.0-1.4","3","4","4","3","3","3","4","2","4","3","5","4","5","4","4","4","5","4","1","4","4","5","4","4","3","4","4","5","4","1","0","1","1","0","0","1","1","1","1","1","0","0","0","0","4","5","4","1","4","5","4","4","5","4","598932304420667392","刘","416","","","","","","","","","","","","","","","","","","","true","13","3","moral","693","self","我的","","","","","","","","","","","","","","",""
"null","","null","html-keyboard-response","69","253412","0.0-6.0-1.0-6.0-0.5","3","4","4","3","3","3","4","2","4","3","5","4","5","4","4","4","5","4","1","4","4","5","4","4","3","4","4","5","4","1","0","1","1","0","0","1","1","1","1","1","0","0","0","0","4","5","4","1","4","5","4","4","5","4","598932304420667392","刘","416","","","","","","","","","","","","","","","","","","","","","","","","","","","","","","","","","","","","","","","",""
"783","<p style=""color:white; font-size: 35px;"">高尚</p>","e","categorize-html","70","254210","0.0-6.0-1.0-6.0-1.5","3","4","4","3","3","3","4","2","4","3","5","4","5","4","4","4","5","4","1","4","4","5","4","4","3","4","4","5","4","1","0","1","1","0","0","1","1","1","1","1","0","0","0","0","4","5","4","1","4","5","4","4","5","4","598932304420667392","刘","416","","","","","","","","","","","","","","","","","","","true","13","3","moral","783","positive","高尚","","","","","","","","","","","","","","",""
"null","","null","html-keyboard-response","71","254463","0.0-6.0-1.0-6.0-0.6","3","4","4","3","3","3","4","2","4","3","5","4","5","4","4","4","5","4","1","4","4","5","4","4","3","4","4","5","4","1","0","1","1","0","0","1","1","1","1","1","0","0","0","0","4","5","4","1","4","5","4","4","5","4","598932304420667392","刘","416","","","","","","","","","","","","","","","","","","","","","","","","","","","","","","","","","","","","","","","",""
"510","<p style=""color:rgb(150, 250, 100); font-size: 35px;"">别人</p>","i","categorize-html","72","254979","0.0-6.0-1.0-6.0-1.6","3","4","4","3","3","3","4","2","4","3","5","4","5","4","4","4","5","4","1","4","4","5","4","4","3","4","4","5","4","1","0","1","1","0","0","1","1","1","1","1","0","0","0","0","4","5","4","1","4","5","4","4","5","4","598932304420667392","刘","416","","","","","","","","","","","","","","","","","","","true","13","3","moral","510","other","别人","","","","","","","","","","","","","","",""
"null","","null","html-keyboard-response","73","255232","0.0-6.0-1.0-6.0-0.7","3","4","4","3","3","3","4","2","4","3","5","4","5","4","4","4","5","4","1","4","4","5","4","4","3","4","4","5","4","1","0","1","1","0","0","1","1","1","1","1","0","0","0","0","4","5","4","1","4","5","4","4","5","4","598932304420667392","刘","416","","","","","","","","","","","","","","","","","","","","","","","","","","","","","","","","","","","","","","","",""
"533","<p style=""color:white; font-size: 35px;"">黑心</p>","i","categorize-html","74","255771","0.0-6.0-1.0-6.0-1.7","3","4","4","3","3","3","4","2","4","3","5","4","5","4","4","4","5","4","1","4","4","5","4","4","3","4","4","5","4","1","0","1","1","0","0","1","1","1","1","1","0","0","0","0","4","5","4","1","4","5","4","4","5","4","598932304420667392","刘","416","","","","","","","","","","","","","","","","","","","true","13","3","moral","533","negative","黑心","","","","","","","","","","","","","","",""
"null","","null","html-keyboard-response","75","256027","0.0-6.0-1.0-6.0-0.8","3","4","4","3","3","3","4","2","4","3","5","4","5","4","4","4","5","4","1","4","4","5","4","4","3","4","4","5","4","1","0","1","1","0","0","1","1","1","1","1","0","0","0","0","4","5","4","1","4","5","4","4","5","4","598932304420667392","刘","416","","","","","","","","","","","","","","","","","","","","","","","","","","","","","","","","","","","","","","","",""
"623","<p style=""color:rgb(150, 250, 100); font-size: 35px;"">自己</p>","e","categorize-html","76","256658","0.0-6.0-1.0-6.0-1.8","3","4","4","3","3","3","4","2","4","3","5","4","5","4","4","4","5","4","1","4","4","5","4","4","3","4","4","5","4","1","0","1","1","0","0","1","1","1","1","1","0","0","0","0","4","5","4","1","4","5","4","4","5","4","598932304420667392","刘","416","","","","","","","","","","","","","","","","","","","true","13","3","moral","623","self","自己","","","","","","","","","","","","","","",""
"null","","null","html-keyboard-response","77","256917","0.0-6.0-1.0-6.0-0.9","3","4","4","3","3","3","4","2","4","3","5","4","5","4","4","4","5","4","1","4","4","5","4","4","3","4","4","5","4","1","0","1","1","0","0","1","1","1","1","1","0","0","0","0","4","5","4","1","4","5","4","4","5","4","598932304420667392","刘","416","","","","","","","","","","","","","","","","","","","","","","","","","","","","","","","","","","","","","","","",""
"706","<p style=""color:white; font-size: 35px;"">不孝</p>","i","categorize-html","78","257630","0.0-6.0-1.0-6.0-1.9","3","4","4","3","3","3","4","2","4","3","5","4","5","4","4","4","5","4","1","4","4","5","4","4","3","4","4","5","4","1","0","1","1","0","0","1","1","1","1","1","0","0","0","0","4","5","4","1","4","5","4","4","5","4","598932304420667392","刘","416","","","","","","","","","","","","","","","","","","","true","13","3","moral","706","negative","不孝","","","","","","","","","","","","","","",""
"null","","null","html-keyboard-response","79","257882","0.0-6.0-1.0-6.0-0.10","3","4","4","3","3","3","4","2","4","3","5","4","5","4","4","4","5","4","1","4","4","5","4","4","3","4","4","5","4","1","0","1","1","0","0","1","1","1","1","1","0","0","0","0","4","5","4","1","4","5","4","4","5","4","598932304420667392","刘","416","","","","","","","","","","","","","","","","","","","","","","","","","","","","","","","","","","","","","","","",""
"632","<p style=""color:rgb(150, 250, 100); font-size: 35px;"">别人的</p>","i","categorize-html","80","258523","0.0-6.0-1.0-6.0-1.10","3","4","4","3","3","3","4","2","4","3","5","4","5","4","4","4","5","4","1","4","4","5","4","4","3","4","4","5","4","1","0","1","1","0","0","1","1","1","1","1","0","0","0","0","4","5","4","1","4","5","4","4","5","4","598932304420667392","刘","416","","","","","","","","","","","","","","","","","","","true","13","3","moral","632","other","别人的","","","","","","","","","","","","","","",""
"null","","null","html-keyboard-response","81","258775","0.0-6.0-1.0-6.0-0.11","3","4","4","3","3","3","4","2","4","3","5","4","5","4","4","4","5","4","1","4","4","5","4","4","3","4","4","5","4","1","0","1","1","0","0","1","1","1","1","1","0","0","0","0","4","5","4","1","4","5","4","4","5","4","598932304420667392","刘","416","","","","","","","","","","","","","","","","","","","","","","","","","","","","","","","","","","","","","","","",""
"785","<p style=""color:white; font-size: 35px;"">善良</p>","e","categorize-html","82","259564","0.0-6.0-1.0-6.0-1.11","3","4","4","3","3","3","4","2","4","3","5","4","5","4","4","4","5","4","1","4","4","5","4","4","3","4","4","5","4","1","0","1","1","0","0","1","1","1","1","1","0","0","0","0","4","5","4","1","4","5","4","4","5","4","598932304420667392","刘","416","","","","","","","","","","","","","","","","","","","true","13","3","moral","785","positive","善良","","","","","","","","","","","","","","",""
"null","","null","html-keyboard-response","83","259816","0.0-6.0-1.0-6.0-0.12","3","4","4","3","3","3","4","2","4","3","5","4","5","4","4","4","5","4","1","4","4","5","4","4","3","4","4","5","4","1","0","1","1","0","0","1","1","1","1","1","0","0","0","0","4","5","4","1","4","5","4","4","5","4","598932304420667392","刘","416","","","","","","","","","","","","","","","","","","","","","","","","","","","","","","","","","","","","","","","",""
"595","<p style=""color:rgb(150, 250, 100); font-size: 35px;"">我</p>","e","categorize-html","84","260417","0.0-6.0-1.0-6.0-1.12","3","4","4","3","3","3","4","2","4","3","5","4","5","4","4","4","5","4","1","4","4","5","4","4","3","4","4","5","4","1","0","1","1","0","0","1","1","1","1","1","0","0","0","0","4","5","4","1","4","5","4","4","5","4","598932304420667392","刘","416","","","","","","","","","","","","","","","","","","","true","13","3","moral","595","self","我","","","","","","","","","","","","","","",""
"null","","null","html-keyboard-response","85","260671","0.0-6.0-1.0-6.0-0.13","3","4","4","3","3","3","4","2","4","3","5","4","5","4","4","4","5","4","1","4","4","5","4","4","3","4","4","5","4","1","0","1","1","0","0","1","1","1","1","1","0","0","0","0","4","5","4","1","4","5","4","4","5","4","598932304420667392","刘","416","","","","","","","","","","","","","","","","","","","","","","","","","","","","","","","","","","","","","","","",""
"617","<p style=""color:white; font-size: 35px;"">小人</p>","i","categorize-html","86","261294","0.0-6.0-1.0-6.0-1.13","3","4","4","3","3","3","4","2","4","3","5","4","5","4","4","4","5","4","1","4","4","5","4","4","3","4","4","5","4","1","0","1","1","0","0","1","1","1","1","1","0","0","0","0","4","5","4","1","4","5","4","4","5","4","598932304420667392","刘","416","","","","","","","","","","","","","","","","","","","true","13","3","moral","617","negative","小人","","","","","","","","","","","","","","",""
"null","","null","html-keyboard-response","87","261547","0.0-6.0-1.0-6.0-0.14","3","4","4","3","3","3","4","2","4","3","5","4","5","4","4","4","5","4","1","4","4","5","4","4","3","4","4","5","4","1","0","1","1","0","0","1","1","1","1","1","0","0","0","0","4","5","4","1","4","5","4","4","5","4","598932304420667392","刘","416","","","","","","","","","","","","","","","","","","","","","","","","","","","","","","","","","","","","","","","",""
"550","<p style=""color:rgb(150, 250, 100); font-size: 35px;"">他的</p>","e","categorize-html","88","262510","0.0-6.0-1.0-6.0-1.14","3","4","4","3","3","3","4","2","4","3","5","4","5","4","4","4","5","4","1","4","4","5","4","4","3","4","4","5","4","1","0","1","1","0","0","1","1","1","1","1","0","0","0","0","4","5","4","1","4","5","4","4","5","4","598932304420667392","刘","416","","","","","","","","","","","","","","","","","","","false","13","3","moral","1285.3333333333335","other","他的","","","","","","","","","","","","","","",""
"null","","null","html-keyboard-response","89","262764","0.0-6.0-1.0-6.0-0.15","3","4","4","3","3","3","4","2","4","3","5","4","5","4","4","4","5","4","1","4","4","5","4","4","3","4","4","5","4","1","0","1","1","0","0","1","1","1","1","1","0","0","0","0","4","5","4","1","4","5","4","4","5","4","598932304420667392","刘","416","","","","","","","","","","","","","","","","","","","","","","","","","","","","","","","","","","","","","","","",""
"1459","<p style=""color:white; font-size: 35px;"">正直</p>","e","categorize-html","90","264234","0.0-6.0-1.0-6.0-1.15","3","4","4","3","3","3","4","2","4","3","5","4","5","4","4","4","5","4","1","4","4","5","4","4","3","4","4","5","4","1","0","1","1","0","0","1","1","1","1","1","0","0","0","0","4","5","4","1","4","5","4","4","5","4","598932304420667392","刘","416","","","","","","","","","","","","","","","","","","","true","13","3","moral","1459","positive","正直","","","","","","","","","","","","","","",""
"null","","null","html-keyboard-response","91","264500","0.0-6.0-1.0-6.0-0.16","3","4","4","3","3","3","4","2","4","3","5","4","5","4","4","4","5","4","1","4","4","5","4","4","3","4","4","5","4","1","0","1","1","0","0","1","1","1","1","1","0","0","0","0","4","5","4","1","4","5","4","4","5","4","598932304420667392","刘","416","","","","","","","","","","","","","","","","","","","","","","","","","","","","","","","","","","","","","","","",""
"586","<p style=""color:rgb(150, 250, 100); font-size: 35px;"">本人的</p>","e","categorize-html","92","265091","0.0-6.0-1.0-6.0-1.16","3","4","4","3","3","3","4","2","4","3","5","4","5","4","4","4","5","4","1","4","4","5","4","4","3","4","4","5","4","1","0","1","1","0","0","1","1","1","1","1","0","0","0","0","4","5","4","1","4","5","4","4","5","4","598932304420667392","刘","416","","","","","","","","","","","","","","","","","","","true","13","3","moral","586","self","本人的","","","","","","","","","","","","","","",""
"null","","null","html-keyboard-response","93","265344","0.0-6.0-1.0-6.0-0.17","3","4","4","3","3","3","4","2","4","3","5","4","5","4","4","4","5","4","1","4","4","5","4","4","3","4","4","5","4","1","0","1","1","0","0","1","1","1","1","1","0","0","0","0","4","5","4","1","4","5","4","4","5","4","598932304420667392","刘","416","","","","","","","","","","","","","","","","","","","","","","","","","","","","","","","","","","","","","","","",""
"563","<p style=""color:white; font-size: 35px;"">不仁</p>","i","categorize-html","94","265913","0.0-6.0-1.0-6.0-1.17","3","4","4","3","3","3","4","2","4","3","5","4","5","4","4","4","5","4","1","4","4","5","4","4","3","4","4","5","4","1","0","1","1","0","0","1","1","1","1","1","0","0","0","0","4","5","4","1","4","5","4","4","5","4","598932304420667392","刘","416","","","","","","","","","","","","","","","","","","","true","13","3","moral","563","negative","不仁","","","","","","","","","","","","","","",""
"null","","null","html-keyboard-response","95","266166","0.0-6.0-1.0-6.0-0.18","3","4","4","3","3","3","4","2","4","3","5","4","5","4","4","4","5","4","1","4","4","5","4","4","3","4","4","5","4","1","0","1","1","0","0","1","1","1","1","1","0","0","0","0","4","5","4","1","4","5","4","4","5","4","598932304420667392","刘","416","","","","","","","","","","","","","","","","","","","","","","","","","","","","","","","","","","","","","","","",""
"653","<p style=""color:rgb(150, 250, 100); font-size: 35px;"">他人</p>","i","categorize-html","96","266851","0.0-6.0-1.0-6.0-1.18","3","4","4","3","3","3","4","2","4","3","5","4","5","4","4","4","5","4","1","4","4","5","4","4","3","4","4","5","4","1","0","1","1","0","0","1","1","1","1","1","0","0","0","0","4","5","4","1","4","5","4","4","5","4","598932304420667392","刘","416","","","","","","","","","","","","","","","","","","","true","13","3","moral","653","other","他人","","","","","","","","","","","","","","",""
"null","","null","html-keyboard-response","97","267107","0.0-6.0-1.0-6.0-0.19","3","4","4","3","3","3","4","2","4","3","5","4","5","4","4","4","5","4","1","4","4","5","4","4","3","4","4","5","4","1","0","1","1","0","0","1","1","1","1","1","0","0","0","0","4","5","4","1","4","5","4","4","5","4","598932304420667392","刘","416","","","","","","","","","","","","","","","","","","","","","","","","","","","","","","","","","","","","","","","",""
"558","<p style=""color:white; font-size: 35px;"">君子</p>","e","categorize-html","98","267670","0.0-6.0-1.0-6.0-1.19","3","4","4","3","3","3","4","2","4","3","5","4","5","4","4","4","5","4","1","4","4","5","4","4","3","4","4","5","4","1","0","1","1","0","0","1","1","1","1","1","0","0","0","0","4","5","4","1","4","5","4","4","5","4","598932304420667392","刘","416","","","","","","","","","","","","","","","","","","","true","13","3","moral","558","positive","君子","","","","","","","","","","","","","","",""
"null","","null","html-keyboard-response","99","267922","0.0-6.0-1.0-6.0-0.20","3","4","4","3","3","3","4","2","4","3","5","4","5","4","4","4","5","4","1","4","4","5","4","4","3","4","4","5","4","1","0","1","1","0","0","1","1","1","1","1","0","0","0","0","4","5","4","1","4","5","4","4","5","4","598932304420667392","刘","416","","","","","","","","","","","","","","","","","","","","","","","","","","","","","","","","","","","","","","","",""
"673","<p style=""color:rgb(150, 250, 100); font-size: 35px;"">他人的</p>","i","categorize-html","100","268603","0.0-6.0-1.0-6.0-1.20","3","4","4","3","3","3","4","2","4","3","5","4","5","4","4","4","5","4","1","4","4","5","4","4","3","4","4","5","4","1","0","1","1","0","0","1","1","1","1","1","0","0","0","0","4","5","4","1","4","5","4","4","5","4","598932304420667392","刘","416","","","","","","","","","","","","","","","","","","","true","13","3","moral","673","other","他人的","","","","","","","","","","","","","","",""
"null","","null","html-keyboard-response","101","268854","0.0-6.0-1.0-6.0-0.21","3","4","4","3","3","3","4","2","4","3","5","4","5","4","4","4","5","4","1","4","4","5","4","4","3","4","4","5","4","1","0","1","1","0","0","1","1","1","1","1","0","0","0","0","4","5","4","1","4","5","4","4","5","4","598932304420667392","刘","416","","","","","","","","","","","","","","","","","","","","","","","","","","","","","","","","","","","","","","","",""
"692","<p style=""color:white; font-size: 35px;"">廉正</p>","e","categorize-html","102","269549","0.0-6.0-1.0-6.0-1.21","3","4","4","3","3","3","4","2","4","3","5","4","5","4","4","4","5","4","1","4","4","5","4","4","3","4","4","5","4","1","0","1","1","0","0","1","1","1","1","1","0","0","0","0","4","5","4","1","4","5","4","4","5","4","598932304420667392","刘","416","","","","","","","","","","","","","","","","","","","true","13","3","moral","692","positive","廉正","","","","","","","","","","","","","","",""
"null","","null","html-keyboard-response","103","269802","0.0-6.0-1.0-6.0-0.22","3","4","4","3","3","3","4","2","4","3","5","4","5","4","4","4","5","4","1","4","4","5","4","4","3","4","4","5","4","1","0","1","1","0","0","1","1","1","1","1","0","0","0","0","4","5","4","1","4","5","4","4","5","4","598932304420667392","刘","416","","","","","","","","","","","","","","","","","","","","","","","","","","","","","","","","","","","","","","","",""
"881","<p style=""color:rgb(150, 250, 100); font-size: 35px;"">本人</p>","i","categorize-html","104","271236","0.0-6.0-1.0-6.0-1.22","3","4","4","3","3","3","4","2","4","3","5","4","5","4","4","4","5","4","1","4","4","5","4","4","3","4","4","5","4","1","0","1","1","0","0","1","1","1","1","1","0","0","0","0","4","5","4","1","4","5","4","4","5","4","598932304420667392","刘","416","","","","","","","","","","","","","","","","","","","false","13","3","moral","1285.3333333333335","self","本人","","","","","","","","","","","","","","",""
"null","","null","html-keyboard-response","105","271489","0.0-6.0-1.0-6.0-0.23","3","4","4","3","3","3","4","2","4","3","5","4","5","4","4","4","5","4","1","4","4","5","4","4","3","4","4","5","4","1","0","1","1","0","0","1","1","1","1","1","0","0","0","0","4","5","4","1","4","5","4","4","5","4","598932304420667392","刘","416","","","","","","","","","","","","","","","","","","","","","","","","","","","","","","","","","","","","","","","",""
"733","<p style=""color:white; font-size: 35px;"">卑鄙</p>","i","categorize-html","106","272229","0.0-6.0-1.0-6.0-1.23","3","4","4","3","3","3","4","2","4","3","5","4","5","4","4","4","5","4","1","4","4","5","4","4","3","4","4","5","4","1","0","1","1","0","0","1","1","1","1","1","0","0","0","0","4","5","4","1","4","5","4","4","5","4","598932304420667392","刘","416","","","","","","","","","","","","","","","","","","","true","13","3","moral","733","negative","卑鄙","","","","","","","","","","","","","","",""
"943","
    <div class=""tag-bottom""><p>
    —— 任务4：对“自我/积极”词和“他人/消极”词分类 ——<p/>
    <span style=""color:#78DCE8""><b>与刚才的任务完全相同，请再次对这四类词语分类</b></span><p/>
    <span style=""color:#FFD866""><b>请根据上方标签的提示，尽可能正确并且快速地做出按键反应</b></span><p/>
    当按键错误时屏幕中会出现<span style=""color:red""> X </span>，需要按另一个键纠正才能继续<br/><p/>
    请把双手食指分别放在键盘的“E”键和“I”键上<p/>
    按<空格键>开始
    </p></div>"," ","html-keyboard-response","107","273174","0.0-6.0-1.0-7.0","3","4","4","3","3","3","4","2","4","3","5","4","5","4","4","4","5","4","1","4","4","5","4","4","3","4","4","5","4","1","0","1","1","0","0","1","1","1","1","1","0","0","0","0","4","5","4","1","4","5","4","4","5","4","598932304420667392","刘","416","","","","","","","","","","","","","","","","","","","","","","","","","","","","","","","","","","","","","","","",""
"null","","null","html-keyboard-response","108","273426","0.0-6.0-1.0-8.0-0.0","3","4","4","3","3","3","4","2","4","3","5","4","5","4","4","4","5","4","1","4","4","5","4","4","3","4","4","5","4","1","0","1","1","0","0","1","1","1","1","1","0","0","0","0","4","5","4","1","4","5","4","4","5","4","598932304420667392","刘","416","","","","","","","","","","","","","","","","","","","","","","","","","","","","","","","","","","","","","","","",""
"653","<p style=""color:rgb(150, 250, 100); font-size: 35px;"">他人</p>","i","categorize-html","109","274085","0.0-6.0-1.0-8.0-1.0","3","4","4","3","3","3","4","2","4","3","5","4","5","4","4","4","5","4","1","4","4","5","4","4","3","4","4","5","4","1","0","1","1","0","0","1","1","1","1","1","0","0","0","0","4","5","4","1","4","5","4","4","5","4","598932304420667392","刘","416","","","","","","","","","","","","","","","","","","","true","14","4","moral","653","other","他人","","","","","","","","","","","","","","",""
"null","","null","html-keyboard-response","110","274346","0.0-6.0-1.0-8.0-0.1","3","4","4","3","3","3","4","2","4","3","5","4","5","4","4","4","5","4","1","4","4","5","4","4","3","4","4","5","4","1","0","1","1","0","0","1","1","1","1","1","0","0","0","0","4","5","4","1","4","5","4","4","5","4","598932304420667392","刘","416","","","","","","","","","","","","","","","","","","","","","","","","","","","","","","","","","","","","","","","",""
"515","<p style=""color:white; font-size: 35px;"">正直</p>","e","categorize-html","111","274864","0.0-6.0-1.0-8.0-1.1","3","4","4","3","3","3","4","2","4","3","5","4","5","4","4","4","5","4","1","4","4","5","4","4","3","4","4","5","4","1","0","1","1","0","0","1","1","1","1","1","0","0","0","0","4","5","4","1","4","5","4","4","5","4","598932304420667392","刘","416","","","","","","","","","","","","","","","","","","","true","14","4","moral","515","positive","正直","","","","","","","","","","","","","","",""
"null","","null","html-keyboard-response","112","275116","0.0-6.0-1.0-8.0-0.2","3","4","4","3","3","3","4","2","4","3","5","4","5","4","4","4","5","4","1","4","4","5","4","4","3","4","4","5","4","1","0","1","1","0","0","1","1","1","1","1","0","0","0","0","4","5","4","1","4","5","4","4","5","4","598932304420667392","刘","416","","","","","","","","","","","","","","","","","","","","","","","","","","","","","","","","","","","","","","","",""
"523","<p style=""color:rgb(150, 250, 100); font-size: 35px;"">我的</p>","e","categorize-html","113","275643","0.0-6.0-1.0-8.0-1.2","3","4","4","3","3","3","4","2","4","3","5","4","5","4","4","4","5","4","1","4","4","5","4","4","3","4","4","5","4","1","0","1","1","0","0","1","1","1","1","1","0","0","0","0","4","5","4","1","4","5","4","4","5","4","598932304420667392","刘","416","","","","","","","","","","","","","","","","","","","true","14","4","moral","523","self","我的","","","","","","","","","","","","","","",""
"null","","null","html-keyboard-response","114","275898","0.0-6.0-1.0-8.0-0.3","3","4","4","3","3","3","4","2","4","3","5","4","5","4","4","4","5","4","1","4","4","5","4","4","3","4","4","5","4","1","0","1","1","0","0","1","1","1","1","1","0","0","0","0","4","5","4","1","4","5","4","4","5","4","598932304420667392","刘","416","","","","","","","","","","","","","","","","","","","","","","","","","","","","","","","","","","","","","","","",""
"545","<p style=""color:white; font-size: 35px;"">卑鄙</p>","i","categorize-html","115","276450","0.0-6.0-1.0-8.0-1.3","3","4","4","3","3","3","4","2","4","3","5","4","5","4","4","4","5","4","1","4","4","5","4","4","3","4","4","5","4","1","0","1","1","0","0","1","1","1","1","1","0","0","0","0","4","5","4","1","4","5","4","4","5","4","598932304420667392","刘","416","","","","","","","","","","","","","","","","","","","true","14","4","moral","545","negative","卑鄙","","","","","","","","","","","","","","",""
"null","","null","html-keyboard-response","116","276703","0.0-6.0-1.0-8.0-0.4","3","4","4","3","3","3","4","2","4","3","5","4","5","4","4","4","5","4","1","4","4","5","4","4","3","4","4","5","4","1","0","1","1","0","0","1","1","1","1","1","0","0","0","0","4","5","4","1","4","5","4","4","5","4","598932304420667392","刘","416","","","","","","","","","","","","","","","","","","","","","","","","","","","","","","","","","","","","","","","",""
"614","<p style=""color:rgb(150, 250, 100); font-size: 35px;"">别人的</p>","i","categorize-html","117","277323","0.0-6.0-1.0-8.0-1.4","3","4","4","3","3","3","4","2","4","3","5","4","5","4","4","4","5","4","1","4","4","5","4","4","3","4","4","5","4","1","0","1","1","0","0","1","1","1","1","1","0","0","0","0","4","5","4","1","4","5","4","4","5","4","598932304420667392","刘","416","","","","","","","","","","","","","","","","","","","true","14","4","moral","614","other","别人的","","","","","","","","","","","","","","",""
"null","","null","html-keyboard-response","118","277576","0.0-6.0-1.0-8.0-0.5","3","4","4","3","3","3","4","2","4","3","5","4","5","4","4","4","5","4","1","4","4","5","4","4","3","4","4","5","4","1","0","1","1","0","0","1","1","1","1","1","0","0","0","0","4","5","4","1","4","5","4","4","5","4","598932304420667392","刘","416","","","","","","","","","","","","","","","","","","","","","","","","","","","","","","","","","","","","","","","",""
"979","<p style=""color:white; font-size: 35px;"">高尚</p>","e","categorize-html","119","278564","0.0-6.0-1.0-8.0-1.5","3","4","4","3","3","3","4","2","4","3","5","4","5","4","4","4","5","4","1","4","4","5","4","4","3","4","4","5","4","1","0","1","1","0","0","1","1","1","1","1","0","0","0","0","4","5","4","1","4","5","4","4","5","4","598932304420667392","刘","416","","","","","","","","","","","","","","","","","","","true","14","4","moral","979","positive","高尚","","","","","","","","","","","","","","",""
"null","","null","html-keyboard-response","120","278818","0.0-6.0-1.0-8.0-0.6","3","4","4","3","3","3","4","2","4","3","5","4","5","4","4","4","5","4","1","4","4","5","4","4","3","4","4","5","4","1","0","1","1","0","0","1","1","1","1","1","0","0","0","0","4","5","4","1","4","5","4","4","5","4","598932304420667392","刘","416","","","","","","","","","","","","","","","","","","","","","","","","","","","","","","","","","","","","","","","",""
"748","<p style=""color:rgb(150, 250, 100); font-size: 35px;"">自己的</p>","e","categorize-html","121","279573","0.0-6.0-1.0-8.0-1.6","3","4","4","3","3","3","4","2","4","3","5","4","5","4","4","4","5","4","1","4","4","5","4","4","3","4","4","5","4","1","0","1","1","0","0","1","1","1","1","1","0","0","0","0","4","5","4","1","4","5","4","4","5","4","598932304420667392","刘","416","","","","","","","","","","","","","","","","","","","true","14","4","moral","748","self","自己的","","","","","","","","","","","","","","",""
"null","","null","html-keyboard-response","122","279828","0.0-6.0-1.0-8.0-0.7","3","4","4","3","3","3","4","2","4","3","5","4","5","4","4","4","5","4","1","4","4","5","4","4","3","4","4","5","4","1","0","1","1","0","0","1","1","1","1","1","0","0","0","0","4","5","4","1","4","5","4","4","5","4","598932304420667392","刘","416","","","","","","","","","","","","","","","","","","","","","","","","","","","","","","","","","","","","","","","",""
"494","<p style=""color:white; font-size: 35px;"">卑鄙</p>","i","categorize-html","123","280329","0.0-6.0-1.0-8.0-1.7","3","4","4","3","3","3","4","2","4","3","5","4","5","4","4","4","5","4","1","4","4","5","4","4","3","4","4","5","4","1","0","1","1","0","0","1","1","1","1","1","0","0","0","0","4","5","4","1","4","5","4","4","5","4","598932304420667392","刘","416","","","","","","","","","","","","","","","","","","","true","14","4","moral","494","negative","卑鄙","","","","","","","","","","","","","","",""
"null","","null","html-keyboard-response","124","280581","0.0-6.0-1.0-8.0-0.8","3","4","4","3","3","3","4","2","4","3","5","4","5","4","4","4","5","4","1","4","4","5","4","4","3","4","4","5","4","1","0","1","1","0","0","1","1","1","1","1","0","0","0","0","4","5","4","1","4","5","4","4","5","4","598932304420667392","刘","416","","","","","","","","","","","","","","","","","","","","","","","","","","","","","","","","","","","","","","","",""
"703","<p style=""color:rgb(150, 250, 100); font-size: 35px;"">他人的</p>","i","categorize-html","125","281291","0.0-6.0-1.0-8.0-1.8","3","4","4","3","3","3","4","2","4","3","5","4","5","4","4","4","5","4","1","4","4","5","4","4","3","4","4","5","4","1","0","1","1","0","0","1","1","1","1","1","0","0","0","0","4","5","4","1","4","5","4","4","5","4","598932304420667392","刘","416","","","","","","","","","","","","","","","","","","","true","14","4","moral","703","other","他人的","","","","","","","","","","","","","","",""
"null","","null","html-keyboard-response","126","281544","0.0-6.0-1.0-8.0-0.9","3","4","4","3","3","3","4","2","4","3","5","4","5","4","4","4","5","4","1","4","4","5","4","4","3","4","4","5","4","1","0","1","1","0","0","1","1","1","1","1","0","0","0","0","4","5","4","1","4","5","4","4","5","4","598932304420667392","刘","416","","","","","","","","","","","","","","","","","","","","","","","","","","","","","","","","","","","","","","","",""
"2036","<p style=""color:white; font-size: 35px;"">缺德</p>","i","categorize-html","127","283588","0.0-6.0-1.0-8.0-1.9","3","4","4","3","3","3","4","2","4","3","5","4","5","4","4","4","5","4","1","4","4","5","4","4","3","4","4","5","4","1","0","1","1","0","0","1","1","1","1","1","0","0","0","0","4","5","4","1","4","5","4","4","5","4","598932304420667392","刘","416","","","","","","","","","","","","","","","","","","","true","14","4","moral","2036","negative","缺德","","","","","","","","","","","","","","",""
"null","","null","html-keyboard-response","128","283855","0.0-6.0-1.0-8.0-0.10","3","4","4","3","3","3","4","2","4","3","5","4","5","4","4","4","5","4","1","4","4","5","4","4","3","4","4","5","4","1","0","1","1","0","0","1","1","1","1","1","0","0","0","0","4","5","4","1","4","5","4","4","5","4","598932304420667392","刘","416","","","","","","","","","","","","","","","","","","","","","","","","","","","","","","","","","","","","","","","",""
"529","<p style=""color:rgb(150, 250, 100); font-size: 35px;"">本人</p>","e","categorize-html","129","284389","0.0-6.0-1.0-8.0-1.10","3","4","4","3","3","3","4","2","4","3","5","4","5","4","4","4","5","4","1","4","4","5","4","4","3","4","4","5","4","1","0","1","1","0","0","1","1","1","1","1","0","0","0","0","4","5","4","1","4","5","4","4","5","4","598932304420667392","刘","416","","","","","","","","","","","","","","","","","","","true","14","4","moral","529","self","本人","","","","","","","","","","","","","","",""
"null","","null","html-keyboard-response","130","284642","0.0-6.0-1.0-8.0-0.11","3","4","4","3","3","3","4","2","4","3","5","4","5","4","4","4","5","4","1","4","4","5","4","4","3","4","4","5","4","1","0","1","1","0","0","1","1","1","1","1","0","0","0","0","4","5","4","1","4","5","4","4","5","4","598932304420667392","刘","416","","","","","","","","","","","","","","","","","","","","","","","","","","","","","","","","","","","","","","","",""
"659","<p style=""color:white; font-size: 35px;"">诚信</p>","e","categorize-html","131","285309","0.0-6.0-1.0-8.0-1.11","3","4","4","3","3","3","4","2","4","3","5","4","5","4","4","4","5","4","1","4","4","5","4","4","3","4","4","5","4","1","0","1","1","0","0","1","1","1","1","1","0","0","0","0","4","5","4","1","4","5","4","4","5","4","598932304420667392","刘","416","","","","","","","","","","","","","","","","","","","true","14","4","moral","659","positive","诚信","","","","","","","","","","","","","","",""
"null","","null","html-keyboard-response","132","285567","0.0-6.0-1.0-8.0-0.12","3","4","4","3","3","3","4","2","4","3","5","4","5","4","4","4","5","4","1","4","4","5","4","4","3","4","4","5","4","1","0","1","1","0","0","1","1","1","1","1","0","0","0","0","4","5","4","1","4","5","4","4","5","4","598932304420667392","刘","416","","","","","","","","","","","","","","","","","","","","","","","","","","","","","","","","","","","","","","","",""
"535","<p style=""color:rgb(150, 250, 100); font-size: 35px;"">他人的</p>","i","categorize-html","133","286110","0.0-6.0-1.0-8.0-1.12","3","4","4","3","3","3","4","2","4","3","5","4","5","4","4","4","5","4","1","4","4","5","4","4","3","4","4","5","4","1","0","1","1","0","0","1","1","1","1","1","0","0","0","0","4","5","4","1","4","5","4","4","5","4","598932304420667392","刘","416","","","","","","","","","","","","","","","","","","","true","14","4","moral","535","other","他人的","","","","","","","","","","","","","","",""
"null","","null","html-keyboard-response","134","286370","0.0-6.0-1.0-8.0-0.13","3","4","4","3","3","3","4","2","4","3","5","4","5","4","4","4","5","4","1","4","4","5","4","4","3","4","4","5","4","1","0","1","1","0","0","1","1","1","1","1","0","0","0","0","4","5","4","1","4","5","4","4","5","4","598932304420667392","刘","416","","","","","","","","","","","","","","","","","","","","","","","","","","","","","","","","","","","","","","","",""
"581","<p style=""color:white; font-size: 35px;"">不孝</p>","i","categorize-html","135","286956","0.0-6.0-1.0-8.0-1.13","3","4","4","3","3","3","4","2","4","3","5","4","5","4","4","4","5","4","1","4","4","5","4","4","3","4","4","5","4","1","0","1","1","0","0","1","1","1","1","1","0","0","0","0","4","5","4","1","4","5","4","4","5","4","598932304420667392","刘","416","","","","","","","","","","","","","","","","","","","true","14","4","moral","581","negative","不孝","","","","","","","","","","","","","","",""
"null","","null","html-keyboard-response","136","287209","0.0-6.0-1.0-8.0-0.14","3","4","4","3","3","3","4","2","4","3","5","4","5","4","4","4","5","4","1","4","4","5","4","4","3","4","4","5","4","1","0","1","1","0","0","1","1","1","1","1","0","0","0","0","4","5","4","1","4","5","4","4","5","4","598932304420667392","刘","416","","","","","","","","","","","","","","","","","","","","","","","","","","","","","","","","","","","","","","","",""
"531","<p style=""color:rgb(150, 250, 100); font-size: 35px;"">本人的</p>","e","categorize-html","137","287746","0.0-6.0-1.0-8.0-1.14","3","4","4","3","3","3","4","2","4","3","5","4","5","4","4","4","5","4","1","4","4","5","4","4","3","4","4","5","4","1","0","1","1","0","0","1","1","1","1","1","0","0","0","0","4","5","4","1","4","5","4","4","5","4","598932304420667392","刘","416","","","","","","","","","","","","","","","","","","","true","14","4","moral","531","self","本人的","","","","","","","","","","","","","","",""
"null","","null","html-keyboard-response","138","287999","0.0-6.0-1.0-8.0-0.15","3","4","4","3","3","3","4","2","4","3","5","4","5","4","4","4","5","4","1","4","4","5","4","4","3","4","4","5","4","1","0","1","1","0","0","1","1","1","1","1","0","0","0","0","4","5","4","1","4","5","4","4","5","4","598932304420667392","刘","416","","","","","","","","","","","","","","","","","","","","","","","","","","","","","","","","","","","","","","","",""
"713","<p style=""color:white; font-size: 35px;"">诚信</p>","e","categorize-html","139","288721","0.0-6.0-1.0-8.0-1.15","3","4","4","3","3","3","4","2","4","3","5","4","5","4","4","4","5","4","1","4","4","5","4","4","3","4","4","5","4","1","0","1","1","0","0","1","1","1","1","1","0","0","0","0","4","5","4","1","4","5","4","4","5","4","598932304420667392","刘","416","","","","","","","","","","","","","","","","","","","true","14","4","moral","713","positive","诚信","","","","","","","","","","","","","","",""
"null","","null","html-keyboard-response","140","288975","0.0-6.0-1.0-8.0-0.16","3","4","4","3","3","3","4","2","4","3","5","4","5","4","4","4","5","4","1","4","4","5","4","4","3","4","4","5","4","1","0","1","1","0","0","1","1","1","1","1","0","0","0","0","4","5","4","1","4","5","4","4","5","4","598932304420667392","刘","416","","","","","","","","","","","","","","","","","","","","","","","","","","","","","","","","","","","","","","","",""
"1026","<p style=""color:rgb(150, 250, 100); font-size: 35px;"">他的</p>","i","categorize-html","141","290008","0.0-6.0-1.0-8.0-1.16","3","4","4","3","3","3","4","2","4","3","5","4","5","4","4","4","5","4","1","4","4","5","4","4","3","4","4","5","4","1","0","1","1","0","0","1","1","1","1","1","0","0","0","0","4","5","4","1","4","5","4","4","5","4","598932304420667392","刘","416","","","","","","","","","","","","","","","","","","","true","14","4","moral","1026","other","他的","","","","","","","","","","","","","","",""
"null","","null","html-keyboard-response","142","290261","0.0-6.0-1.0-8.0-0.17","3","4","4","3","3","3","4","2","4","3","5","4","5","4","4","4","5","4","1","4","4","5","4","4","3","4","4","5","4","1","0","1","1","0","0","1","1","1","1","1","0","0","0","0","4","5","4","1","4","5","4","4","5","4","598932304420667392","刘","416","","","","","","","","","","","","","","","","","","","","","","","","","","","","","","","","","","","","","","","",""
"1104","<p style=""color:white; font-size: 35px;"">廉正</p>","e","categorize-html","143","291378","0.0-6.0-1.0-8.0-1.17","3","4","4","3","3","3","4","2","4","3","5","4","5","4","4","4","5","4","1","4","4","5","4","4","3","4","4","5","4","1","0","1","1","0","0","1","1","1","1","1","0","0","0","0","4","5","4","1","4","5","4","4","5","4","598932304420667392","刘","416","","","","","","","","","","","","","","","","","","","true","14","4","moral","1104","positive","廉正","","","","","","","","","","","","","","",""
"null","","null","html-keyboard-response","144","291630","0.0-6.0-1.0-8.0-0.18","3","4","4","3","3","3","4","2","4","3","5","4","5","4","4","4","5","4","1","4","4","5","4","4","3","4","4","5","4","1","0","1","1","0","0","1","1","1","1","1","0","0","0","0","4","5","4","1","4","5","4","4","5","4","598932304420667392","刘","416","","","","","","","","","","","","","","","","","","","","","","","","","","","","","","","","","","","","","","","",""
"642","<p style=""color:rgb(150, 250, 100); font-size: 35px;"">自己</p>","i","categorize-html","145","292661","0.0-6.0-1.0-8.0-1.18","3","4","4","3","3","3","4","2","4","3","5","4","5","4","4","4","5","4","1","4","4","5","4","4","3","4","4","5","4","1","0","1","1","0","0","1","1","1","1","1","0","0","0","0","4","5","4","1","4","5","4","4","5","4","598932304420667392","刘","416","","","","","","","","","","","","","","","","","","","false","14","4","moral","1284.911111111111","self","自己","","","","","","","","","","","","","","",""
"null","","null","html-keyboard-response","146","292913","0.0-6.0-1.0-8.0-0.19","3","4","4","3","3","3","4","2","4","3","5","4","5","4","4","4","5","4","1","4","4","5","4","4","3","4","4","5","4","1","0","1","1","0","0","1","1","1","1","1","0","0","0","0","4","5","4","1","4","5","4","4","5","4","598932304420667392","刘","416","","","","","","","","","","","","","","","","","","","","","","","","","","","","","","","","","","","","","","","",""
"555","<p style=""color:white; font-size: 35px;"">黑心</p>","i","categorize-html","147","293474","0.0-6.0-1.0-8.0-1.19","3","4","4","3","3","3","4","2","4","3","5","4","5","4","4","4","5","4","1","4","4","5","4","4","3","4","4","5","4","1","0","1","1","0","0","1","1","1","1","1","0","0","0","0","4","5","4","1","4","5","4","4","5","4","598932304420667392","刘","416","","","","","","","","","","","","","","","","","","","true","14","4","moral","555","negative","黑心","","","","","","","","","","","","","","",""
"null","","null","html-keyboard-response","148","293727","0.0-6.0-1.0-8.0-0.20","3","4","4","3","3","3","4","2","4","3","5","4","5","4","4","4","5","4","1","4","4","5","4","4","3","4","4","5","4","1","0","1","1","0","0","1","1","1","1","1","0","0","0","0","4","5","4","1","4","5","4","4","5","4","598932304420667392","刘","416","","","","","","","","","","","","","","","","","","","","","","","","","","","","","","","","","","","","","","","",""
"539","<p style=""color:rgb(150, 250, 100); font-size: 35px;"">别人</p>","i","categorize-html","149","294273","0.0-6.0-1.0-8.0-1.20","3","4","4","3","3","3","4","2","4","3","5","4","5","4","4","4","5","4","1","4","4","5","4","4","3","4","4","5","4","1","0","1","1","0","0","1","1","1","1","1","0","0","0","0","4","5","4","1","4","5","4","4","5","4","598932304420667392","刘","416","","","","","","","","","","","","","","","","","","","true","14","4","moral","539","other","别人","","","","","","","","","","","","","","",""
"null","","null","html-keyboard-response","150","294526","0.0-6.0-1.0-8.0-0.21","3","4","4","3","3","3","4","2","4","3","5","4","5","4","4","4","5","4","1","4","4","5","4","4","3","4","4","5","4","1","0","1","1","0","0","1","1","1","1","1","0","0","0","0","4","5","4","1","4","5","4","4","5","4","598932304420667392","刘","416","","","","","","","","","","","","","","","","","","","","","","","","","","","","","","","","","","","","","","","",""
"550","<p style=""color:white; font-size: 35px;"">正直</p>","e","categorize-html","151","295082","0.0-6.0-1.0-8.0-1.21","3","4","4","3","3","3","4","2","4","3","5","4","5","4","4","4","5","4","1","4","4","5","4","4","3","4","4","5","4","1","0","1","1","0","0","1","1","1","1","1","0","0","0","0","4","5","4","1","4","5","4","4","5","4","598932304420667392","刘","416","","","","","","","","","","","","","","","","","","","true","14","4","moral","550","positive","正直","","","","","","","","","","","","","","",""
"null","","null","html-keyboard-response","152","295334","0.0-6.0-1.0-8.0-0.22","3","4","4","3","3","3","4","2","4","3","5","4","5","4","4","4","5","4","1","4","4","5","4","4","3","4","4","5","4","1","0","1","1","0","0","1","1","1","1","1","0","0","0","0","4","5","4","1","4","5","4","4","5","4","598932304420667392","刘","416","","","","","","","","","","","","","","","","","","","","","","","","","","","","","","","","","","","","","","","",""
"749","<p style=""color:rgb(150, 250, 100); font-size: 35px;"">自己</p>","e","categorize-html","153","296089","0.0-6.0-1.0-8.0-1.22","3","4","4","3","3","3","4","2","4","3","5","4","5","4","4","4","5","4","1","4","4","5","4","4","3","4","4","5","4","1","0","1","1","0","0","1","1","1","1","1","0","0","0","0","4","5","4","1","4","5","4","4","5","4","598932304420667392","刘","416","","","","","","","","","","","","","","","","","","","true","14","4","moral","749","self","自己","","","","","","","","","","","","","","",""
"null","","null","html-keyboard-response","154","296344","0.0-6.0-1.0-8.0-0.23","3","4","4","3","3","3","4","2","4","3","5","4","5","4","4","4","5","4","1","4","4","5","4","4","3","4","4","5","4","1","0","1","1","0","0","1","1","1","1","1","0","0","0","0","4","5","4","1","4","5","4","4","5","4","598932304420667392","刘","416","","","","","","","","","","","","","","","","","","","","","","","","","","","","","","","","","","","","","","","",""
"1049","<p style=""color:white; font-size: 35px;"">不仁</p>","i","categorize-html","155","297401","0.0-6.0-1.0-8.0-1.23","3","4","4","3","3","3","4","2","4","3","5","4","5","4","4","4","5","4","1","4","4","5","4","4","3","4","4","5","4","1","0","1","1","0","0","1","1","1","1","1","0","0","0","0","4","5","4","1","4","5","4","4","5","4","598932304420667392","刘","416","","","","","","","","","","","","","","","","","","","true","14","4","moral","1049","negative","不仁","","","","","","","","","","","","","","",""
"null","","null","html-keyboard-response","156","297653","0.0-6.0-1.0-8.0-0.24","3","4","4","3","3","3","4","2","4","3","5","4","5","4","4","4","5","4","1","4","4","5","4","4","3","4","4","5","4","1","0","1","1","0","0","1","1","1","1","1","0","0","0","0","4","5","4","1","4","5","4","4","5","4","598932304420667392","刘","416","","","","","","","","","","","","","","","","","","","","","","","","","","","","","","","","","","","","","","","",""
"538","<p style=""color:rgb(150, 250, 100); font-size: 35px;"">本人</p>","e","categorize-html","157","298197","0.0-6.0-1.0-8.0-1.24","3","4","4","3","3","3","4","2","4","3","5","4","5","4","4","4","5","4","1","4","4","5","4","4","3","4","4","5","4","1","0","1","1","0","0","1","1","1","1","1","0","0","0","0","4","5","4","1","4","5","4","4","5","4","598932304420667392","刘","416","","","","","","","","","","","","","","","","","","","true","14","4","moral","538","self","本人","","","","","","","","","","","","","","",""
"null","","null","html-keyboard-response","158","298450","0.0-6.0-1.0-8.0-0.25","3","4","4","3","3","3","4","2","4","3","5","4","5","4","4","4","5","4","1","4","4","5","4","4","3","4","4","5","4","1","0","1","1","0","0","1","1","1","1","1","0","0","0","0","4","5","4","1","4","5","4","4","5","4","598932304420667392","刘","416","","","","","","","","","","","","","","","","","","","","","","","","","","","","","","","","","","","","","","","",""
"566","<p style=""color:white; font-size: 35px;"">不孝</p>","i","categorize-html","159","299022","0.0-6.0-1.0-8.0-1.25","3","4","4","3","3","3","4","2","4","3","5","4","5","4","4","4","5","4","1","4","4","5","4","4","3","4","4","5","4","1","0","1","1","0","0","1","1","1","1","1","0","0","0","0","4","5","4","1","4","5","4","4","5","4","598932304420667392","刘","416","","","","","","","","","","","","","","","","","","","true","14","4","moral","566","negative","不孝","","","","","","","","","","","","","","",""
"null","","null","html-keyboard-response","160","299275","0.0-6.0-1.0-8.0-0.26","3","4","4","3","3","3","4","2","4","3","5","4","5","4","4","4","5","4","1","4","4","5","4","4","3","4","4","5","4","1","0","1","1","0","0","1","1","1","1","1","0","0","0","0","4","5","4","1","4","5","4","4","5","4","598932304420667392","刘","416","","","","","","","","","","","","","","","","","","","","","","","","","","","","","","","","","","","","","","","",""
"803","<p style=""color:rgb(150, 250, 100); font-size: 35px;"">别人的</p>","i","categorize-html","161","300084","0.0-6.0-1.0-8.0-1.26","3","4","4","3","3","3","4","2","4","3","5","4","5","4","4","4","5","4","1","4","4","5","4","4","3","4","4","5","4","1","0","1","1","0","0","1","1","1","1","1","0","0","0","0","4","5","4","1","4","5","4","4","5","4","598932304420667392","刘","416","","","","","","","","","","","","","","","","","","","true","14","4","moral","803","other","别人的","","","","","","","","","","","","","","",""
"null","","null","html-keyboard-response","162","300337","0.0-6.0-1.0-8.0-0.27","3","4","4","3","3","3","4","2","4","3","5","4","5","4","4","4","5","4","1","4","4","5","4","4","3","4","4","5","4","1","0","1","1","0","0","1","1","1","1","1","0","0","0","0","4","5","4","1","4","5","4","4","5","4","598932304420667392","刘","416","","","","","","","","","","","","","","","","","","","","","","","","","","","","","","","","","","","","","","","",""
"483","<p style=""color:white; font-size: 35px;"">善良</p>","e","categorize-html","163","300826","0.0-6.0-1.0-8.0-1.27","3","4","4","3","3","3","4","2","4","3","5","4","5","4","4","4","5","4","1","4","4","5","4","4","3","4","4","5","4","1","0","1","1","0","0","1","1","1","1","1","0","0","0","0","4","5","4","1","4","5","4","4","5","4","598932304420667392","刘","416","","","","","","","","","","","","","","","","","","","true","14","4","moral","483","positive","善良","","","","","","","","","","","","","","",""
"null","","null","html-keyboard-response","164","301078","0.0-6.0-1.0-8.0-0.28","3","4","4","3","3","3","4","2","4","3","5","4","5","4","4","4","5","4","1","4","4","5","4","4","3","4","4","5","4","1","0","1","1","0","0","1","1","1","1","1","0","0","0","0","4","5","4","1","4","5","4","4","5","4","598932304420667392","刘","416","","","","","","","","","","","","","","","","","","","","","","","","","","","","","","","","","","","","","","","",""
"554","<p style=""color:rgb(150, 250, 100); font-size: 35px;"">本人的</p>","e","categorize-html","165","301640","0.0-6.0-1.0-8.0-1.28","3","4","4","3","3","3","4","2","4","3","5","4","5","4","4","4","5","4","1","4","4","5","4","4","3","4","4","5","4","1","0","1","1","0","0","1","1","1","1","1","0","0","0","0","4","5","4","1","4","5","4","4","5","4","598932304420667392","刘","416","","","","","","","","","","","","","","","","","","","true","14","4","moral","554","self","本人的","","","","","","","","","","","","","","",""
"null","","null","html-keyboard-response","166","301892","0.0-6.0-1.0-8.0-0.29","3","4","4","3","3","3","4","2","4","3","5","4","5","4","4","4","5","4","1","4","4","5","4","4","3","4","4","5","4","1","0","1","1","0","0","1","1","1","1","1","0","0","0","0","4","5","4","1","4","5","4","4","5","4","598932304420667392","刘","416","","","","","","","","","","","","","","","","","","","","","","","","","","","","","","","","","","","","","","","",""
"571","<p style=""color:white; font-size: 35px;"">善良</p>","e","categorize-html","167","302469","0.0-6.0-1.0-8.0-1.29","3","4","4","3","3","3","4","2","4","3","5","4","5","4","4","4","5","4","1","4","4","5","4","4","3","4","4","5","4","1","0","1","1","0","0","1","1","1","1","1","0","0","0","0","4","5","4","1","4","5","4","4","5","4","598932304420667392","刘","416","","","","","","","","","","","","","","","","","","","true","14","4","moral","571","positive","善良","","","","","","","","","","","","","","",""
"null","","null","html-keyboard-response","168","302722","0.0-6.0-1.0-8.0-0.30","3","4","4","3","3","3","4","2","4","3","5","4","5","4","4","4","5","4","1","4","4","5","4","4","3","4","4","5","4","1","0","1","1","0","0","1","1","1","1","1","0","0","0","0","4","5","4","1","4","5","4","4","5","4","598932304420667392","刘","416","","","","","","","","","","","","","","","","","","","","","","","","","","","","","","","","","","","","","","","",""
"534","<p style=""color:rgb(150, 250, 100); font-size: 35px;"">别人</p>","i","categorize-html","169","303263","0.0-6.0-1.0-8.0-1.30","3","4","4","3","3","3","4","2","4","3","5","4","5","4","4","4","5","4","1","4","4","5","4","4","3","4","4","5","4","1","0","1","1","0","0","1","1","1","1","1","0","0","0","0","4","5","4","1","4","5","4","4","5","4","598932304420667392","刘","416","","","","","","","","","","","","","","","","","","","true","14","4","moral","534","other","别人","","","","","","","","","","","","","","",""
"null","","null","html-keyboard-response","170","303517","0.0-6.0-1.0-8.0-0.31","3","4","4","3","3","3","4","2","4","3","5","4","5","4","4","4","5","4","1","4","4","5","4","4","3","4","4","5","4","1","0","1","1","0","0","1","1","1","1","1","0","0","0","0","4","5","4","1","4","5","4","4","5","4","598932304420667392","刘","416","","","","","","","","","","","","","","","","","","","","","","","","","","","","","","","","","","","","","","","",""
"691","<p style=""color:white; font-size: 35px;"">小人</p>","e","categorize-html","171","304686","0.0-6.0-1.0-8.0-1.31","3","4","4","3","3","3","4","2","4","3","5","4","5","4","4","4","5","4","1","4","4","5","4","4","3","4","4","5","4","1","0","1","1","0","0","1","1","1","1","1","0","0","0","0","4","5","4","1","4","5","4","4","5","4","598932304420667392","刘","416","","","","","","","","","","","","","","","","","","","false","14","4","moral","1284.911111111111","negative","小人","","","","","","","","","","","","","","",""
"null","","null","html-keyboard-response","172","304938","0.0-6.0-1.0-8.0-0.32","3","4","4","3","3","3","4","2","4","3","5","4","5","4","4","4","5","4","1","4","4","5","4","4","3","4","4","5","4","1","0","1","1","0","0","1","1","1","1","1","0","0","0","0","4","5","4","1","4","5","4","4","5","4","598932304420667392","刘","416","","","","","","","","","","","","","","","","","","","","","","","","","","","","","","","","","","","","","","","",""
"800","<p style=""color:rgb(150, 250, 100); font-size: 35px;"">他人</p>","e","categorize-html","173","306157","0.0-6.0-1.0-8.0-1.32","3","4","4","3","3","3","4","2","4","3","5","4","5","4","4","4","5","4","1","4","4","5","4","4","3","4","4","5","4","1","0","1","1","0","0","1","1","1","1","1","0","0","0","0","4","5","4","1","4","5","4","4","5","4","598932304420667392","刘","416","","","","","","","","","","","","","","","","","","","false","14","4","moral","1284.911111111111","other","他人","","","","","","","","","","","","","","",""
"null","","null","html-keyboard-response","174","306409","0.0-6.0-1.0-8.0-0.33","3","4","4","3","3","3","4","2","4","3","5","4","5","4","4","4","5","4","1","4","4","5","4","4","3","4","4","5","4","1","0","1","1","0","0","1","1","1","1","1","0","0","0","0","4","5","4","1","4","5","4","4","5","4","598932304420667392","刘","416","","","","","","","","","","","","","","","","","","","","","","","","","","","","","","","","","","","","","","","",""
"800","<p style=""color:white; font-size: 35px;"">黑心</p>","i","categorize-html","175","307216","0.0-6.0-1.0-8.0-1.33","3","4","4","3","3","3","4","2","4","3","5","4","5","4","4","4","5","4","1","4","4","5","4","4","3","4","4","5","4","1","0","1","1","0","0","1","1","1","1","1","0","0","0","0","4","5","4","1","4","5","4","4","5","4","598932304420667392","刘","416","","","","","","","","","","","","","","","","","","","true","14","4","moral","800","negative","黑心","","","","","","","","","","","","","","",""
"null","","null","html-keyboard-response","176","307469","0.0-6.0-1.0-8.0-0.34","3","4","4","3","3","3","4","2","4","3","5","4","5","4","4","4","5","4","1","4","4","5","4","4","3","4","4","5","4","1","0","1","1","0","0","1","1","1","1","1","0","0","0","0","4","5","4","1","4","5","4","4","5","4","598932304420667392","刘","416","","","","","","","","","","","","","","","","","","","","","","","","","","","","","","","","","","","","","","","",""
"691","<p style=""color:rgb(150, 250, 100); font-size: 35px;"">自己的</p>","e","categorize-html","177","308166","0.0-6.0-1.0-8.0-1.34","3","4","4","3","3","3","4","2","4","3","5","4","5","4","4","4","5","4","1","4","4","5","4","4","3","4","4","5","4","1","0","1","1","0","0","1","1","1","1","1","0","0","0","0","4","5","4","1","4","5","4","4","5","4","598932304420667392","刘","416","","","","","","","","","","","","","","","","","","","true","14","4","moral","691","self","自己的","","","","","","","","","","","","","","",""
"null","","null","html-keyboard-response","178","308420","0.0-6.0-1.0-8.0-0.35","3","4","4","3","3","3","4","2","4","3","5","4","5","4","4","4","5","4","1","4","4","5","4","4","3","4","4","5","4","1","0","1","1","0","0","1","1","1","1","1","0","0","0","0","4","5","4","1","4","5","4","4","5","4","598932304420667392","刘","416","","","","","","","","","","","","","","","","","","","","","","","","","","","","","","","","","","","","","","","",""
"584","<p style=""color:white; font-size: 35px;"">高尚</p>","e","categorize-html","179","309011","0.0-6.0-1.0-8.0-1.35","3","4","4","3","3","3","4","2","4","3","5","4","5","4","4","4","5","4","1","4","4","5","4","4","3","4","4","5","4","1","0","1","1","0","0","1","1","1","1","1","0","0","0","0","4","5","4","1","4","5","4","4","5","4","598932304420667392","刘","416","","","","","","","","","","","","","","","","","","","true","14","4","moral","584","positive","高尚","","","","","","","","","","","","","","",""
"null","","null","html-keyboard-response","180","309266","0.0-6.0-1.0-8.0-0.36","3","4","4","3","3","3","4","2","4","3","5","4","5","4","4","4","5","4","1","4","4","5","4","4","3","4","4","5","4","1","0","1","1","0","0","1","1","1","1","1","0","0","0","0","4","5","4","1","4","5","4","4","5","4","598932304420667392","刘","416","","","","","","","","","","","","","","","","","","","","","","","","","","","","","","","","","","","","","","","",""
"836","<p style=""color:rgb(150, 250, 100); font-size: 35px;"">我</p>","e","categorize-html","181","310108","0.0-6.0-1.0-8.0-1.36","3","4","4","3","3","3","4","2","4","3","5","4","5","4","4","4","5","4","1","4","4","5","4","4","3","4","4","5","4","1","0","1","1","0","0","1","1","1","1","1","0","0","0","0","4","5","4","1","4","5","4","4","5","4","598932304420667392","刘","416","","","","","","","","","","","","","","","","","","","true","14","4","moral","836","self","我","","","","","","","","","","","","","","",""
"null","","null","html-keyboard-response","182","310363","0.0-6.0-1.0-8.0-0.37","3","4","4","3","3","3","4","2","4","3","5","4","5","4","4","4","5","4","1","4","4","5","4","4","3","4","4","5","4","1","0","1","1","0","0","1","1","1","1","1","0","0","0","0","4","5","4","1","4","5","4","4","5","4","598932304420667392","刘","416","","","","","","","","","","","","","","","","","","","","","","","","","","","","","","","","","","","","","","","",""
"528","<p style=""color:white; font-size: 35px;"">缺德</p>","i","categorize-html","183","310897","0.0-6.0-1.0-8.0-1.37","3","4","4","3","3","3","4","2","4","3","5","4","5","4","4","4","5","4","1","4","4","5","4","4","3","4","4","5","4","1","0","1","1","0","0","1","1","1","1","1","0","0","0","0","4","5","4","1","4","5","4","4","5","4","598932304420667392","刘","416","","","","","","","","","","","","","","","","","","","true","14","4","moral","528","negative","缺德","","","","","","","","","","","","","","",""
"null","","null","html-keyboard-response","184","311150","0.0-6.0-1.0-8.0-0.38","3","4","4","3","3","3","4","2","4","3","5","4","5","4","4","4","5","4","1","4","4","5","4","4","3","4","4","5","4","1","0","1","1","0","0","1","1","1","1","1","0","0","0","0","4","5","4","1","4","5","4","4","5","4","598932304420667392","刘","416","","","","","","","","","","","","","","","","","","","","","","","","","","","","","","","","","","","","","","","",""
"671","<p style=""color:rgb(150, 250, 100); font-size: 35px;"">他</p>","i","categorize-html","185","311829","0.0-6.0-1.0-8.0-1.38","3","4","4","3","3","3","4","2","4","3","5","4","5","4","4","4","5","4","1","4","4","5","4","4","3","4","4","5","4","1","0","1","1","0","0","1","1","1","1","1","0","0","0","0","4","5","4","1","4","5","4","4","5","4","598932304420667392","刘","416","","","","","","","","","","","","","","","","","","","true","14","4","moral","671","other","他","","","","","","","","","","","","","","",""
"null","","null","html-keyboard-response","186","312081","0.0-6.0-1.0-8.0-0.39","3","4","4","3","3","3","4","2","4","3","5","4","5","4","4","4","5","4","1","4","4","5","4","4","3","4","4","5","4","1","0","1","1","0","0","1","1","1","1","1","0","0","0","0","4","5","4","1","4","5","4","4","5","4","598932304420667392","刘","416","","","","","","","","","","","","","","","","","","","","","","","","","","","","","","","","","","","","","","","",""
"734","<p style=""color:white; font-size: 35px;"">廉正</p>","e","categorize-html","187","312822","0.0-6.0-1.0-8.0-1.39","3","4","4","3","3","3","4","2","4","3","5","4","5","4","4","4","5","4","1","4","4","5","4","4","3","4","4","5","4","1","0","1","1","0","0","1","1","1","1","1","0","0","0","0","4","5","4","1","4","5","4","4","5","4","598932304420667392","刘","416","","","","","","","","","","","","","","","","","","","true","14","4","moral","734","positive","廉正","","","","","","","","","","","","","","",""
"null","","null","html-keyboard-response","188","313074","0.0-6.0-1.0-8.0-0.40","3","4","4","3","3","3","4","2","4","3","5","4","5","4","4","4","5","4","1","4","4","5","4","4","3","4","4","5","4","1","0","1","1","0","0","1","1","1","1","1","0","0","0","0","4","5","4","1","4","5","4","4","5","4","598932304420667392","刘","416","","","","","","","","","","","","","","","","","","","","","","","","","","","","","","","","","","","","","","","",""
"579","<p style=""color:rgb(150, 250, 100); font-size: 35px;"">他</p>","i","categorize-html","189","313661","0.0-6.0-1.0-8.0-1.40","3","4","4","3","3","3","4","2","4","3","5","4","5","4","4","4","5","4","1","4","4","5","4","4","3","4","4","5","4","1","0","1","1","0","0","1","1","1","1","1","0","0","0","0","4","5","4","1","4","5","4","4","5","4","598932304420667392","刘","416","","","","","","","","","","","","","","","","","","","true","14","4","moral","579","other","他","","","","","","","","","","","","","","",""
"null","","null","html-keyboard-response","190","313914","0.0-6.0-1.0-8.0-0.41","3","4","4","3","3","3","4","2","4","3","5","4","5","4","4","4","5","4","1","4","4","5","4","4","3","4","4","5","4","1","0","1","1","0","0","1","1","1","1","1","0","0","0","0","4","5","4","1","4","5","4","4","5","4","598932304420667392","刘","416","","","","","","","","","","","","","","","","","","","","","","","","","","","","","","","","","","","","","","","",""
"804","<p style=""color:white; font-size: 35px;"">小人</p>","i","categorize-html","191","314724","0.0-6.0-1.0-8.0-1.41","3","4","4","3","3","3","4","2","4","3","5","4","5","4","4","4","5","4","1","4","4","5","4","4","3","4","4","5","4","1","0","1","1","0","0","1","1","1","1","1","0","0","0","0","4","5","4","1","4","5","4","4","5","4","598932304420667392","刘","416","","","","","","","","","","","","","","","","","","","true","14","4","moral","804","negative","小人","","","","","","","","","","","","","","",""
"null","","null","html-keyboard-response","192","314976","0.0-6.0-1.0-8.0-0.42","3","4","4","3","3","3","4","2","4","3","5","4","5","4","4","4","5","4","1","4","4","5","4","4","3","4","4","5","4","1","0","1","1","0","0","1","1","1","1","1","0","0","0","0","4","5","4","1","4","5","4","4","5","4","598932304420667392","刘","416","","","","","","","","","","","","","","","","","","","","","","","","","","","","","","","","","","","","","","","",""
"546","<p style=""color:rgb(150, 250, 100); font-size: 35px;"">我</p>","e","categorize-html","193","315528","0.0-6.0-1.0-8.0-1.42","3","4","4","3","3","3","4","2","4","3","5","4","5","4","4","4","5","4","1","4","4","5","4","4","3","4","4","5","4","1","0","1","1","0","0","1","1","1","1","1","0","0","0","0","4","5","4","1","4","5","4","4","5","4","598932304420667392","刘","416","","","","","","","","","","","","","","","","","","","true","14","4","moral","546","self","我","","","","","","","","","","","","","","",""
"null","","null","html-keyboard-response","194","315782","0.0-6.0-1.0-8.0-0.43","3","4","4","3","3","3","4","2","4","3","5","4","5","4","4","4","5","4","1","4","4","5","4","4","3","4","4","5","4","1","0","1","1","0","0","1","1","1","1","1","0","0","0","0","4","5","4","1","4","5","4","4","5","4","598932304420667392","刘","416","","","","","","","","","","","","","","","","","","","","","","","","","","","","","","","","","","","","","","","",""
"593","<p style=""color:white; font-size: 35px;"">君子</p>","e","categorize-html","195","316382","0.0-6.0-1.0-8.0-1.43","3","4","4","3","3","3","4","2","4","3","5","4","5","4","4","4","5","4","1","4","4","5","4","4","3","4","4","5","4","1","0","1","1","0","0","1","1","1","1","1","0","0","0","0","4","5","4","1","4","5","4","4","5","4","598932304420667392","刘","416","","","","","","","","","","","","","","","","","","","true","14","4","moral","593","positive","君子","","","","","","","","","","","","","","",""
"null","","null","html-keyboard-response","196","316634","0.0-6.0-1.0-8.0-0.44","3","4","4","3","3","3","4","2","4","3","5","4","5","4","4","4","5","4","1","4","4","5","4","4","3","4","4","5","4","1","0","1","1","0","0","1","1","1","1","1","0","0","0","0","4","5","4","1","4","5","4","4","5","4","598932304420667392","刘","416","","","","","","","","","","","","","","","","","","","","","","","","","","","","","","","","","","","","","","","",""
"590","<p style=""color:rgb(150, 250, 100); font-size: 35px;"">我的</p>","e","categorize-html","197","317233","0.0-6.0-1.0-8.0-1.44","3","4","4","3","3","3","4","2","4","3","5","4","5","4","4","4","5","4","1","4","4","5","4","4","3","4","4","5","4","1","0","1","1","0","0","1","1","1","1","1","0","0","0","0","4","5","4","1","4","5","4","4","5","4","598932304420667392","刘","416","","","","","","","","","","","","","","","","","","","true","14","4","moral","590","self","我的","","","","","","","","","","","","","","",""
