"rt","stimulus","response","trial_type","trial_index","time_elapsed","internal_node_id","ses_1","ses_2","ses_3","ses_4","ses_5","ses_6","ses_7","ses_8","ses_9","ses_10","coreself_1","coreself_2","coreself_3","coreself_4","coreself_5","coreself_6","coreself_7","coreself_8","coreself_9","coreself_10","SGPS_1","SGPS_2","SGPS_3","SGPS_4","SGPS_5","SGPS_6","SGPS_7","SGPS_8","SGPS_9","NPI1","NPI2","NPI3","NPI4","NPI5","NPI6","NPI7","NPI8","NPI9","NPI10","NPI11","NPI12","NPI13","NPI14","NPI15","hsns_1","hsns_2","hsns_3","hsns_4","hsns_5","hsns_6","hsns_7","hsns_8","hsns_9","hsns_10","subj_idx","friend_name","ParticipantID","value","success","user_agent","responses","item_order","radio_event_ids","radio_event_times","key_event_times","mouse_event_times","straightlining","zigzagging","honeypot","timeout","failed_images","failed_audio","failed_video","version_attrib2","version_target2","correct","IAT","screen_id","task_id","RT","condition","word","varname","summary","version_attrib","version_target","time_stamp","view_history","response_type","key_press","avg_frame_time","center_x","center_y","correct_response","identity","Image","question_order"
"3852","
   <p><div style = ""color: white;font-size:25px;"">您好，欢迎参加本次实验。</div> </p>
   <p><div style = ""color: white;font-size:25px;"">为充分保障您的权利，请确保您已经知晓并同意《参与实验同意书》以及《数据公开知情同意书》。</div></p>
   <p><div style = ""color: white;font-size:25px;"">如果您未见过上述内容，请咨询实验员。</div></p>
   <p><div style = ""color: white;font-size:25px;"">如果您选择继续实验，则表示您已经清楚两份知情同意书的内容并同意。</div></p>
   <p><div style = ""color: red;font-size:30px;"">请确保您记得day0的实验编号，您将在本次实验输入该编号，若您忘记，请咨询实验员后作答。</div></p>
   <p> <div style = ""color: green;font-size:25px;""><按空格键至下页></div> </p>
   "," ","html-keyboard-response","0","3854","0.0-0.0","3","2","2","3","2","2","2","2","2","2","3","2","2","3","3","2","3","2","3","2","5","4","5","4","4","3","3","4","4","1","0","0","1","0","0","1","1","0","1","1","0","0","0","0","5","2","3","3","5","4","4","4","2","4","774306025401749506","张","276","","","","","","","","","","","","","","","","","","","","","","","","","","","","","","","","","","","","","","","",""
"","","","call-function","1","3854","0.0-1.0-0.0","3","2","2","3","2","2","2","2","2","2","3","2","2","3","3","2","3","2","3","2","5","4","5","4","4","3","3","4","4","1","0","0","1","0","0","1","1","0","1","1","0","0","0","0","5","2","3","3","5","4","4","4","2","4","774306025401749506","张","276","","","","","","","","","","","","","","","","","","","","","","","","","","","","","","","","","","","","","","","",""
"27835","","{""friend_name"":""张"",""ParticipantID"":""276""}","survey-html-form","2","31691","0.0-1.0-1.0","3","2","2","3","2","2","2","2","2","2","3","2","2","3","3","2","3","2","3","2","5","4","5","4","4","3","3","4","4","1","0","0","1","0","0","1","1","0","1","1","0","0","0","0","5","2","3","3","5","4","4","4","2","4","774306025401749506","张","276","","","","","","","","","","","","","","","","","","","","","","","","","","","","","","","","","","","","","","","",""
"","","","fullscreen","3","49980","0.0-2.0","3","2","2","3","2","2","2","2","2","2","3","2","2","3","3","2","3","2","3","2","5","4","5","4","4","3","3","4","4","1","0","0","1","0","0","1","1","0","1","1","0","0","0","0","5","2","3","3","5","4","4","4","2","4","774306025401749506","张","276","","true","{}","","","","","","","","","","","","","","","","","","","","","","","","","","","","","","","","","","","","",""
"39916.40000000596","","{""Q01"":""3"",""Q02"":""2"",""Q03"":""2"",""Q04"":""3"",""Q05"":""2"",""Q06"":""2"",""Q07"":""2"",""Q08"":""2"",""Q09"":""2"",""Q10"":""2""}","survey-template","4","89898","0.0-3.0","3","2","2","3","2","2","2","2","2","2","3","2","2","3","3","2","3","2","3","2","5","4","5","4","4","3","3","4","4","1","0","0","1","0","0","1","1","0","1","1","0","0","0","0","5","2","3","3","5","4","4","4","2","4","774306025401749506","张","276","","","","{""Q01"":""3"",""Q02"":""2"",""Q03"":""2"",""Q04"":""3"",""Q05"":""2"",""Q06"":""2"",""Q07"":""2"",""Q08"":""2"",""Q09"":""2"",""Q10"":""2""}","[0,1,2,3,4,5,6,7,8,9]","[""Q01"",""Q02"",""Q03"",""Q04"",""Q05"",""Q06"",""Q07"",""Q08"",""Q09"",""Q10""]","[9501.20000000298,14024.60000000149,15291.40000000596,17559,19642.30000000447,26328.60000000149,31829.90000000596,34007.60000000149,38421.40000000596,39137.5]","[]","[6822.80000000447,8155.5,9501.20000000298,14024.60000000149,15291.40000000596,17559,19642.30000000447,25485.80000000447,26328.60000000149,28979.60000000149,30932.30000000447,31829.90000000596,34007.60000000149,36194.30000000447,36898.5,37898.5,38421.40000000596,39137.5,39915.80000000447]","0.7","0.4444444444444444","0","","","","","","","","","","","","","","","","","","","","","","","","","","","",""
"41340.79999999702","","{""Q01"":""3"",""Q02"":""2"",""Q03"":""2"",""Q04"":""3"",""Q05"":""3"",""Q06"":""2"",""Q07"":""3"",""Q08"":""2"",""Q09"":""3"",""Q10"":""2""}","survey-template","5","131242","0.0-4.0","3","2","2","3","2","2","2","2","2","2","3","2","2","3","3","2","3","2","3","2","5","4","5","4","4","3","3","4","4","1","0","0","1","0","0","1","1","0","1","1","0","0","0","0","5","2","3","3","5","4","4","4","2","4","774306025401749506","张","276","","","","{""Q01"":""3"",""Q02"":""2"",""Q03"":""2"",""Q04"":""3"",""Q05"":""3"",""Q06"":""2"",""Q07"":""3"",""Q08"":""2"",""Q09"":""3"",""Q10"":""2""}","[0,1,2,3,4,5,6,7,8,9]","[""Q01"",""Q02"",""Q03"",""Q04"",""Q05"",""Q06"",""Q07"",""Q08"",""Q09"",""Q10""]","[12817.29999999702,15726.89999999851,20511.79999999702,25225.29999999702,27273.39999999851,29648,30657.19999999553,33224.09999999404,35372.09999999404,40711.19999999553]","[]","[12817.29999999702,15726.89999999851,20511.79999999702,25225.29999999702,27273.39999999851,29648,30657.19999999553,33224.09999999404,35372.09999999404,40711.19999999553,41340.09999999404]","0.5","0.7777777777777778","0","","","","","","","","","","","","","","","","","","","","","","","","","","","",""
"","","","preload","6","131551","0.0-5.0","3","2","2","3","2","2","2","2","2","2","3","2","2","3","3","2","3","2","3","2","5","4","5","4","4","3","3","4","4","1","0","0","1","0","0","1","1","0","1","1","0","0","0","0","5","2","3","3","5","4","4","4","2","4","774306025401749506","张","276","","true","","","","","","","","","","","false","[]","[]","[]","","","","","","","","","","","","","","","","","","","","","","","",""
"17318","
    <h3>词语分类任务</h3>
    <p>在接下来的任务中，你需要对一系列词语进行分类。<p/>
    请先熟悉这些词语，这有利于你完成接下来的任务。</p>
    <table align=""center"" border=1 cellpadding=3 cellspacing=0>
    <tr> <th>类别</th> <th>词语</th> </tr>
    <tr> <td>&emsp;积极&emsp;</td> <td>&emsp;高尚、诚信、善良、君子、廉正、正直&emsp;</td> </tr>
    <tr> <td>&emsp;消极&emsp;</td> <td>&emsp;缺德、卑鄙、不孝、不仁、小人、黑心&emsp;</td> </tr>
    <tr> <td>&emsp;自我&emsp;</td> <td>&emsp;我、我的、自己、自己的、本人、本人的&emsp;</td> </tr>
    <tr> <td>&emsp;他人&emsp;</td> <td>&emsp;他、他的、别人、别人的、他人、他人的&emsp;</td> </tr>
    </table><br/>","0","html-button-response","7","148870","0.0-6.0-1.0-0.0","3","2","2","3","2","2","2","2","2","2","3","2","2","3","3","2","3","2","3","2","5","4","5","4","4","3","3","4","4","1","0","0","1","0","0","1","1","0","1","1","0","0","0","0","5","2","3","3","5","4","4","4","2","4","774306025401749506","张","276","","","","","","","","","","","","","","","","","2","2","","","","","","","","","","","","","","","","","","","","","",""
"13851","
    <div class=""tag-bottom""><p>
    —— 任务1：对“他人”词和“自我”词分类 ——<p/>
    不同词语会出现在屏幕中央，类别标签将始终显示在屏幕上方<p/>   
    <span style=""color:#FFD866""><b>请根据上方标签的提示，尽可能正确并且快速地做出按键反应</b></span><p/>
    当按键错误时屏幕中会出现<span style=""color:red""> X </span>，需要按另一个键纠正才能继续<br/><p/>
    请把双手食指分别放在键盘的“E”键和“I”键上<p/>
    按<空格键>开始
    </p></div>"," ","html-keyboard-response","8","162723","0.0-6.0-1.0-1.0","3","2","2","3","2","2","2","2","2","2","3","2","2","3","3","2","3","2","3","2","5","4","5","4","4","3","3","4","4","1","0","0","1","0","0","1","1","0","1","1","0","0","0","0","5","2","3","3","5","4","4","4","2","4","774306025401749506","张","276","","","","","","","","","","","","","","","","","","","","","","","","","","","","","","","","","","","","","","","",""
"null","","null","html-keyboard-response","9","162974","0.0-6.0-1.0-2.0-0.0","3","2","2","3","2","2","2","2","2","2","3","2","2","3","3","2","3","2","3","2","5","4","5","4","4","3","3","4","4","1","0","0","1","0","0","1","1","0","1","1","0","0","0","0","5","2","3","3","5","4","4","4","2","4","774306025401749506","张","276","","","","","","","","","","","","","","","","","","","","","","","","","","","","","","","","","","","","","","","",""
"1068","<p style=""color:rgb(150, 250, 100); font-size: 35px;"">自己</p>","i","categorize-html","10","164043","0.0-6.0-1.0-2.0-1.0","3","2","2","3","2","2","2","2","2","2","3","2","2","3","3","2","3","2","3","2","5","4","5","4","4","3","3","4","4","1","0","0","1","0","0","1","1","0","1","1","0","0","0","0","5","2","3","3","5","4","4","4","2","4","774306025401749506","张","276","","","","","","","","","","","","","","","","","","","true","11","1","moral","1068","self","自己","","","","","","","","","","","","","","",""
"null","","null","html-keyboard-response","11","164295","0.0-6.0-1.0-2.0-0.1","3","2","2","3","2","2","2","2","2","2","3","2","2","3","3","2","3","2","3","2","5","4","5","4","4","3","3","4","4","1","0","0","1","0","0","1","1","0","1","1","0","0","0","0","5","2","3","3","5","4","4","4","2","4","774306025401749506","张","276","","","","","","","","","","","","","","","","","","","","","","","","","","","","","","","","","","","","","","","",""
"614","<p style=""color:rgb(150, 250, 100); font-size: 35px;"">本人的</p>","i","categorize-html","12","164910","0.0-6.0-1.0-2.0-1.1","3","2","2","3","2","2","2","2","2","2","3","2","2","3","3","2","3","2","3","2","5","4","5","4","4","3","3","4","4","1","0","0","1","0","0","1","1","0","1","1","0","0","0","0","5","2","3","3","5","4","4","4","2","4","774306025401749506","张","276","","","","","","","","","","","","","","","","","","","true","11","1","moral","614","self","本人的","","","","","","","","","","","","","","",""
"null","","null","html-keyboard-response","13","165161","0.0-6.0-1.0-2.0-0.2","3","2","2","3","2","2","2","2","2","2","3","2","2","3","3","2","3","2","3","2","5","4","5","4","4","3","3","4","4","1","0","0","1","0","0","1","1","0","1","1","0","0","0","0","5","2","3","3","5","4","4","4","2","4","774306025401749506","张","276","","","","","","","","","","","","","","","","","","","","","","","","","","","","","","","","","","","","","","","",""
"646","<p style=""color:rgb(150, 250, 100); font-size: 35px;"">我</p>","i","categorize-html","14","165808","0.0-6.0-1.0-2.0-1.2","3","2","2","3","2","2","2","2","2","2","3","2","2","3","3","2","3","2","3","2","5","4","5","4","4","3","3","4","4","1","0","0","1","0","0","1","1","0","1","1","0","0","0","0","5","2","3","3","5","4","4","4","2","4","774306025401749506","张","276","","","","","","","","","","","","","","","","","","","true","11","1","moral","646","self","我","","","","","","","","","","","","","","",""
"null","","null","html-keyboard-response","15","166060","0.0-6.0-1.0-2.0-0.3","3","2","2","3","2","2","2","2","2","2","3","2","2","3","3","2","3","2","3","2","5","4","5","4","4","3","3","4","4","1","0","0","1","0","0","1","1","0","1","1","0","0","0","0","5","2","3","3","5","4","4","4","2","4","774306025401749506","张","276","","","","","","","","","","","","","","","","","","","","","","","","","","","","","","","","","","","","","","","",""
"793","<p style=""color:rgb(150, 250, 100); font-size: 35px;"">他</p>","e","categorize-html","16","166853","0.0-6.0-1.0-2.0-1.3","3","2","2","3","2","2","2","2","2","2","3","2","2","3","3","2","3","2","3","2","5","4","5","4","4","3","3","4","4","1","0","0","1","0","0","1","1","0","1","1","0","0","0","0","5","2","3","3","5","4","4","4","2","4","774306025401749506","张","276","","","","","","","","","","","","","","","","","","","true","11","1","moral","793","other","他","","","","","","","","","","","","","","",""
"null","","null","html-keyboard-response","17","167104","0.0-6.0-1.0-2.0-0.4","3","2","2","3","2","2","2","2","2","2","3","2","2","3","3","2","3","2","3","2","5","4","5","4","4","3","3","4","4","1","0","0","1","0","0","1","1","0","1","1","0","0","0","0","5","2","3","3","5","4","4","4","2","4","774306025401749506","张","276","","","","","","","","","","","","","","","","","","","","","","","","","","","","","","","","","","","","","","","",""
"673","<p style=""color:rgb(150, 250, 100); font-size: 35px;"">本人</p>","i","categorize-html","18","167778","0.0-6.0-1.0-2.0-1.4","3","2","2","3","2","2","2","2","2","2","3","2","2","3","3","2","3","2","3","2","5","4","5","4","4","3","3","4","4","1","0","0","1","0","0","1","1","0","1","1","0","0","0","0","5","2","3","3","5","4","4","4","2","4","774306025401749506","张","276","","","","","","","","","","","","","","","","","","","true","11","1","moral","673","self","本人","","","","","","","","","","","","","","",""
"null","","null","html-keyboard-response","19","168029","0.0-6.0-1.0-2.0-0.5","3","2","2","3","2","2","2","2","2","2","3","2","2","3","3","2","3","2","3","2","5","4","5","4","4","3","3","4","4","1","0","0","1","0","0","1","1","0","1","1","0","0","0","0","5","2","3","3","5","4","4","4","2","4","774306025401749506","张","276","","","","","","","","","","","","","","","","","","","","","","","","","","","","","","","","","","","","","","","",""
"809","<p style=""color:rgb(150, 250, 100); font-size: 35px;"">别人</p>","e","categorize-html","20","168839","0.0-6.0-1.0-2.0-1.5","3","2","2","3","2","2","2","2","2","2","3","2","2","3","3","2","3","2","3","2","5","4","5","4","4","3","3","4","4","1","0","0","1","0","0","1","1","0","1","1","0","0","0","0","5","2","3","3","5","4","4","4","2","4","774306025401749506","张","276","","","","","","","","","","","","","","","","","","","true","11","1","moral","809","other","别人","","","","","","","","","","","","","","",""
"null","","null","html-keyboard-response","21","169090","0.0-6.0-1.0-2.0-0.6","3","2","2","3","2","2","2","2","2","2","3","2","2","3","3","2","3","2","3","2","5","4","5","4","4","3","3","4","4","1","0","0","1","0","0","1","1","0","1","1","0","0","0","0","5","2","3","3","5","4","4","4","2","4","774306025401749506","张","276","","","","","","","","","","","","","","","","","","","","","","","","","","","","","","","","","","","","","","","",""
"664","<p style=""color:rgb(150, 250, 100); font-size: 35px;"">他人</p>","e","categorize-html","22","169754","0.0-6.0-1.0-2.0-1.6","3","2","2","3","2","2","2","2","2","2","3","2","2","3","3","2","3","2","3","2","5","4","5","4","4","3","3","4","4","1","0","0","1","0","0","1","1","0","1","1","0","0","0","0","5","2","3","3","5","4","4","4","2","4","774306025401749506","张","276","","","","","","","","","","","","","","","","","","","true","11","1","moral","664","other","他人","","","","","","","","","","","","","","",""
"null","","null","html-keyboard-response","23","170005","0.0-6.0-1.0-2.0-0.7","3","2","2","3","2","2","2","2","2","2","3","2","2","3","3","2","3","2","3","2","5","4","5","4","4","3","3","4","4","1","0","0","1","0","0","1","1","0","1","1","0","0","0","0","5","2","3","3","5","4","4","4","2","4","774306025401749506","张","276","","","","","","","","","","","","","","","","","","","","","","","","","","","","","","","","","","","","","","","",""
"607","<p style=""color:rgb(150, 250, 100); font-size: 35px;"">自己的</p>","i","categorize-html","24","170612","0.0-6.0-1.0-2.0-1.7","3","2","2","3","2","2","2","2","2","2","3","2","2","3","3","2","3","2","3","2","5","4","5","4","4","3","3","4","4","1","0","0","1","0","0","1","1","0","1","1","0","0","0","0","5","2","3","3","5","4","4","4","2","4","774306025401749506","张","276","","","","","","","","","","","","","","","","","","","true","11","1","moral","607","self","自己的","","","","","","","","","","","","","","",""
"null","","null","html-keyboard-response","25","170864","0.0-6.0-1.0-2.0-0.8","3","2","2","3","2","2","2","2","2","2","3","2","2","3","3","2","3","2","3","2","5","4","5","4","4","3","3","4","4","1","0","0","1","0","0","1","1","0","1","1","0","0","0","0","5","2","3","3","5","4","4","4","2","4","774306025401749506","张","276","","","","","","","","","","","","","","","","","","","","","","","","","","","","","","","","","","","","","","","",""
"673","<p style=""color:rgb(150, 250, 100); font-size: 35px;"">他的</p>","e","categorize-html","26","171537","0.0-6.0-1.0-2.0-1.8","3","2","2","3","2","2","2","2","2","2","3","2","2","3","3","2","3","2","3","2","5","4","5","4","4","3","3","4","4","1","0","0","1","0","0","1","1","0","1","1","0","0","0","0","5","2","3","3","5","4","4","4","2","4","774306025401749506","张","276","","","","","","","","","","","","","","","","","","","true","11","1","moral","673","other","他的","","","","","","","","","","","","","","",""
"null","","null","html-keyboard-response","27","171789","0.0-6.0-1.0-2.0-0.9","3","2","2","3","2","2","2","2","2","2","3","2","2","3","3","2","3","2","3","2","5","4","5","4","4","3","3","4","4","1","0","0","1","0","0","1","1","0","1","1","0","0","0","0","5","2","3","3","5","4","4","4","2","4","774306025401749506","张","276","","","","","","","","","","","","","","","","","","","","","","","","","","","","","","","","","","","","","","","",""
"548","<p style=""color:rgb(150, 250, 100); font-size: 35px;"">他人的</p>","e","categorize-html","28","172337","0.0-6.0-1.0-2.0-1.9","3","2","2","3","2","2","2","2","2","2","3","2","2","3","3","2","3","2","3","2","5","4","5","4","4","3","3","4","4","1","0","0","1","0","0","1","1","0","1","1","0","0","0","0","5","2","3","3","5","4","4","4","2","4","774306025401749506","张","276","","","","","","","","","","","","","","","","","","","true","11","1","moral","548","other","他人的","","","","","","","","","","","","","","",""
"null","","null","html-keyboard-response","29","172588","0.0-6.0-1.0-2.0-0.10","3","2","2","3","2","2","2","2","2","2","3","2","2","3","3","2","3","2","3","2","5","4","5","4","4","3","3","4","4","1","0","0","1","0","0","1","1","0","1","1","0","0","0","0","5","2","3","3","5","4","4","4","2","4","774306025401749506","张","276","","","","","","","","","","","","","","","","","","","","","","","","","","","","","","","","","","","","","","","",""
"932","<p style=""color:rgb(150, 250, 100); font-size: 35px;"">别人的</p>","e","categorize-html","30","173521","0.0-6.0-1.0-2.0-1.10","3","2","2","3","2","2","2","2","2","2","3","2","2","3","3","2","3","2","3","2","5","4","5","4","4","3","3","4","4","1","0","0","1","0","0","1","1","0","1","1","0","0","0","0","5","2","3","3","5","4","4","4","2","4","774306025401749506","张","276","","","","","","","","","","","","","","","","","","","true","11","1","moral","932","other","别人的","","","","","","","","","","","","","","",""
"null","","null","html-keyboard-response","31","173772","0.0-6.0-1.0-2.0-0.11","3","2","2","3","2","2","2","2","2","2","3","2","2","3","3","2","3","2","3","2","5","4","5","4","4","3","3","4","4","1","0","0","1","0","0","1","1","0","1","1","0","0","0","0","5","2","3","3","5","4","4","4","2","4","774306025401749506","张","276","","","","","","","","","","","","","","","","","","","","","","","","","","","","","","","","","","","","","","","",""
"530","<p style=""color:rgb(150, 250, 100); font-size: 35px;"">我的</p>","i","categorize-html","32","174303","0.0-6.0-1.0-2.0-1.11","3","2","2","3","2","2","2","2","2","2","3","2","2","3","3","2","3","2","3","2","5","4","5","4","4","3","3","4","4","1","0","0","1","0","0","1","1","0","1","1","0","0","0","0","5","2","3","3","5","4","4","4","2","4","774306025401749506","张","276","","","","","","","","","","","","","","","","","","","true","11","1","moral","530","self","我的","","","","","","","","","","","","","","",""
"16332","
    <div class=""tag-bottom""><p>
    —— 任务2：对“消极”词和“积极”词分类 ——<p/>   
    <span style=""color:#78DCE8""><b>注意上方，类别标签和需要分类的词语都已经改变</b></span><p/>
    <span style=""color:#FFD866""><b>请根据上方标签的提示，尽可能正确并且快速地做出按键反应</b></span><p/>
    当按键错误时屏幕中会出现<span style=""color:red""> X </span>，需要按另一个键纠正才能继续<br/><p/>
    请把双手食指分别放在键盘的“E”键和“I”键上<p/>
    按<空格键>开始
    </p></div>"," ","html-keyboard-response","33","190635","0.0-6.0-1.0-3.0","3","2","2","3","2","2","2","2","2","2","3","2","2","3","3","2","3","2","3","2","5","4","5","4","4","3","3","4","4","1","0","0","1","0","0","1","1","0","1","1","0","0","0","0","5","2","3","3","5","4","4","4","2","4","774306025401749506","张","276","","","","","","","","","","","","","","","","","","","","","","","","","","","","","","","","","","","","","","","",""
"null","","null","html-keyboard-response","34","190886","0.0-6.0-1.0-4.0-0.0","3","2","2","3","2","2","2","2","2","2","3","2","2","3","3","2","3","2","3","2","5","4","5","4","4","3","3","4","4","1","0","0","1","0","0","1","1","0","1","1","0","0","0","0","5","2","3","3","5","4","4","4","2","4","774306025401749506","张","276","","","","","","","","","","","","","","","","","","","","","","","","","","","","","","","","","","","","","","","",""
"763","<p style=""color:white; font-size: 35px;"">缺德</p>","e","categorize-html","35","191649","0.0-6.0-1.0-4.0-1.0","3","2","2","3","2","2","2","2","2","2","3","2","2","3","3","2","3","2","3","2","5","4","5","4","4","3","3","4","4","1","0","0","1","0","0","1","1","0","1","1","0","0","0","0","5","2","3","3","5","4","4","4","2","4","774306025401749506","张","276","","","","","","","","","","","","","","","","","","","true","12","2","moral","763","negative","缺德","","","","","","","","","","","","","","",""
"null","","null","html-keyboard-response","36","191900","0.0-6.0-1.0-4.0-0.1","3","2","2","3","2","2","2","2","2","2","3","2","2","3","3","2","3","2","3","2","5","4","5","4","4","3","3","4","4","1","0","0","1","0","0","1","1","0","1","1","0","0","0","0","5","2","3","3","5","4","4","4","2","4","774306025401749506","张","276","","","","","","","","","","","","","","","","","","","","","","","","","","","","","","","","","","","","","","","",""
"861","<p style=""color:white; font-size: 35px;"">不孝</p>","e","categorize-html","37","192762","0.0-6.0-1.0-4.0-1.1","3","2","2","3","2","2","2","2","2","2","3","2","2","3","3","2","3","2","3","2","5","4","5","4","4","3","3","4","4","1","0","0","1","0","0","1","1","0","1","1","0","0","0","0","5","2","3","3","5","4","4","4","2","4","774306025401749506","张","276","","","","","","","","","","","","","","","","","","","true","12","2","moral","861","negative","不孝","","","","","","","","","","","","","","",""
"null","","null","html-keyboard-response","38","193013","0.0-6.0-1.0-4.0-0.2","3","2","2","3","2","2","2","2","2","2","3","2","2","3","3","2","3","2","3","2","5","4","5","4","4","3","3","4","4","1","0","0","1","0","0","1","1","0","1","1","0","0","0","0","5","2","3","3","5","4","4","4","2","4","774306025401749506","张","276","","","","","","","","","","","","","","","","","","","","","","","","","","","","","","","","","","","","","","","",""
"934","<p style=""color:white; font-size: 35px;"">廉正</p>","i","categorize-html","39","193947","0.0-6.0-1.0-4.0-1.2","3","2","2","3","2","2","2","2","2","2","3","2","2","3","3","2","3","2","3","2","5","4","5","4","4","3","3","4","4","1","0","0","1","0","0","1","1","0","1","1","0","0","0","0","5","2","3","3","5","4","4","4","2","4","774306025401749506","张","276","","","","","","","","","","","","","","","","","","","true","12","2","moral","934","positive","廉正","","","","","","","","","","","","","","",""
"null","","null","html-keyboard-response","40","194198","0.0-6.0-1.0-4.0-0.3","3","2","2","3","2","2","2","2","2","2","3","2","2","3","3","2","3","2","3","2","5","4","5","4","4","3","3","4","4","1","0","0","1","0","0","1","1","0","1","1","0","0","0","0","5","2","3","3","5","4","4","4","2","4","774306025401749506","张","276","","","","","","","","","","","","","","","","","","","","","","","","","","","","","","","","","","","","","","","",""
"568","<p style=""color:white; font-size: 35px;"">善良</p>","i","categorize-html","41","194766","0.0-6.0-1.0-4.0-1.3","3","2","2","3","2","2","2","2","2","2","3","2","2","3","3","2","3","2","3","2","5","4","5","4","4","3","3","4","4","1","0","0","1","0","0","1","1","0","1","1","0","0","0","0","5","2","3","3","5","4","4","4","2","4","774306025401749506","张","276","","","","","","","","","","","","","","","","","","","true","12","2","moral","568","positive","善良","","","","","","","","","","","","","","",""
"null","","null","html-keyboard-response","42","195018","0.0-6.0-1.0-4.0-0.4","3","2","2","3","2","2","2","2","2","2","3","2","2","3","3","2","3","2","3","2","5","4","5","4","4","3","3","4","4","1","0","0","1","0","0","1","1","0","1","1","0","0","0","0","5","2","3","3","5","4","4","4","2","4","774306025401749506","张","276","","","","","","","","","","","","","","","","","","","","","","","","","","","","","","","","","","","","","","","",""
"1111","<p style=""color:white; font-size: 35px;"">诚信</p>","i","categorize-html","43","196129","0.0-6.0-1.0-4.0-1.4","3","2","2","3","2","2","2","2","2","2","3","2","2","3","3","2","3","2","3","2","5","4","5","4","4","3","3","4","4","1","0","0","1","0","0","1","1","0","1","1","0","0","0","0","5","2","3","3","5","4","4","4","2","4","774306025401749506","张","276","","","","","","","","","","","","","","","","","","","true","12","2","moral","1111","positive","诚信","","","","","","","","","","","","","","",""
"null","","null","html-keyboard-response","44","196381","0.0-6.0-1.0-4.0-0.5","3","2","2","3","2","2","2","2","2","2","3","2","2","3","3","2","3","2","3","2","5","4","5","4","4","3","3","4","4","1","0","0","1","0","0","1","1","0","1","1","0","0","0","0","5","2","3","3","5","4","4","4","2","4","774306025401749506","张","276","","","","","","","","","","","","","","","","","","","","","","","","","","","","","","","","","","","","","","","",""
"507","<p style=""color:white; font-size: 35px;"">正直</p>","i","categorize-html","45","196889","0.0-6.0-1.0-4.0-1.5","3","2","2","3","2","2","2","2","2","2","3","2","2","3","3","2","3","2","3","2","5","4","5","4","4","3","3","4","4","1","0","0","1","0","0","1","1","0","1","1","0","0","0","0","5","2","3","3","5","4","4","4","2","4","774306025401749506","张","276","","","","","","","","","","","","","","","","","","","true","12","2","moral","507","positive","正直","","","","","","","","","","","","","","",""
"null","","null","html-keyboard-response","46","197139","0.0-6.0-1.0-4.0-0.6","3","2","2","3","2","2","2","2","2","2","3","2","2","3","3","2","3","2","3","2","5","4","5","4","4","3","3","4","4","1","0","0","1","0","0","1","1","0","1","1","0","0","0","0","5","2","3","3","5","4","4","4","2","4","774306025401749506","张","276","","","","","","","","","","","","","","","","","","","","","","","","","","","","","","","","","","","","","","","",""
"710","<p style=""color:white; font-size: 35px;"">卑鄙</p>","e","categorize-html","47","197849","0.0-6.0-1.0-4.0-1.6","3","2","2","3","2","2","2","2","2","2","3","2","2","3","3","2","3","2","3","2","5","4","5","4","4","3","3","4","4","1","0","0","1","0","0","1","1","0","1","1","0","0","0","0","5","2","3","3","5","4","4","4","2","4","774306025401749506","张","276","","","","","","","","","","","","","","","","","","","true","12","2","moral","710","negative","卑鄙","","","","","","","","","","","","","","",""
"null","","null","html-keyboard-response","48","198100","0.0-6.0-1.0-4.0-0.7","3","2","2","3","2","2","2","2","2","2","3","2","2","3","3","2","3","2","3","2","5","4","5","4","4","3","3","4","4","1","0","0","1","0","0","1","1","0","1","1","0","0","0","0","5","2","3","3","5","4","4","4","2","4","774306025401749506","张","276","","","","","","","","","","","","","","","","","","","","","","","","","","","","","","","","","","","","","","","",""
"516","<p style=""color:white; font-size: 35px;"">黑心</p>","e","categorize-html","49","198617","0.0-6.0-1.0-4.0-1.7","3","2","2","3","2","2","2","2","2","2","3","2","2","3","3","2","3","2","3","2","5","4","5","4","4","3","3","4","4","1","0","0","1","0","0","1","1","0","1","1","0","0","0","0","5","2","3","3","5","4","4","4","2","4","774306025401749506","张","276","","","","","","","","","","","","","","","","","","","true","12","2","moral","516","negative","黑心","","","","","","","","","","","","","","",""
"null","","null","html-keyboard-response","50","198868","0.0-6.0-1.0-4.0-0.8","3","2","2","3","2","2","2","2","2","2","3","2","2","3","3","2","3","2","3","2","5","4","5","4","4","3","3","4","4","1","0","0","1","0","0","1","1","0","1","1","0","0","0","0","5","2","3","3","5","4","4","4","2","4","774306025401749506","张","276","","","","","","","","","","","","","","","","","","","","","","","","","","","","","","","","","","","","","","","",""
"701","<p style=""color:white; font-size: 35px;"">君子</p>","i","categorize-html","51","199570","0.0-6.0-1.0-4.0-1.8","3","2","2","3","2","2","2","2","2","2","3","2","2","3","3","2","3","2","3","2","5","4","5","4","4","3","3","4","4","1","0","0","1","0","0","1","1","0","1","1","0","0","0","0","5","2","3","3","5","4","4","4","2","4","774306025401749506","张","276","","","","","","","","","","","","","","","","","","","true","12","2","moral","701","positive","君子","","","","","","","","","","","","","","",""
"null","","null","html-keyboard-response","52","199821","0.0-6.0-1.0-4.0-0.9","3","2","2","3","2","2","2","2","2","2","3","2","2","3","3","2","3","2","3","2","5","4","5","4","4","3","3","4","4","1","0","0","1","0","0","1","1","0","1","1","0","0","0","0","5","2","3","3","5","4","4","4","2","4","774306025401749506","张","276","","","","","","","","","","","","","","","","","","","","","","","","","","","","","","","","","","","","","","","",""
"585","<p style=""color:white; font-size: 35px;"">小人</p>","e","categorize-html","53","200406","0.0-6.0-1.0-4.0-1.9","3","2","2","3","2","2","2","2","2","2","3","2","2","3","3","2","3","2","3","2","5","4","5","4","4","3","3","4","4","1","0","0","1","0","0","1","1","0","1","1","0","0","0","0","5","2","3","3","5","4","4","4","2","4","774306025401749506","张","276","","","","","","","","","","","","","","","","","","","true","12","2","moral","585","negative","小人","","","","","","","","","","","","","","",""
"null","","null","html-keyboard-response","54","200657","0.0-6.0-1.0-4.0-0.10","3","2","2","3","2","2","2","2","2","2","3","2","2","3","3","2","3","2","3","2","5","4","5","4","4","3","3","4","4","1","0","0","1","0","0","1","1","0","1","1","0","0","0","0","5","2","3","3","5","4","4","4","2","4","774306025401749506","张","276","","","","","","","","","","","","","","","","","","","","","","","","","","","","","","","","","","","","","","","",""
"711","<p style=""color:white; font-size: 35px;"">高尚</p>","i","categorize-html","55","201370","0.0-6.0-1.0-4.0-1.10","3","2","2","3","2","2","2","2","2","2","3","2","2","3","3","2","3","2","3","2","5","4","5","4","4","3","3","4","4","1","0","0","1","0","0","1","1","0","1","1","0","0","0","0","5","2","3","3","5","4","4","4","2","4","774306025401749506","张","276","","","","","","","","","","","","","","","","","","","true","12","2","moral","711","positive","高尚","","","","","","","","","","","","","","",""
"null","","null","html-keyboard-response","56","201621","0.0-6.0-1.0-4.0-0.11","3","2","2","3","2","2","2","2","2","2","3","2","2","3","3","2","3","2","3","2","5","4","5","4","4","3","3","4","4","1","0","0","1","0","0","1","1","0","1","1","0","0","0","0","5","2","3","3","5","4","4","4","2","4","774306025401749506","张","276","","","","","","","","","","","","","","","","","","","","","","","","","","","","","","","","","","","","","","","",""
"729","<p style=""color:white; font-size: 35px;"">不仁</p>","e","categorize-html","57","202350","0.0-6.0-1.0-4.0-1.11","3","2","2","3","2","2","2","2","2","2","3","2","2","3","3","2","3","2","3","2","5","4","5","4","4","3","3","4","4","1","0","0","1","0","0","1","1","0","1","1","0","0","0","0","5","2","3","3","5","4","4","4","2","4","774306025401749506","张","276","","","","","","","","","","","","","","","","","","","true","12","2","moral","729","negative","不仁","","","","","","","","","","","","","","",""
"8478","
    <div class=""tag-bottom""><p>
    —— 任务3：对“他人/消极”词和“自我/积极”词分类 ——<p/>
    <span style=""color:#78DCE8""><b>注意上方，之前的四类词语将混合在一起交替呈现</b></span><p/>
    <span style=""color:#FFD866""><b>请根据上方标签的提示，尽可能正确并且快速地做出按键反应</b></span><p/>
    当按键错误时屏幕中会出现<span style=""color:red""> X </span>，需要按另一个键纠正才能继续<br/><p/>
    请把双手食指分别放在键盘的“E”键和“I”键上<p/>
    按<空格键>开始
    </p></div>"," ","html-keyboard-response","58","210829","0.0-6.0-1.0-5.0","3","2","2","3","2","2","2","2","2","2","3","2","2","3","3","2","3","2","3","2","5","4","5","4","4","3","3","4","4","1","0","0","1","0","0","1","1","0","1","1","0","0","0","0","5","2","3","3","5","4","4","4","2","4","774306025401749506","张","276","","","","","","","","","","","","","","","","","","","","","","","","","","","","","","","","","","","","","","","",""
"null","","null","html-keyboard-response","59","211080","0.0-6.0-1.0-6.0-0.0","3","2","2","3","2","2","2","2","2","2","3","2","2","3","3","2","3","2","3","2","5","4","5","4","4","3","3","4","4","1","0","0","1","0","0","1","1","0","1","1","0","0","0","0","5","2","3","3","5","4","4","4","2","4","774306025401749506","张","276","","","","","","","","","","","","","","","","","","","","","","","","","","","","","","","","","","","","","","","",""
"685","<p style=""color:rgb(150, 250, 100); font-size: 35px;"">自己</p>","i","categorize-html","60","211765","0.0-6.0-1.0-6.0-1.0","3","2","2","3","2","2","2","2","2","2","3","2","2","3","3","2","3","2","3","2","5","4","5","4","4","3","3","4","4","1","0","0","1","0","0","1","1","0","1","1","0","0","0","0","5","2","3","3","5","4","4","4","2","4","774306025401749506","张","276","","","","","","","","","","","","","","","","","","","true","13","3","moral","685","self","自己","","","","","","","","","","","","","","",""
"null","","null","html-keyboard-response","61","212016","0.0-6.0-1.0-6.0-0.1","3","2","2","3","2","2","2","2","2","2","3","2","2","3","3","2","3","2","3","2","5","4","5","4","4","3","3","4","4","1","0","0","1","0","0","1","1","0","1","1","0","0","0","0","5","2","3","3","5","4","4","4","2","4","774306025401749506","张","276","","","","","","","","","","","","","","","","","","","","","","","","","","","","","","","","","","","","","","","",""
"896","<p style=""color:white; font-size: 35px;"">君子</p>","i","categorize-html","62","212913","0.0-6.0-1.0-6.0-1.1","3","2","2","3","2","2","2","2","2","2","3","2","2","3","3","2","3","2","3","2","5","4","5","4","4","3","3","4","4","1","0","0","1","0","0","1","1","0","1","1","0","0","0","0","5","2","3","3","5","4","4","4","2","4","774306025401749506","张","276","","","","","","","","","","","","","","","","","","","true","13","3","moral","896","positive","君子","","","","","","","","","","","","","","",""
"null","","null","html-keyboard-response","63","213164","0.0-6.0-1.0-6.0-0.2","3","2","2","3","2","2","2","2","2","2","3","2","2","3","3","2","3","2","3","2","5","4","5","4","4","3","3","4","4","1","0","0","1","0","0","1","1","0","1","1","0","0","0","0","5","2","3","3","5","4","4","4","2","4","774306025401749506","张","276","","","","","","","","","","","","","","","","","","","","","","","","","","","","","","","","","","","","","","","",""
"1089","<p style=""color:rgb(150, 250, 100); font-size: 35px;"">别人</p>","e","categorize-html","64","214254","0.0-6.0-1.0-6.0-1.2","3","2","2","3","2","2","2","2","2","2","3","2","2","3","3","2","3","2","3","2","5","4","5","4","4","3","3","4","4","1","0","0","1","0","0","1","1","0","1","1","0","0","0","0","5","2","3","3","5","4","4","4","2","4","774306025401749506","张","276","","","","","","","","","","","","","","","","","","","true","13","3","moral","1089","other","别人","","","","","","","","","","","","","","",""
"null","","null","html-keyboard-response","65","214505","0.0-6.0-1.0-6.0-0.3","3","2","2","3","2","2","2","2","2","2","3","2","2","3","3","2","3","2","3","2","5","4","5","4","4","3","3","4","4","1","0","0","1","0","0","1","1","0","1","1","0","0","0","0","5","2","3","3","5","4","4","4","2","4","774306025401749506","张","276","","","","","","","","","","","","","","","","","","","","","","","","","","","","","","","","","","","","","","","",""
"658","<p style=""color:white; font-size: 35px;"">缺德</p>","e","categorize-html","66","215163","0.0-6.0-1.0-6.0-1.3","3","2","2","3","2","2","2","2","2","2","3","2","2","3","3","2","3","2","3","2","5","4","5","4","4","3","3","4","4","1","0","0","1","0","0","1","1","0","1","1","0","0","0","0","5","2","3","3","5","4","4","4","2","4","774306025401749506","张","276","","","","","","","","","","","","","","","","","","","true","13","3","moral","658","negative","缺德","","","","","","","","","","","","","","",""
"null","","null","html-keyboard-response","67","215415","0.0-6.0-1.0-6.0-0.4","3","2","2","3","2","2","2","2","2","2","3","2","2","3","3","2","3","2","3","2","5","4","5","4","4","3","3","4","4","1","0","0","1","0","0","1","1","0","1","1","0","0","0","0","5","2","3","3","5","4","4","4","2","4","774306025401749506","张","276","","","","","","","","","","","","","","","","","","","","","","","","","","","","","","","","","","","","","","","",""
"860","<p style=""color:rgb(150, 250, 100); font-size: 35px;"">别人的</p>","e","categorize-html","68","216276","0.0-6.0-1.0-6.0-1.4","3","2","2","3","2","2","2","2","2","2","3","2","2","3","3","2","3","2","3","2","5","4","5","4","4","3","3","4","4","1","0","0","1","0","0","1","1","0","1","1","0","0","0","0","5","2","3","3","5","4","4","4","2","4","774306025401749506","张","276","","","","","","","","","","","","","","","","","","","true","13","3","moral","860","other","别人的","","","","","","","","","","","","","","",""
"null","","null","html-keyboard-response","69","216527","0.0-6.0-1.0-6.0-0.5","3","2","2","3","2","2","2","2","2","2","3","2","2","3","3","2","3","2","3","2","5","4","5","4","4","3","3","4","4","1","0","0","1","0","0","1","1","0","1","1","0","0","0","0","5","2","3","3","5","4","4","4","2","4","774306025401749506","张","276","","","","","","","","","","","","","","","","","","","","","","","","","","","","","","","","","","","","","","","",""
"1035","<p style=""color:white; font-size: 35px;"">不孝</p>","e","categorize-html","70","217562","0.0-6.0-1.0-6.0-1.5","3","2","2","3","2","2","2","2","2","2","3","2","2","3","3","2","3","2","3","2","5","4","5","4","4","3","3","4","4","1","0","0","1","0","0","1","1","0","1","1","0","0","0","0","5","2","3","3","5","4","4","4","2","4","774306025401749506","张","276","","","","","","","","","","","","","","","","","","","true","13","3","moral","1035","negative","不孝","","","","","","","","","","","","","","",""
"null","","null","html-keyboard-response","71","217813","0.0-6.0-1.0-6.0-0.6","3","2","2","3","2","2","2","2","2","2","3","2","2","3","3","2","3","2","3","2","5","4","5","4","4","3","3","4","4","1","0","0","1","0","0","1","1","0","1","1","0","0","0","0","5","2","3","3","5","4","4","4","2","4","774306025401749506","张","276","","","","","","","","","","","","","","","","","","","","","","","","","","","","","","","","","","","","","","","",""
"609","<p style=""color:rgb(150, 250, 100); font-size: 35px;"">本人的</p>","i","categorize-html","72","218422","0.0-6.0-1.0-6.0-1.6","3","2","2","3","2","2","2","2","2","2","3","2","2","3","3","2","3","2","3","2","5","4","5","4","4","3","3","4","4","1","0","0","1","0","0","1","1","0","1","1","0","0","0","0","5","2","3","3","5","4","4","4","2","4","774306025401749506","张","276","","","","","","","","","","","","","","","","","","","true","13","3","moral","609","self","本人的","","","","","","","","","","","","","","",""
"null","","null","html-keyboard-response","73","218673","0.0-6.0-1.0-6.0-0.7","3","2","2","3","2","2","2","2","2","2","3","2","2","3","3","2","3","2","3","2","5","4","5","4","4","3","3","4","4","1","0","0","1","0","0","1","1","0","1","1","0","0","0","0","5","2","3","3","5","4","4","4","2","4","774306025401749506","张","276","","","","","","","","","","","","","","","","","","","","","","","","","","","","","","","","","","","","","","","",""
"946","<p style=""color:white; font-size: 35px;"">廉正</p>","i","categorize-html","74","219619","0.0-6.0-1.0-6.0-1.7","3","2","2","3","2","2","2","2","2","2","3","2","2","3","3","2","3","2","3","2","5","4","5","4","4","3","3","4","4","1","0","0","1","0","0","1","1","0","1","1","0","0","0","0","5","2","3","3","5","4","4","4","2","4","774306025401749506","张","276","","","","","","","","","","","","","","","","","","","true","13","3","moral","946","positive","廉正","","","","","","","","","","","","","","",""
"null","","null","html-keyboard-response","75","219870","0.0-6.0-1.0-6.0-0.8","3","2","2","3","2","2","2","2","2","2","3","2","2","3","3","2","3","2","3","2","5","4","5","4","4","3","3","4","4","1","0","0","1","0","0","1","1","0","1","1","0","0","0","0","5","2","3","3","5","4","4","4","2","4","774306025401749506","张","276","","","","","","","","","","","","","","","","","","","","","","","","","","","","","","","","","","","","","","","",""
"850","<p style=""color:rgb(150, 250, 100); font-size: 35px;"">他人的</p>","e","categorize-html","76","220721","0.0-6.0-1.0-6.0-1.8","3","2","2","3","2","2","2","2","2","2","3","2","2","3","3","2","3","2","3","2","5","4","5","4","4","3","3","4","4","1","0","0","1","0","0","1","1","0","1","1","0","0","0","0","5","2","3","3","5","4","4","4","2","4","774306025401749506","张","276","","","","","","","","","","","","","","","","","","","true","13","3","moral","850","other","他人的","","","","","","","","","","","","","","",""
"null","","null","html-keyboard-response","77","220973","0.0-6.0-1.0-6.0-0.9","3","2","2","3","2","2","2","2","2","2","3","2","2","3","3","2","3","2","3","2","5","4","5","4","4","3","3","4","4","1","0","0","1","0","0","1","1","0","1","1","0","0","0","0","5","2","3","3","5","4","4","4","2","4","774306025401749506","张","276","","","","","","","","","","","","","","","","","","","","","","","","","","","","","","","","","","","","","","","",""
"1204","<p style=""color:white; font-size: 35px;"">卑鄙</p>","e","categorize-html","78","222177","0.0-6.0-1.0-6.0-1.9","3","2","2","3","2","2","2","2","2","2","3","2","2","3","3","2","3","2","3","2","5","4","5","4","4","3","3","4","4","1","0","0","1","0","0","1","1","0","1","1","0","0","0","0","5","2","3","3","5","4","4","4","2","4","774306025401749506","张","276","","","","","","","","","","","","","","","","","","","true","13","3","moral","1204","negative","卑鄙","","","","","","","","","","","","","","",""
"null","","null","html-keyboard-response","79","222427","0.0-6.0-1.0-6.0-0.10","3","2","2","3","2","2","2","2","2","2","3","2","2","3","3","2","3","2","3","2","5","4","5","4","4","3","3","4","4","1","0","0","1","0","0","1","1","0","1","1","0","0","0","0","5","2","3","3","5","4","4","4","2","4","774306025401749506","张","276","","","","","","","","","","","","","","","","","","","","","","","","","","","","","","","","","","","","","","","",""
"595","<p style=""color:rgb(150, 250, 100); font-size: 35px;"">我的</p>","i","categorize-html","80","223023","0.0-6.0-1.0-6.0-1.10","3","2","2","3","2","2","2","2","2","2","3","2","2","3","3","2","3","2","3","2","5","4","5","4","4","3","3","4","4","1","0","0","1","0","0","1","1","0","1","1","0","0","0","0","5","2","3","3","5","4","4","4","2","4","774306025401749506","张","276","","","","","","","","","","","","","","","","","","","true","13","3","moral","595","self","我的","","","","","","","","","","","","","","",""
"null","","null","html-keyboard-response","81","223274","0.0-6.0-1.0-6.0-0.11","3","2","2","3","2","2","2","2","2","2","3","2","2","3","3","2","3","2","3","2","5","4","5","4","4","3","3","4","4","1","0","0","1","0","0","1","1","0","1","1","0","0","0","0","5","2","3","3","5","4","4","4","2","4","774306025401749506","张","276","","","","","","","","","","","","","","","","","","","","","","","","","","","","","","","","","","","","","","","",""
"588","<p style=""color:white; font-size: 35px;"">诚信</p>","i","categorize-html","82","223862","0.0-6.0-1.0-6.0-1.11","3","2","2","3","2","2","2","2","2","2","3","2","2","3","3","2","3","2","3","2","5","4","5","4","4","3","3","4","4","1","0","0","1","0","0","1","1","0","1","1","0","0","0","0","5","2","3","3","5","4","4","4","2","4","774306025401749506","张","276","","","","","","","","","","","","","","","","","","","true","13","3","moral","588","positive","诚信","","","","","","","","","","","","","","",""
"null","","null","html-keyboard-response","83","224113","0.0-6.0-1.0-6.0-0.12","3","2","2","3","2","2","2","2","2","2","3","2","2","3","3","2","3","2","3","2","5","4","5","4","4","3","3","4","4","1","0","0","1","0","0","1","1","0","1","1","0","0","0","0","5","2","3","3","5","4","4","4","2","4","774306025401749506","张","276","","","","","","","","","","","","","","","","","","","","","","","","","","","","","","","","","","","","","","","",""
"552","<p style=""color:rgb(150, 250, 100); font-size: 35px;"">自己的</p>","i","categorize-html","84","224666","0.0-6.0-1.0-6.0-1.12","3","2","2","3","2","2","2","2","2","2","3","2","2","3","3","2","3","2","3","2","5","4","5","4","4","3","3","4","4","1","0","0","1","0","0","1","1","0","1","1","0","0","0","0","5","2","3","3","5","4","4","4","2","4","774306025401749506","张","276","","","","","","","","","","","","","","","","","","","true","13","3","moral","552","self","自己的","","","","","","","","","","","","","","",""
"null","","null","html-keyboard-response","85","224917","0.0-6.0-1.0-6.0-0.13","3","2","2","3","2","2","2","2","2","2","3","2","2","3","3","2","3","2","3","2","5","4","5","4","4","3","3","4","4","1","0","0","1","0","0","1","1","0","1","1","0","0","0","0","5","2","3","3","5","4","4","4","2","4","774306025401749506","张","276","","","","","","","","","","","","","","","","","","","","","","","","","","","","","","","","","","","","","","","",""
"594","<p style=""color:white; font-size: 35px;"">黑心</p>","e","categorize-html","86","225512","0.0-6.0-1.0-6.0-1.13","3","2","2","3","2","2","2","2","2","2","3","2","2","3","3","2","3","2","3","2","5","4","5","4","4","3","3","4","4","1","0","0","1","0","0","1","1","0","1","1","0","0","0","0","5","2","3","3","5","4","4","4","2","4","774306025401749506","张","276","","","","","","","","","","","","","","","","","","","true","13","3","moral","594","negative","黑心","","","","","","","","","","","","","","",""
"null","","null","html-keyboard-response","87","225763","0.0-6.0-1.0-6.0-0.14","3","2","2","3","2","2","2","2","2","2","3","2","2","3","3","2","3","2","3","2","5","4","5","4","4","3","3","4","4","1","0","0","1","0","0","1","1","0","1","1","0","0","0","0","5","2","3","3","5","4","4","4","2","4","774306025401749506","张","276","","","","","","","","","","","","","","","","","","","","","","","","","","","","","","","","","","","","","","","",""
"524","<p style=""color:rgb(150, 250, 100); font-size: 35px;"">他人</p>","e","categorize-html","88","226287","0.0-6.0-1.0-6.0-1.14","3","2","2","3","2","2","2","2","2","2","3","2","2","3","3","2","3","2","3","2","5","4","5","4","4","3","3","4","4","1","0","0","1","0","0","1","1","0","1","1","0","0","0","0","5","2","3","3","5","4","4","4","2","4","774306025401749506","张","276","","","","","","","","","","","","","","","","","","","true","13","3","moral","524","other","他人","","","","","","","","","","","","","","",""
"null","","null","html-keyboard-response","89","226538","0.0-6.0-1.0-6.0-0.15","3","2","2","3","2","2","2","2","2","2","3","2","2","3","3","2","3","2","3","2","5","4","5","4","4","3","3","4","4","1","0","0","1","0","0","1","1","0","1","1","0","0","0","0","5","2","3","3","5","4","4","4","2","4","774306025401749506","张","276","","","","","","","","","","","","","","","","","","","","","","","","","","","","","","","","","","","","","","","",""
"581","<p style=""color:white; font-size: 35px;"">正直</p>","i","categorize-html","90","227120","0.0-6.0-1.0-6.0-1.15","3","2","2","3","2","2","2","2","2","2","3","2","2","3","3","2","3","2","3","2","5","4","5","4","4","3","3","4","4","1","0","0","1","0","0","1","1","0","1","1","0","0","0","0","5","2","3","3","5","4","4","4","2","4","774306025401749506","张","276","","","","","","","","","","","","","","","","","","","true","13","3","moral","581","positive","正直","","","","","","","","","","","","","","",""
"null","","null","html-keyboard-response","91","227371","0.0-6.0-1.0-6.0-0.16","3","2","2","3","2","2","2","2","2","2","3","2","2","3","3","2","3","2","3","2","5","4","5","4","4","3","3","4","4","1","0","0","1","0","0","1","1","0","1","1","0","0","0","0","5","2","3","3","5","4","4","4","2","4","774306025401749506","张","276","","","","","","","","","","","","","","","","","","","","","","","","","","","","","","","","","","","","","","","",""
"591","<p style=""color:rgb(150, 250, 100); font-size: 35px;"">本人</p>","i","categorize-html","92","227962","0.0-6.0-1.0-6.0-1.16","3","2","2","3","2","2","2","2","2","2","3","2","2","3","3","2","3","2","3","2","5","4","5","4","4","3","3","4","4","1","0","0","1","0","0","1","1","0","1","1","0","0","0","0","5","2","3","3","5","4","4","4","2","4","774306025401749506","张","276","","","","","","","","","","","","","","","","","","","true","13","3","moral","591","self","本人","","","","","","","","","","","","","","",""
"null","","null","html-keyboard-response","93","228214","0.0-6.0-1.0-6.0-0.17","3","2","2","3","2","2","2","2","2","2","3","2","2","3","3","2","3","2","3","2","5","4","5","4","4","3","3","4","4","1","0","0","1","0","0","1","1","0","1","1","0","0","0","0","5","2","3","3","5","4","4","4","2","4","774306025401749506","张","276","","","","","","","","","","","","","","","","","","","","","","","","","","","","","","","","","","","","","","","",""
"1242","<p style=""color:white; font-size: 35px;"">小人</p>","e","categorize-html","94","229457","0.0-6.0-1.0-6.0-1.17","3","2","2","3","2","2","2","2","2","2","3","2","2","3","3","2","3","2","3","2","5","4","5","4","4","3","3","4","4","1","0","0","1","0","0","1","1","0","1","1","0","0","0","0","5","2","3","3","5","4","4","4","2","4","774306025401749506","张","276","","","","","","","","","","","","","","","","","","","true","13","3","moral","1242","negative","小人","","","","","","","","","","","","","","",""
"null","","null","html-keyboard-response","95","229707","0.0-6.0-1.0-6.0-0.18","3","2","2","3","2","2","2","2","2","2","3","2","2","3","3","2","3","2","3","2","5","4","5","4","4","3","3","4","4","1","0","0","1","0","0","1","1","0","1","1","0","0","0","0","5","2","3","3","5","4","4","4","2","4","774306025401749506","张","276","","","","","","","","","","","","","","","","","","","","","","","","","","","","","","","","","","","","","","","",""
"758","<p style=""color:rgb(150, 250, 100); font-size: 35px;"">他的</p>","e","categorize-html","96","230467","0.0-6.0-1.0-6.0-1.18","3","2","2","3","2","2","2","2","2","2","3","2","2","3","3","2","3","2","3","2","5","4","5","4","4","3","3","4","4","1","0","0","1","0","0","1","1","0","1","1","0","0","0","0","5","2","3","3","5","4","4","4","2","4","774306025401749506","张","276","","","","","","","","","","","","","","","","","","","true","13","3","moral","758","other","他的","","","","","","","","","","","","","","",""
"null","","null","html-keyboard-response","97","230717","0.0-6.0-1.0-6.0-0.19","3","2","2","3","2","2","2","2","2","2","3","2","2","3","3","2","3","2","3","2","5","4","5","4","4","3","3","4","4","1","0","0","1","0","0","1","1","0","1","1","0","0","0","0","5","2","3","3","5","4","4","4","2","4","774306025401749506","张","276","","","","","","","","","","","","","","","","","","","","","","","","","","","","","","","","","","","","","","","",""
"622","<p style=""color:white; font-size: 35px;"">善良</p>","i","categorize-html","98","231340","0.0-6.0-1.0-6.0-1.19","3","2","2","3","2","2","2","2","2","2","3","2","2","3","3","2","3","2","3","2","5","4","5","4","4","3","3","4","4","1","0","0","1","0","0","1","1","0","1","1","0","0","0","0","5","2","3","3","5","4","4","4","2","4","774306025401749506","张","276","","","","","","","","","","","","","","","","","","","true","13","3","moral","622","positive","善良","","","","","","","","","","","","","","",""
"null","","null","html-keyboard-response","99","231591","0.0-6.0-1.0-6.0-0.20","3","2","2","3","2","2","2","2","2","2","3","2","2","3","3","2","3","2","3","2","5","4","5","4","4","3","3","4","4","1","0","0","1","0","0","1","1","0","1","1","0","0","0","0","5","2","3","3","5","4","4","4","2","4","774306025401749506","张","276","","","","","","","","","","","","","","","","","","","","","","","","","","","","","","","","","","","","","","","",""
"664","<p style=""color:rgb(150, 250, 100); font-size: 35px;"">他</p>","e","categorize-html","100","232255","0.0-6.0-1.0-6.0-1.20","3","2","2","3","2","2","2","2","2","2","3","2","2","3","3","2","3","2","3","2","5","4","5","4","4","3","3","4","4","1","0","0","1","0","0","1","1","0","1","1","0","0","0","0","5","2","3","3","5","4","4","4","2","4","774306025401749506","张","276","","","","","","","","","","","","","","","","","","","true","13","3","moral","664","other","他","","","","","","","","","","","","","","",""
"null","","null","html-keyboard-response","101","232507","0.0-6.0-1.0-6.0-0.21","3","2","2","3","2","2","2","2","2","2","3","2","2","3","3","2","3","2","3","2","5","4","5","4","4","3","3","4","4","1","0","0","1","0","0","1","1","0","1","1","0","0","0","0","5","2","3","3","5","4","4","4","2","4","774306025401749506","张","276","","","","","","","","","","","","","","","","","","","","","","","","","","","","","","","","","","","","","","","",""
"721","<p style=""color:white; font-size: 35px;"">不仁</p>","e","categorize-html","102","233229","0.0-6.0-1.0-6.0-1.21","3","2","2","3","2","2","2","2","2","2","3","2","2","3","3","2","3","2","3","2","5","4","5","4","4","3","3","4","4","1","0","0","1","0","0","1","1","0","1","1","0","0","0","0","5","2","3","3","5","4","4","4","2","4","774306025401749506","张","276","","","","","","","","","","","","","","","","","","","true","13","3","moral","721","negative","不仁","","","","","","","","","","","","","","",""
"null","","null","html-keyboard-response","103","233479","0.0-6.0-1.0-6.0-0.22","3","2","2","3","2","2","2","2","2","2","3","2","2","3","3","2","3","2","3","2","5","4","5","4","4","3","3","4","4","1","0","0","1","0","0","1","1","0","1","1","0","0","0","0","5","2","3","3","5","4","4","4","2","4","774306025401749506","张","276","","","","","","","","","","","","","","","","","","","","","","","","","","","","","","","","","","","","","","","",""
"588","<p style=""color:rgb(150, 250, 100); font-size: 35px;"">我</p>","i","categorize-html","104","234068","0.0-6.0-1.0-6.0-1.22","3","2","2","3","2","2","2","2","2","2","3","2","2","3","3","2","3","2","3","2","5","4","5","4","4","3","3","4","4","1","0","0","1","0","0","1","1","0","1","1","0","0","0","0","5","2","3","3","5","4","4","4","2","4","774306025401749506","张","276","","","","","","","","","","","","","","","","","","","true","13","3","moral","588","self","我","","","","","","","","","","","","","","",""
"null","","null","html-keyboard-response","105","234319","0.0-6.0-1.0-6.0-0.23","3","2","2","3","2","2","2","2","2","2","3","2","2","3","3","2","3","2","3","2","5","4","5","4","4","3","3","4","4","1","0","0","1","0","0","1","1","0","1","1","0","0","0","0","5","2","3","3","5","4","4","4","2","4","774306025401749506","张","276","","","","","","","","","","","","","","","","","","","","","","","","","","","","","","","","","","","","","","","",""
"653","<p style=""color:white; font-size: 35px;"">高尚</p>","e","categorize-html","106","235818","0.0-6.0-1.0-6.0-1.23","3","2","2","3","2","2","2","2","2","2","3","2","2","3","3","2","3","2","3","2","5","4","5","4","4","3","3","4","4","1","0","0","1","0","0","1","1","0","1","1","0","0","0","0","5","2","3","3","5","4","4","4","2","4","774306025401749506","张","276","","","","","","","","","","","","","","","","","","","false","13","3","moral","1358.782608695652","positive","高尚","","","","","","","","","","","","","","",""
"9935","
    <div class=""tag-bottom""><p>
    —— 任务4：对“他人/消极”词和“自我/积极”词分类 ——<p/>
    <span style=""color:#78DCE8""><b>与刚才的任务完全相同，请再次对这四类词语分类</b></span><p/>
    <span style=""color:#FFD866""><b>请根据上方标签的提示，尽可能正确并且快速地做出按键反应</b></span><p/>
    当按键错误时屏幕中会出现<span style=""color:red""> X </span>，需要按另一个键纠正才能继续<br/><p/>
    请把双手食指分别放在键盘的“E”键和“I”键上<p/>
    按<空格键>开始
    </p></div>"," ","html-keyboard-response","107","245754","0.0-6.0-1.0-7.0","3","2","2","3","2","2","2","2","2","2","3","2","2","3","3","2","3","2","3","2","5","4","5","4","4","3","3","4","4","1","0","0","1","0","0","1","1","0","1","1","0","0","0","0","5","2","3","3","5","4","4","4","2","4","774306025401749506","张","276","","","","","","","","","","","","","","","","","","","","","","","","","","","","","","","","","","","","","","","",""
"null","","null","html-keyboard-response","108","246006","0.0-6.0-1.0-8.0-0.0","3","2","2","3","2","2","2","2","2","2","3","2","2","3","3","2","3","2","3","2","5","4","5","4","4","3","3","4","4","1","0","0","1","0","0","1","1","0","1","1","0","0","0","0","5","2","3","3","5","4","4","4","2","4","774306025401749506","张","276","","","","","","","","","","","","","","","","","","","","","","","","","","","","","","","","","","","","","","","",""
"1238","<p style=""color:rgb(150, 250, 100); font-size: 35px;"">他人</p>","e","categorize-html","109","247244","0.0-6.0-1.0-8.0-1.0","3","2","2","3","2","2","2","2","2","2","3","2","2","3","3","2","3","2","3","2","5","4","5","4","4","3","3","4","4","1","0","0","1","0","0","1","1","0","1","1","0","0","0","0","5","2","3","3","5","4","4","4","2","4","774306025401749506","张","276","","","","","","","","","","","","","","","","","","","true","14","4","moral","1238","other","他人","","","","","","","","","","","","","","",""
"null","","null","html-keyboard-response","110","247496","0.0-6.0-1.0-8.0-0.1","3","2","2","3","2","2","2","2","2","2","3","2","2","3","3","2","3","2","3","2","5","4","5","4","4","3","3","4","4","1","0","0","1","0","0","1","1","0","1","1","0","0","0","0","5","2","3","3","5","4","4","4","2","4","774306025401749506","张","276","","","","","","","","","","","","","","","","","","","","","","","","","","","","","","","","","","","","","","","",""
"559","<p style=""color:white; font-size: 35px;"">缺德</p>","e","categorize-html","111","248055","0.0-6.0-1.0-8.0-1.1","3","2","2","3","2","2","2","2","2","2","3","2","2","3","3","2","3","2","3","2","5","4","5","4","4","3","3","4","4","1","0","0","1","0","0","1","1","0","1","1","0","0","0","0","5","2","3","3","5","4","4","4","2","4","774306025401749506","张","276","","","","","","","","","","","","","","","","","","","true","14","4","moral","559","negative","缺德","","","","","","","","","","","","","","",""
"null","","null","html-keyboard-response","112","248306","0.0-6.0-1.0-8.0-0.2","3","2","2","3","2","2","2","2","2","2","3","2","2","3","3","2","3","2","3","2","5","4","5","4","4","3","3","4","4","1","0","0","1","0","0","1","1","0","1","1","0","0","0","0","5","2","3","3","5","4","4","4","2","4","774306025401749506","张","276","","","","","","","","","","","","","","","","","","","","","","","","","","","","","","","","","","","","","","","",""
"560","<p style=""color:rgb(150, 250, 100); font-size: 35px;"">我的</p>","i","categorize-html","113","248867","0.0-6.0-1.0-8.0-1.2","3","2","2","3","2","2","2","2","2","2","3","2","2","3","3","2","3","2","3","2","5","4","5","4","4","3","3","4","4","1","0","0","1","0","0","1","1","0","1","1","0","0","0","0","5","2","3","3","5","4","4","4","2","4","774306025401749506","张","276","","","","","","","","","","","","","","","","","","","true","14","4","moral","560","self","我的","","","","","","","","","","","","","","",""
"null","","null","html-keyboard-response","114","249118","0.0-6.0-1.0-8.0-0.3","3","2","2","3","2","2","2","2","2","2","3","2","2","3","3","2","3","2","3","2","5","4","5","4","4","3","3","4","4","1","0","0","1","0","0","1","1","0","1","1","0","0","0","0","5","2","3","3","5","4","4","4","2","4","774306025401749506","张","276","","","","","","","","","","","","","","","","","","","","","","","","","","","","","","","","","","","","","","","",""
"475","<p style=""color:white; font-size: 35px;"">善良</p>","i","categorize-html","115","249594","0.0-6.0-1.0-8.0-1.3","3","2","2","3","2","2","2","2","2","2","3","2","2","3","3","2","3","2","3","2","5","4","5","4","4","3","3","4","4","1","0","0","1","0","0","1","1","0","1","1","0","0","0","0","5","2","3","3","5","4","4","4","2","4","774306025401749506","张","276","","","","","","","","","","","","","","","","","","","true","14","4","moral","475","positive","善良","","","","","","","","","","","","","","",""
"null","","null","html-keyboard-response","116","249844","0.0-6.0-1.0-8.0-0.4","3","2","2","3","2","2","2","2","2","2","3","2","2","3","3","2","3","2","3","2","5","4","5","4","4","3","3","4","4","1","0","0","1","0","0","1","1","0","1","1","0","0","0","0","5","2","3","3","5","4","4","4","2","4","774306025401749506","张","276","","","","","","","","","","","","","","","","","","","","","","","","","","","","","","","","","","","","","","","",""
"862","<p style=""color:rgb(150, 250, 100); font-size: 35px;"">他人</p>","e","categorize-html","117","250707","0.0-6.0-1.0-8.0-1.4","3","2","2","3","2","2","2","2","2","2","3","2","2","3","3","2","3","2","3","2","5","4","5","4","4","3","3","4","4","1","0","0","1","0","0","1","1","0","1","1","0","0","0","0","5","2","3","3","5","4","4","4","2","4","774306025401749506","张","276","","","","","","","","","","","","","","","","","","","true","14","4","moral","862","other","他人","","","","","","","","","","","","","","",""
"null","","null","html-keyboard-response","118","250958","0.0-6.0-1.0-8.0-0.5","3","2","2","3","2","2","2","2","2","2","3","2","2","3","3","2","3","2","3","2","5","4","5","4","4","3","3","4","4","1","0","0","1","0","0","1","1","0","1","1","0","0","0","0","5","2","3","3","5","4","4","4","2","4","774306025401749506","张","276","","","","","","","","","","","","","","","","","","","","","","","","","","","","","","","","","","","","","","","",""
"758","<p style=""color:white; font-size: 35px;"">小人</p>","e","categorize-html","119","251716","0.0-6.0-1.0-8.0-1.5","3","2","2","3","2","2","2","2","2","2","3","2","2","3","3","2","3","2","3","2","5","4","5","4","4","3","3","4","4","1","0","0","1","0","0","1","1","0","1","1","0","0","0","0","5","2","3","3","5","4","4","4","2","4","774306025401749506","张","276","","","","","","","","","","","","","","","","","","","true","14","4","moral","758","negative","小人","","","","","","","","","","","","","","",""
"null","","null","html-keyboard-response","120","251966","0.0-6.0-1.0-8.0-0.6","3","2","2","3","2","2","2","2","2","2","3","2","2","3","3","2","3","2","3","2","5","4","5","4","4","3","3","4","4","1","0","0","1","0","0","1","1","0","1","1","0","0","0","0","5","2","3","3","5","4","4","4","2","4","774306025401749506","张","276","","","","","","","","","","","","","","","","","","","","","","","","","","","","","","","","","","","","","","","",""
"646","<p style=""color:rgb(150, 250, 100); font-size: 35px;"">自己</p>","i","categorize-html","121","252612","0.0-6.0-1.0-8.0-1.6","3","2","2","3","2","2","2","2","2","2","3","2","2","3","3","2","3","2","3","2","5","4","5","4","4","3","3","4","4","1","0","0","1","0","0","1","1","0","1","1","0","0","0","0","5","2","3","3","5","4","4","4","2","4","774306025401749506","张","276","","","","","","","","","","","","","","","","","","","true","14","4","moral","646","self","自己","","","","","","","","","","","","","","",""
"null","","null","html-keyboard-response","122","252864","0.0-6.0-1.0-8.0-0.7","3","2","2","3","2","2","2","2","2","2","3","2","2","3","3","2","3","2","3","2","5","4","5","4","4","3","3","4","4","1","0","0","1","0","0","1","1","0","1","1","0","0","0","0","5","2","3","3","5","4","4","4","2","4","774306025401749506","张","276","","","","","","","","","","","","","","","","","","","","","","","","","","","","","","","","","","","","","","","",""
"693","<p style=""color:white; font-size: 35px;"">诚信</p>","i","categorize-html","123","253558","0.0-6.0-1.0-8.0-1.7","3","2","2","3","2","2","2","2","2","2","3","2","2","3","3","2","3","2","3","2","5","4","5","4","4","3","3","4","4","1","0","0","1","0","0","1","1","0","1","1","0","0","0","0","5","2","3","3","5","4","4","4","2","4","774306025401749506","张","276","","","","","","","","","","","","","","","","","","","true","14","4","moral","693","positive","诚信","","","","","","","","","","","","","","",""
"null","","null","html-keyboard-response","124","253809","0.0-6.0-1.0-8.0-0.8","3","2","2","3","2","2","2","2","2","2","3","2","2","3","3","2","3","2","3","2","5","4","5","4","4","3","3","4","4","1","0","0","1","0","0","1","1","0","1","1","0","0","0","0","5","2","3","3","5","4","4","4","2","4","774306025401749506","张","276","","","","","","","","","","","","","","","","","","","","","","","","","","","","","","","","","","","","","","","",""
"648","<p style=""color:rgb(150, 250, 100); font-size: 35px;"">他</p>","e","categorize-html","125","254458","0.0-6.0-1.0-8.0-1.8","3","2","2","3","2","2","2","2","2","2","3","2","2","3","3","2","3","2","3","2","5","4","5","4","4","3","3","4","4","1","0","0","1","0","0","1","1","0","1","1","0","0","0","0","5","2","3","3","5","4","4","4","2","4","774306025401749506","张","276","","","","","","","","","","","","","","","","","","","true","14","4","moral","648","other","他","","","","","","","","","","","","","","",""
"null","","null","html-keyboard-response","126","254709","0.0-6.0-1.0-8.0-0.9","3","2","2","3","2","2","2","2","2","2","3","2","2","3","3","2","3","2","3","2","5","4","5","4","4","3","3","4","4","1","0","0","1","0","0","1","1","0","1","1","0","0","0","0","5","2","3","3","5","4","4","4","2","4","774306025401749506","张","276","","","","","","","","","","","","","","","","","","","","","","","","","","","","","","","","","","","","","","","",""
"677","<p style=""color:white; font-size: 35px;"">廉正</p>","i","categorize-html","127","255387","0.0-6.0-1.0-8.0-1.9","3","2","2","3","2","2","2","2","2","2","3","2","2","3","3","2","3","2","3","2","5","4","5","4","4","3","3","4","4","1","0","0","1","0","0","1","1","0","1","1","0","0","0","0","5","2","3","3","5","4","4","4","2","4","774306025401749506","张","276","","","","","","","","","","","","","","","","","","","true","14","4","moral","677","positive","廉正","","","","","","","","","","","","","","",""
"null","","null","html-keyboard-response","128","255637","0.0-6.0-1.0-8.0-0.10","3","2","2","3","2","2","2","2","2","2","3","2","2","3","3","2","3","2","3","2","5","4","5","4","4","3","3","4","4","1","0","0","1","0","0","1","1","0","1","1","0","0","0","0","5","2","3","3","5","4","4","4","2","4","774306025401749506","张","276","","","","","","","","","","","","","","","","","","","","","","","","","","","","","","","","","","","","","","","",""
"691","<p style=""color:rgb(150, 250, 100); font-size: 35px;"">本人</p>","i","categorize-html","129","256328","0.0-6.0-1.0-8.0-1.10","3","2","2","3","2","2","2","2","2","2","3","2","2","3","3","2","3","2","3","2","5","4","5","4","4","3","3","4","4","1","0","0","1","0","0","1","1","0","1","1","0","0","0","0","5","2","3","3","5","4","4","4","2","4","774306025401749506","张","276","","","","","","","","","","","","","","","","","","","true","14","4","moral","691","self","本人","","","","","","","","","","","","","","",""
"null","","null","html-keyboard-response","130","256580","0.0-6.0-1.0-8.0-0.11","3","2","2","3","2","2","2","2","2","2","3","2","2","3","3","2","3","2","3","2","5","4","5","4","4","3","3","4","4","1","0","0","1","0","0","1","1","0","1","1","0","0","0","0","5","2","3","3","5","4","4","4","2","4","774306025401749506","张","276","","","","","","","","","","","","","","","","","","","","","","","","","","","","","","","","","","","","","","","",""
"751","<p style=""color:white; font-size: 35px;"">小人</p>","e","categorize-html","131","257331","0.0-6.0-1.0-8.0-1.11","3","2","2","3","2","2","2","2","2","2","3","2","2","3","3","2","3","2","3","2","5","4","5","4","4","3","3","4","4","1","0","0","1","0","0","1","1","0","1","1","0","0","0","0","5","2","3","3","5","4","4","4","2","4","774306025401749506","张","276","","","","","","","","","","","","","","","","","","","true","14","4","moral","751","negative","小人","","","","","","","","","","","","","","",""
"null","","null","html-keyboard-response","132","257582","0.0-6.0-1.0-8.0-0.12","3","2","2","3","2","2","2","2","2","2","3","2","2","3","3","2","3","2","3","2","5","4","5","4","4","3","3","4","4","1","0","0","1","0","0","1","1","0","1","1","0","0","0","0","5","2","3","3","5","4","4","4","2","4","774306025401749506","张","276","","","","","","","","","","","","","","","","","","","","","","","","","","","","","","","","","","","","","","","",""
"711","<p style=""color:rgb(150, 250, 100); font-size: 35px;"">我</p>","i","categorize-html","133","258293","0.0-6.0-1.0-8.0-1.12","3","2","2","3","2","2","2","2","2","2","3","2","2","3","3","2","3","2","3","2","5","4","5","4","4","3","3","4","4","1","0","0","1","0","0","1","1","0","1","1","0","0","0","0","5","2","3","3","5","4","4","4","2","4","774306025401749506","张","276","","","","","","","","","","","","","","","","","","","true","14","4","moral","711","self","我","","","","","","","","","","","","","","",""
"null","","null","html-keyboard-response","134","258543","0.0-6.0-1.0-8.0-0.13","3","2","2","3","2","2","2","2","2","2","3","2","2","3","3","2","3","2","3","2","5","4","5","4","4","3","3","4","4","1","0","0","1","0","0","1","1","0","1","1","0","0","0","0","5","2","3","3","5","4","4","4","2","4","774306025401749506","张","276","","","","","","","","","","","","","","","","","","","","","","","","","","","","","","","","","","","","","","","",""
"1022","<p style=""color:white; font-size: 35px;"">黑心</p>","e","categorize-html","135","259566","0.0-6.0-1.0-8.0-1.13","3","2","2","3","2","2","2","2","2","2","3","2","2","3","3","2","3","2","3","2","5","4","5","4","4","3","3","4","4","1","0","0","1","0","0","1","1","0","1","1","0","0","0","0","5","2","3","3","5","4","4","4","2","4","774306025401749506","张","276","","","","","","","","","","","","","","","","","","","true","14","4","moral","1022","negative","黑心","","","","","","","","","","","","","","",""
"null","","null","html-keyboard-response","136","259817","0.0-6.0-1.0-8.0-0.14","3","2","2","3","2","2","2","2","2","2","3","2","2","3","3","2","3","2","3","2","5","4","5","4","4","3","3","4","4","1","0","0","1","0","0","1","1","0","1","1","0","0","0","0","5","2","3","3","5","4","4","4","2","4","774306025401749506","张","276","","","","","","","","","","","","","","","","","","","","","","","","","","","","","","","","","","","","","","","",""
"652","<p style=""color:rgb(150, 250, 100); font-size: 35px;"">他的</p>","e","categorize-html","137","260470","0.0-6.0-1.0-8.0-1.14","3","2","2","3","2","2","2","2","2","2","3","2","2","3","3","2","3","2","3","2","5","4","5","4","4","3","3","4","4","1","0","0","1","0","0","1","1","0","1","1","0","0","0","0","5","2","3","3","5","4","4","4","2","4","774306025401749506","张","276","","","","","","","","","","","","","","","","","","","true","14","4","moral","652","other","他的","","","","","","","","","","","","","","",""
"null","","null","html-keyboard-response","138","260721","0.0-6.0-1.0-8.0-0.15","3","2","2","3","2","2","2","2","2","2","3","2","2","3","3","2","3","2","3","2","5","4","5","4","4","3","3","4","4","1","0","0","1","0","0","1","1","0","1","1","0","0","0","0","5","2","3","3","5","4","4","4","2","4","774306025401749506","张","276","","","","","","","","","","","","","","","","","","","","","","","","","","","","","","","","","","","","","","","",""
"1159","<p style=""color:white; font-size: 35px;"">君子</p>","i","categorize-html","139","261880","0.0-6.0-1.0-8.0-1.15","3","2","2","3","2","2","2","2","2","2","3","2","2","3","3","2","3","2","3","2","5","4","5","4","4","3","3","4","4","1","0","0","1","0","0","1","1","0","1","1","0","0","0","0","5","2","3","3","5","4","4","4","2","4","774306025401749506","张","276","","","","","","","","","","","","","","","","","","","true","14","4","moral","1159","positive","君子","","","","","","","","","","","","","","",""
"null","","null","html-keyboard-response","140","262130","0.0-6.0-1.0-8.0-0.16","3","2","2","3","2","2","2","2","2","2","3","2","2","3","3","2","3","2","3","2","5","4","5","4","4","3","3","4","4","1","0","0","1","0","0","1","1","0","1","1","0","0","0","0","5","2","3","3","5","4","4","4","2","4","774306025401749506","张","276","","","","","","","","","","","","","","","","","","","","","","","","","","","","","","","","","","","","","","","",""
"827","<p style=""color:rgb(150, 250, 100); font-size: 35px;"">自己的</p>","i","categorize-html","141","262958","0.0-6.0-1.0-8.0-1.16","3","2","2","3","2","2","2","2","2","2","3","2","2","3","3","2","3","2","3","2","5","4","5","4","4","3","3","4","4","1","0","0","1","0","0","1","1","0","1","1","0","0","0","0","5","2","3","3","5","4","4","4","2","4","774306025401749506","张","276","","","","","","","","","","","","","","","","","","","true","14","4","moral","827","self","自己的","","","","","","","","","","","","","","",""
"null","","null","html-keyboard-response","142","263209","0.0-6.0-1.0-8.0-0.17","3","2","2","3","2","2","2","2","2","2","3","2","2","3","3","2","3","2","3","2","5","4","5","4","4","3","3","4","4","1","0","0","1","0","0","1","1","0","1","1","0","0","0","0","5","2","3","3","5","4","4","4","2","4","774306025401749506","张","276","","","","","","","","","","","","","","","","","","","","","","","","","","","","","","","","","","","","","","","",""
"699","<p style=""color:white; font-size: 35px;"">缺德</p>","e","categorize-html","143","263909","0.0-6.0-1.0-8.0-1.17","3","2","2","3","2","2","2","2","2","2","3","2","2","3","3","2","3","2","3","2","5","4","5","4","4","3","3","4","4","1","0","0","1","0","0","1","1","0","1","1","0","0","0","0","5","2","3","3","5","4","4","4","2","4","774306025401749506","张","276","","","","","","","","","","","","","","","","","","","true","14","4","moral","699","negative","缺德","","","","","","","","","","","","","","",""
"null","","null","html-keyboard-response","144","264159","0.0-6.0-1.0-8.0-0.18","3","2","2","3","2","2","2","2","2","2","3","2","2","3","3","2","3","2","3","2","5","4","5","4","4","3","3","4","4","1","0","0","1","0","0","1","1","0","1","1","0","0","0","0","5","2","3","3","5","4","4","4","2","4","774306025401749506","张","276","","","","","","","","","","","","","","","","","","","","","","","","","","","","","","","","","","","","","","","",""
"689","<p style=""color:rgb(150, 250, 100); font-size: 35px;"">他</p>","e","categorize-html","145","264848","0.0-6.0-1.0-8.0-1.18","3","2","2","3","2","2","2","2","2","2","3","2","2","3","3","2","3","2","3","2","5","4","5","4","4","3","3","4","4","1","0","0","1","0","0","1","1","0","1","1","0","0","0","0","5","2","3","3","5","4","4","4","2","4","774306025401749506","张","276","","","","","","","","","","","","","","","","","","","true","14","4","moral","689","other","他","","","","","","","","","","","","","","",""
"null","","null","html-keyboard-response","146","265100","0.0-6.0-1.0-8.0-0.19","3","2","2","3","2","2","2","2","2","2","3","2","2","3","3","2","3","2","3","2","5","4","5","4","4","3","3","4","4","1","0","0","1","0","0","1","1","0","1","1","0","0","0","0","5","2","3","3","5","4","4","4","2","4","774306025401749506","张","276","","","","","","","","","","","","","","","","","","","","","","","","","","","","","","","","","","","","","","","",""
"618","<p style=""color:white; font-size: 35px;"">正直</p>","i","categorize-html","147","265718","0.0-6.0-1.0-8.0-1.19","3","2","2","3","2","2","2","2","2","2","3","2","2","3","3","2","3","2","3","2","5","4","5","4","4","3","3","4","4","1","0","0","1","0","0","1","1","0","1","1","0","0","0","0","5","2","3","3","5","4","4","4","2","4","774306025401749506","张","276","","","","","","","","","","","","","","","","","","","true","14","4","moral","618","positive","正直","","","","","","","","","","","","","","",""
"null","","null","html-keyboard-response","148","265968","0.0-6.0-1.0-8.0-0.20","3","2","2","3","2","2","2","2","2","2","3","2","2","3","3","2","3","2","3","2","5","4","5","4","4","3","3","4","4","1","0","0","1","0","0","1","1","0","1","1","0","0","0","0","5","2","3","3","5","4","4","4","2","4","774306025401749506","张","276","","","","","","","","","","","","","","","","","","","","","","","","","","","","","","","","","","","","","","","",""
"531","<p style=""color:rgb(150, 250, 100); font-size: 35px;"">我的</p>","i","categorize-html","149","266501","0.0-6.0-1.0-8.0-1.20","3","2","2","3","2","2","2","2","2","2","3","2","2","3","3","2","3","2","3","2","5","4","5","4","4","3","3","4","4","1","0","0","1","0","0","1","1","0","1","1","0","0","0","0","5","2","3","3","5","4","4","4","2","4","774306025401749506","张","276","","","","","","","","","","","","","","","","","","","true","14","4","moral","531","self","我的","","","","","","","","","","","","","","",""
"null","","null","html-keyboard-response","150","266751","0.0-6.0-1.0-8.0-0.21","3","2","2","3","2","2","2","2","2","2","3","2","2","3","3","2","3","2","3","2","5","4","5","4","4","3","3","4","4","1","0","0","1","0","0","1","1","0","1","1","0","0","0","0","5","2","3","3","5","4","4","4","2","4","774306025401749506","张","276","","","","","","","","","","","","","","","","","","","","","","","","","","","","","","","","","","","","","","","",""
"558","<p style=""color:white; font-size: 35px;"">高尚</p>","i","categorize-html","151","267310","0.0-6.0-1.0-8.0-1.21","3","2","2","3","2","2","2","2","2","2","3","2","2","3","3","2","3","2","3","2","5","4","5","4","4","3","3","4","4","1","0","0","1","0","0","1","1","0","1","1","0","0","0","0","5","2","3","3","5","4","4","4","2","4","774306025401749506","张","276","","","","","","","","","","","","","","","","","","","true","14","4","moral","558","positive","高尚","","","","","","","","","","","","","","",""
"null","","null","html-keyboard-response","152","267561","0.0-6.0-1.0-8.0-0.22","3","2","2","3","2","2","2","2","2","2","3","2","2","3","3","2","3","2","3","2","5","4","5","4","4","3","3","4","4","1","0","0","1","0","0","1","1","0","1","1","0","0","0","0","5","2","3","3","5","4","4","4","2","4","774306025401749506","张","276","","","","","","","","","","","","","","","","","","","","","","","","","","","","","","","","","","","","","","","",""
"575","<p style=""color:rgb(150, 250, 100); font-size: 35px;"">别人</p>","e","categorize-html","153","268136","0.0-6.0-1.0-8.0-1.22","3","2","2","3","2","2","2","2","2","2","3","2","2","3","3","2","3","2","3","2","5","4","5","4","4","3","3","4","4","1","0","0","1","0","0","1","1","0","1","1","0","0","0","0","5","2","3","3","5","4","4","4","2","4","774306025401749506","张","276","","","","","","","","","","","","","","","","","","","true","14","4","moral","575","other","别人","","","","","","","","","","","","","","",""
"null","","null","html-keyboard-response","154","268387","0.0-6.0-1.0-8.0-0.23","3","2","2","3","2","2","2","2","2","2","3","2","2","3","3","2","3","2","3","2","5","4","5","4","4","3","3","4","4","1","0","0","1","0","0","1","1","0","1","1","0","0","0","0","5","2","3","3","5","4","4","4","2","4","774306025401749506","张","276","","","","","","","","","","","","","","","","","","","","","","","","","","","","","","","","","","","","","","","",""
"609","<p style=""color:white; font-size: 35px;"">不仁</p>","e","categorize-html","155","268996","0.0-6.0-1.0-8.0-1.23","3","2","2","3","2","2","2","2","2","2","3","2","2","3","3","2","3","2","3","2","5","4","5","4","4","3","3","4","4","1","0","0","1","0","0","1","1","0","1","1","0","0","0","0","5","2","3","3","5","4","4","4","2","4","774306025401749506","张","276","","","","","","","","","","","","","","","","","","","true","14","4","moral","609","negative","不仁","","","","","","","","","","","","","","",""
"null","","null","html-keyboard-response","156","269248","0.0-6.0-1.0-8.0-0.24","3","2","2","3","2","2","2","2","2","2","3","2","2","3","3","2","3","2","3","2","5","4","5","4","4","3","3","4","4","1","0","0","1","0","0","1","1","0","1","1","0","0","0","0","5","2","3","3","5","4","4","4","2","4","774306025401749506","张","276","","","","","","","","","","","","","","","","","","","","","","","","","","","","","","","","","","","","","","","",""
"799","<p style=""color:rgb(150, 250, 100); font-size: 35px;"">自己</p>","i","categorize-html","157","270047","0.0-6.0-1.0-8.0-1.24","3","2","2","3","2","2","2","2","2","2","3","2","2","3","3","2","3","2","3","2","5","4","5","4","4","3","3","4","4","1","0","0","1","0","0","1","1","0","1","1","0","0","0","0","5","2","3","3","5","4","4","4","2","4","774306025401749506","张","276","","","","","","","","","","","","","","","","","","","true","14","4","moral","799","self","自己","","","","","","","","","","","","","","",""
"null","","null","html-keyboard-response","158","270299","0.0-6.0-1.0-8.0-0.25","3","2","2","3","2","2","2","2","2","2","3","2","2","3","3","2","3","2","3","2","5","4","5","4","4","3","3","4","4","1","0","0","1","0","0","1","1","0","1","1","0","0","0","0","5","2","3","3","5","4","4","4","2","4","774306025401749506","张","276","","","","","","","","","","","","","","","","","","","","","","","","","","","","","","","","","","","","","","","",""
"792","<p style=""color:white; font-size: 35px;"">卑鄙</p>","e","categorize-html","159","271091","0.0-6.0-1.0-8.0-1.25","3","2","2","3","2","2","2","2","2","2","3","2","2","3","3","2","3","2","3","2","5","4","5","4","4","3","3","4","4","1","0","0","1","0","0","1","1","0","1","1","0","0","0","0","5","2","3","3","5","4","4","4","2","4","774306025401749506","张","276","","","","","","","","","","","","","","","","","","","true","14","4","moral","792","negative","卑鄙","","","","","","","","","","","","","","",""
"null","","null","html-keyboard-response","160","271343","0.0-6.0-1.0-8.0-0.26","3","2","2","3","2","2","2","2","2","2","3","2","2","3","3","2","3","2","3","2","5","4","5","4","4","3","3","4","4","1","0","0","1","0","0","1","1","0","1","1","0","0","0","0","5","2","3","3","5","4","4","4","2","4","774306025401749506","张","276","","","","","","","","","","","","","","","","","","","","","","","","","","","","","","","","","","","","","","","",""
"612","<p style=""color:rgb(150, 250, 100); font-size: 35px;"">他的</p>","e","categorize-html","161","271955","0.0-6.0-1.0-8.0-1.26","3","2","2","3","2","2","2","2","2","2","3","2","2","3","3","2","3","2","3","2","5","4","5","4","4","3","3","4","4","1","0","0","1","0","0","1","1","0","1","1","0","0","0","0","5","2","3","3","5","4","4","4","2","4","774306025401749506","张","276","","","","","","","","","","","","","","","","","","","true","14","4","moral","612","other","他的","","","","","","","","","","","","","","",""
"null","","null","html-keyboard-response","162","272206","0.0-6.0-1.0-8.0-0.27","3","2","2","3","2","2","2","2","2","2","3","2","2","3","3","2","3","2","3","2","5","4","5","4","4","3","3","4","4","1","0","0","1","0","0","1","1","0","1","1","0","0","0","0","5","2","3","3","5","4","4","4","2","4","774306025401749506","张","276","","","","","","","","","","","","","","","","","","","","","","","","","","","","","","","","","","","","","","","",""
"810","<p style=""color:white; font-size: 35px;"">诚信</p>","i","categorize-html","163","273016","0.0-6.0-1.0-8.0-1.27","3","2","2","3","2","2","2","2","2","2","3","2","2","3","3","2","3","2","3","2","5","4","5","4","4","3","3","4","4","1","0","0","1","0","0","1","1","0","1","1","0","0","0","0","5","2","3","3","5","4","4","4","2","4","774306025401749506","张","276","","","","","","","","","","","","","","","","","","","true","14","4","moral","810","positive","诚信","","","","","","","","","","","","","","",""
"null","","null","html-keyboard-response","164","273267","0.0-6.0-1.0-8.0-0.28","3","2","2","3","2","2","2","2","2","2","3","2","2","3","3","2","3","2","3","2","5","4","5","4","4","3","3","4","4","1","0","0","1","0","0","1","1","0","1","1","0","0","0","0","5","2","3","3","5","4","4","4","2","4","774306025401749506","张","276","","","","","","","","","","","","","","","","","","","","","","","","","","","","","","","","","","","","","","","",""
"701","<p style=""color:rgb(150, 250, 100); font-size: 35px;"">自己的</p>","i","categorize-html","165","273969","0.0-6.0-1.0-8.0-1.28","3","2","2","3","2","2","2","2","2","2","3","2","2","3","3","2","3","2","3","2","5","4","5","4","4","3","3","4","4","1","0","0","1","0","0","1","1","0","1","1","0","0","0","0","5","2","3","3","5","4","4","4","2","4","774306025401749506","张","276","","","","","","","","","","","","","","","","","","","true","14","4","moral","701","self","自己的","","","","","","","","","","","","","","",""
"null","","null","html-keyboard-response","166","274221","0.0-6.0-1.0-8.0-0.29","3","2","2","3","2","2","2","2","2","2","3","2","2","3","3","2","3","2","3","2","5","4","5","4","4","3","3","4","4","1","0","0","1","0","0","1","1","0","1","1","0","0","0","0","5","2","3","3","5","4","4","4","2","4","774306025401749506","张","276","","","","","","","","","","","","","","","","","","","","","","","","","","","","","","","","","","","","","","","",""
"604","<p style=""color:white; font-size: 35px;"">不孝</p>","e","categorize-html","167","274825","0.0-6.0-1.0-8.0-1.29","3","2","2","3","2","2","2","2","2","2","3","2","2","3","3","2","3","2","3","2","5","4","5","4","4","3","3","4","4","1","0","0","1","0","0","1","1","0","1","1","0","0","0","0","5","2","3","3","5","4","4","4","2","4","774306025401749506","张","276","","","","","","","","","","","","","","","","","","","true","14","4","moral","604","negative","不孝","","","","","","","","","","","","","","",""
"null","","null","html-keyboard-response","168","275076","0.0-6.0-1.0-8.0-0.30","3","2","2","3","2","2","2","2","2","2","3","2","2","3","3","2","3","2","3","2","5","4","5","4","4","3","3","4","4","1","0","0","1","0","0","1","1","0","1","1","0","0","0","0","5","2","3","3","5","4","4","4","2","4","774306025401749506","张","276","","","","","","","","","","","","","","","","","","","","","","","","","","","","","","","","","","","","","","","",""
"465","<p style=""color:rgb(150, 250, 100); font-size: 35px;"">他人的</p>","e","categorize-html","169","275542","0.0-6.0-1.0-8.0-1.30","3","2","2","3","2","2","2","2","2","2","3","2","2","3","3","2","3","2","3","2","5","4","5","4","4","3","3","4","4","1","0","0","1","0","0","1","1","0","1","1","0","0","0","0","5","2","3","3","5","4","4","4","2","4","774306025401749506","张","276","","","","","","","","","","","","","","","","","","","true","14","4","moral","465","other","他人的","","","","","","","","","","","","","","",""
"null","","null","html-keyboard-response","170","275794","0.0-6.0-1.0-8.0-0.31","3","2","2","3","2","2","2","2","2","2","3","2","2","3","3","2","3","2","3","2","5","4","5","4","4","3","3","4","4","1","0","0","1","0","0","1","1","0","1","1","0","0","0","0","5","2","3","3","5","4","4","4","2","4","774306025401749506","张","276","","","","","","","","","","","","","","","","","","","","","","","","","","","","","","","","","","","","","","","",""
"604","<p style=""color:white; font-size: 35px;"">善良</p>","i","categorize-html","171","276398","0.0-6.0-1.0-8.0-1.31","3","2","2","3","2","2","2","2","2","2","3","2","2","3","3","2","3","2","3","2","5","4","5","4","4","3","3","4","4","1","0","0","1","0","0","1","1","0","1","1","0","0","0","0","5","2","3","3","5","4","4","4","2","4","774306025401749506","张","276","","","","","","","","","","","","","","","","","","","true","14","4","moral","604","positive","善良","","","","","","","","","","","","","","",""
"null","","null","html-keyboard-response","172","276650","0.0-6.0-1.0-8.0-0.32","3","2","2","3","2","2","2","2","2","2","3","2","2","3","3","2","3","2","3","2","5","4","5","4","4","3","3","4","4","1","0","0","1","0","0","1","1","0","1","1","0","0","0","0","5","2","3","3","5","4","4","4","2","4","774306025401749506","张","276","","","","","","","","","","","","","","","","","","","","","","","","","","","","","","","","","","","","","","","",""
"652","<p style=""color:rgb(150, 250, 100); font-size: 35px;"">本人的</p>","i","categorize-html","173","277302","0.0-6.0-1.0-8.0-1.32","3","2","2","3","2","2","2","2","2","2","3","2","2","3","3","2","3","2","3","2","5","4","5","4","4","3","3","4","4","1","0","0","1","0","0","1","1","0","1","1","0","0","0","0","5","2","3","3","5","4","4","4","2","4","774306025401749506","张","276","","","","","","","","","","","","","","","","","","","true","14","4","moral","652","self","本人的","","","","","","","","","","","","","","",""
"null","","null","html-keyboard-response","174","277553","0.0-6.0-1.0-8.0-0.33","3","2","2","3","2","2","2","2","2","2","3","2","2","3","3","2","3","2","3","2","5","4","5","4","4","3","3","4","4","1","0","0","1","0","0","1","1","0","1","1","0","0","0","0","5","2","3","3","5","4","4","4","2","4","774306025401749506","张","276","","","","","","","","","","","","","","","","","","","","","","","","","","","","","","","","","","","","","","","",""
"649","<p style=""color:white; font-size: 35px;"">卑鄙</p>","e","categorize-html","175","278203","0.0-6.0-1.0-8.0-1.33","3","2","2","3","2","2","2","2","2","2","3","2","2","3","3","2","3","2","3","2","5","4","5","4","4","3","3","4","4","1","0","0","1","0","0","1","1","0","1","1","0","0","0","0","5","2","3","3","5","4","4","4","2","4","774306025401749506","张","276","","","","","","","","","","","","","","","","","","","true","14","4","moral","649","negative","卑鄙","","","","","","","","","","","","","","",""
"null","","null","html-keyboard-response","176","278454","0.0-6.0-1.0-8.0-0.34","3","2","2","3","2","2","2","2","2","2","3","2","2","3","3","2","3","2","3","2","5","4","5","4","4","3","3","4","4","1","0","0","1","0","0","1","1","0","1","1","0","0","0","0","5","2","3","3","5","4","4","4","2","4","774306025401749506","张","276","","","","","","","","","","","","","","","","","","","","","","","","","","","","","","","","","","","","","","","",""
"664","<p style=""color:rgb(150, 250, 100); font-size: 35px;"">别人</p>","e","categorize-html","177","279119","0.0-6.0-1.0-8.0-1.34","3","2","2","3","2","2","2","2","2","2","3","2","2","3","3","2","3","2","3","2","5","4","5","4","4","3","3","4","4","1","0","0","1","0","0","1","1","0","1","1","0","0","0","0","5","2","3","3","5","4","4","4","2","4","774306025401749506","张","276","","","","","","","","","","","","","","","","","","","true","14","4","moral","664","other","别人","","","","","","","","","","","","","","",""
"null","","null","html-keyboard-response","178","279371","0.0-6.0-1.0-8.0-0.35","3","2","2","3","2","2","2","2","2","2","3","2","2","3","3","2","3","2","3","2","5","4","5","4","4","3","3","4","4","1","0","0","1","0","0","1","1","0","1","1","0","0","0","0","5","2","3","3","5","4","4","4","2","4","774306025401749506","张","276","","","","","","","","","","","","","","","","","","","","","","","","","","","","","","","","","","","","","","","",""
"768","<p style=""color:white; font-size: 35px;"">正直</p>","i","categorize-html","179","280139","0.0-6.0-1.0-8.0-1.35","3","2","2","3","2","2","2","2","2","2","3","2","2","3","3","2","3","2","3","2","5","4","5","4","4","3","3","4","4","1","0","0","1","0","0","1","1","0","1","1","0","0","0","0","5","2","3","3","5","4","4","4","2","4","774306025401749506","张","276","","","","","","","","","","","","","","","","","","","true","14","4","moral","768","positive","正直","","","","","","","","","","","","","","",""
"null","","null","html-keyboard-response","180","280390","0.0-6.0-1.0-8.0-0.36","3","2","2","3","2","2","2","2","2","2","3","2","2","3","3","2","3","2","3","2","5","4","5","4","4","3","3","4","4","1","0","0","1","0","0","1","1","0","1","1","0","0","0","0","5","2","3","3","5","4","4","4","2","4","774306025401749506","张","276","","","","","","","","","","","","","","","","","","","","","","","","","","","","","","","","","","","","","","","",""
"733","<p style=""color:rgb(150, 250, 100); font-size: 35px;"">别人的</p>","e","categorize-html","181","281124","0.0-6.0-1.0-8.0-1.36","3","2","2","3","2","2","2","2","2","2","3","2","2","3","3","2","3","2","3","2","5","4","5","4","4","3","3","4","4","1","0","0","1","0","0","1","1","0","1","1","0","0","0","0","5","2","3","3","5","4","4","4","2","4","774306025401749506","张","276","","","","","","","","","","","","","","","","","","","true","14","4","moral","733","other","别人的","","","","","","","","","","","","","","",""
"null","","null","html-keyboard-response","182","281375","0.0-6.0-1.0-8.0-0.37","3","2","2","3","2","2","2","2","2","2","3","2","2","3","3","2","3","2","3","2","5","4","5","4","4","3","3","4","4","1","0","0","1","0","0","1","1","0","1","1","0","0","0","0","5","2","3","3","5","4","4","4","2","4","774306025401749506","张","276","","","","","","","","","","","","","","","","","","","","","","","","","","","","","","","","","","","","","","","",""
"974","<p style=""color:white; font-size: 35px;"">高尚</p>","i","categorize-html","183","282350","0.0-6.0-1.0-8.0-1.37","3","2","2","3","2","2","2","2","2","2","3","2","2","3","3","2","3","2","3","2","5","4","5","4","4","3","3","4","4","1","0","0","1","0","0","1","1","0","1","1","0","0","0","0","5","2","3","3","5","4","4","4","2","4","774306025401749506","张","276","","","","","","","","","","","","","","","","","","","true","14","4","moral","974","positive","高尚","","","","","","","","","","","","","","",""
"null","","null","html-keyboard-response","184","282600","0.0-6.0-1.0-8.0-0.38","3","2","2","3","2","2","2","2","2","2","3","2","2","3","3","2","3","2","3","2","5","4","5","4","4","3","3","4","4","1","0","0","1","0","0","1","1","0","1","1","0","0","0","0","5","2","3","3","5","4","4","4","2","4","774306025401749506","张","276","","","","","","","","","","","","","","","","","","","","","","","","","","","","","","","","","","","","","","","",""
"829","<p style=""color:rgb(150, 250, 100); font-size: 35px;"">我</p>","i","categorize-html","185","283429","0.0-6.0-1.0-8.0-1.38","3","2","2","3","2","2","2","2","2","2","3","2","2","3","3","2","3","2","3","2","5","4","5","4","4","3","3","4","4","1","0","0","1","0","0","1","1","0","1","1","0","0","0","0","5","2","3","3","5","4","4","4","2","4","774306025401749506","张","276","","","","","","","","","","","","","","","","","","","true","14","4","moral","829","self","我","","","","","","","","","","","","","","",""
"null","","null","html-keyboard-response","186","283681","0.0-6.0-1.0-8.0-0.39","3","2","2","3","2","2","2","2","2","2","3","2","2","3","3","2","3","2","3","2","5","4","5","4","4","3","3","4","4","1","0","0","1","0","0","1","1","0","1","1","0","0","0","0","5","2","3","3","5","4","4","4","2","4","774306025401749506","张","276","","","","","","","","","","","","","","","","","","","","","","","","","","","","","","","","","","","","","","","",""
"978","<p style=""color:white; font-size: 35px;"">黑心</p>","e","categorize-html","187","284659","0.0-6.0-1.0-8.0-1.39","3","2","2","3","2","2","2","2","2","2","3","2","2","3","3","2","3","2","3","2","5","4","5","4","4","3","3","4","4","1","0","0","1","0","0","1","1","0","1","1","0","0","0","0","5","2","3","3","5","4","4","4","2","4","774306025401749506","张","276","","","","","","","","","","","","","","","","","","","true","14","4","moral","978","negative","黑心","","","","","","","","","","","","","","",""
"null","","null","html-keyboard-response","188","284910","0.0-6.0-1.0-8.0-0.40","3","2","2","3","2","2","2","2","2","2","3","2","2","3","3","2","3","2","3","2","5","4","5","4","4","3","3","4","4","1","0","0","1","0","0","1","1","0","1","1","0","0","0","0","5","2","3","3","5","4","4","4","2","4","774306025401749506","张","276","","","","","","","","","","","","","","","","","","","","","","","","","","","","","","","","","","","","","","","",""
"718","<p style=""color:rgb(150, 250, 100); font-size: 35px;"">本人</p>","i","categorize-html","189","285628","0.0-6.0-1.0-8.0-1.40","3","2","2","3","2","2","2","2","2","2","3","2","2","3","3","2","3","2","3","2","5","4","5","4","4","3","3","4","4","1","0","0","1","0","0","1","1","0","1","1","0","0","0","0","5","2","3","3","5","4","4","4","2","4","774306025401749506","张","276","","","","","","","","","","","","","","","","","","","true","14","4","moral","718","self","本人","","","","","","","","","","","","","","",""
"null","","null","html-keyboard-response","190","285879","0.0-6.0-1.0-8.0-0.41","3","2","2","3","2","2","2","2","2","2","3","2","2","3","3","2","3","2","3","2","5","4","5","4","4","3","3","4","4","1","0","0","1","0","0","1","1","0","1","1","0","0","0","0","5","2","3","3","5","4","4","4","2","4","774306025401749506","张","276","","","","","","","","","","","","","","","","","","","","","","","","","","","","","","","","","","","","","","","",""
"664","<p style=""color:white; font-size: 35px;"">君子</p>","i","categorize-html","191","286544","0.0-6.0-1.0-8.0-1.41","3","2","2","3","2","2","2","2","2","2","3","2","2","3","3","2","3","2","3","2","5","4","5","4","4","3","3","4","4","1","0","0","1","0","0","1","1","0","1","1","0","0","0","0","5","2","3","3","5","4","4","4","2","4","774306025401749506","张","276","","","","","","","","","","","","","","","","","","","true","14","4","moral","664","positive","君子","","","","","","","","","","","","","","",""
"null","","null","html-keyboard-response","192","286796","0.0-6.0-1.0-8.0-0.42","3","2","2","3","2","2","2","2","2","2","3","2","2","3","3","2","3","2","3","2","5","4","5","4","4","3","3","4","4","1","0","0","1","0","0","1","1","0","1","1","0","0","0","0","5","2","3","3","5","4","4","4","2","4","774306025401749506","张","276","","","","","","","","","","","","","","","","","","","","","","","","","","","","","","","","","","","","","","","",""
"959","<p style=""color:rgb(150, 250, 100); font-size: 35px;"">他人的</p>","e","categorize-html","193","287755","0.0-6.0-1.0-8.0-1.42","3","2","2","3","2","2","2","2","2","2","3","2","2","3","3","2","3","2","3","2","5","4","5","4","4","3","3","4","4","1","0","0","1","0","0","1","1","0","1","1","0","0","0","0","5","2","3","3","5","4","4","4","2","4","774306025401749506","张","276","","","","","","","","","","","","","","","","","","","true","14","4","moral","959","other","他人的","","","","","","","","","","","","","","",""
"null","","null","html-keyboard-response","194","288006","0.0-6.0-1.0-8.0-0.43","3","2","2","3","2","2","2","2","2","2","3","2","2","3","3","2","3","2","3","2","5","4","5","4","4","3","3","4","4","1","0","0","1","0","0","1","1","0","1","1","0","0","0","0","5","2","3","3","5","4","4","4","2","4","774306025401749506","张","276","","","","","","","","","","","","","","","","","","","","","","","","","","","","","","","","","","","","","","","",""
"931","<p style=""color:white; font-size: 35px;"">不孝</p>","e","categorize-html","195","288939","0.0-6.0-1.0-8.0-1.43","3","2","2","3","2","2","2","2","2","2","3","2","2","3","3","2","3","2","3","2","5","4","5","4","4","3","3","4","4","1","0","0","1","0","0","1","1","0","1","1","0","0","0","0","5","2","3","3","5","4","4","4","2","4","774306025401749506","张","276","","","","","","","","","","","","","","","","","","","true","14","4","moral","931","negative","不孝","","","","","","","","","","","","","","",""
"null","","null","html-keyboard-response","196","289191","0.0-6.0-1.0-8.0-0.44","3","2","2","3","2","2","2","2","2","2","3","2","2","3","3","2","3","2","3","2","5","4","5","4","4","3","3","4","4","1","0","0","1","0","0","1","1","0","1","1","0","0","0","0","5","2","3","3","5","4","4","4","2","4","774306025401749506","张","276","","","","","","","","","","","","","","","","","","","","","","","","","","","","","","","","","","","","","","","",""
"555","<p style=""color:rgb(150, 250, 100); font-size: 35px;"">别人的</p>","e","categorize-html","197","289746","0.0-6.0-1.0-8.0-1.44","3","2","2","3","2","2","2","2","2","2","3","2","2","3","3","2","3","2","3","2","5","4","5","4","4","3","3","4","4","1","0","0","1","0","0","1","1","0","1","1","0","0","0","0","5","2","3","3","5","4","4","4","2","4","774306025401749506","张","276","","","","","","","","","","","","","","","","","","","true","14","4","moral","555","other","别人的","","","","","","","","","","","","","","",""
