"rt","stimulus","response","trial_type","trial_index","time_elapsed","internal_node_id","ses_1","ses_2","ses_3","ses_4","ses_5","ses_6","ses_7","ses_8","ses_9","ses_10","coreself_1","coreself_2","coreself_3","coreself_4","coreself_5","coreself_6","coreself_7","coreself_8","coreself_9","coreself_10","SGPS_1","SGPS_2","SGPS_3","SGPS_4","SGPS_5","SGPS_6","SGPS_7","SGPS_8","SGPS_9","NPI1","NPI2","NPI3","NPI4","NPI5","NPI6","NPI7","NPI8","NPI9","NPI10","NPI11","NPI12","NPI13","NPI14","NPI15","hsns_1","hsns_2","hsns_3","hsns_4","hsns_5","hsns_6","hsns_7","hsns_8","hsns_9","hsns_10","subj_idx","friend_name","ParticipantID","value","success","user_agent","responses","item_order","radio_event_ids","radio_event_times","key_event_times","mouse_event_times","straightlining","zigzagging","honeypot","timeout","failed_images","failed_audio","failed_video","version_attrib","version_target","correct","IAT","screen_id","task_id","RT","condition","word","varname","summary","version_attrib2","version_target2","time_stamp","view_history","response_type","key_press","avg_frame_time","center_x","center_y","correct_response","identity","Image","question_order"
"1907","
   <p><div style = ""color: white;font-size:25px;"">您好，欢迎参加本次实验。</div> </p>
   <p><div style = ""color: white;font-size:25px;"">为充分保障您的权利，请确保您已经知晓并同意《参与实验同意书》以及《数据公开知情同意书》。</div></p>
   <p><div style = ""color: white;font-size:25px;"">如果您未见过上述内容，请咨询实验员。</div></p>
   <p><div style = ""color: white;font-size:25px;"">如果您选择继续实验，则表示您已经清楚两份知情同意书的内容并同意。</div></p>
   <p><div style = ""color: red;font-size:30px;"">请确保您记得day0的实验编号，您将在本次实验输入该编号，若您忘记，请咨询实验员后作答。</div></p>
   <p> <div style = ""color: green;font-size:25px;""><按空格键至下页></div> </p>
   "," ","html-keyboard-response","0","1911","0.0-0.0","3","4","3","3","4","4","3","4","3","4","5","5","5","4","4","5","4","5","4","4","2","1","2","2","2","1","1","1","2","1","0","1","1","0","1","0","1","1","1","1","0","1","0","1","4","2","1","2","1","2","4","2","4","2","634786876431007744","吴","70","","","","","","","","","","","","","","","","","","","","","","","","","","","","","","","","","","","","","","","",""
"","","","call-function","1","1912","0.0-1.0-0.0","3","4","3","3","4","4","3","4","3","4","5","5","5","4","4","5","4","5","4","4","2","1","2","2","2","1","1","1","2","1","0","1","1","0","1","0","1","1","1","1","0","1","0","1","4","2","1","2","1","2","4","2","4","2","634786876431007744","吴","70","","","","","","","","","","","","","","","","","","","","","","","","","","","","","","","","","","","","","","","",""
"62070","","{""friend_name"":""吴"",""ParticipantID"":""70""}","survey-html-form","2","63985","0.0-1.0-1.0","3","4","3","3","4","4","3","4","3","4","5","5","5","4","4","5","4","5","4","4","2","1","2","2","2","1","1","1","2","1","0","1","1","0","1","0","1","1","1","1","0","1","0","1","4","2","1","2","1","2","4","2","4","2","634786876431007744","吴","70","","","","","","","","","","","","","","","","","","","","","","","","","","","","","","","","","","","","","","","",""
"","","","fullscreen","3","66524","0.0-2.0","3","4","3","3","4","4","3","4","3","4","5","5","5","4","4","5","4","5","4","4","2","1","2","2","2","1","1","1","2","1","0","1","1","0","1","0","1","1","1","1","0","1","0","1","4","2","1","2","1","2","4","2","4","2","634786876431007744","吴","70","","true","{}","","","","","","","","","","","","","","","","","","","","","","","","","","","","","","","","","","","","",""
"78076.89999997616","","{""Q01"":""3"",""Q02"":""4"",""Q03"":""3"",""Q04"":""3"",""Q05"":""4"",""Q06"":""4"",""Q07"":""3"",""Q08"":""4"",""Q09"":""3"",""Q10"":""4""}","survey-template","4","144609","0.0-3.0","3","4","3","3","4","4","3","4","3","4","5","5","5","4","4","5","4","5","4","4","2","1","2","2","2","1","1","1","2","1","0","1","1","0","1","0","1","1","1","1","0","1","0","1","4","2","1","2","1","2","4","2","4","2","634786876431007744","吴","70","","","","{""Q01"":""3"",""Q02"":""4"",""Q03"":""3"",""Q04"":""3"",""Q05"":""4"",""Q06"":""4"",""Q07"":""3"",""Q08"":""4"",""Q09"":""3"",""Q10"":""4""}","[0,1,2,3,4,5,6,7,8,9]","[""Q01"",""Q02"",""Q03"",""Q04"",""Q05"",""Q06"",""Q07"",""Q08"",""Q09"",""Q09"",""Q10""]","[2885.7000000476837,4303.200000047684,6151.5,7573.5,8853,10147.200000047684,12237.100000023842,13475.299999952316,15027.299999952316,15665.299999952316,16609.5]","[]","[2885.7000000476837,4303.200000047684,6151.5,7573.5,8853,10147.200000047684,12237.100000023842,13475.299999952316,14679,15027.299999952316,15665.299999952316,16230.899999976158,16609.5,77717.29999995232,78075.39999997616]","0.3","0.6666666666666666","0","","","","","","","","","","","","","","","","","","","","","","","","","","","",""
"138104","","{""Q01"":""5"",""Q02"":""5"",""Q03"":""5"",""Q04"":""4"",""Q05"":""4"",""Q06"":""5"",""Q07"":""4"",""Q08"":""5"",""Q09"":""4"",""Q10"":""4""}","survey-template","5","282720","0.0-4.0","3","4","3","3","4","4","3","4","3","4","5","5","5","4","4","5","4","5","4","4","2","1","2","2","2","1","1","1","2","1","0","1","1","0","1","0","1","1","1","1","0","1","0","1","4","2","1","2","1","2","4","2","4","2","634786876431007744","吴","70","","","","{""Q01"":""5"",""Q02"":""5"",""Q03"":""5"",""Q04"":""4"",""Q05"":""4"",""Q06"":""5"",""Q07"":""4"",""Q08"":""5"",""Q09"":""4"",""Q10"":""4""}","[0,1,2,3,4,5,6,7,8,9]","[""Q01"",""Q02"",""Q02"",""Q03"",""Q04"",""Q05"",""Q06"",""Q06"",""Q07"",""Q08"",""Q09"",""Q10""]","[4004.6999999284744,5686.399999976158,6820.399999976158,7631.399999976158,8952.399999976158,10194.399999976158,12046.600000023842,13001.699999928474,13672.399999976158,15520.299999952316,18742.699999928474,19954.699999928474]","[]","[4004.6999999284744,5686.399999976158,6820.399999976158,7631.399999976158,8952.399999976158,10194.399999976158,12046.600000023842,13001.699999928474,13672.399999976158,14684.600000023842,15520.299999952316,17910.399999976158,18742.699999928474,19566.600000023842,19954.699999928474,138102.69999992847]","0.3","0.2222222222222222","0","","","","","","","","","","","","","","","","","","","","","","","","","","","",""
"","","","preload","6","283245","0.0-5.0","3","4","3","3","4","4","3","4","3","4","5","5","5","4","4","5","4","5","4","4","2","1","2","2","2","1","1","1","2","1","0","1","1","0","1","0","1","1","1","1","0","1","0","1","4","2","1","2","1","2","4","2","4","2","634786876431007744","吴","70","","true","","","","","","","","","","","false","[]","[]","[]","","","","","","","","","","","","","","","","","","","","","","","",""
"18511","
    <h3>词语分类任务</h3>
    <p>在接下来的任务中，你需要对一系列词语进行分类。</p>
    <p>请先熟悉这些词语，这有利于你完成接下来的任务。</p>
    <table align=""center"" border=1 cellpadding=3 cellspacing=0>
    <tr> <th>类别</th> <th>词语</th> </tr>
    <tr> <td>&emsp;积极&emsp;</td> <td>&emsp;能干、全能、全才、高效、精干、天才&emsp;</td> </tr>
    <tr> <td>&emsp;消极&emsp;</td> <td>&emsp;无能、低能、废物、拙笨、愚钝、蠢笨&emsp;</td> </tr>
    <tr> <td>&emsp;自我&emsp;</td> <td>&emsp;我、我的、自己、自己的、本人、本人的&emsp;</td> </tr>
    <tr> <td>&emsp;他人&emsp;</td> <td>&emsp;他、他的、别人、别人的、他人、他人的&emsp;</td> </tr>
    </table><br/>","0","html-button-response","7","301759","0.0-6.0-0.0-0.0","3","4","3","3","4","4","3","4","3","4","5","5","5","4","4","5","4","5","4","4","2","1","2","2","2","1","1","1","2","1","0","1","1","0","1","0","1","1","1","1","0","1","0","1","4","2","1","2","1","2","4","2","4","2","634786876431007744","吴","70","","","","","","","","","","","","","","","","","1","2","","","","","","","","","","","","","","","","","","","","","",""
"7246","
    <div class=""tag-bottom"">
    <p> —— 任务1：对“他人”词和“自我”词分类 ——<p/>
    不同词语会出现在屏幕中央，类别标签将始终显示在屏幕上方<p/>   
    <span style=""color:#FFD866""><b>请根据上方标签的提示，尽可能正确并且快速地做出按键反应</b></span><p/>
    当按键错误时屏幕中会出现<span style=""color:red""> X </span>，需要按另一个键纠正才能继续<br/><p/>
    请把双手食指分别放在键盘的“E”键和“I”键上<p/>
    按<空格键>开始
    </p></div>"," ","html-keyboard-response","8","309008","0.0-6.0-0.0-1.0","3","4","3","3","4","4","3","4","3","4","5","5","5","4","4","5","4","5","4","4","2","1","2","2","2","1","1","1","2","1","0","1","1","0","1","0","1","1","1","1","0","1","0","1","4","2","1","2","1","2","4","2","4","2","634786876431007744","吴","70","","","","","","","","","","","","","","","","","","","","","","","","","","","","","","","","","","","","","","","",""
"null","","null","html-keyboard-response","9","309259","0.0-6.0-0.0-2.0-0.0","3","4","3","3","4","4","3","4","3","4","5","5","5","4","4","5","4","5","4","4","2","1","2","2","2","1","1","1","2","1","0","1","1","0","1","0","1","1","1","1","0","1","0","1","4","2","1","2","1","2","4","2","4","2","634786876431007744","吴","70","","","","","","","","","","","","","","","","","","","","","","","","","","","","","","","","","","","","","","","",""
"901","<p style=""color:rgb(150, 250, 100); font-size: 35px;"">我的</p>","i","categorize-html","10","310163","0.0-6.0-0.0-2.0-1.0","3","4","3","3","4","4","3","4","3","4","5","5","5","4","4","5","4","5","4","4","2","1","2","2","2","1","1","1","2","1","0","1","1","0","1","0","1","1","1","1","0","1","0","1","4","2","1","2","1","2","4","2","4","2","634786876431007744","吴","70","","","","","","","","","","","","","","","","","","","true","1","1","ability","901","self","我的","","","","","","","","","","","","","","",""
"null","","null","html-keyboard-response","11","310415","0.0-6.0-0.0-2.0-0.1","3","4","3","3","4","4","3","4","3","4","5","5","5","4","4","5","4","5","4","4","2","1","2","2","2","1","1","1","2","1","0","1","1","0","1","0","1","1","1","1","0","1","0","1","4","2","1","2","1","2","4","2","4","2","634786876431007744","吴","70","","","","","","","","","","","","","","","","","","","","","","","","","","","","","","","","","","","","","","","",""
"638","<p style=""color:rgb(150, 250, 100); font-size: 35px;"">他的</p>","e","categorize-html","12","311055","0.0-6.0-0.0-2.0-1.1","3","4","3","3","4","4","3","4","3","4","5","5","5","4","4","5","4","5","4","4","2","1","2","2","2","1","1","1","2","1","0","1","1","0","1","0","1","1","1","1","0","1","0","1","4","2","1","2","1","2","4","2","4","2","634786876431007744","吴","70","","","","","","","","","","","","","","","","","","","true","1","1","ability","638","other","他的","","","","","","","","","","","","","","",""
"null","","null","html-keyboard-response","13","311307","0.0-6.0-0.0-2.0-0.2","3","4","3","3","4","4","3","4","3","4","5","5","5","4","4","5","4","5","4","4","2","1","2","2","2","1","1","1","2","1","0","1","1","0","1","0","1","1","1","1","0","1","0","1","4","2","1","2","1","2","4","2","4","2","634786876431007744","吴","70","","","","","","","","","","","","","","","","","","","","","","","","","","","","","","","","","","","","","","","",""
"566","<p style=""color:rgb(150, 250, 100); font-size: 35px;"">他人</p>","e","categorize-html","14","311875","0.0-6.0-0.0-2.0-1.2","3","4","3","3","4","4","3","4","3","4","5","5","5","4","4","5","4","5","4","4","2","1","2","2","2","1","1","1","2","1","0","1","1","0","1","0","1","1","1","1","0","1","0","1","4","2","1","2","1","2","4","2","4","2","634786876431007744","吴","70","","","","","","","","","","","","","","","","","","","true","1","1","ability","566","other","他人","","","","","","","","","","","","","","",""
"null","","null","html-keyboard-response","15","312127","0.0-6.0-0.0-2.0-0.3","3","4","3","3","4","4","3","4","3","4","5","5","5","4","4","5","4","5","4","4","2","1","2","2","2","1","1","1","2","1","0","1","1","0","1","0","1","1","1","1","0","1","0","1","4","2","1","2","1","2","4","2","4","2","634786876431007744","吴","70","","","","","","","","","","","","","","","","","","","","","","","","","","","","","","","","","","","","","","","",""
"835","<p style=""color:rgb(150, 250, 100); font-size: 35px;"">别人</p>","i","categorize-html","16","314603","0.0-6.0-0.0-2.0-1.3","3","4","3","3","4","4","3","4","3","4","5","5","5","4","4","5","4","5","4","4","2","1","2","2","2","1","1","1","2","1","0","1","1","0","1","0","1","1","1","1","0","1","0","1","4","2","1","2","1","2","4","2","4","2","634786876431007744","吴","70","","","","","","","","","","","","","","","","","","","false","1","1","ability","835","other","别人","","","","","","","","","","","","","","",""
"null","","null","html-keyboard-response","17","314854","0.0-6.0-0.0-2.0-0.4","3","4","3","3","4","4","3","4","3","4","5","5","5","4","4","5","4","5","4","4","2","1","2","2","2","1","1","1","2","1","0","1","1","0","1","0","1","1","1","1","0","1","0","1","4","2","1","2","1","2","4","2","4","2","634786876431007744","吴","70","","","","","","","","","","","","","","","","","","","","","","","","","","","","","","","","","","","","","","","",""
"714","<p style=""color:rgb(150, 250, 100); font-size: 35px;"">他</p>","e","categorize-html","18","315571","0.0-6.0-0.0-2.0-1.4","3","4","3","3","4","4","3","4","3","4","5","5","5","4","4","5","4","5","4","4","2","1","2","2","2","1","1","1","2","1","0","1","1","0","1","0","1","1","1","1","0","1","0","1","4","2","1","2","1","2","4","2","4","2","634786876431007744","吴","70","","","","","","","","","","","","","","","","","","","true","1","1","ability","714","other","他","","","","","","","","","","","","","","",""
"null","","null","html-keyboard-response","19","315822","0.0-6.0-0.0-2.0-0.5","3","4","3","3","4","4","3","4","3","4","5","5","5","4","4","5","4","5","4","4","2","1","2","2","2","1","1","1","2","1","0","1","1","0","1","0","1","1","1","1","0","1","0","1","4","2","1","2","1","2","4","2","4","2","634786876431007744","吴","70","","","","","","","","","","","","","","","","","","","","","","","","","","","","","","","","","","","","","","","",""
"567","<p style=""color:rgb(150, 250, 100); font-size: 35px;"">我</p>","i","categorize-html","20","316390","0.0-6.0-0.0-2.0-1.5","3","4","3","3","4","4","3","4","3","4","5","5","5","4","4","5","4","5","4","4","2","1","2","2","2","1","1","1","2","1","0","1","1","0","1","0","1","1","1","1","0","1","0","1","4","2","1","2","1","2","4","2","4","2","634786876431007744","吴","70","","","","","","","","","","","","","","","","","","","true","1","1","ability","567","self","我","","","","","","","","","","","","","","",""
"null","","null","html-keyboard-response","21","316641","0.0-6.0-0.0-2.0-0.6","3","4","3","3","4","4","3","4","3","4","5","5","5","4","4","5","4","5","4","4","2","1","2","2","2","1","1","1","2","1","0","1","1","0","1","0","1","1","1","1","0","1","0","1","4","2","1","2","1","2","4","2","4","2","634786876431007744","吴","70","","","","","","","","","","","","","","","","","","","","","","","","","","","","","","","","","","","","","","","",""
"3574","<p style=""color:rgb(150, 250, 100); font-size: 35px;"">别人的</p>","e","categorize-html","22","320217","0.0-6.0-0.0-2.0-1.6","3","4","3","3","4","4","3","4","3","4","5","5","5","4","4","5","4","5","4","4","2","1","2","2","2","1","1","1","2","1","0","1","1","0","1","0","1","1","1","1","0","1","0","1","4","2","1","2","1","2","4","2","4","2","634786876431007744","吴","70","","","","","","","","","","","","","","","","","","","true","1","1","ability","3574","other","别人的","","","","","","","","","","","","","","",""
"null","","null","html-keyboard-response","23","320468","0.0-6.0-0.0-2.0-0.7","3","4","3","3","4","4","3","4","3","4","5","5","5","4","4","5","4","5","4","4","2","1","2","2","2","1","1","1","2","1","0","1","1","0","1","0","1","1","1","1","0","1","0","1","4","2","1","2","1","2","4","2","4","2","634786876431007744","吴","70","","","","","","","","","","","","","","","","","","","","","","","","","","","","","","","","","","","","","","","",""
"597","<p style=""color:rgb(150, 250, 100); font-size: 35px;"">自己的</p>","i","categorize-html","24","321067","0.0-6.0-0.0-2.0-1.7","3","4","3","3","4","4","3","4","3","4","5","5","5","4","4","5","4","5","4","4","2","1","2","2","2","1","1","1","2","1","0","1","1","0","1","0","1","1","1","1","0","1","0","1","4","2","1","2","1","2","4","2","4","2","634786876431007744","吴","70","","","","","","","","","","","","","","","","","","","true","1","1","ability","597","self","自己的","","","","","","","","","","","","","","",""
"null","","null","html-keyboard-response","25","321319","0.0-6.0-0.0-2.0-0.8","3","4","3","3","4","4","3","4","3","4","5","5","5","4","4","5","4","5","4","4","2","1","2","2","2","1","1","1","2","1","0","1","1","0","1","0","1","1","1","1","0","1","0","1","4","2","1","2","1","2","4","2","4","2","634786876431007744","吴","70","","","","","","","","","","","","","","","","","","","","","","","","","","","","","","","","","","","","","","","",""
"676","<p style=""color:rgb(150, 250, 100); font-size: 35px;"">本人</p>","i","categorize-html","26","321996","0.0-6.0-0.0-2.0-1.8","3","4","3","3","4","4","3","4","3","4","5","5","5","4","4","5","4","5","4","4","2","1","2","2","2","1","1","1","2","1","0","1","1","0","1","0","1","1","1","1","0","1","0","1","4","2","1","2","1","2","4","2","4","2","634786876431007744","吴","70","","","","","","","","","","","","","","","","","","","true","1","1","ability","676","self","本人","","","","","","","","","","","","","","",""
"null","","null","html-keyboard-response","27","322247","0.0-6.0-0.0-2.0-0.9","3","4","3","3","4","4","3","4","3","4","5","5","5","4","4","5","4","5","4","4","2","1","2","2","2","1","1","1","2","1","0","1","1","0","1","0","1","1","1","1","0","1","0","1","4","2","1","2","1","2","4","2","4","2","634786876431007744","吴","70","","","","","","","","","","","","","","","","","","","","","","","","","","","","","","","","","","","","","","","",""
"454","<p style=""color:rgb(150, 250, 100); font-size: 35px;"">本人的</p>","i","categorize-html","28","322702","0.0-6.0-0.0-2.0-1.9","3","4","3","3","4","4","3","4","3","4","5","5","5","4","4","5","4","5","4","4","2","1","2","2","2","1","1","1","2","1","0","1","1","0","1","0","1","1","1","1","0","1","0","1","4","2","1","2","1","2","4","2","4","2","634786876431007744","吴","70","","","","","","","","","","","","","","","","","","","true","1","1","ability","454","self","本人的","","","","","","","","","","","","","","",""
"null","","null","html-keyboard-response","29","322954","0.0-6.0-0.0-2.0-0.10","3","4","3","3","4","4","3","4","3","4","5","5","5","4","4","5","4","5","4","4","2","1","2","2","2","1","1","1","2","1","0","1","1","0","1","0","1","1","1","1","0","1","0","1","4","2","1","2","1","2","4","2","4","2","634786876431007744","吴","70","","","","","","","","","","","","","","","","","","","","","","","","","","","","","","","","","","","","","","","",""
"625","<p style=""color:rgb(150, 250, 100); font-size: 35px;"">自己</p>","i","categorize-html","30","323581","0.0-6.0-0.0-2.0-1.10","3","4","3","3","4","4","3","4","3","4","5","5","5","4","4","5","4","5","4","4","2","1","2","2","2","1","1","1","2","1","0","1","1","0","1","0","1","1","1","1","0","1","0","1","4","2","1","2","1","2","4","2","4","2","634786876431007744","吴","70","","","","","","","","","","","","","","","","","","","true","1","1","ability","625","self","自己","","","","","","","","","","","","","","",""
"null","","null","html-keyboard-response","31","323833","0.0-6.0-0.0-2.0-0.11","3","4","3","3","4","4","3","4","3","4","5","5","5","4","4","5","4","5","4","4","2","1","2","2","2","1","1","1","2","1","0","1","1","0","1","0","1","1","1","1","0","1","0","1","4","2","1","2","1","2","4","2","4","2","634786876431007744","吴","70","","","","","","","","","","","","","","","","","","","","","","","","","","","","","","","","","","","","","","","",""
"615","<p style=""color:rgb(150, 250, 100); font-size: 35px;"">他人的</p>","e","categorize-html","32","324450","0.0-6.0-0.0-2.0-1.11","3","4","3","3","4","4","3","4","3","4","5","5","5","4","4","5","4","5","4","4","2","1","2","2","2","1","1","1","2","1","0","1","1","0","1","0","1","1","1","1","0","1","0","1","4","2","1","2","1","2","4","2","4","2","634786876431007744","吴","70","","","","","","","","","","","","","","","","","","","true","1","1","ability","615","other","他人的","","","","","","","","","","","","","","",""
"1835","
    <div class=""tag-bottom""><p>
    —— 任务2：对“积极”词和“消极”词分类 ——<p/>   
    <span style=""color:#78DCE8""><b>注意上方，类别标签和需要分类的词语都已经改变</b></span><p/>
    <span style=""color:#FFD866""><b>请根据上方标签的提示，尽可能正确并且快速地做出按键反应</b></span><p/>
    当按键错误时屏幕中会出现<span style=""color:red""> X </span>，需要按另一个键纠正才能继续<br/><p/>
    请把双手食指分别放在键盘的“E”键和“I”键上<p/>
    按<空格键>开始
    </p></div>"," ","html-keyboard-response","33","326285","0.0-6.0-0.0-3.0","3","4","3","3","4","4","3","4","3","4","5","5","5","4","4","5","4","5","4","4","2","1","2","2","2","1","1","1","2","1","0","1","1","0","1","0","1","1","1","1","0","1","0","1","4","2","1","2","1","2","4","2","4","2","634786876431007744","吴","70","","","","","","","","","","","","","","","","","","","","","","","","","","","","","","","","","","","","","","","",""
"null","","null","html-keyboard-response","34","326537","0.0-6.0-0.0-4.0-0.0","3","4","3","3","4","4","3","4","3","4","5","5","5","4","4","5","4","5","4","4","2","1","2","2","2","1","1","1","2","1","0","1","1","0","1","0","1","1","1","1","0","1","0","1","4","2","1","2","1","2","4","2","4","2","634786876431007744","吴","70","","","","","","","","","","","","","","","","","","","","","","","","","","","","","","","","","","","","","","","",""
"1481","<p style=""color:white; font-size: 35px;"">全才</p>","e","categorize-html","35","328019","0.0-6.0-0.0-4.0-1.0","3","4","3","3","4","4","3","4","3","4","5","5","5","4","4","5","4","5","4","4","2","1","2","2","2","1","1","1","2","1","0","1","1","0","1","0","1","1","1","1","0","1","0","1","4","2","1","2","1","2","4","2","4","2","634786876431007744","吴","70","","","","","","","","","","","","","","","","","","","true","2","2","ability","1481","positive","全才","","","","","","","","","","","","","","",""
"null","","null","html-keyboard-response","36","328271","0.0-6.0-0.0-4.0-0.1","3","4","3","3","4","4","3","4","3","4","5","5","5","4","4","5","4","5","4","4","2","1","2","2","2","1","1","1","2","1","0","1","1","0","1","0","1","1","1","1","0","1","0","1","4","2","1","2","1","2","4","2","4","2","634786876431007744","吴","70","","","","","","","","","","","","","","","","","","","","","","","","","","","","","","","","","","","","","","","",""
"661","<p style=""color:white; font-size: 35px;"">低能</p>","i","categorize-html","37","328933","0.0-6.0-0.0-4.0-1.1","3","4","3","3","4","4","3","4","3","4","5","5","5","4","4","5","4","5","4","4","2","1","2","2","2","1","1","1","2","1","0","1","1","0","1","0","1","1","1","1","0","1","0","1","4","2","1","2","1","2","4","2","4","2","634786876431007744","吴","70","","","","","","","","","","","","","","","","","","","true","2","2","ability","661","negative","低能","","","","","","","","","","","","","","",""
"null","","null","html-keyboard-response","38","329184","0.0-6.0-0.0-4.0-0.2","3","4","3","3","4","4","3","4","3","4","5","5","5","4","4","5","4","5","4","4","2","1","2","2","2","1","1","1","2","1","0","1","1","0","1","0","1","1","1","1","0","1","0","1","4","2","1","2","1","2","4","2","4","2","634786876431007744","吴","70","","","","","","","","","","","","","","","","","","","","","","","","","","","","","","","","","","","","","","","",""
"809","<p style=""color:white; font-size: 35px;"">天才</p>","e","categorize-html","39","329995","0.0-6.0-0.0-4.0-1.2","3","4","3","3","4","4","3","4","3","4","5","5","5","4","4","5","4","5","4","4","2","1","2","2","2","1","1","1","2","1","0","1","1","0","1","0","1","1","1","1","0","1","0","1","4","2","1","2","1","2","4","2","4","2","634786876431007744","吴","70","","","","","","","","","","","","","","","","","","","true","2","2","ability","809","positive","天才","","","","","","","","","","","","","","",""
"null","","null","html-keyboard-response","40","330246","0.0-6.0-0.0-4.0-0.3","3","4","3","3","4","4","3","4","3","4","5","5","5","4","4","5","4","5","4","4","2","1","2","2","2","1","1","1","2","1","0","1","1","0","1","0","1","1","1","1","0","1","0","1","4","2","1","2","1","2","4","2","4","2","634786876431007744","吴","70","","","","","","","","","","","","","","","","","","","","","","","","","","","","","","","","","","","","","","","",""
"1219","<p style=""color:white; font-size: 35px;"">高效</p>","e","categorize-html","41","331467","0.0-6.0-0.0-4.0-1.3","3","4","3","3","4","4","3","4","3","4","5","5","5","4","4","5","4","5","4","4","2","1","2","2","2","1","1","1","2","1","0","1","1","0","1","0","1","1","1","1","0","1","0","1","4","2","1","2","1","2","4","2","4","2","634786876431007744","吴","70","","","","","","","","","","","","","","","","","","","true","2","2","ability","1219","positive","高效","","","","","","","","","","","","","","",""
"null","","null","html-keyboard-response","42","331718","0.0-6.0-0.0-4.0-0.4","3","4","3","3","4","4","3","4","3","4","5","5","5","4","4","5","4","5","4","4","2","1","2","2","2","1","1","1","2","1","0","1","1","0","1","0","1","1","1","1","0","1","0","1","4","2","1","2","1","2","4","2","4","2","634786876431007744","吴","70","","","","","","","","","","","","","","","","","","","","","","","","","","","","","","","","","","","","","","","",""
"786","<p style=""color:white; font-size: 35px;"">能干</p>","e","categorize-html","43","332505","0.0-6.0-0.0-4.0-1.4","3","4","3","3","4","4","3","4","3","4","5","5","5","4","4","5","4","5","4","4","2","1","2","2","2","1","1","1","2","1","0","1","1","0","1","0","1","1","1","1","0","1","0","1","4","2","1","2","1","2","4","2","4","2","634786876431007744","吴","70","","","","","","","","","","","","","","","","","","","true","2","2","ability","786","positive","能干","","","","","","","","","","","","","","",""
"null","","null","html-keyboard-response","44","332757","0.0-6.0-0.0-4.0-0.5","3","4","3","3","4","4","3","4","3","4","5","5","5","4","4","5","4","5","4","4","2","1","2","2","2","1","1","1","2","1","0","1","1","0","1","0","1","1","1","1","0","1","0","1","4","2","1","2","1","2","4","2","4","2","634786876431007744","吴","70","","","","","","","","","","","","","","","","","","","","","","","","","","","","","","","","","","","","","","","",""
"652","<p style=""color:white; font-size: 35px;"">废物</p>","i","categorize-html","45","333411","0.0-6.0-0.0-4.0-1.5","3","4","3","3","4","4","3","4","3","4","5","5","5","4","4","5","4","5","4","4","2","1","2","2","2","1","1","1","2","1","0","1","1","0","1","0","1","1","1","1","0","1","0","1","4","2","1","2","1","2","4","2","4","2","634786876431007744","吴","70","","","","","","","","","","","","","","","","","","","true","2","2","ability","652","negative","废物","","","","","","","","","","","","","","",""
"null","","null","html-keyboard-response","46","333662","0.0-6.0-0.0-4.0-0.6","3","4","3","3","4","4","3","4","3","4","5","5","5","4","4","5","4","5","4","4","2","1","2","2","2","1","1","1","2","1","0","1","1","0","1","0","1","1","1","1","0","1","0","1","4","2","1","2","1","2","4","2","4","2","634786876431007744","吴","70","","","","","","","","","","","","","","","","","","","","","","","","","","","","","","","","","","","","","","","",""
"639","<p style=""color:white; font-size: 35px;"">蠢笨</p>","i","categorize-html","47","334303","0.0-6.0-0.0-4.0-1.6","3","4","3","3","4","4","3","4","3","4","5","5","5","4","4","5","4","5","4","4","2","1","2","2","2","1","1","1","2","1","0","1","1","0","1","0","1","1","1","1","0","1","0","1","4","2","1","2","1","2","4","2","4","2","634786876431007744","吴","70","","","","","","","","","","","","","","","","","","","true","2","2","ability","639","negative","蠢笨","","","","","","","","","","","","","","",""
"null","","null","html-keyboard-response","48","334554","0.0-6.0-0.0-4.0-0.7","3","4","3","3","4","4","3","4","3","4","5","5","5","4","4","5","4","5","4","4","2","1","2","2","2","1","1","1","2","1","0","1","1","0","1","0","1","1","1","1","0","1","0","1","4","2","1","2","1","2","4","2","4","2","634786876431007744","吴","70","","","","","","","","","","","","","","","","","","","","","","","","","","","","","","","","","","","","","","","",""
"946","<p style=""color:white; font-size: 35px;"">精干</p>","e","categorize-html","49","335501","0.0-6.0-0.0-4.0-1.7","3","4","3","3","4","4","3","4","3","4","5","5","5","4","4","5","4","5","4","4","2","1","2","2","2","1","1","1","2","1","0","1","1","0","1","0","1","1","1","1","0","1","0","1","4","2","1","2","1","2","4","2","4","2","634786876431007744","吴","70","","","","","","","","","","","","","","","","","","","true","2","2","ability","946","positive","精干","","","","","","","","","","","","","","",""
"null","","null","html-keyboard-response","50","335759","0.0-6.0-0.0-4.0-0.8","3","4","3","3","4","4","3","4","3","4","5","5","5","4","4","5","4","5","4","4","2","1","2","2","2","1","1","1","2","1","0","1","1","0","1","0","1","1","1","1","0","1","0","1","4","2","1","2","1","2","4","2","4","2","634786876431007744","吴","70","","","","","","","","","","","","","","","","","","","","","","","","","","","","","","","","","","","","","","","",""
"1625","<p style=""color:white; font-size: 35px;"">全能</p>","e","categorize-html","51","337386","0.0-6.0-0.0-4.0-1.8","3","4","3","3","4","4","3","4","3","4","5","5","5","4","4","5","4","5","4","4","2","1","2","2","2","1","1","1","2","1","0","1","1","0","1","0","1","1","1","1","0","1","0","1","4","2","1","2","1","2","4","2","4","2","634786876431007744","吴","70","","","","","","","","","","","","","","","","","","","true","2","2","ability","1625","positive","全能","","","","","","","","","","","","","","",""
"null","","null","html-keyboard-response","52","337637","0.0-6.0-0.0-4.0-0.9","3","4","3","3","4","4","3","4","3","4","5","5","5","4","4","5","4","5","4","4","2","1","2","2","2","1","1","1","2","1","0","1","1","0","1","0","1","1","1","1","0","1","0","1","4","2","1","2","1","2","4","2","4","2","634786876431007744","吴","70","","","","","","","","","","","","","","","","","","","","","","","","","","","","","","","","","","","","","","","",""
"624","<p style=""color:white; font-size: 35px;"">无能</p>","i","categorize-html","53","338263","0.0-6.0-0.0-4.0-1.9","3","4","3","3","4","4","3","4","3","4","5","5","5","4","4","5","4","5","4","4","2","1","2","2","2","1","1","1","2","1","0","1","1","0","1","0","1","1","1","1","0","1","0","1","4","2","1","2","1","2","4","2","4","2","634786876431007744","吴","70","","","","","","","","","","","","","","","","","","","true","2","2","ability","624","negative","无能","","","","","","","","","","","","","","",""
"null","","null","html-keyboard-response","54","338514","0.0-6.0-0.0-4.0-0.10","3","4","3","3","4","4","3","4","3","4","5","5","5","4","4","5","4","5","4","4","2","1","2","2","2","1","1","1","2","1","0","1","1","0","1","0","1","1","1","1","0","1","0","1","4","2","1","2","1","2","4","2","4","2","634786876431007744","吴","70","","","","","","","","","","","","","","","","","","","","","","","","","","","","","","","","","","","","","","","",""
"753","<p style=""color:white; font-size: 35px;"">拙笨</p>","i","categorize-html","55","339269","0.0-6.0-0.0-4.0-1.10","3","4","3","3","4","4","3","4","3","4","5","5","5","4","4","5","4","5","4","4","2","1","2","2","2","1","1","1","2","1","0","1","1","0","1","0","1","1","1","1","0","1","0","1","4","2","1","2","1","2","4","2","4","2","634786876431007744","吴","70","","","","","","","","","","","","","","","","","","","true","2","2","ability","753","negative","拙笨","","","","","","","","","","","","","","",""
"null","","null","html-keyboard-response","56","339521","0.0-6.0-0.0-4.0-0.11","3","4","3","3","4","4","3","4","3","4","5","5","5","4","4","5","4","5","4","4","2","1","2","2","2","1","1","1","2","1","0","1","1","0","1","0","1","1","1","1","0","1","0","1","4","2","1","2","1","2","4","2","4","2","634786876431007744","吴","70","","","","","","","","","","","","","","","","","","","","","","","","","","","","","","","","","","","","","","","",""
"550","<p style=""color:white; font-size: 35px;"">愚钝</p>","i","categorize-html","57","340073","0.0-6.0-0.0-4.0-1.11","3","4","3","3","4","4","3","4","3","4","5","5","5","4","4","5","4","5","4","4","2","1","2","2","2","1","1","1","2","1","0","1","1","0","1","0","1","1","1","1","0","1","0","1","4","2","1","2","1","2","4","2","4","2","634786876431007744","吴","70","","","","","","","","","","","","","","","","","","","true","2","2","ability","550","negative","愚钝","","","","","","","","","","","","","","",""
"3394","
    <div class=""tag-bottom""><p>
    —— 任务3：对“他人/积极”词和“自我/消极”词分类 ——<p/>
    <span style=""color:#78DCE8""><b>注意上方，之前的四类词语将混合在一起交替呈现</b></span><p/>
    <span style=""color:#FFD866""><b>请根据上方标签的提示，尽可能正确并且快速地做出按键反应</b></span><p/>
    当按键错误时屏幕中会出现<span style=""color:red""> X </span>，需要按另一个键纠正才能继续<br/><p/>
    请把双手食指分别放在键盘的“E”键和“I”键上<p/>
    按<空格键>开始
    </p></div>"," ","html-keyboard-response","58","343468","0.0-6.0-0.0-5.0","3","4","3","3","4","4","3","4","3","4","5","5","5","4","4","5","4","5","4","4","2","1","2","2","2","1","1","1","2","1","0","1","1","0","1","0","1","1","1","1","0","1","0","1","4","2","1","2","1","2","4","2","4","2","634786876431007744","吴","70","","","","","","","","","","","","","","","","","","","","","","","","","","","","","","","","","","","","","","","",""
"null","","null","html-keyboard-response","59","343719","0.0-6.0-0.0-6.0-0.0","3","4","3","3","4","4","3","4","3","4","5","5","5","4","4","5","4","5","4","4","2","1","2","2","2","1","1","1","2","1","0","1","1","0","1","0","1","1","1","1","0","1","0","1","4","2","1","2","1","2","4","2","4","2","634786876431007744","吴","70","","","","","","","","","","","","","","","","","","","","","","","","","","","","","","","","","","","","","","","",""
"1390","<p style=""color:rgb(150, 250, 100); font-size: 35px;"">我</p>","i","categorize-html","60","345111","0.0-6.0-0.0-6.0-1.0","3","4","3","3","4","4","3","4","3","4","5","5","5","4","4","5","4","5","4","4","2","1","2","2","2","1","1","1","2","1","0","1","1","0","1","0","1","1","1","1","0","1","0","1","4","2","1","2","1","2","4","2","4","2","634786876431007744","吴","70","","","","","","","","","","","","","","","","","","","true","3","3","ability","1390","self","我","","","","","","","","","","","","","","",""
"null","","null","html-keyboard-response","61","345363","0.0-6.0-0.0-6.0-0.1","3","4","3","3","4","4","3","4","3","4","5","5","5","4","4","5","4","5","4","4","2","1","2","2","2","1","1","1","2","1","0","1","1","0","1","0","1","1","1","1","0","1","0","1","4","2","1","2","1","2","4","2","4","2","634786876431007744","吴","70","","","","","","","","","","","","","","","","","","","","","","","","","","","","","","","","","","","","","","","",""
"1004","<p style=""color:white; font-size: 35px;"">低能</p>","i","categorize-html","62","346370","0.0-6.0-0.0-6.0-1.1","3","4","3","3","4","4","3","4","3","4","5","5","5","4","4","5","4","5","4","4","2","1","2","2","2","1","1","1","2","1","0","1","1","0","1","0","1","1","1","1","0","1","0","1","4","2","1","2","1","2","4","2","4","2","634786876431007744","吴","70","","","","","","","","","","","","","","","","","","","true","3","3","ability","1004","negative","低能","","","","","","","","","","","","","","",""
"null","","null","html-keyboard-response","63","346620","0.0-6.0-0.0-6.0-0.2","3","4","3","3","4","4","3","4","3","4","5","5","5","4","4","5","4","5","4","4","2","1","2","2","2","1","1","1","2","1","0","1","1","0","1","0","1","1","1","1","0","1","0","1","4","2","1","2","1","2","4","2","4","2","634786876431007744","吴","70","","","","","","","","","","","","","","","","","","","","","","","","","","","","","","","","","","","","","","","",""
"804","<p style=""color:rgb(150, 250, 100); font-size: 35px;"">别人</p>","e","categorize-html","64","347426","0.0-6.0-0.0-6.0-1.2","3","4","3","3","4","4","3","4","3","4","5","5","5","4","4","5","4","5","4","4","2","1","2","2","2","1","1","1","2","1","0","1","1","0","1","0","1","1","1","1","0","1","0","1","4","2","1","2","1","2","4","2","4","2","634786876431007744","吴","70","","","","","","","","","","","","","","","","","","","true","3","3","ability","804","other","别人","","","","","","","","","","","","","","",""
"null","","null","html-keyboard-response","65","347678","0.0-6.0-0.0-6.0-0.3","3","4","3","3","4","4","3","4","3","4","5","5","5","4","4","5","4","5","4","4","2","1","2","2","2","1","1","1","2","1","0","1","1","0","1","0","1","1","1","1","0","1","0","1","4","2","1","2","1","2","4","2","4","2","634786876431007744","吴","70","","","","","","","","","","","","","","","","","","","","","","","","","","","","","","","","","","","","","","","",""
"1868","<p style=""color:white; font-size: 35px;"">能干</p>","e","categorize-html","66","349549","0.0-6.0-0.0-6.0-1.3","3","4","3","3","4","4","3","4","3","4","5","5","5","4","4","5","4","5","4","4","2","1","2","2","2","1","1","1","2","1","0","1","1","0","1","0","1","1","1","1","0","1","0","1","4","2","1","2","1","2","4","2","4","2","634786876431007744","吴","70","","","","","","","","","","","","","","","","","","","true","3","3","ability","1868","positive","能干","","","","","","","","","","","","","","",""
"null","","null","html-keyboard-response","67","349800","0.0-6.0-0.0-6.0-0.4","3","4","3","3","4","4","3","4","3","4","5","5","5","4","4","5","4","5","4","4","2","1","2","2","2","1","1","1","2","1","0","1","1","0","1","0","1","1","1","1","0","1","0","1","4","2","1","2","1","2","4","2","4","2","634786876431007744","吴","70","","","","","","","","","","","","","","","","","","","","","","","","","","","","","","","","","","","","","","","",""
"1251","<p style=""color:rgb(150, 250, 100); font-size: 35px;"">别人的</p>","e","categorize-html","68","351053","0.0-6.0-0.0-6.0-1.4","3","4","3","3","4","4","3","4","3","4","5","5","5","4","4","5","4","5","4","4","2","1","2","2","2","1","1","1","2","1","0","1","1","0","1","0","1","1","1","1","0","1","0","1","4","2","1","2","1","2","4","2","4","2","634786876431007744","吴","70","","","","","","","","","","","","","","","","","","","true","3","3","ability","1251","other","别人的","","","","","","","","","","","","","","",""
"null","","null","html-keyboard-response","69","351305","0.0-6.0-0.0-6.0-0.5","3","4","3","3","4","4","3","4","3","4","5","5","5","4","4","5","4","5","4","4","2","1","2","2","2","1","1","1","2","1","0","1","1","0","1","0","1","1","1","1","0","1","0","1","4","2","1","2","1","2","4","2","4","2","634786876431007744","吴","70","","","","","","","","","","","","","","","","","","","","","","","","","","","","","","","","","","","","","","","",""
"760","<p style=""color:white; font-size: 35px;"">愚钝</p>","i","categorize-html","70","352067","0.0-6.0-0.0-6.0-1.5","3","4","3","3","4","4","3","4","3","4","5","5","5","4","4","5","4","5","4","4","2","1","2","2","2","1","1","1","2","1","0","1","1","0","1","0","1","1","1","1","0","1","0","1","4","2","1","2","1","2","4","2","4","2","634786876431007744","吴","70","","","","","","","","","","","","","","","","","","","true","3","3","ability","760","negative","愚钝","","","","","","","","","","","","","","",""
"null","","null","html-keyboard-response","71","352319","0.0-6.0-0.0-6.0-0.6","3","4","3","3","4","4","3","4","3","4","5","5","5","4","4","5","4","5","4","4","2","1","2","2","2","1","1","1","2","1","0","1","1","0","1","0","1","1","1","1","0","1","0","1","4","2","1","2","1","2","4","2","4","2","634786876431007744","吴","70","","","","","","","","","","","","","","","","","","","","","","","","","","","","","","","","","","","","","","","",""
"819","<p style=""color:rgb(150, 250, 100); font-size: 35px;"">我的</p>","i","categorize-html","72","353140","0.0-6.0-0.0-6.0-1.6","3","4","3","3","4","4","3","4","3","4","5","5","5","4","4","5","4","5","4","4","2","1","2","2","2","1","1","1","2","1","0","1","1","0","1","0","1","1","1","1","0","1","0","1","4","2","1","2","1","2","4","2","4","2","634786876431007744","吴","70","","","","","","","","","","","","","","","","","","","true","3","3","ability","819","self","我的","","","","","","","","","","","","","","",""
"null","","null","html-keyboard-response","73","353391","0.0-6.0-0.0-6.0-0.7","3","4","3","3","4","4","3","4","3","4","5","5","5","4","4","5","4","5","4","4","2","1","2","2","2","1","1","1","2","1","0","1","1","0","1","0","1","1","1","1","0","1","0","1","4","2","1","2","1","2","4","2","4","2","634786876431007744","吴","70","","","","","","","","","","","","","","","","","","","","","","","","","","","","","","","","","","","","","","","",""
"629","<p style=""color:white; font-size: 35px;"">精干</p>","e","categorize-html","74","354022","0.0-6.0-0.0-6.0-1.7","3","4","3","3","4","4","3","4","3","4","5","5","5","4","4","5","4","5","4","4","2","1","2","2","2","1","1","1","2","1","0","1","1","0","1","0","1","1","1","1","0","1","0","1","4","2","1","2","1","2","4","2","4","2","634786876431007744","吴","70","","","","","","","","","","","","","","","","","","","true","3","3","ability","629","positive","精干","","","","","","","","","","","","","","",""
"null","","null","html-keyboard-response","75","354274","0.0-6.0-0.0-6.0-0.8","3","4","3","3","4","4","3","4","3","4","5","5","5","4","4","5","4","5","4","4","2","1","2","2","2","1","1","1","2","1","0","1","1","0","1","0","1","1","1","1","0","1","0","1","4","2","1","2","1","2","4","2","4","2","634786876431007744","吴","70","","","","","","","","","","","","","","","","","","","","","","","","","","","","","","","","","","","","","","","",""
"1532","<p style=""color:rgb(150, 250, 100); font-size: 35px;"">他的</p>","e","categorize-html","76","355807","0.0-6.0-0.0-6.0-1.8","3","4","3","3","4","4","3","4","3","4","5","5","5","4","4","5","4","5","4","4","2","1","2","2","2","1","1","1","2","1","0","1","1","0","1","0","1","1","1","1","0","1","0","1","4","2","1","2","1","2","4","2","4","2","634786876431007744","吴","70","","","","","","","","","","","","","","","","","","","true","3","3","ability","1532","other","他的","","","","","","","","","","","","","","",""
"null","","null","html-keyboard-response","77","356059","0.0-6.0-0.0-6.0-0.9","3","4","3","3","4","4","3","4","3","4","5","5","5","4","4","5","4","5","4","4","2","1","2","2","2","1","1","1","2","1","0","1","1","0","1","0","1","1","1","1","0","1","0","1","4","2","1","2","1","2","4","2","4","2","634786876431007744","吴","70","","","","","","","","","","","","","","","","","","","","","","","","","","","","","","","","","","","","","","","",""
"1183","<p style=""color:white; font-size: 35px;"">全才</p>","e","categorize-html","78","357244","0.0-6.0-0.0-6.0-1.9","3","4","3","3","4","4","3","4","3","4","5","5","5","4","4","5","4","5","4","4","2","1","2","2","2","1","1","1","2","1","0","1","1","0","1","0","1","1","1","1","0","1","0","1","4","2","1","2","1","2","4","2","4","2","634786876431007744","吴","70","","","","","","","","","","","","","","","","","","","true","3","3","ability","1183","positive","全才","","","","","","","","","","","","","","",""
"null","","null","html-keyboard-response","79","357495","0.0-6.0-0.0-6.0-0.10","3","4","3","3","4","4","3","4","3","4","5","5","5","4","4","5","4","5","4","4","2","1","2","2","2","1","1","1","2","1","0","1","1","0","1","0","1","1","1","1","0","1","0","1","4","2","1","2","1","2","4","2","4","2","634786876431007744","吴","70","","","","","","","","","","","","","","","","","","","","","","","","","","","","","","","","","","","","","","","",""
"856","<p style=""color:rgb(150, 250, 100); font-size: 35px;"">本人的</p>","i","categorize-html","80","358354","0.0-6.0-0.0-6.0-1.10","3","4","3","3","4","4","3","4","3","4","5","5","5","4","4","5","4","5","4","4","2","1","2","2","2","1","1","1","2","1","0","1","1","0","1","0","1","1","1","1","0","1","0","1","4","2","1","2","1","2","4","2","4","2","634786876431007744","吴","70","","","","","","","","","","","","","","","","","","","true","3","3","ability","856","self","本人的","","","","","","","","","","","","","","",""
"null","","null","html-keyboard-response","81","358606","0.0-6.0-0.0-6.0-0.11","3","4","3","3","4","4","3","4","3","4","5","5","5","4","4","5","4","5","4","4","2","1","2","2","2","1","1","1","2","1","0","1","1","0","1","0","1","1","1","1","0","1","0","1","4","2","1","2","1","2","4","2","4","2","634786876431007744","吴","70","","","","","","","","","","","","","","","","","","","","","","","","","","","","","","","","","","","","","","","",""
"2072","<p style=""color:white; font-size: 35px;"">蠢笨</p>","i","categorize-html","82","360679","0.0-6.0-0.0-6.0-1.11","3","4","3","3","4","4","3","4","3","4","5","5","5","4","4","5","4","5","4","4","2","1","2","2","2","1","1","1","2","1","0","1","1","0","1","0","1","1","1","1","0","1","0","1","4","2","1","2","1","2","4","2","4","2","634786876431007744","吴","70","","","","","","","","","","","","","","","","","","","true","3","3","ability","2072","negative","蠢笨","","","","","","","","","","","","","","",""
"null","","null","html-keyboard-response","83","360931","0.0-6.0-0.0-6.0-0.12","3","4","3","3","4","4","3","4","3","4","5","5","5","4","4","5","4","5","4","4","2","1","2","2","2","1","1","1","2","1","0","1","1","0","1","0","1","1","1","1","0","1","0","1","4","2","1","2","1","2","4","2","4","2","634786876431007744","吴","70","","","","","","","","","","","","","","","","","","","","","","","","","","","","","","","","","","","","","","","",""
"899","<p style=""color:rgb(150, 250, 100); font-size: 35px;"">他人的</p>","e","categorize-html","84","361831","0.0-6.0-0.0-6.0-1.12","3","4","3","3","4","4","3","4","3","4","5","5","5","4","4","5","4","5","4","4","2","1","2","2","2","1","1","1","2","1","0","1","1","0","1","0","1","1","1","1","0","1","0","1","4","2","1","2","1","2","4","2","4","2","634786876431007744","吴","70","","","","","","","","","","","","","","","","","","","true","3","3","ability","899","other","他人的","","","","","","","","","","","","","","",""
"null","","null","html-keyboard-response","85","362082","0.0-6.0-0.0-6.0-0.13","3","4","3","3","4","4","3","4","3","4","5","5","5","4","4","5","4","5","4","4","2","1","2","2","2","1","1","1","2","1","0","1","1","0","1","0","1","1","1","1","0","1","0","1","4","2","1","2","1","2","4","2","4","2","634786876431007744","吴","70","","","","","","","","","","","","","","","","","","","","","","","","","","","","","","","","","","","","","","","",""
"884","<p style=""color:white; font-size: 35px;"">废物</p>","i","categorize-html","86","362968","0.0-6.0-0.0-6.0-1.13","3","4","3","3","4","4","3","4","3","4","5","5","5","4","4","5","4","5","4","4","2","1","2","2","2","1","1","1","2","1","0","1","1","0","1","0","1","1","1","1","0","1","0","1","4","2","1","2","1","2","4","2","4","2","634786876431007744","吴","70","","","","","","","","","","","","","","","","","","","true","3","3","ability","884","negative","废物","","","","","","","","","","","","","","",""
"null","","null","html-keyboard-response","87","363219","0.0-6.0-0.0-6.0-0.14","3","4","3","3","4","4","3","4","3","4","5","5","5","4","4","5","4","5","4","4","2","1","2","2","2","1","1","1","2","1","0","1","1","0","1","0","1","1","1","1","0","1","0","1","4","2","1","2","1","2","4","2","4","2","634786876431007744","吴","70","","","","","","","","","","","","","","","","","","","","","","","","","","","","","","","","","","","","","","","",""
"2060","<p style=""color:rgb(150, 250, 100); font-size: 35px;"">本人</p>","i","categorize-html","88","365282","0.0-6.0-0.0-6.0-1.14","3","4","3","3","4","4","3","4","3","4","5","5","5","4","4","5","4","5","4","4","2","1","2","2","2","1","1","1","2","1","0","1","1","0","1","0","1","1","1","1","0","1","0","1","4","2","1","2","1","2","4","2","4","2","634786876431007744","吴","70","","","","","","","","","","","","","","","","","","","true","3","3","ability","2060","self","本人","","","","","","","","","","","","","","",""
"null","","null","html-keyboard-response","89","365533","0.0-6.0-0.0-6.0-0.15","3","4","3","3","4","4","3","4","3","4","5","5","5","4","4","5","4","5","4","4","2","1","2","2","2","1","1","1","2","1","0","1","1","0","1","0","1","1","1","1","0","1","0","1","4","2","1","2","1","2","4","2","4","2","634786876431007744","吴","70","","","","","","","","","","","","","","","","","","","","","","","","","","","","","","","","","","","","","","","",""
"886","<p style=""color:white; font-size: 35px;"">全能</p>","e","categorize-html","90","366421","0.0-6.0-0.0-6.0-1.15","3","4","3","3","4","4","3","4","3","4","5","5","5","4","4","5","4","5","4","4","2","1","2","2","2","1","1","1","2","1","0","1","1","0","1","0","1","1","1","1","0","1","0","1","4","2","1","2","1","2","4","2","4","2","634786876431007744","吴","70","","","","","","","","","","","","","","","","","","","true","3","3","ability","886","positive","全能","","","","","","","","","","","","","","",""
"null","","null","html-keyboard-response","91","366671","0.0-6.0-0.0-6.0-0.16","3","4","3","3","4","4","3","4","3","4","5","5","5","4","4","5","4","5","4","4","2","1","2","2","2","1","1","1","2","1","0","1","1","0","1","0","1","1","1","1","0","1","0","1","4","2","1","2","1","2","4","2","4","2","634786876431007744","吴","70","","","","","","","","","","","","","","","","","","","","","","","","","","","","","","","","","","","","","","","",""
"644","<p style=""color:rgb(150, 250, 100); font-size: 35px;"">他人</p>","e","categorize-html","92","367318","0.0-6.0-0.0-6.0-1.16","3","4","3","3","4","4","3","4","3","4","5","5","5","4","4","5","4","5","4","4","2","1","2","2","2","1","1","1","2","1","0","1","1","0","1","0","1","1","1","1","0","1","0","1","4","2","1","2","1","2","4","2","4","2","634786876431007744","吴","70","","","","","","","","","","","","","","","","","","","true","3","3","ability","644","other","他人","","","","","","","","","","","","","","",""
"null","","null","html-keyboard-response","93","367569","0.0-6.0-0.0-6.0-0.17","3","4","3","3","4","4","3","4","3","4","5","5","5","4","4","5","4","5","4","4","2","1","2","2","2","1","1","1","2","1","0","1","1","0","1","0","1","1","1","1","0","1","0","1","4","2","1","2","1","2","4","2","4","2","634786876431007744","吴","70","","","","","","","","","","","","","","","","","","","","","","","","","","","","","","","","","","","","","","","",""
"2809","<p style=""color:white; font-size: 35px;"">高效</p>","e","categorize-html","94","370379","0.0-6.0-0.0-6.0-1.17","3","4","3","3","4","4","3","4","3","4","5","5","5","4","4","5","4","5","4","4","2","1","2","2","2","1","1","1","2","1","0","1","1","0","1","0","1","1","1","1","0","1","0","1","4","2","1","2","1","2","4","2","4","2","634786876431007744","吴","70","","","","","","","","","","","","","","","","","","","true","3","3","ability","2809","positive","高效","","","","","","","","","","","","","","",""
"null","","null","html-keyboard-response","95","370631","0.0-6.0-0.0-6.0-0.18","3","4","3","3","4","4","3","4","3","4","5","5","5","4","4","5","4","5","4","4","2","1","2","2","2","1","1","1","2","1","0","1","1","0","1","0","1","1","1","1","0","1","0","1","4","2","1","2","1","2","4","2","4","2","634786876431007744","吴","70","","","","","","","","","","","","","","","","","","","","","","","","","","","","","","","","","","","","","","","",""
"741","<p style=""color:rgb(150, 250, 100); font-size: 35px;"">自己的</p>","i","categorize-html","96","371372","0.0-6.0-0.0-6.0-1.18","3","4","3","3","4","4","3","4","3","4","5","5","5","4","4","5","4","5","4","4","2","1","2","2","2","1","1","1","2","1","0","1","1","0","1","0","1","1","1","1","0","1","0","1","4","2","1","2","1","2","4","2","4","2","634786876431007744","吴","70","","","","","","","","","","","","","","","","","","","true","3","3","ability","741","self","自己的","","","","","","","","","","","","","","",""
"null","","null","html-keyboard-response","97","371624","0.0-6.0-0.0-6.0-0.19","3","4","3","3","4","4","3","4","3","4","5","5","5","4","4","5","4","5","4","4","2","1","2","2","2","1","1","1","2","1","0","1","1","0","1","0","1","1","1","1","0","1","0","1","4","2","1","2","1","2","4","2","4","2","634786876431007744","吴","70","","","","","","","","","","","","","","","","","","","","","","","","","","","","","","","","","","","","","","","",""
"1036","<p style=""color:white; font-size: 35px;"">拙笨</p>","i","categorize-html","98","372662","0.0-6.0-0.0-6.0-1.19","3","4","3","3","4","4","3","4","3","4","5","5","5","4","4","5","4","5","4","4","2","1","2","2","2","1","1","1","2","1","0","1","1","0","1","0","1","1","1","1","0","1","0","1","4","2","1","2","1","2","4","2","4","2","634786876431007744","吴","70","","","","","","","","","","","","","","","","","","","true","3","3","ability","1036","negative","拙笨","","","","","","","","","","","","","","",""
"null","","null","html-keyboard-response","99","372914","0.0-6.0-0.0-6.0-0.20","3","4","3","3","4","4","3","4","3","4","5","5","5","4","4","5","4","5","4","4","2","1","2","2","2","1","1","1","2","1","0","1","1","0","1","0","1","1","1","1","0","1","0","1","4","2","1","2","1","2","4","2","4","2","634786876431007744","吴","70","","","","","","","","","","","","","","","","","","","","","","","","","","","","","","","","","","","","","","","",""
"1050","<p style=""color:rgb(150, 250, 100); font-size: 35px;"">他</p>","e","categorize-html","100","373965","0.0-6.0-0.0-6.0-1.20","3","4","3","3","4","4","3","4","3","4","5","5","5","4","4","5","4","5","4","4","2","1","2","2","2","1","1","1","2","1","0","1","1","0","1","0","1","1","1","1","0","1","0","1","4","2","1","2","1","2","4","2","4","2","634786876431007744","吴","70","","","","","","","","","","","","","","","","","","","true","3","3","ability","1050","other","他","","","","","","","","","","","","","","",""
"null","","null","html-keyboard-response","101","374216","0.0-6.0-0.0-6.0-0.21","3","4","3","3","4","4","3","4","3","4","5","5","5","4","4","5","4","5","4","4","2","1","2","2","2","1","1","1","2","1","0","1","1","0","1","0","1","1","1","1","0","1","0","1","4","2","1","2","1","2","4","2","4","2","634786876431007744","吴","70","","","","","","","","","","","","","","","","","","","","","","","","","","","","","","","","","","","","","","","",""
"1386","<p style=""color:white; font-size: 35px;"">无能</p>","i","categorize-html","102","375605","0.0-6.0-0.0-6.0-1.21","3","4","3","3","4","4","3","4","3","4","5","5","5","4","4","5","4","5","4","4","2","1","2","2","2","1","1","1","2","1","0","1","1","0","1","0","1","1","1","1","0","1","0","1","4","2","1","2","1","2","4","2","4","2","634786876431007744","吴","70","","","","","","","","","","","","","","","","","","","true","3","3","ability","1386","negative","无能","","","","","","","","","","","","","","",""
"null","","null","html-keyboard-response","103","375869","0.0-6.0-0.0-6.0-0.22","3","4","3","3","4","4","3","4","3","4","5","5","5","4","4","5","4","5","4","4","2","1","2","2","2","1","1","1","2","1","0","1","1","0","1","0","1","1","1","1","0","1","0","1","4","2","1","2","1","2","4","2","4","2","634786876431007744","吴","70","","","","","","","","","","","","","","","","","","","","","","","","","","","","","","","","","","","","","","","",""
"719","<p style=""color:rgb(150, 250, 100); font-size: 35px;"">自己</p>","i","categorize-html","104","376590","0.0-6.0-0.0-6.0-1.22","3","4","3","3","4","4","3","4","3","4","5","5","5","4","4","5","4","5","4","4","2","1","2","2","2","1","1","1","2","1","0","1","1","0","1","0","1","1","1","1","0","1","0","1","4","2","1","2","1","2","4","2","4","2","634786876431007744","吴","70","","","","","","","","","","","","","","","","","","","true","3","3","ability","719","self","自己","","","","","","","","","","","","","","",""
"null","","null","html-keyboard-response","105","376841","0.0-6.0-0.0-6.0-0.23","3","4","3","3","4","4","3","4","3","4","5","5","5","4","4","5","4","5","4","4","2","1","2","2","2","1","1","1","2","1","0","1","1","0","1","0","1","1","1","1","0","1","0","1","4","2","1","2","1","2","4","2","4","2","634786876431007744","吴","70","","","","","","","","","","","","","","","","","","","","","","","","","","","","","","","","","","","","","","","",""
"588","<p style=""color:white; font-size: 35px;"">天才</p>","e","categorize-html","106","377431","0.0-6.0-0.0-6.0-1.23","3","4","3","3","4","4","3","4","3","4","5","5","5","4","4","5","4","5","4","4","2","1","2","2","2","1","1","1","2","1","0","1","1","0","1","0","1","1","1","1","0","1","0","1","4","2","1","2","1","2","4","2","4","2","634786876431007744","吴","70","","","","","","","","","","","","","","","","","","","true","3","3","ability","588","positive","天才","","","","","","","","","","","","","","",""
"2290","
    <div class=""tag-bottom""><p>
    —— 任务4：对“他人/积极”词和“自我/消极”词分类 ——<p/>
    <span style=""color:#78DCE8""><b>与刚才的任务完全相同，请再次对这四类词语分类</b></span><p/>
    <span style=""color:#FFD866""><b>请根据上方标签的提示，尽可能正确并且快速地做出按键反应</b></span><p/>
    当按键错误时屏幕中会出现<span style=""color:red""> X </span>，需要按另一个键纠正才能继续<br/><p/>
    请把双手食指分别放在键盘的“E”键和“I”键上<p/>
    按<空格键>开始
    </p></div>"," ","html-keyboard-response","107","379722","0.0-6.0-0.0-7.0","3","4","3","3","4","4","3","4","3","4","5","5","5","4","4","5","4","5","4","4","2","1","2","2","2","1","1","1","2","1","0","1","1","0","1","0","1","1","1","1","0","1","0","1","4","2","1","2","1","2","4","2","4","2","634786876431007744","吴","70","","","","","","","","","","","","","","","","","","","","","","","","","","","","","","","","","","","","","","","",""
"null","","null","html-keyboard-response","108","379973","0.0-6.0-0.0-8.0-0.0","3","4","3","3","4","4","3","4","3","4","5","5","5","4","4","5","4","5","4","4","2","1","2","2","2","1","1","1","2","1","0","1","1","0","1","0","1","1","1","1","0","1","0","1","4","2","1","2","1","2","4","2","4","2","634786876431007744","吴","70","","","","","","","","","","","","","","","","","","","","","","","","","","","","","","","","","","","","","","","",""
"726","<p style=""color:rgb(150, 250, 100); font-size: 35px;"">他</p>","e","categorize-html","109","380701","0.0-6.0-0.0-8.0-1.0","3","4","3","3","4","4","3","4","3","4","5","5","5","4","4","5","4","5","4","4","2","1","2","2","2","1","1","1","2","1","0","1","1","0","1","0","1","1","1","1","0","1","0","1","4","2","1","2","1","2","4","2","4","2","634786876431007744","吴","70","","","","","","","","","","","","","","","","","","","true","4","4","ability","726","other","他","","","","","","","","","","","","","","",""
"null","","null","html-keyboard-response","110","380952","0.0-6.0-0.0-8.0-0.1","3","4","3","3","4","4","3","4","3","4","5","5","5","4","4","5","4","5","4","4","2","1","2","2","2","1","1","1","2","1","0","1","1","0","1","0","1","1","1","1","0","1","0","1","4","2","1","2","1","2","4","2","4","2","634786876431007744","吴","70","","","","","","","","","","","","","","","","","","","","","","","","","","","","","","","","","","","","","","","",""
"899","<p style=""color:white; font-size: 35px;"">拙笨</p>","i","categorize-html","111","381853","0.0-6.0-0.0-8.0-1.1","3","4","3","3","4","4","3","4","3","4","5","5","5","4","4","5","4","5","4","4","2","1","2","2","2","1","1","1","2","1","0","1","1","0","1","0","1","1","1","1","0","1","0","1","4","2","1","2","1","2","4","2","4","2","634786876431007744","吴","70","","","","","","","","","","","","","","","","","","","true","4","4","ability","899","negative","拙笨","","","","","","","","","","","","","","",""
"null","","null","html-keyboard-response","112","382104","0.0-6.0-0.0-8.0-0.2","3","4","3","3","4","4","3","4","3","4","5","5","5","4","4","5","4","5","4","4","2","1","2","2","2","1","1","1","2","1","0","1","1","0","1","0","1","1","1","1","0","1","0","1","4","2","1","2","1","2","4","2","4","2","634786876431007744","吴","70","","","","","","","","","","","","","","","","","","","","","","","","","","","","","","","","","","","","","","","",""
"660","<p style=""color:rgb(150, 250, 100); font-size: 35px;"">我</p>","i","categorize-html","113","382766","0.0-6.0-0.0-8.0-1.2","3","4","3","3","4","4","3","4","3","4","5","5","5","4","4","5","4","5","4","4","2","1","2","2","2","1","1","1","2","1","0","1","1","0","1","0","1","1","1","1","0","1","0","1","4","2","1","2","1","2","4","2","4","2","634786876431007744","吴","70","","","","","","","","","","","","","","","","","","","true","4","4","ability","660","self","我","","","","","","","","","","","","","","",""
"null","","null","html-keyboard-response","114","383018","0.0-6.0-0.0-8.0-0.3","3","4","3","3","4","4","3","4","3","4","5","5","5","4","4","5","4","5","4","4","2","1","2","2","2","1","1","1","2","1","0","1","1","0","1","0","1","1","1","1","0","1","0","1","4","2","1","2","1","2","4","2","4","2","634786876431007744","吴","70","","","","","","","","","","","","","","","","","","","","","","","","","","","","","","","","","","","","","","","",""
"719","<p style=""color:white; font-size: 35px;"">天才</p>","e","categorize-html","115","383738","0.0-6.0-0.0-8.0-1.3","3","4","3","3","4","4","3","4","3","4","5","5","5","4","4","5","4","5","4","4","2","1","2","2","2","1","1","1","2","1","0","1","1","0","1","0","1","1","1","1","0","1","0","1","4","2","1","2","1","2","4","2","4","2","634786876431007744","吴","70","","","","","","","","","","","","","","","","","","","true","4","4","ability","719","positive","天才","","","","","","","","","","","","","","",""
"null","","null","html-keyboard-response","116","383990","0.0-6.0-0.0-8.0-0.4","3","4","3","3","4","4","3","4","3","4","5","5","5","4","4","5","4","5","4","4","2","1","2","2","2","1","1","1","2","1","0","1","1","0","1","0","1","1","1","1","0","1","0","1","4","2","1","2","1","2","4","2","4","2","634786876431007744","吴","70","","","","","","","","","","","","","","","","","","","","","","","","","","","","","","","","","","","","","","","",""
"754","<p style=""color:rgb(150, 250, 100); font-size: 35px;"">他人的</p>","e","categorize-html","117","384746","0.0-6.0-0.0-8.0-1.4","3","4","3","3","4","4","3","4","3","4","5","5","5","4","4","5","4","5","4","4","2","1","2","2","2","1","1","1","2","1","0","1","1","0","1","0","1","1","1","1","0","1","0","1","4","2","1","2","1","2","4","2","4","2","634786876431007744","吴","70","","","","","","","","","","","","","","","","","","","true","4","4","ability","754","other","他人的","","","","","","","","","","","","","","",""
"null","","null","html-keyboard-response","118","384997","0.0-6.0-0.0-8.0-0.5","3","4","3","3","4","4","3","4","3","4","5","5","5","4","4","5","4","5","4","4","2","1","2","2","2","1","1","1","2","1","0","1","1","0","1","0","1","1","1","1","0","1","0","1","4","2","1","2","1","2","4","2","4","2","634786876431007744","吴","70","","","","","","","","","","","","","","","","","","","","","","","","","","","","","","","","","","","","","","","",""
"1026","<p style=""color:white; font-size: 35px;"">高效</p>","e","categorize-html","119","386026","0.0-6.0-0.0-8.0-1.5","3","4","3","3","4","4","3","4","3","4","5","5","5","4","4","5","4","5","4","4","2","1","2","2","2","1","1","1","2","1","0","1","1","0","1","0","1","1","1","1","0","1","0","1","4","2","1","2","1","2","4","2","4","2","634786876431007744","吴","70","","","","","","","","","","","","","","","","","","","true","4","4","ability","1026","positive","高效","","","","","","","","","","","","","","",""
"null","","null","html-keyboard-response","120","386277","0.0-6.0-0.0-8.0-0.6","3","4","3","3","4","4","3","4","3","4","5","5","5","4","4","5","4","5","4","4","2","1","2","2","2","1","1","1","2","1","0","1","1","0","1","0","1","1","1","1","0","1","0","1","4","2","1","2","1","2","4","2","4","2","634786876431007744","吴","70","","","","","","","","","","","","","","","","","","","","","","","","","","","","","","","","","","","","","","","",""
"737","<p style=""color:rgb(150, 250, 100); font-size: 35px;"">本人的</p>","i","categorize-html","121","387016","0.0-6.0-0.0-8.0-1.6","3","4","3","3","4","4","3","4","3","4","5","5","5","4","4","5","4","5","4","4","2","1","2","2","2","1","1","1","2","1","0","1","1","0","1","0","1","1","1","1","0","1","0","1","4","2","1","2","1","2","4","2","4","2","634786876431007744","吴","70","","","","","","","","","","","","","","","","","","","true","4","4","ability","737","self","本人的","","","","","","","","","","","","","","",""
"null","","null","html-keyboard-response","122","387267","0.0-6.0-0.0-8.0-0.7","3","4","3","3","4","4","3","4","3","4","5","5","5","4","4","5","4","5","4","4","2","1","2","2","2","1","1","1","2","1","0","1","1","0","1","0","1","1","1","1","0","1","0","1","4","2","1","2","1","2","4","2","4","2","634786876431007744","吴","70","","","","","","","","","","","","","","","","","","","","","","","","","","","","","","","","","","","","","","","",""
"1534","<p style=""color:white; font-size: 35px;"">废物</p>","i","categorize-html","123","388803","0.0-6.0-0.0-8.0-1.7","3","4","3","3","4","4","3","4","3","4","5","5","5","4","4","5","4","5","4","4","2","1","2","2","2","1","1","1","2","1","0","1","1","0","1","0","1","1","1","1","0","1","0","1","4","2","1","2","1","2","4","2","4","2","634786876431007744","吴","70","","","","","","","","","","","","","","","","","","","true","4","4","ability","1534","negative","废物","","","","","","","","","","","","","","",""
"null","","null","html-keyboard-response","124","389054","0.0-6.0-0.0-8.0-0.8","3","4","3","3","4","4","3","4","3","4","5","5","5","4","4","5","4","5","4","4","2","1","2","2","2","1","1","1","2","1","0","1","1","0","1","0","1","1","1","1","0","1","0","1","4","2","1","2","1","2","4","2","4","2","634786876431007744","吴","70","","","","","","","","","","","","","","","","","","","","","","","","","","","","","","","","","","","","","","","",""
"572","<p style=""color:rgb(150, 250, 100); font-size: 35px;"">他人</p>","e","categorize-html","125","389628","0.0-6.0-0.0-8.0-1.8","3","4","3","3","4","4","3","4","3","4","5","5","5","4","4","5","4","5","4","4","2","1","2","2","2","1","1","1","2","1","0","1","1","0","1","0","1","1","1","1","0","1","0","1","4","2","1","2","1","2","4","2","4","2","634786876431007744","吴","70","","","","","","","","","","","","","","","","","","","true","4","4","ability","572","other","他人","","","","","","","","","","","","","","",""
"null","","null","html-keyboard-response","126","389880","0.0-6.0-0.0-8.0-0.9","3","4","3","3","4","4","3","4","3","4","5","5","5","4","4","5","4","5","4","4","2","1","2","2","2","1","1","1","2","1","0","1","1","0","1","0","1","1","1","1","0","1","0","1","4","2","1","2","1","2","4","2","4","2","634786876431007744","吴","70","","","","","","","","","","","","","","","","","","","","","","","","","","","","","","","","","","","","","","","",""
"755","<p style=""color:white; font-size: 35px;"">精干</p>","e","categorize-html","127","390638","0.0-6.0-0.0-8.0-1.9","3","4","3","3","4","4","3","4","3","4","5","5","5","4","4","5","4","5","4","4","2","1","2","2","2","1","1","1","2","1","0","1","1","0","1","0","1","1","1","1","0","1","0","1","4","2","1","2","1","2","4","2","4","2","634786876431007744","吴","70","","","","","","","","","","","","","","","","","","","true","4","4","ability","755","positive","精干","","","","","","","","","","","","","","",""
"null","","null","html-keyboard-response","128","390890","0.0-6.0-0.0-8.0-0.10","3","4","3","3","4","4","3","4","3","4","5","5","5","4","4","5","4","5","4","4","2","1","2","2","2","1","1","1","2","1","0","1","1","0","1","0","1","1","1","1","0","1","0","1","4","2","1","2","1","2","4","2","4","2","634786876431007744","吴","70","","","","","","","","","","","","","","","","","","","","","","","","","","","","","","","","","","","","","","","",""
"1631","<p style=""color:rgb(150, 250, 100); font-size: 35px;"">本人</p>","i","categorize-html","129","392523","0.0-6.0-0.0-8.0-1.10","3","4","3","3","4","4","3","4","3","4","5","5","5","4","4","5","4","5","4","4","2","1","2","2","2","1","1","1","2","1","0","1","1","0","1","0","1","1","1","1","0","1","0","1","4","2","1","2","1","2","4","2","4","2","634786876431007744","吴","70","","","","","","","","","","","","","","","","","","","true","4","4","ability","1631","self","本人","","","","","","","","","","","","","","",""
"null","","null","html-keyboard-response","130","392774","0.0-6.0-0.0-8.0-0.11","3","4","3","3","4","4","3","4","3","4","5","5","5","4","4","5","4","5","4","4","2","1","2","2","2","1","1","1","2","1","0","1","1","0","1","0","1","1","1","1","0","1","0","1","4","2","1","2","1","2","4","2","4","2","634786876431007744","吴","70","","","","","","","","","","","","","","","","","","","","","","","","","","","","","","","","","","","","","","","",""
"1066","<p style=""color:white; font-size: 35px;"">愚钝</p>","i","categorize-html","131","393842","0.0-6.0-0.0-8.0-1.11","3","4","3","3","4","4","3","4","3","4","5","5","5","4","4","5","4","5","4","4","2","1","2","2","2","1","1","1","2","1","0","1","1","0","1","0","1","1","1","1","0","1","0","1","4","2","1","2","1","2","4","2","4","2","634786876431007744","吴","70","","","","","","","","","","","","","","","","","","","true","4","4","ability","1066","negative","愚钝","","","","","","","","","","","","","","",""
"null","","null","html-keyboard-response","132","394094","0.0-6.0-0.0-8.0-0.12","3","4","3","3","4","4","3","4","3","4","5","5","5","4","4","5","4","5","4","4","2","1","2","2","2","1","1","1","2","1","0","1","1","0","1","0","1","1","1","1","0","1","0","1","4","2","1","2","1","2","4","2","4","2","634786876431007744","吴","70","","","","","","","","","","","","","","","","","","","","","","","","","","","","","","","","","","","","","","","",""
"577","<p style=""color:rgb(150, 250, 100); font-size: 35px;"">别人的</p>","i","categorize-html","133","395532","0.0-6.0-0.0-8.0-1.12","3","4","3","3","4","4","3","4","3","4","5","5","5","4","4","5","4","5","4","4","2","1","2","2","2","1","1","1","2","1","0","1","1","0","1","0","1","1","1","1","0","1","0","1","4","2","1","2","1","2","4","2","4","2","634786876431007744","吴","70","","","","","","","","","","","","","","","","","","","false","4","4","ability","1589.6","other","别人的","","","","","","","","","","","","","","",""
"null","","null","html-keyboard-response","134","395783","0.0-6.0-0.0-8.0-0.13","3","4","3","3","4","4","3","4","3","4","5","5","5","4","4","5","4","5","4","4","2","1","2","2","2","1","1","1","2","1","0","1","1","0","1","0","1","1","1","1","0","1","0","1","4","2","1","2","1","2","4","2","4","2","634786876431007744","吴","70","","","","","","","","","","","","","","","","","","","","","","","","","","","","","","","","","","","","","","","",""
"805","<p style=""color:white; font-size: 35px;"">全能</p>","e","categorize-html","135","396589","0.0-6.0-0.0-8.0-1.13","3","4","3","3","4","4","3","4","3","4","5","5","5","4","4","5","4","5","4","4","2","1","2","2","2","1","1","1","2","1","0","1","1","0","1","0","1","1","1","1","0","1","0","1","4","2","1","2","1","2","4","2","4","2","634786876431007744","吴","70","","","","","","","","","","","","","","","","","","","true","4","4","ability","805","positive","全能","","","","","","","","","","","","","","",""
"null","","null","html-keyboard-response","136","396841","0.0-6.0-0.0-8.0-0.14","3","4","3","3","4","4","3","4","3","4","5","5","5","4","4","5","4","5","4","4","2","1","2","2","2","1","1","1","2","1","0","1","1","0","1","0","1","1","1","1","0","1","0","1","4","2","1","2","1","2","4","2","4","2","634786876431007744","吴","70","","","","","","","","","","","","","","","","","","","","","","","","","","","","","","","","","","","","","","","",""
"575","<p style=""color:rgb(150, 250, 100); font-size: 35px;"">我</p>","i","categorize-html","137","397417","0.0-6.0-0.0-8.0-1.14","3","4","3","3","4","4","3","4","3","4","5","5","5","4","4","5","4","5","4","4","2","1","2","2","2","1","1","1","2","1","0","1","1","0","1","0","1","1","1","1","0","1","0","1","4","2","1","2","1","2","4","2","4","2","634786876431007744","吴","70","","","","","","","","","","","","","","","","","","","true","4","4","ability","575","self","我","","","","","","","","","","","","","","",""
"null","","null","html-keyboard-response","138","397669","0.0-6.0-0.0-8.0-0.15","3","4","3","3","4","4","3","4","3","4","5","5","5","4","4","5","4","5","4","4","2","1","2","2","2","1","1","1","2","1","0","1","1","0","1","0","1","1","1","1","0","1","0","1","4","2","1","2","1","2","4","2","4","2","634786876431007744","吴","70","","","","","","","","","","","","","","","","","","","","","","","","","","","","","","","","","","","","","","","",""
"1261","<p style=""color:white; font-size: 35px;"">拙笨</p>","i","categorize-html","139","398932","0.0-6.0-0.0-8.0-1.15","3","4","3","3","4","4","3","4","3","4","5","5","5","4","4","5","4","5","4","4","2","1","2","2","2","1","1","1","2","1","0","1","1","0","1","0","1","1","1","1","0","1","0","1","4","2","1","2","1","2","4","2","4","2","634786876431007744","吴","70","","","","","","","","","","","","","","","","","","","true","4","4","ability","1261","negative","拙笨","","","","","","","","","","","","","","",""
"null","","null","html-keyboard-response","140","399183","0.0-6.0-0.0-8.0-0.16","3","4","3","3","4","4","3","4","3","4","5","5","5","4","4","5","4","5","4","4","2","1","2","2","2","1","1","1","2","1","0","1","1","0","1","0","1","1","1","1","0","1","0","1","4","2","1","2","1","2","4","2","4","2","634786876431007744","吴","70","","","","","","","","","","","","","","","","","","","","","","","","","","","","","","","","","","","","","","","",""
"930","<p style=""color:rgb(150, 250, 100); font-size: 35px;"">他的</p>","e","categorize-html","141","400115","0.0-6.0-0.0-8.0-1.16","3","4","3","3","4","4","3","4","3","4","5","5","5","4","4","5","4","5","4","4","2","1","2","2","2","1","1","1","2","1","0","1","1","0","1","0","1","1","1","1","0","1","0","1","4","2","1","2","1","2","4","2","4","2","634786876431007744","吴","70","","","","","","","","","","","","","","","","","","","true","4","4","ability","930","other","他的","","","","","","","","","","","","","","",""
"null","","null","html-keyboard-response","142","400367","0.0-6.0-0.0-8.0-0.17","3","4","3","3","4","4","3","4","3","4","5","5","5","4","4","5","4","5","4","4","2","1","2","2","2","1","1","1","2","1","0","1","1","0","1","0","1","1","1","1","0","1","0","1","4","2","1","2","1","2","4","2","4","2","634786876431007744","吴","70","","","","","","","","","","","","","","","","","","","","","","","","","","","","","","","","","","","","","","","",""
"1050","<p style=""color:white; font-size: 35px;"">低能</p>","i","categorize-html","143","401420","0.0-6.0-0.0-8.0-1.17","3","4","3","3","4","4","3","4","3","4","5","5","5","4","4","5","4","5","4","4","2","1","2","2","2","1","1","1","2","1","0","1","1","0","1","0","1","1","1","1","0","1","0","1","4","2","1","2","1","2","4","2","4","2","634786876431007744","吴","70","","","","","","","","","","","","","","","","","","","true","4","4","ability","1050","negative","低能","","","","","","","","","","","","","","",""
"null","","null","html-keyboard-response","144","401671","0.0-6.0-0.0-8.0-0.18","3","4","3","3","4","4","3","4","3","4","5","5","5","4","4","5","4","5","4","4","2","1","2","2","2","1","1","1","2","1","0","1","1","0","1","0","1","1","1","1","0","1","0","1","4","2","1","2","1","2","4","2","4","2","634786876431007744","吴","70","","","","","","","","","","","","","","","","","","","","","","","","","","","","","","","","","","","","","","","",""
"563","<p style=""color:rgb(150, 250, 100); font-size: 35px;"">自己的</p>","e","categorize-html","145","402718","0.0-6.0-0.0-8.0-1.18","3","4","3","3","4","4","3","4","3","4","5","5","5","4","4","5","4","5","4","4","2","1","2","2","2","1","1","1","2","1","0","1","1","0","1","0","1","1","1","1","0","1","0","1","4","2","1","2","1","2","4","2","4","2","634786876431007744","吴","70","","","","","","","","","","","","","","","","","","","false","4","4","ability","1589.6","self","自己的","","","","","","","","","","","","","","",""
"null","","null","html-keyboard-response","146","402969","0.0-6.0-0.0-8.0-0.19","3","4","3","3","4","4","3","4","3","4","5","5","5","4","4","5","4","5","4","4","2","1","2","2","2","1","1","1","2","1","0","1","1","0","1","0","1","1","1","1","0","1","0","1","4","2","1","2","1","2","4","2","4","2","634786876431007744","吴","70","","","","","","","","","","","","","","","","","","","","","","","","","","","","","","","","","","","","","","","",""
"652","<p style=""color:white; font-size: 35px;"">高效</p>","e","categorize-html","147","403624","0.0-6.0-0.0-8.0-1.19","3","4","3","3","4","4","3","4","3","4","5","5","5","4","4","5","4","5","4","4","2","1","2","2","2","1","1","1","2","1","0","1","1","0","1","0","1","1","1","1","0","1","0","1","4","2","1","2","1","2","4","2","4","2","634786876431007744","吴","70","","","","","","","","","","","","","","","","","","","true","4","4","ability","652","positive","高效","","","","","","","","","","","","","","",""
"null","","null","html-keyboard-response","148","403875","0.0-6.0-0.0-8.0-0.20","3","4","3","3","4","4","3","4","3","4","5","5","5","4","4","5","4","5","4","4","2","1","2","2","2","1","1","1","2","1","0","1","1","0","1","0","1","1","1","1","0","1","0","1","4","2","1","2","1","2","4","2","4","2","634786876431007744","吴","70","","","","","","","","","","","","","","","","","","","","","","","","","","","","","","","","","","","","","","","",""
"525","<p style=""color:rgb(150, 250, 100); font-size: 35px;"">别人的</p>","e","categorize-html","149","404402","0.0-6.0-0.0-8.0-1.20","3","4","3","3","4","4","3","4","3","4","5","5","5","4","4","5","4","5","4","4","2","1","2","2","2","1","1","1","2","1","0","1","1","0","1","0","1","1","1","1","0","1","0","1","4","2","1","2","1","2","4","2","4","2","634786876431007744","吴","70","","","","","","","","","","","","","","","","","","","true","4","4","ability","525","other","别人的","","","","","","","","","","","","","","",""
"null","","null","html-keyboard-response","150","404653","0.0-6.0-0.0-8.0-0.21","3","4","3","3","4","4","3","4","3","4","5","5","5","4","4","5","4","5","4","4","2","1","2","2","2","1","1","1","2","1","0","1","1","0","1","0","1","1","1","1","0","1","0","1","4","2","1","2","1","2","4","2","4","2","634786876431007744","吴","70","","","","","","","","","","","","","","","","","","","","","","","","","","","","","","","","","","","","","","","",""
"812","<p style=""color:white; font-size: 35px;"">废物</p>","i","categorize-html","151","405468","0.0-6.0-0.0-8.0-1.21","3","4","3","3","4","4","3","4","3","4","5","5","5","4","4","5","4","5","4","4","2","1","2","2","2","1","1","1","2","1","0","1","1","0","1","0","1","1","1","1","0","1","0","1","4","2","1","2","1","2","4","2","4","2","634786876431007744","吴","70","","","","","","","","","","","","","","","","","","","true","4","4","ability","812","negative","废物","","","","","","","","","","","","","","",""
"null","","null","html-keyboard-response","152","405719","0.0-6.0-0.0-8.0-0.22","3","4","3","3","4","4","3","4","3","4","5","5","5","4","4","5","4","5","4","4","2","1","2","2","2","1","1","1","2","1","0","1","1","0","1","0","1","1","1","1","0","1","0","1","4","2","1","2","1","2","4","2","4","2","634786876431007744","吴","70","","","","","","","","","","","","","","","","","","","","","","","","","","","","","","","","","","","","","","","",""
"623","<p style=""color:rgb(150, 250, 100); font-size: 35px;"">我的</p>","i","categorize-html","153","406344","0.0-6.0-0.0-8.0-1.22","3","4","3","3","4","4","3","4","3","4","5","5","5","4","4","5","4","5","4","4","2","1","2","2","2","1","1","1","2","1","0","1","1","0","1","0","1","1","1","1","0","1","0","1","4","2","1","2","1","2","4","2","4","2","634786876431007744","吴","70","","","","","","","","","","","","","","","","","","","true","4","4","ability","623","self","我的","","","","","","","","","","","","","","",""
"null","","null","html-keyboard-response","154","406594","0.0-6.0-0.0-8.0-0.23","3","4","3","3","4","4","3","4","3","4","5","5","5","4","4","5","4","5","4","4","2","1","2","2","2","1","1","1","2","1","0","1","1","0","1","0","1","1","1","1","0","1","0","1","4","2","1","2","1","2","4","2","4","2","634786876431007744","吴","70","","","","","","","","","","","","","","","","","","","","","","","","","","","","","","","","","","","","","","","",""
"725","<p style=""color:white; font-size: 35px;"">精干</p>","e","categorize-html","155","407321","0.0-6.0-0.0-8.0-1.23","3","4","3","3","4","4","3","4","3","4","5","5","5","4","4","5","4","5","4","4","2","1","2","2","2","1","1","1","2","1","0","1","1","0","1","0","1","1","1","1","0","1","0","1","4","2","1","2","1","2","4","2","4","2","634786876431007744","吴","70","","","","","","","","","","","","","","","","","","","true","4","4","ability","725","positive","精干","","","","","","","","","","","","","","",""
"null","","null","html-keyboard-response","156","407572","0.0-6.0-0.0-8.0-0.24","3","4","3","3","4","4","3","4","3","4","5","5","5","4","4","5","4","5","4","4","2","1","2","2","2","1","1","1","2","1","0","1","1","0","1","0","1","1","1","1","0","1","0","1","4","2","1","2","1","2","4","2","4","2","634786876431007744","吴","70","","","","","","","","","","","","","","","","","","","","","","","","","","","","","","","","","","","","","","","",""
"660","<p style=""color:rgb(150, 250, 100); font-size: 35px;"">他的</p>","e","categorize-html","157","408235","0.0-6.0-0.0-8.0-1.24","3","4","3","3","4","4","3","4","3","4","5","5","5","4","4","5","4","5","4","4","2","1","2","2","2","1","1","1","2","1","0","1","1","0","1","0","1","1","1","1","0","1","0","1","4","2","1","2","1","2","4","2","4","2","634786876431007744","吴","70","","","","","","","","","","","","","","","","","","","true","4","4","ability","660","other","他的","","","","","","","","","","","","","","",""
"null","","null","html-keyboard-response","158","408486","0.0-6.0-0.0-8.0-0.25","3","4","3","3","4","4","3","4","3","4","5","5","5","4","4","5","4","5","4","4","2","1","2","2","2","1","1","1","2","1","0","1","1","0","1","0","1","1","1","1","0","1","0","1","4","2","1","2","1","2","4","2","4","2","634786876431007744","吴","70","","","","","","","","","","","","","","","","","","","","","","","","","","","","","","","","","","","","","","","",""
"1733","<p style=""color:white; font-size: 35px;"">能干</p>","e","categorize-html","159","410221","0.0-6.0-0.0-8.0-1.25","3","4","3","3","4","4","3","4","3","4","5","5","5","4","4","5","4","5","4","4","2","1","2","2","2","1","1","1","2","1","0","1","1","0","1","0","1","1","1","1","0","1","0","1","4","2","1","2","1","2","4","2","4","2","634786876431007744","吴","70","","","","","","","","","","","","","","","","","","","true","4","4","ability","1733","positive","能干","","","","","","","","","","","","","","",""
"null","","null","html-keyboard-response","160","410474","0.0-6.0-0.0-8.0-0.26","3","4","3","3","4","4","3","4","3","4","5","5","5","4","4","5","4","5","4","4","2","1","2","2","2","1","1","1","2","1","0","1","1","0","1","0","1","1","1","1","0","1","0","1","4","2","1","2","1","2","4","2","4","2","634786876431007744","吴","70","","","","","","","","","","","","","","","","","","","","","","","","","","","","","","","","","","","","","","","",""
"1946","<p style=""color:rgb(150, 250, 100); font-size: 35px;"">本人的</p>","i","categorize-html","161","412422","0.0-6.0-0.0-8.0-1.26","3","4","3","3","4","4","3","4","3","4","5","5","5","4","4","5","4","5","4","4","2","1","2","2","2","1","1","1","2","1","0","1","1","0","1","0","1","1","1","1","0","1","0","1","4","2","1","2","1","2","4","2","4","2","634786876431007744","吴","70","","","","","","","","","","","","","","","","","","","true","4","4","ability","1946","self","本人的","","","","","","","","","","","","","","",""
"null","","null","html-keyboard-response","162","412674","0.0-6.0-0.0-8.0-0.27","3","4","3","3","4","4","3","4","3","4","5","5","5","4","4","5","4","5","4","4","2","1","2","2","2","1","1","1","2","1","0","1","1","0","1","0","1","1","1","1","0","1","0","1","4","2","1","2","1","2","4","2","4","2","634786876431007744","吴","70","","","","","","","","","","","","","","","","","","","","","","","","","","","","","","","","","","","","","","","",""
"1142","<p style=""color:white; font-size: 35px;"">愚钝</p>","i","categorize-html","163","413818","0.0-6.0-0.0-8.0-1.27","3","4","3","3","4","4","3","4","3","4","5","5","5","4","4","5","4","5","4","4","2","1","2","2","2","1","1","1","2","1","0","1","1","0","1","0","1","1","1","1","0","1","0","1","4","2","1","2","1","2","4","2","4","2","634786876431007744","吴","70","","","","","","","","","","","","","","","","","","","true","4","4","ability","1142","negative","愚钝","","","","","","","","","","","","","","",""
"null","","null","html-keyboard-response","164","414070","0.0-6.0-0.0-8.0-0.28","3","4","3","3","4","4","3","4","3","4","5","5","5","4","4","5","4","5","4","4","2","1","2","2","2","1","1","1","2","1","0","1","1","0","1","0","1","1","1","1","0","1","0","1","4","2","1","2","1","2","4","2","4","2","634786876431007744","吴","70","","","","","","","","","","","","","","","","","","","","","","","","","","","","","","","","","","","","","","","",""
"719","<p style=""color:rgb(150, 250, 100); font-size: 35px;"">别人</p>","i","categorize-html","165","415288","0.0-6.0-0.0-8.0-1.28","3","4","3","3","4","4","3","4","3","4","5","5","5","4","4","5","4","5","4","4","2","1","2","2","2","1","1","1","2","1","0","1","1","0","1","0","1","1","1","1","0","1","0","1","4","2","1","2","1","2","4","2","4","2","634786876431007744","吴","70","","","","","","","","","","","","","","","","","","","false","4","4","ability","1589.6","other","别人","","","","","","","","","","","","","","",""
"null","","null","html-keyboard-response","166","415539","0.0-6.0-0.0-8.0-0.29","3","4","3","3","4","4","3","4","3","4","5","5","5","4","4","5","4","5","4","4","2","1","2","2","2","1","1","1","2","1","0","1","1","0","1","0","1","1","1","1","0","1","0","1","4","2","1","2","1","2","4","2","4","2","634786876431007744","吴","70","","","","","","","","","","","","","","","","","","","","","","","","","","","","","","","","","","","","","","","",""
"883","<p style=""color:white; font-size: 35px;"">低能</p>","i","categorize-html","167","416424","0.0-6.0-0.0-8.0-1.29","3","4","3","3","4","4","3","4","3","4","5","5","5","4","4","5","4","5","4","4","2","1","2","2","2","1","1","1","2","1","0","1","1","0","1","0","1","1","1","1","0","1","0","1","4","2","1","2","1","2","4","2","4","2","634786876431007744","吴","70","","","","","","","","","","","","","","","","","","","true","4","4","ability","883","negative","低能","","","","","","","","","","","","","","",""
"null","","null","html-keyboard-response","168","416676","0.0-6.0-0.0-8.0-0.30","3","4","3","3","4","4","3","4","3","4","5","5","5","4","4","5","4","5","4","4","2","1","2","2","2","1","1","1","2","1","0","1","1","0","1","0","1","1","1","1","0","1","0","1","4","2","1","2","1","2","4","2","4","2","634786876431007744","吴","70","","","","","","","","","","","","","","","","","","","","","","","","","","","","","","","","","","","","","","","",""
"843","<p style=""color:rgb(150, 250, 100); font-size: 35px;"">自己的</p>","i","categorize-html","169","417521","0.0-6.0-0.0-8.0-1.30","3","4","3","3","4","4","3","4","3","4","5","5","5","4","4","5","4","5","4","4","2","1","2","2","2","1","1","1","2","1","0","1","1","0","1","0","1","1","1","1","0","1","0","1","4","2","1","2","1","2","4","2","4","2","634786876431007744","吴","70","","","","","","","","","","","","","","","","","","","true","4","4","ability","843","self","自己的","","","","","","","","","","","","","","",""
"null","","null","html-keyboard-response","170","417772","0.0-6.0-0.0-8.0-0.31","3","4","3","3","4","4","3","4","3","4","5","5","5","4","4","5","4","5","4","4","2","1","2","2","2","1","1","1","2","1","0","1","1","0","1","0","1","1","1","1","0","1","0","1","4","2","1","2","1","2","4","2","4","2","634786876431007744","吴","70","","","","","","","","","","","","","","","","","","","","","","","","","","","","","","","","","","","","","","","",""
"696","<p style=""color:white; font-size: 35px;"">全才</p>","e","categorize-html","171","418470","0.0-6.0-0.0-8.0-1.31","3","4","3","3","4","4","3","4","3","4","5","5","5","4","4","5","4","5","4","4","2","1","2","2","2","1","1","1","2","1","0","1","1","0","1","0","1","1","1","1","0","1","0","1","4","2","1","2","1","2","4","2","4","2","634786876431007744","吴","70","","","","","","","","","","","","","","","","","","","true","4","4","ability","696","positive","全才","","","","","","","","","","","","","","",""
"null","","null","html-keyboard-response","172","418720","0.0-6.0-0.0-8.0-0.32","3","4","3","3","4","4","3","4","3","4","5","5","5","4","4","5","4","5","4","4","2","1","2","2","2","1","1","1","2","1","0","1","1","0","1","0","1","1","1","1","0","1","0","1","4","2","1","2","1","2","4","2","4","2","634786876431007744","吴","70","","","","","","","","","","","","","","","","","","","","","","","","","","","","","","","","","","","","","","","",""
"855","<p style=""color:rgb(150, 250, 100); font-size: 35px;"">自己</p>","i","categorize-html","173","419578","0.0-6.0-0.0-8.0-1.32","3","4","3","3","4","4","3","4","3","4","5","5","5","4","4","5","4","5","4","4","2","1","2","2","2","1","1","1","2","1","0","1","1","0","1","0","1","1","1","1","0","1","0","1","4","2","1","2","1","2","4","2","4","2","634786876431007744","吴","70","","","","","","","","","","","","","","","","","","","true","4","4","ability","855","self","自己","","","","","","","","","","","","","","",""
"null","","null","html-keyboard-response","174","419829","0.0-6.0-0.0-8.0-0.33","3","4","3","3","4","4","3","4","3","4","5","5","5","4","4","5","4","5","4","4","2","1","2","2","2","1","1","1","2","1","0","1","1","0","1","0","1","1","1","1","0","1","0","1","4","2","1","2","1","2","4","2","4","2","634786876431007744","吴","70","","","","","","","","","","","","","","","","","","","","","","","","","","","","","","","","","","","","","","","",""
"954","<p style=""color:white; font-size: 35px;"">蠢笨</p>","i","categorize-html","175","420788","0.0-6.0-0.0-8.0-1.33","3","4","3","3","4","4","3","4","3","4","5","5","5","4","4","5","4","5","4","4","2","1","2","2","2","1","1","1","2","1","0","1","1","0","1","0","1","1","1","1","0","1","0","1","4","2","1","2","1","2","4","2","4","2","634786876431007744","吴","70","","","","","","","","","","","","","","","","","","","true","4","4","ability","954","negative","蠢笨","","","","","","","","","","","","","","",""
"null","","null","html-keyboard-response","176","421039","0.0-6.0-0.0-8.0-0.34","3","4","3","3","4","4","3","4","3","4","5","5","5","4","4","5","4","5","4","4","2","1","2","2","2","1","1","1","2","1","0","1","1","0","1","0","1","1","1","1","0","1","0","1","4","2","1","2","1","2","4","2","4","2","634786876431007744","吴","70","","","","","","","","","","","","","","","","","","","","","","","","","","","","","","","","","","","","","","","",""
"806","<p style=""color:rgb(150, 250, 100); font-size: 35px;"">他人的</p>","e","categorize-html","177","421847","0.0-6.0-0.0-8.0-1.34","3","4","3","3","4","4","3","4","3","4","5","5","5","4","4","5","4","5","4","4","2","1","2","2","2","1","1","1","2","1","0","1","1","0","1","0","1","1","1","1","0","1","0","1","4","2","1","2","1","2","4","2","4","2","634786876431007744","吴","70","","","","","","","","","","","","","","","","","","","true","4","4","ability","806","other","他人的","","","","","","","","","","","","","","",""
"null","","null","html-keyboard-response","178","422098","0.0-6.0-0.0-8.0-0.35","3","4","3","3","4","4","3","4","3","4","5","5","5","4","4","5","4","5","4","4","2","1","2","2","2","1","1","1","2","1","0","1","1","0","1","0","1","1","1","1","0","1","0","1","4","2","1","2","1","2","4","2","4","2","634786876431007744","吴","70","","","","","","","","","","","","","","","","","","","","","","","","","","","","","","","","","","","","","","","",""
"950","<p style=""color:white; font-size: 35px;"">全能</p>","e","categorize-html","179","423050","0.0-6.0-0.0-8.0-1.35","3","4","3","3","4","4","3","4","3","4","5","5","5","4","4","5","4","5","4","4","2","1","2","2","2","1","1","1","2","1","0","1","1","0","1","0","1","1","1","1","0","1","0","1","4","2","1","2","1","2","4","2","4","2","634786876431007744","吴","70","","","","","","","","","","","","","","","","","","","true","4","4","ability","950","positive","全能","","","","","","","","","","","","","","",""
"null","","null","html-keyboard-response","180","423301","0.0-6.0-0.0-8.0-0.36","3","4","3","3","4","4","3","4","3","4","5","5","5","4","4","5","4","5","4","4","2","1","2","2","2","1","1","1","2","1","0","1","1","0","1","0","1","1","1","1","0","1","0","1","4","2","1","2","1","2","4","2","4","2","634786876431007744","吴","70","","","","","","","","","","","","","","","","","","","","","","","","","","","","","","","","","","","","","","","",""
"1177","<p style=""color:rgb(150, 250, 100); font-size: 35px;"">本人</p>","i","categorize-html","181","424480","0.0-6.0-0.0-8.0-1.36","3","4","3","3","4","4","3","4","3","4","5","5","5","4","4","5","4","5","4","4","2","1","2","2","2","1","1","1","2","1","0","1","1","0","1","0","1","1","1","1","0","1","0","1","4","2","1","2","1","2","4","2","4","2","634786876431007744","吴","70","","","","","","","","","","","","","","","","","","","true","4","4","ability","1177","self","本人","","","","","","","","","","","","","","",""
"null","","null","html-keyboard-response","182","424731","0.0-6.0-0.0-8.0-0.37","3","4","3","3","4","4","3","4","3","4","5","5","5","4","4","5","4","5","4","4","2","1","2","2","2","1","1","1","2","1","0","1","1","0","1","0","1","1","1","1","0","1","0","1","4","2","1","2","1","2","4","2","4","2","634786876431007744","吴","70","","","","","","","","","","","","","","","","","","","","","","","","","","","","","","","","","","","","","","","",""
"1076","<p style=""color:white; font-size: 35px;"">无能</p>","i","categorize-html","183","425808","0.0-6.0-0.0-8.0-1.37","3","4","3","3","4","4","3","4","3","4","5","5","5","4","4","5","4","5","4","4","2","1","2","2","2","1","1","1","2","1","0","1","1","0","1","0","1","1","1","1","0","1","0","1","4","2","1","2","1","2","4","2","4","2","634786876431007744","吴","70","","","","","","","","","","","","","","","","","","","true","4","4","ability","1076","negative","无能","","","","","","","","","","","","","","",""
"null","","null","html-keyboard-response","184","426059","0.0-6.0-0.0-8.0-0.38","3","4","3","3","4","4","3","4","3","4","5","5","5","4","4","5","4","5","4","4","2","1","2","2","2","1","1","1","2","1","0","1","1","0","1","0","1","1","1","1","0","1","0","1","4","2","1","2","1","2","4","2","4","2","634786876431007744","吴","70","","","","","","","","","","","","","","","","","","","","","","","","","","","","","","","","","","","","","","","",""
"1132","<p style=""color:rgb(150, 250, 100); font-size: 35px;"">他</p>","e","categorize-html","185","427193","0.0-6.0-0.0-8.0-1.38","3","4","3","3","4","4","3","4","3","4","5","5","5","4","4","5","4","5","4","4","2","1","2","2","2","1","1","1","2","1","0","1","1","0","1","0","1","1","1","1","0","1","0","1","4","2","1","2","1","2","4","2","4","2","634786876431007744","吴","70","","","","","","","","","","","","","","","","","","","true","4","4","ability","1132","other","他","","","","","","","","","","","","","","",""
"null","","null","html-keyboard-response","186","427444","0.0-6.0-0.0-8.0-0.39","3","4","3","3","4","4","3","4","3","4","5","5","5","4","4","5","4","5","4","4","2","1","2","2","2","1","1","1","2","1","0","1","1","0","1","0","1","1","1","1","0","1","0","1","4","2","1","2","1","2","4","2","4","2","634786876431007744","吴","70","","","","","","","","","","","","","","","","","","","","","","","","","","","","","","","","","","","","","","","",""
"2274","<p style=""color:white; font-size: 35px;"">全才</p>","e","categorize-html","187","429720","0.0-6.0-0.0-8.0-1.39","3","4","3","3","4","4","3","4","3","4","5","5","5","4","4","5","4","5","4","4","2","1","2","2","2","1","1","1","2","1","0","1","1","0","1","0","1","1","1","1","0","1","0","1","4","2","1","2","1","2","4","2","4","2","634786876431007744","吴","70","","","","","","","","","","","","","","","","","","","true","4","4","ability","2274","positive","全才","","","","","","","","","","","","","","",""
"null","","null","html-keyboard-response","188","429973","0.0-6.0-0.0-8.0-0.40","3","4","3","3","4","4","3","4","3","4","5","5","5","4","4","5","4","5","4","4","2","1","2","2","2","1","1","1","2","1","0","1","1","0","1","0","1","1","1","1","0","1","0","1","4","2","1","2","1","2","4","2","4","2","634786876431007744","吴","70","","","","","","","","","","","","","","","","","","","","","","","","","","","","","","","","","","","","","","","",""
"577","<p style=""color:rgb(150, 250, 100); font-size: 35px;"">我的</p>","i","categorize-html","189","430551","0.0-6.0-0.0-8.0-1.40","3","4","3","3","4","4","3","4","3","4","5","5","5","4","4","5","4","5","4","4","2","1","2","2","2","1","1","1","2","1","0","1","1","0","1","0","1","1","1","1","0","1","0","1","4","2","1","2","1","2","4","2","4","2","634786876431007744","吴","70","","","","","","","","","","","","","","","","","","","true","4","4","ability","577","self","我的","","","","","","","","","","","","","","",""
"null","","null","html-keyboard-response","190","430802","0.0-6.0-0.0-8.0-0.41","3","4","3","3","4","4","3","4","3","4","5","5","5","4","4","5","4","5","4","4","2","1","2","2","2","1","1","1","2","1","0","1","1","0","1","0","1","1","1","1","0","1","0","1","4","2","1","2","1","2","4","2","4","2","634786876431007744","吴","70","","","","","","","","","","","","","","","","","","","","","","","","","","","","","","","","","","","","","","","",""
"1339","<p style=""color:white; font-size: 35px;"">天才</p>","e","categorize-html","191","432144","0.0-6.0-0.0-8.0-1.41","3","4","3","3","4","4","3","4","3","4","5","5","5","4","4","5","4","5","4","4","2","1","2","2","2","1","1","1","2","1","0","1","1","0","1","0","1","1","1","1","0","1","0","1","4","2","1","2","1","2","4","2","4","2","634786876431007744","吴","70","","","","","","","","","","","","","","","","","","","true","4","4","ability","1339","positive","天才","","","","","","","","","","","","","","",""
"null","","null","html-keyboard-response","192","432395","0.0-6.0-0.0-8.0-0.42","3","4","3","3","4","4","3","4","3","4","5","5","5","4","4","5","4","5","4","4","2","1","2","2","2","1","1","1","2","1","0","1","1","0","1","0","1","1","1","1","0","1","0","1","4","2","1","2","1","2","4","2","4","2","634786876431007744","吴","70","","","","","","","","","","","","","","","","","","","","","","","","","","","","","","","","","","","","","","","",""
"1473","<p style=""color:rgb(150, 250, 100); font-size: 35px;"">别人</p>","e","categorize-html","193","433871","0.0-6.0-0.0-8.0-1.42","3","4","3","3","4","4","3","4","3","4","5","5","5","4","4","5","4","5","4","4","2","1","2","2","2","1","1","1","2","1","0","1","1","0","1","0","1","1","1","1","0","1","0","1","4","2","1","2","1","2","4","2","4","2","634786876431007744","吴","70","","","","","","","","","","","","","","","","","","","true","4","4","ability","1473","other","别人","","","","","","","","","","","","","","",""
"null","","null","html-keyboard-response","194","434124","0.0-6.0-0.0-8.0-0.43","3","4","3","3","4","4","3","4","3","4","5","5","5","4","4","5","4","5","4","4","2","1","2","2","2","1","1","1","2","1","0","1","1","0","1","0","1","1","1","1","0","1","0","1","4","2","1","2","1","2","4","2","4","2","634786876431007744","吴","70","","","","","","","","","","","","","","","","","","","","","","","","","","","","","","","","","","","","","","","",""
"1002","<p style=""color:white; font-size: 35px;"">无能</p>","i","categorize-html","195","435127","0.0-6.0-0.0-8.0-1.43","3","4","3","3","4","4","3","4","3","4","5","5","5","4","4","5","4","5","4","4","2","1","2","2","2","1","1","1","2","1","0","1","1","0","1","0","1","1","1","1","0","1","0","1","4","2","1","2","1","2","4","2","4","2","634786876431007744","吴","70","","","","","","","","","","","","","","","","","","","true","4","4","ability","1002","negative","无能","","","","","","","","","","","","","","",""
"null","","null","html-keyboard-response","196","435388","0.0-6.0-0.0-8.0-0.44","3","4","3","3","4","4","3","4","3","4","5","5","5","4","4","5","4","5","4","4","2","1","2","2","2","1","1","1","2","1","0","1","1","0","1","0","1","1","1","1","0","1","0","1","4","2","1","2","1","2","4","2","4","2","634786876431007744","吴","70","","","","","","","","","","","","","","","","","","","","","","","","","","","","","","","","","","","","","","","",""
"669","<p style=""color:rgb(150, 250, 100); font-size: 35px;"">自己</p>","i","categorize-html","197","436060","0.0-6.0-0.0-8.0-1.44","3","4","3","3","4","4","3","4","3","4","5","5","5","4","4","5","4","5","4","4","2","1","2","2","2","1","1","1","2","1","0","1","1","0","1","0","1","1","1","1","0","1","0","1","4","2","1","2","1","2","4","2","4","2","634786876431007744","吴","70","","","","","","","","","","","","","","","","","","","true","4","4","ability","669","self","自己","","","","","","","","","","","","","","",""
