"rt","stimulus","response","trial_type","trial_index","time_elapsed","internal_node_id","ses_1","ses_2","ses_3","ses_4","ses_5","ses_6","ses_7","ses_8","ses_9","ses_10","coreself_1","coreself_2","coreself_3","coreself_4","coreself_5","coreself_6","coreself_7","coreself_8","coreself_9","coreself_10","SGPS_1","SGPS_2","SGPS_3","SGPS_4","SGPS_5","SGPS_6","SGPS_7","SGPS_8","SGPS_9","NPI1","NPI2","NPI3","NPI4","NPI5","NPI6","NPI7","NPI8","NPI9","NPI10","NPI11","NPI12","NPI13","NPI14","NPI15","hsns_1","hsns_2","hsns_3","hsns_4","hsns_5","hsns_6","hsns_7","hsns_8","hsns_9","hsns_10","subj_idx","friend_name","ParticipantID","value","success","user_agent","responses","item_order","radio_event_ids","radio_event_times","key_event_times","mouse_event_times","straightlining","zigzagging","honeypot","timeout","failed_images","failed_audio","failed_video","version_attrib2","version_target2","correct","IAT","screen_id","task_id","RT","condition","word","varname","summary","version_attrib","version_target","time_stamp","view_history","response_type","key_press","avg_frame_time","center_x","center_y","correct_response","identity","Image","question_order"
"5355","
   <p><div style = ""color: white;font-size:25px;"">您好，欢迎参加本次实验。</div> </p>
   <p><div style = ""color: white;font-size:25px;"">为充分保障您的权利，请确保您已经知晓并同意《参与实验同意书》以及《数据公开知情同意书》。</div></p>
   <p><div style = ""color: white;font-size:25px;"">如果您未见过上述内容，请咨询实验员。</div></p>
   <p><div style = ""color: white;font-size:25px;"">如果您选择继续实验，则表示您已经清楚两份知情同意书的内容并同意。</div></p>
   <p><div style = ""color: red;font-size:30px;"">请确保您记得day0的实验编号，您将在本次实验输入该编号，若您忘记，请咨询实验员后作答。</div></p>
   <p> <div style = ""color: green;font-size:25px;""><按空格键至下页></div> </p>
   "," ","html-keyboard-response","0","5364","0.0-0.0","4","3","4","3","3","3","3","4","4","3","4","3","3","4","3","4","3","3","4","5","1","1","2","2","2","1","2","1","2","1","0","1","1","0","0","1","1","0","1","1","0","1","0","1","5","4","4","2","2","3","4","4","3","1","729745091731918850","黄","462","","","","","","","","","","","","","","","","","","","","","","","","","","","","","","","","","","","","","","","",""
"","","","call-function","1","5368","0.0-1.0-0.0","4","3","4","3","3","3","3","4","4","3","4","3","3","4","3","4","3","3","4","5","1","1","2","2","2","1","2","1","2","1","0","1","1","0","0","1","1","0","1","1","0","1","0","1","5","4","4","2","2","3","4","4","3","1","729745091731918850","黄","462","","","","","","","","","","","","","","","","","","","","","","","","","","","","","","","","","","","","","","","",""
"12383","","{""friend_name"":""黄"",""ParticipantID"":""462""}","survey-html-form","2","17754","0.0-1.0-1.0","4","3","4","3","3","3","3","4","4","3","4","3","3","4","3","4","3","3","4","5","1","1","2","2","2","1","2","1","2","1","0","1","1","0","0","1","1","0","1","1","0","1","0","1","5","4","4","2","2","3","4","4","3","1","729745091731918850","黄","462","","","","","","","","","","","","","","","","","","","","","","","","","","","","","","","","","","","","","","","",""
"","","","fullscreen","3","19231","0.0-2.0","4","3","4","3","3","3","3","4","4","3","4","3","3","4","3","4","3","3","4","5","1","1","2","2","2","1","2","1","2","1","0","1","1","0","0","1","1","0","1","1","0","1","0","1","5","4","4","2","2","3","4","4","3","1","729745091731918850","黄","462","","true","{}","","","","","","","","","","","","","","","","","","","","","","","","","","","","","","","","","","","","",""
"16932.900000000373","","{""Q01"":""4"",""Q02"":""3"",""Q03"":""4"",""Q04"":""3"",""Q05"":""3"",""Q06"":""3"",""Q07"":""3"",""Q08"":""4"",""Q09"":""4"",""Q10"":""3""}","survey-template","4","36173","0.0-3.0","4","3","4","3","3","3","3","4","4","3","4","3","3","4","3","4","3","3","4","5","1","1","2","2","2","1","2","1","2","1","0","1","1","0","0","1","1","0","1","1","0","1","0","1","5","4","4","2","2","3","4","4","3","1","729745091731918850","黄","462","","","","{""Q01"":""4"",""Q02"":""3"",""Q03"":""4"",""Q04"":""3"",""Q05"":""3"",""Q06"":""3"",""Q07"":""3"",""Q08"":""4"",""Q09"":""4"",""Q10"":""3""}","[0,1,2,3,4,5,6,7,8,9]","[""Q01"",""Q02"",""Q03"",""Q04"",""Q05"",""Q06"",""Q07"",""Q08"",""Q09"",""Q10""]","[4058.0999999996275,5546,7410,8394,10257.300000000745,11041.599999999627,12265.5,14441.5,15425.400000000373,16177.400000000373]","[]","[3585.9000000003725,4058.0999999996275,5546,7410,8394,10257.300000000745,11041.599999999627,12265.5,14441.5,15425.400000000373,16177.400000000373,16929.5]","0.4","0.4444444444444444","0","","","","","","","","","","","","","","","","","","","","","","","","","","","",""
"22961","","{""Q01"":""4"",""Q02"":""3"",""Q03"":""3"",""Q04"":""4"",""Q05"":""3"",""Q06"":""4"",""Q07"":""3"",""Q08"":""3"",""Q09"":""4"",""Q10"":""5""}","survey-template","5","59158","0.0-4.0","4","3","4","3","3","3","3","4","4","3","4","3","3","4","3","4","3","3","4","5","1","1","2","2","2","1","2","1","2","1","0","1","1","0","0","1","1","0","1","1","0","1","0","1","5","4","4","2","2","3","4","4","3","1","729745091731918850","黄","462","","","","{""Q01"":""4"",""Q02"":""3"",""Q03"":""3"",""Q04"":""4"",""Q05"":""3"",""Q06"":""4"",""Q07"":""3"",""Q08"":""3"",""Q09"":""4"",""Q10"":""5""}","[0,1,2,3,4,5,6,7,8,9]","[""Q01"",""Q02"",""Q03"",""Q04"",""Q05"",""Q06"",""Q07"",""Q08"",""Q09"",""Q10""]","[4293.4000000003725,5973.5,8525.400000000373,11229.900000000373,13813.300000000745,14621.400000000373,16253.5,18253.5,19269.400000000373,21933.5]","[]","[4293.4000000003725,5973.5,8525.400000000373,9389.300000000745,10613.400000000373,11229.900000000373,13813.300000000745,14621.400000000373,16253.5,18253.5,19269.400000000373,21085.5,21933.5,22509.5,22957.599999999627]","0.5","0.6666666666666666","0","","","","","","","","","","","","","","","","","","","","","","","","","","","",""
"","","","preload","6","60959","0.0-5.0","4","3","4","3","3","3","3","4","4","3","4","3","3","4","3","4","3","3","4","5","1","1","2","2","2","1","2","1","2","1","0","1","1","0","0","1","1","0","1","1","0","1","0","1","5","4","4","2","2","3","4","4","3","1","729745091731918850","黄","462","","true","","","","","","","","","","","false","[]","[]","[]","","","","","","","","","","","","","","","","","","","","","","","",""
"10758","
    <h3>词语分类任务</h3>
    <p>在接下来的任务中，你需要对一系列词语进行分类。<p/>
    请先熟悉这些词语，这有利于你完成接下来的任务。</p>
    <table align=""center"" border=1 cellpadding=3 cellspacing=0>
    <tr> <th>类别</th> <th>词语</th> </tr>
    <tr> <td>&emsp;积极&emsp;</td> <td>&emsp;高尚、诚信、善良、君子、廉正、正直&emsp;</td> </tr>
    <tr> <td>&emsp;消极&emsp;</td> <td>&emsp;缺德、卑鄙、不孝、不仁、小人、黑心&emsp;</td> </tr>
    <tr> <td>&emsp;自我&emsp;</td> <td>&emsp;我、我的、自己、自己的、本人、本人的&emsp;</td> </tr>
    <tr> <td>&emsp;他人&emsp;</td> <td>&emsp;他、他的、别人、别人的、他人、他人的&emsp;</td> </tr>
    </table><br/>","0","html-button-response","7","71721","0.0-6.0-1.0-0.0","4","3","4","3","3","3","3","4","4","3","4","3","3","4","3","4","3","3","4","5","1","1","2","2","2","1","2","1","2","1","0","1","1","0","0","1","1","0","1","1","0","1","0","1","5","4","4","2","2","3","4","4","3","1","729745091731918850","黄","462","","","","","","","","","","","","","","","","","1","2","","","","","","","","","","","","","","","","","","","","","",""
"924","
    <div class=""tag-bottom""><p>
    —— 任务1：对“他人”词和“自我”词分类 ——<p/>
    不同词语会出现在屏幕中央，类别标签将始终显示在屏幕上方<p/>   
    <span style=""color:#FFD866""><b>请根据上方标签的提示，尽可能正确并且快速地做出按键反应</b></span><p/>
    当按键错误时屏幕中会出现<span style=""color:red""> X </span>，需要按另一个键纠正才能继续<br/><p/>
    请把双手食指分别放在键盘的“E”键和“I”键上<p/>
    按<空格键>开始
    </p></div>"," ","html-keyboard-response","8","72656","0.0-6.0-1.0-1.0","4","3","4","3","3","3","3","4","4","3","4","3","3","4","3","4","3","3","4","5","1","1","2","2","2","1","2","1","2","1","0","1","1","0","0","1","1","0","1","1","0","1","0","1","5","4","4","2","2","3","4","4","3","1","729745091731918850","黄","462","","","","","","","","","","","","","","","","","","","","","","","","","","","","","","","","","","","","","","","",""
"null","","null","html-keyboard-response","9","72912","0.0-6.0-1.0-2.0-0.0","4","3","4","3","3","3","3","4","4","3","4","3","3","4","3","4","3","3","4","5","1","1","2","2","2","1","2","1","2","1","0","1","1","0","0","1","1","0","1","1","0","1","0","1","5","4","4","2","2","3","4","4","3","1","729745091731918850","黄","462","","","","","","","","","","","","","","","","","","","","","","","","","","","","","","","","","","","","","","","",""
"1194","<p style=""color:rgb(150, 250, 100); font-size: 35px;"">自己</p>","i","categorize-html","10","74115","0.0-6.0-1.0-2.0-1.0","4","3","4","3","3","3","3","4","4","3","4","3","3","4","3","4","3","3","4","5","1","1","2","2","2","1","2","1","2","1","0","1","1","0","0","1","1","0","1","1","0","1","0","1","5","4","4","2","2","3","4","4","3","1","729745091731918850","黄","462","","","","","","","","","","","","","","","","","","","true","11","1","moral","1194","self","自己","","","","","","","","","","","","","","",""
"null","","null","html-keyboard-response","11","74376","0.0-6.0-1.0-2.0-0.1","4","3","4","3","3","3","3","4","4","3","4","3","3","4","3","4","3","3","4","5","1","1","2","2","2","1","2","1","2","1","0","1","1","0","0","1","1","0","1","1","0","1","0","1","5","4","4","2","2","3","4","4","3","1","729745091731918850","黄","462","","","","","","","","","","","","","","","","","","","","","","","","","","","","","","","","","","","","","","","",""
"590","<p style=""color:rgb(150, 250, 100); font-size: 35px;"">我的</p>","i","categorize-html","12","74971","0.0-6.0-1.0-2.0-1.1","4","3","4","3","3","3","3","4","4","3","4","3","3","4","3","4","3","3","4","5","1","1","2","2","2","1","2","1","2","1","0","1","1","0","0","1","1","0","1","1","0","1","0","1","5","4","4","2","2","3","4","4","3","1","729745091731918850","黄","462","","","","","","","","","","","","","","","","","","","true","11","1","moral","590","self","我的","","","","","","","","","","","","","","",""
"null","","null","html-keyboard-response","13","75224","0.0-6.0-1.0-2.0-0.2","4","3","4","3","3","3","3","4","4","3","4","3","3","4","3","4","3","3","4","5","1","1","2","2","2","1","2","1","2","1","0","1","1","0","0","1","1","0","1","1","0","1","0","1","5","4","4","2","2","3","4","4","3","1","729745091731918850","黄","462","","","","","","","","","","","","","","","","","","","","","","","","","","","","","","","","","","","","","","","",""
"493","<p style=""color:rgb(150, 250, 100); font-size: 35px;"">他人</p>","e","categorize-html","14","75723","0.0-6.0-1.0-2.0-1.2","4","3","4","3","3","3","3","4","4","3","4","3","3","4","3","4","3","3","4","5","1","1","2","2","2","1","2","1","2","1","0","1","1","0","0","1","1","0","1","1","0","1","0","1","5","4","4","2","2","3","4","4","3","1","729745091731918850","黄","462","","","","","","","","","","","","","","","","","","","true","11","1","moral","493","other","他人","","","","","","","","","","","","","","",""
"null","","null","html-keyboard-response","15","75976","0.0-6.0-1.0-2.0-0.3","4","3","4","3","3","3","3","4","4","3","4","3","3","4","3","4","3","3","4","5","1","1","2","2","2","1","2","1","2","1","0","1","1","0","0","1","1","0","1","1","0","1","0","1","5","4","4","2","2","3","4","4","3","1","729745091731918850","黄","462","","","","","","","","","","","","","","","","","","","","","","","","","","","","","","","","","","","","","","","",""
"462","<p style=""color:rgb(150, 250, 100); font-size: 35px;"">本人的</p>","e","categorize-html","16","76919","0.0-6.0-1.0-2.0-1.3","4","3","4","3","3","3","3","4","4","3","4","3","3","4","3","4","3","3","4","5","1","1","2","2","2","1","2","1","2","1","0","1","1","0","0","1","1","0","1","1","0","1","0","1","5","4","4","2","2","3","4","4","3","1","729745091731918850","黄","462","","","","","","","","","","","","","","","","","","","false","11","1","moral","462","self","本人的","","","","","","","","","","","","","","",""
"null","","null","html-keyboard-response","17","77176","0.0-6.0-1.0-2.0-0.4","4","3","4","3","3","3","3","4","4","3","4","3","3","4","3","4","3","3","4","5","1","1","2","2","2","1","2","1","2","1","0","1","1","0","0","1","1","0","1","1","0","1","0","1","5","4","4","2","2","3","4","4","3","1","729745091731918850","黄","462","","","","","","","","","","","","","","","","","","","","","","","","","","","","","","","","","","","","","","","",""
"645","<p style=""color:rgb(150, 250, 100); font-size: 35px;"">自己的</p>","i","categorize-html","18","77827","0.0-6.0-1.0-2.0-1.4","4","3","4","3","3","3","3","4","4","3","4","3","3","4","3","4","3","3","4","5","1","1","2","2","2","1","2","1","2","1","0","1","1","0","0","1","1","0","1","1","0","1","0","1","5","4","4","2","2","3","4","4","3","1","729745091731918850","黄","462","","","","","","","","","","","","","","","","","","","true","11","1","moral","645","self","自己的","","","","","","","","","","","","","","",""
"null","","null","html-keyboard-response","19","78080","0.0-6.0-1.0-2.0-0.5","4","3","4","3","3","3","3","4","4","3","4","3","3","4","3","4","3","3","4","5","1","1","2","2","2","1","2","1","2","1","0","1","1","0","0","1","1","0","1","1","0","1","0","1","5","4","4","2","2","3","4","4","3","1","729745091731918850","黄","462","","","","","","","","","","","","","","","","","","","","","","","","","","","","","","","","","","","","","","","",""
"549","<p style=""color:rgb(150, 250, 100); font-size: 35px;"">本人</p>","i","categorize-html","20","78635","0.0-6.0-1.0-2.0-1.5","4","3","4","3","3","3","3","4","4","3","4","3","3","4","3","4","3","3","4","5","1","1","2","2","2","1","2","1","2","1","0","1","1","0","0","1","1","0","1","1","0","1","0","1","5","4","4","2","2","3","4","4","3","1","729745091731918850","黄","462","","","","","","","","","","","","","","","","","","","true","11","1","moral","549","self","本人","","","","","","","","","","","","","","",""
"null","","null","html-keyboard-response","21","78889","0.0-6.0-1.0-2.0-0.6","4","3","4","3","3","3","3","4","4","3","4","3","3","4","3","4","3","3","4","5","1","1","2","2","2","1","2","1","2","1","0","1","1","0","0","1","1","0","1","1","0","1","0","1","5","4","4","2","2","3","4","4","3","1","729745091731918850","黄","462","","","","","","","","","","","","","","","","","","","","","","","","","","","","","","","","","","","","","","","",""
"597","<p style=""color:rgb(150, 250, 100); font-size: 35px;"">别人的</p>","e","categorize-html","22","79491","0.0-6.0-1.0-2.0-1.6","4","3","4","3","3","3","3","4","4","3","4","3","3","4","3","4","3","3","4","5","1","1","2","2","2","1","2","1","2","1","0","1","1","0","0","1","1","0","1","1","0","1","0","1","5","4","4","2","2","3","4","4","3","1","729745091731918850","黄","462","","","","","","","","","","","","","","","","","","","true","11","1","moral","597","other","别人的","","","","","","","","","","","","","","",""
"null","","null","html-keyboard-response","23","79745","0.0-6.0-1.0-2.0-0.7","4","3","4","3","3","3","3","4","4","3","4","3","3","4","3","4","3","3","4","5","1","1","2","2","2","1","2","1","2","1","0","1","1","0","0","1","1","0","1","1","0","1","0","1","5","4","4","2","2","3","4","4","3","1","729745091731918850","黄","462","","","","","","","","","","","","","","","","","","","","","","","","","","","","","","","","","","","","","","","",""
"613","<p style=""color:rgb(150, 250, 100); font-size: 35px;"">他的</p>","e","categorize-html","24","80363","0.0-6.0-1.0-2.0-1.7","4","3","4","3","3","3","3","4","4","3","4","3","3","4","3","4","3","3","4","5","1","1","2","2","2","1","2","1","2","1","0","1","1","0","0","1","1","0","1","1","0","1","0","1","5","4","4","2","2","3","4","4","3","1","729745091731918850","黄","462","","","","","","","","","","","","","","","","","","","true","11","1","moral","613","other","他的","","","","","","","","","","","","","","",""
"null","","null","html-keyboard-response","25","80625","0.0-6.0-1.0-2.0-0.8","4","3","4","3","3","3","3","4","4","3","4","3","3","4","3","4","3","3","4","5","1","1","2","2","2","1","2","1","2","1","0","1","1","0","0","1","1","0","1","1","0","1","0","1","5","4","4","2","2","3","4","4","3","1","729745091731918850","黄","462","","","","","","","","","","","","","","","","","","","","","","","","","","","","","","","","","","","","","","","",""
"581","<p style=""color:rgb(150, 250, 100); font-size: 35px;"">他人的</p>","e","categorize-html","26","81211","0.0-6.0-1.0-2.0-1.8","4","3","4","3","3","3","3","4","4","3","4","3","3","4","3","4","3","3","4","5","1","1","2","2","2","1","2","1","2","1","0","1","1","0","0","1","1","0","1","1","0","1","0","1","5","4","4","2","2","3","4","4","3","1","729745091731918850","黄","462","","","","","","","","","","","","","","","","","","","true","11","1","moral","581","other","他人的","","","","","","","","","","","","","","",""
"null","","null","html-keyboard-response","27","81465","0.0-6.0-1.0-2.0-0.9","4","3","4","3","3","3","3","4","4","3","4","3","3","4","3","4","3","3","4","5","1","1","2","2","2","1","2","1","2","1","0","1","1","0","0","1","1","0","1","1","0","1","0","1","5","4","4","2","2","3","4","4","3","1","729745091731918850","黄","462","","","","","","","","","","","","","","","","","","","","","","","","","","","","","","","","","","","","","","","",""
"509","<p style=""color:rgb(150, 250, 100); font-size: 35px;"">我</p>","i","categorize-html","28","81979","0.0-6.0-1.0-2.0-1.9","4","3","4","3","3","3","3","4","4","3","4","3","3","4","3","4","3","3","4","5","1","1","2","2","2","1","2","1","2","1","0","1","1","0","0","1","1","0","1","1","0","1","0","1","5","4","4","2","2","3","4","4","3","1","729745091731918850","黄","462","","","","","","","","","","","","","","","","","","","true","11","1","moral","509","self","我","","","","","","","","","","","","","","",""
"null","","null","html-keyboard-response","29","82233","0.0-6.0-1.0-2.0-0.10","4","3","4","3","3","3","3","4","4","3","4","3","3","4","3","4","3","3","4","5","1","1","2","2","2","1","2","1","2","1","0","1","1","0","0","1","1","0","1","1","0","1","0","1","5","4","4","2","2","3","4","4","3","1","729745091731918850","黄","462","","","","","","","","","","","","","","","","","","","","","","","","","","","","","","","","","","","","","","","",""
"590","<p style=""color:rgb(150, 250, 100); font-size: 35px;"">别人</p>","e","categorize-html","30","82827","0.0-6.0-1.0-2.0-1.10","4","3","4","3","3","3","3","4","4","3","4","3","3","4","3","4","3","3","4","5","1","1","2","2","2","1","2","1","2","1","0","1","1","0","0","1","1","0","1","1","0","1","0","1","5","4","4","2","2","3","4","4","3","1","729745091731918850","黄","462","","","","","","","","","","","","","","","","","","","true","11","1","moral","590","other","别人","","","","","","","","","","","","","","",""
"null","","null","html-keyboard-response","31","83081","0.0-6.0-1.0-2.0-0.11","4","3","4","3","3","3","3","4","4","3","4","3","3","4","3","4","3","3","4","5","1","1","2","2","2","1","2","1","2","1","0","1","1","0","0","1","1","0","1","1","0","1","0","1","5","4","4","2","2","3","4","4","3","1","729745091731918850","黄","462","","","","","","","","","","","","","","","","","","","","","","","","","","","","","","","","","","","","","","","",""
"605","<p style=""color:rgb(150, 250, 100); font-size: 35px;"">他</p>","e","categorize-html","32","83691","0.0-6.0-1.0-2.0-1.11","4","3","4","3","3","3","3","4","4","3","4","3","3","4","3","4","3","3","4","5","1","1","2","2","2","1","2","1","2","1","0","1","1","0","0","1","1","0","1","1","0","1","0","1","5","4","4","2","2","3","4","4","3","1","729745091731918850","黄","462","","","","","","","","","","","","","","","","","","","true","11","1","moral","605","other","他","","","","","","","","","","","","","","",""
"753","
    <div class=""tag-bottom""><p>
    —— 任务2：对“积极”词和“消极”词分类 ——<p/>   
    <span style=""color:#78DCE8""><b>注意上方，类别标签和需要分类的词语都已经改变</b></span><p/>
    <span style=""color:#FFD866""><b>请根据上方标签的提示，尽可能正确并且快速地做出按键反应</b></span><p/>
    当按键错误时屏幕中会出现<span style=""color:red""> X </span>，需要按另一个键纠正才能继续<br/><p/>
    请把双手食指分别放在键盘的“E”键和“I”键上<p/>
    按<空格键>开始
    </p></div>"," ","html-keyboard-response","33","84447","0.0-6.0-1.0-3.0","4","3","4","3","3","3","3","4","4","3","4","3","3","4","3","4","3","3","4","5","1","1","2","2","2","1","2","1","2","1","0","1","1","0","0","1","1","0","1","1","0","1","0","1","5","4","4","2","2","3","4","4","3","1","729745091731918850","黄","462","","","","","","","","","","","","","","","","","","","","","","","","","","","","","","","","","","","","","","","",""
"null","","null","html-keyboard-response","34","84704","0.0-6.0-1.0-4.0-0.0","4","3","4","3","3","3","3","4","4","3","4","3","3","4","3","4","3","3","4","5","1","1","2","2","2","1","2","1","2","1","0","1","1","0","0","1","1","0","1","1","0","1","0","1","5","4","4","2","2","3","4","4","3","1","729745091731918850","黄","462","","","","","","","","","","","","","","","","","","","","","","","","","","","","","","","","","","","","","","","",""
"1380","<p style=""color:white; font-size: 35px;"">缺德</p>","i","categorize-html","35","86091","0.0-6.0-1.0-4.0-1.0","4","3","4","3","3","3","3","4","4","3","4","3","3","4","3","4","3","3","4","5","1","1","2","2","2","1","2","1","2","1","0","1","1","0","0","1","1","0","1","1","0","1","0","1","5","4","4","2","2","3","4","4","3","1","729745091731918850","黄","462","","","","","","","","","","","","","","","","","","","true","12","2","moral","1380","negative","缺德","","","","","","","","","","","","","","",""
"null","","null","html-keyboard-response","36","86344","0.0-6.0-1.0-4.0-0.1","4","3","4","3","3","3","3","4","4","3","4","3","3","4","3","4","3","3","4","5","1","1","2","2","2","1","2","1","2","1","0","1","1","0","0","1","1","0","1","1","0","1","0","1","5","4","4","2","2","3","4","4","3","1","729745091731918850","黄","462","","","","","","","","","","","","","","","","","","","","","","","","","","","","","","","","","","","","","","","",""
"702","<p style=""color:white; font-size: 35px;"">诚信</p>","e","categorize-html","37","87051","0.0-6.0-1.0-4.0-1.1","4","3","4","3","3","3","3","4","4","3","4","3","3","4","3","4","3","3","4","5","1","1","2","2","2","1","2","1","2","1","0","1","1","0","0","1","1","0","1","1","0","1","0","1","5","4","4","2","2","3","4","4","3","1","729745091731918850","黄","462","","","","","","","","","","","","","","","","","","","true","12","2","moral","702","positive","诚信","","","","","","","","","","","","","","",""
"null","","null","html-keyboard-response","38","87304","0.0-6.0-1.0-4.0-0.2","4","3","4","3","3","3","3","4","4","3","4","3","3","4","3","4","3","3","4","5","1","1","2","2","2","1","2","1","2","1","0","1","1","0","0","1","1","0","1","1","0","1","0","1","5","4","4","2","2","3","4","4","3","1","729745091731918850","黄","462","","","","","","","","","","","","","","","","","","","","","","","","","","","","","","","","","","","","","","","",""
"566","<p style=""color:white; font-size: 35px;"">正直</p>","e","categorize-html","39","87875","0.0-6.0-1.0-4.0-1.2","4","3","4","3","3","3","3","4","4","3","4","3","3","4","3","4","3","3","4","5","1","1","2","2","2","1","2","1","2","1","0","1","1","0","0","1","1","0","1","1","0","1","0","1","5","4","4","2","2","3","4","4","3","1","729745091731918850","黄","462","","","","","","","","","","","","","","","","","","","true","12","2","moral","566","positive","正直","","","","","","","","","","","","","","",""
"null","","null","html-keyboard-response","40","88128","0.0-6.0-1.0-4.0-0.3","4","3","4","3","3","3","3","4","4","3","4","3","3","4","3","4","3","3","4","5","1","1","2","2","2","1","2","1","2","1","0","1","1","0","0","1","1","0","1","1","0","1","0","1","5","4","4","2","2","3","4","4","3","1","729745091731918850","黄","462","","","","","","","","","","","","","","","","","","","","","","","","","","","","","","","","","","","","","","","",""
"998","<p style=""color:white; font-size: 35px;"">小人</p>","i","categorize-html","41","89131","0.0-6.0-1.0-4.0-1.3","4","3","4","3","3","3","3","4","4","3","4","3","3","4","3","4","3","3","4","5","1","1","2","2","2","1","2","1","2","1","0","1","1","0","0","1","1","0","1","1","0","1","0","1","5","4","4","2","2","3","4","4","3","1","729745091731918850","黄","462","","","","","","","","","","","","","","","","","","","true","12","2","moral","998","negative","小人","","","","","","","","","","","","","","",""
"null","","null","html-keyboard-response","42","89384","0.0-6.0-1.0-4.0-0.4","4","3","4","3","3","3","3","4","4","3","4","3","3","4","3","4","3","3","4","5","1","1","2","2","2","1","2","1","2","1","0","1","1","0","0","1","1","0","1","1","0","1","0","1","5","4","4","2","2","3","4","4","3","1","729745091731918850","黄","462","","","","","","","","","","","","","","","","","","","","","","","","","","","","","","","","","","","","","","","",""
"686","<p style=""color:white; font-size: 35px;"">高尚</p>","e","categorize-html","43","90076","0.0-6.0-1.0-4.0-1.4","4","3","4","3","3","3","3","4","4","3","4","3","3","4","3","4","3","3","4","5","1","1","2","2","2","1","2","1","2","1","0","1","1","0","0","1","1","0","1","1","0","1","0","1","5","4","4","2","2","3","4","4","3","1","729745091731918850","黄","462","","","","","","","","","","","","","","","","","","","true","12","2","moral","686","positive","高尚","","","","","","","","","","","","","","",""
"null","","null","html-keyboard-response","44","90328","0.0-6.0-1.0-4.0-0.5","4","3","4","3","3","3","3","4","4","3","4","3","3","4","3","4","3","3","4","5","1","1","2","2","2","1","2","1","2","1","0","1","1","0","0","1","1","0","1","1","0","1","0","1","5","4","4","2","2","3","4","4","3","1","729745091731918850","黄","462","","","","","","","","","","","","","","","","","","","","","","","","","","","","","","","","","","","","","","","",""
"766","<p style=""color:white; font-size: 35px;"">黑心</p>","i","categorize-html","45","91099","0.0-6.0-1.0-4.0-1.5","4","3","4","3","3","3","3","4","4","3","4","3","3","4","3","4","3","3","4","5","1","1","2","2","2","1","2","1","2","1","0","1","1","0","0","1","1","0","1","1","0","1","0","1","5","4","4","2","2","3","4","4","3","1","729745091731918850","黄","462","","","","","","","","","","","","","","","","","","","true","12","2","moral","766","negative","黑心","","","","","","","","","","","","","","",""
"null","","null","html-keyboard-response","46","91352","0.0-6.0-1.0-4.0-0.6","4","3","4","3","3","3","3","4","4","3","4","3","3","4","3","4","3","3","4","5","1","1","2","2","2","1","2","1","2","1","0","1","1","0","0","1","1","0","1","1","0","1","0","1","5","4","4","2","2","3","4","4","3","1","729745091731918850","黄","462","","","","","","","","","","","","","","","","","","","","","","","","","","","","","","","","","","","","","","","",""
"598","<p style=""color:white; font-size: 35px;"">卑鄙</p>","i","categorize-html","47","91955","0.0-6.0-1.0-4.0-1.6","4","3","4","3","3","3","3","4","4","3","4","3","3","4","3","4","3","3","4","5","1","1","2","2","2","1","2","1","2","1","0","1","1","0","0","1","1","0","1","1","0","1","0","1","5","4","4","2","2","3","4","4","3","1","729745091731918850","黄","462","","","","","","","","","","","","","","","","","","","true","12","2","moral","598","negative","卑鄙","","","","","","","","","","","","","","",""
"null","","null","html-keyboard-response","48","92208","0.0-6.0-1.0-4.0-0.7","4","3","4","3","3","3","3","4","4","3","4","3","3","4","3","4","3","3","4","5","1","1","2","2","2","1","2","1","2","1","0","1","1","0","0","1","1","0","1","1","0","1","0","1","5","4","4","2","2","3","4","4","3","1","729745091731918850","黄","462","","","","","","","","","","","","","","","","","","","","","","","","","","","","","","","","","","","","","","","",""
"710","<p style=""color:white; font-size: 35px;"">廉正</p>","e","categorize-html","49","92923","0.0-6.0-1.0-4.0-1.7","4","3","4","3","3","3","3","4","4","3","4","3","3","4","3","4","3","3","4","5","1","1","2","2","2","1","2","1","2","1","0","1","1","0","0","1","1","0","1","1","0","1","0","1","5","4","4","2","2","3","4","4","3","1","729745091731918850","黄","462","","","","","","","","","","","","","","","","","","","true","12","2","moral","710","positive","廉正","","","","","","","","","","","","","","",""
"null","","null","html-keyboard-response","50","93184","0.0-6.0-1.0-4.0-0.8","4","3","4","3","3","3","3","4","4","3","4","3","3","4","3","4","3","3","4","5","1","1","2","2","2","1","2","1","2","1","0","1","1","0","0","1","1","0","1","1","0","1","0","1","5","4","4","2","2","3","4","4","3","1","729745091731918850","黄","462","","","","","","","","","","","","","","","","","","","","","","","","","","","","","","","","","","","","","","","",""
"1334","<p style=""color:white; font-size: 35px;"">善良</p>","e","categorize-html","51","94523","0.0-6.0-1.0-4.0-1.8","4","3","4","3","3","3","3","4","4","3","4","3","3","4","3","4","3","3","4","5","1","1","2","2","2","1","2","1","2","1","0","1","1","0","0","1","1","0","1","1","0","1","0","1","5","4","4","2","2","3","4","4","3","1","729745091731918850","黄","462","","","","","","","","","","","","","","","","","","","true","12","2","moral","1334","positive","善良","","","","","","","","","","","","","","",""
"null","","null","html-keyboard-response","52","94776","0.0-6.0-1.0-4.0-0.9","4","3","4","3","3","3","3","4","4","3","4","3","3","4","3","4","3","3","4","5","1","1","2","2","2","1","2","1","2","1","0","1","1","0","0","1","1","0","1","1","0","1","0","1","5","4","4","2","2","3","4","4","3","1","729745091731918850","黄","462","","","","","","","","","","","","","","","","","","","","","","","","","","","","","","","","","","","","","","","",""
"918","<p style=""color:white; font-size: 35px;"">君子</p>","e","categorize-html","53","95699","0.0-6.0-1.0-4.0-1.9","4","3","4","3","3","3","3","4","4","3","4","3","3","4","3","4","3","3","4","5","1","1","2","2","2","1","2","1","2","1","0","1","1","0","0","1","1","0","1","1","0","1","0","1","5","4","4","2","2","3","4","4","3","1","729745091731918850","黄","462","","","","","","","","","","","","","","","","","","","true","12","2","moral","918","positive","君子","","","","","","","","","","","","","","",""
"null","","null","html-keyboard-response","54","95952","0.0-6.0-1.0-4.0-0.10","4","3","4","3","3","3","3","4","4","3","4","3","3","4","3","4","3","3","4","5","1","1","2","2","2","1","2","1","2","1","0","1","1","0","0","1","1","0","1","1","0","1","0","1","5","4","4","2","2","3","4","4","3","1","729745091731918850","黄","462","","","","","","","","","","","","","","","","","","","","","","","","","","","","","","","","","","","","","","","",""
"1525","<p style=""color:white; font-size: 35px;"">不仁</p>","i","categorize-html","55","97483","0.0-6.0-1.0-4.0-1.10","4","3","4","3","3","3","3","4","4","3","4","3","3","4","3","4","3","3","4","5","1","1","2","2","2","1","2","1","2","1","0","1","1","0","0","1","1","0","1","1","0","1","0","1","5","4","4","2","2","3","4","4","3","1","729745091731918850","黄","462","","","","","","","","","","","","","","","","","","","true","12","2","moral","1525","negative","不仁","","","","","","","","","","","","","","",""
"null","","null","html-keyboard-response","56","97735","0.0-6.0-1.0-4.0-0.11","4","3","4","3","3","3","3","4","4","3","4","3","3","4","3","4","3","3","4","5","1","1","2","2","2","1","2","1","2","1","0","1","1","0","0","1","1","0","1","1","0","1","0","1","5","4","4","2","2","3","4","4","3","1","729745091731918850","黄","462","","","","","","","","","","","","","","","","","","","","","","","","","","","","","","","","","","","","","","","",""
"583","<p style=""color:white; font-size: 35px;"">不孝</p>","i","categorize-html","57","98323","0.0-6.0-1.0-4.0-1.11","4","3","4","3","3","3","3","4","4","3","4","3","3","4","3","4","3","3","4","5","1","1","2","2","2","1","2","1","2","1","0","1","1","0","0","1","1","0","1","1","0","1","0","1","5","4","4","2","2","3","4","4","3","1","729745091731918850","黄","462","","","","","","","","","","","","","","","","","","","true","12","2","moral","583","negative","不孝","","","","","","","","","","","","","","",""
"745","
    <div class=""tag-bottom""><p>
    —— 任务3：对“他人/积极”词和“自我/消极”词分类 ——<p/>
    <span style=""color:#78DCE8""><b>注意上方，之前的四类词语将混合在一起交替呈现</b></span><p/>
    <span style=""color:#FFD866""><b>请根据上方标签的提示，尽可能正确并且快速地做出按键反应</b></span><p/>
    当按键错误时屏幕中会出现<span style=""color:red""> X </span>，需要按另一个键纠正才能继续<br/><p/>
    请把双手食指分别放在键盘的“E”键和“I”键上<p/>
    按<空格键>开始
    </p></div>"," ","html-keyboard-response","58","99071","0.0-6.0-1.0-5.0","4","3","4","3","3","3","3","4","4","3","4","3","3","4","3","4","3","3","4","5","1","1","2","2","2","1","2","1","2","1","0","1","1","0","0","1","1","0","1","1","0","1","0","1","5","4","4","2","2","3","4","4","3","1","729745091731918850","黄","462","","","","","","","","","","","","","","","","","","","","","","","","","","","","","","","","","","","","","","","",""
"null","","null","html-keyboard-response","59","99329","0.0-6.0-1.0-6.0-0.0","4","3","4","3","3","3","3","4","4","3","4","3","3","4","3","4","3","3","4","5","1","1","2","2","2","1","2","1","2","1","0","1","1","0","0","1","1","0","1","1","0","1","0","1","5","4","4","2","2","3","4","4","3","1","729745091731918850","黄","462","","","","","","","","","","","","","","","","","","","","","","","","","","","","","","","","","","","","","","","",""
"1412","<p style=""color:rgb(150, 250, 100); font-size: 35px;"">本人</p>","i","categorize-html","60","100747","0.0-6.0-1.0-6.0-1.0","4","3","4","3","3","3","3","4","4","3","4","3","3","4","3","4","3","3","4","5","1","1","2","2","2","1","2","1","2","1","0","1","1","0","0","1","1","0","1","1","0","1","0","1","5","4","4","2","2","3","4","4","3","1","729745091731918850","黄","462","","","","","","","","","","","","","","","","","","","true","13","3","moral","1412","self","本人","","","","","","","","","","","","","","",""
"null","","null","html-keyboard-response","61","101001","0.0-6.0-1.0-6.0-0.1","4","3","4","3","3","3","3","4","4","3","4","3","3","4","3","4","3","3","4","5","1","1","2","2","2","1","2","1","2","1","0","1","1","0","0","1","1","0","1","1","0","1","0","1","5","4","4","2","2","3","4","4","3","1","729745091731918850","黄","462","","","","","","","","","","","","","","","","","","","","","","","","","","","","","","","","","","","","","","","",""
"949","<p style=""color:white; font-size: 35px;"">诚信</p>","e","categorize-html","62","101955","0.0-6.0-1.0-6.0-1.1","4","3","4","3","3","3","3","4","4","3","4","3","3","4","3","4","3","3","4","5","1","1","2","2","2","1","2","1","2","1","0","1","1","0","0","1","1","0","1","1","0","1","0","1","5","4","4","2","2","3","4","4","3","1","729745091731918850","黄","462","","","","","","","","","","","","","","","","","","","true","13","3","moral","949","positive","诚信","","","","","","","","","","","","","","",""
"null","","null","html-keyboard-response","63","102209","0.0-6.0-1.0-6.0-0.2","4","3","4","3","3","3","3","4","4","3","4","3","3","4","3","4","3","3","4","5","1","1","2","2","2","1","2","1","2","1","0","1","1","0","0","1","1","0","1","1","0","1","0","1","5","4","4","2","2","3","4","4","3","1","729745091731918850","黄","462","","","","","","","","","","","","","","","","","","","","","","","","","","","","","","","","","","","","","","","",""
"645","<p style=""color:rgb(150, 250, 100); font-size: 35px;"">别人</p>","e","categorize-html","64","102859","0.0-6.0-1.0-6.0-1.2","4","3","4","3","3","3","3","4","4","3","4","3","3","4","3","4","3","3","4","5","1","1","2","2","2","1","2","1","2","1","0","1","1","0","0","1","1","0","1","1","0","1","0","1","5","4","4","2","2","3","4","4","3","1","729745091731918850","黄","462","","","","","","","","","","","","","","","","","","","true","13","3","moral","645","other","别人","","","","","","","","","","","","","","",""
"null","","null","html-keyboard-response","65","103112","0.0-6.0-1.0-6.0-0.3","4","3","4","3","3","3","3","4","4","3","4","3","3","4","3","4","3","3","4","5","1","1","2","2","2","1","2","1","2","1","0","1","1","0","0","1","1","0","1","1","0","1","0","1","5","4","4","2","2","3","4","4","3","1","729745091731918850","黄","462","","","","","","","","","","","","","","","","","","","","","","","","","","","","","","","","","","","","","","","",""
"863","<p style=""color:white; font-size: 35px;"">黑心</p>","i","categorize-html","66","103979","0.0-6.0-1.0-6.0-1.3","4","3","4","3","3","3","3","4","4","3","4","3","3","4","3","4","3","3","4","5","1","1","2","2","2","1","2","1","2","1","0","1","1","0","0","1","1","0","1","1","0","1","0","1","5","4","4","2","2","3","4","4","3","1","729745091731918850","黄","462","","","","","","","","","","","","","","","","","","","true","13","3","moral","863","negative","黑心","","","","","","","","","","","","","","",""
"null","","null","html-keyboard-response","67","104239","0.0-6.0-1.0-6.0-0.4","4","3","4","3","3","3","3","4","4","3","4","3","3","4","3","4","3","3","4","5","1","1","2","2","2","1","2","1","2","1","0","1","1","0","0","1","1","0","1","1","0","1","0","1","5","4","4","2","2","3","4","4","3","1","729745091731918850","黄","462","","","","","","","","","","","","","","","","","","","","","","","","","","","","","","","","","","","","","","","",""
"615","<p style=""color:rgb(150, 250, 100); font-size: 35px;"">本人的</p>","i","categorize-html","68","104859","0.0-6.0-1.0-6.0-1.4","4","3","4","3","3","3","3","4","4","3","4","3","3","4","3","4","3","3","4","5","1","1","2","2","2","1","2","1","2","1","0","1","1","0","0","1","1","0","1","1","0","1","0","1","5","4","4","2","2","3","4","4","3","1","729745091731918850","黄","462","","","","","","","","","","","","","","","","","","","true","13","3","moral","615","self","本人的","","","","","","","","","","","","","","",""
"null","","null","html-keyboard-response","69","105112","0.0-6.0-1.0-6.0-0.5","4","3","4","3","3","3","3","4","4","3","4","3","3","4","3","4","3","3","4","5","1","1","2","2","2","1","2","1","2","1","0","1","1","0","0","1","1","0","1","1","0","1","0","1","5","4","4","2","2","3","4","4","3","1","729745091731918850","黄","462","","","","","","","","","","","","","","","","","","","","","","","","","","","","","","","","","","","","","","","",""
"670","<p style=""color:white; font-size: 35px;"">卑鄙</p>","i","categorize-html","70","105787","0.0-6.0-1.0-6.0-1.5","4","3","4","3","3","3","3","4","4","3","4","3","3","4","3","4","3","3","4","5","1","1","2","2","2","1","2","1","2","1","0","1","1","0","0","1","1","0","1","1","0","1","0","1","5","4","4","2","2","3","4","4","3","1","729745091731918850","黄","462","","","","","","","","","","","","","","","","","","","true","13","3","moral","670","negative","卑鄙","","","","","","","","","","","","","","",""
"null","","null","html-keyboard-response","71","106040","0.0-6.0-1.0-6.0-0.6","4","3","4","3","3","3","3","4","4","3","4","3","3","4","3","4","3","3","4","5","1","1","2","2","2","1","2","1","2","1","0","1","1","0","0","1","1","0","1","1","0","1","0","1","5","4","4","2","2","3","4","4","3","1","729745091731918850","黄","462","","","","","","","","","","","","","","","","","","","","","","","","","","","","","","","","","","","","","","","",""
"854","<p style=""color:rgb(150, 250, 100); font-size: 35px;"">别人的</p>","e","categorize-html","72","106899","0.0-6.0-1.0-6.0-1.6","4","3","4","3","3","3","3","4","4","3","4","3","3","4","3","4","3","3","4","5","1","1","2","2","2","1","2","1","2","1","0","1","1","0","0","1","1","0","1","1","0","1","0","1","5","4","4","2","2","3","4","4","3","1","729745091731918850","黄","462","","","","","","","","","","","","","","","","","","","true","13","3","moral","854","other","别人的","","","","","","","","","","","","","","",""
"null","","null","html-keyboard-response","73","107160","0.0-6.0-1.0-6.0-0.7","4","3","4","3","3","3","3","4","4","3","4","3","3","4","3","4","3","3","4","5","1","1","2","2","2","1","2","1","2","1","0","1","1","0","0","1","1","0","1","1","0","1","0","1","5","4","4","2","2","3","4","4","3","1","729745091731918850","黄","462","","","","","","","","","","","","","","","","","","","","","","","","","","","","","","","","","","","","","","","",""
"1198","<p style=""color:white; font-size: 35px;"">善良</p>","e","categorize-html","74","108363","0.0-6.0-1.0-6.0-1.7","4","3","4","3","3","3","3","4","4","3","4","3","3","4","3","4","3","3","4","5","1","1","2","2","2","1","2","1","2","1","0","1","1","0","0","1","1","0","1","1","0","1","0","1","5","4","4","2","2","3","4","4","3","1","729745091731918850","黄","462","","","","","","","","","","","","","","","","","","","true","13","3","moral","1198","positive","善良","","","","","","","","","","","","","","",""
"null","","null","html-keyboard-response","75","108616","0.0-6.0-1.0-6.0-0.8","4","3","4","3","3","3","3","4","4","3","4","3","3","4","3","4","3","3","4","5","1","1","2","2","2","1","2","1","2","1","0","1","1","0","0","1","1","0","1","1","0","1","0","1","5","4","4","2","2","3","4","4","3","1","729745091731918850","黄","462","","","","","","","","","","","","","","","","","","","","","","","","","","","","","","","","","","","","","","","",""
"790","<p style=""color:rgb(150, 250, 100); font-size: 35px;"">他</p>","e","categorize-html","76","109411","0.0-6.0-1.0-6.0-1.8","4","3","4","3","3","3","3","4","4","3","4","3","3","4","3","4","3","3","4","5","1","1","2","2","2","1","2","1","2","1","0","1","1","0","0","1","1","0","1","1","0","1","0","1","5","4","4","2","2","3","4","4","3","1","729745091731918850","黄","462","","","","","","","","","","","","","","","","","","","true","13","3","moral","790","other","他","","","","","","","","","","","","","","",""
"null","","null","html-keyboard-response","77","109664","0.0-6.0-1.0-6.0-0.9","4","3","4","3","3","3","3","4","4","3","4","3","3","4","3","4","3","3","4","5","1","1","2","2","2","1","2","1","2","1","0","1","1","0","0","1","1","0","1","1","0","1","0","1","5","4","4","2","2","3","4","4","3","1","729745091731918850","黄","462","","","","","","","","","","","","","","","","","","","","","","","","","","","","","","","","","","","","","","","",""
"1366","<p style=""color:white; font-size: 35px;"">正直</p>","e","categorize-html","78","111036","0.0-6.0-1.0-6.0-1.9","4","3","4","3","3","3","3","4","4","3","4","3","3","4","3","4","3","3","4","5","1","1","2","2","2","1","2","1","2","1","0","1","1","0","0","1","1","0","1","1","0","1","0","1","5","4","4","2","2","3","4","4","3","1","729745091731918850","黄","462","","","","","","","","","","","","","","","","","","","true","13","3","moral","1366","positive","正直","","","","","","","","","","","","","","",""
"null","","null","html-keyboard-response","79","111288","0.0-6.0-1.0-6.0-0.10","4","3","4","3","3","3","3","4","4","3","4","3","3","4","3","4","3","3","4","5","1","1","2","2","2","1","2","1","2","1","0","1","1","0","0","1","1","0","1","1","0","1","0","1","5","4","4","2","2","3","4","4","3","1","729745091731918850","黄","462","","","","","","","","","","","","","","","","","","","","","","","","","","","","","","","","","","","","","","","",""
"750","<p style=""color:rgb(150, 250, 100); font-size: 35px;"">自己</p>","i","categorize-html","80","112043","0.0-6.0-1.0-6.0-1.10","4","3","4","3","3","3","3","4","4","3","4","3","3","4","3","4","3","3","4","5","1","1","2","2","2","1","2","1","2","1","0","1","1","0","0","1","1","0","1","1","0","1","0","1","5","4","4","2","2","3","4","4","3","1","729745091731918850","黄","462","","","","","","","","","","","","","","","","","","","true","13","3","moral","750","self","自己","","","","","","","","","","","","","","",""
"null","","null","html-keyboard-response","81","112305","0.0-6.0-1.0-6.0-0.11","4","3","4","3","3","3","3","4","4","3","4","3","3","4","3","4","3","3","4","5","1","1","2","2","2","1","2","1","2","1","0","1","1","0","0","1","1","0","1","1","0","1","0","1","5","4","4","2","2","3","4","4","3","1","729745091731918850","黄","462","","","","","","","","","","","","","","","","","","","","","","","","","","","","","","","","","","","","","","","",""
"885","<p style=""color:white; font-size: 35px;"">缺德</p>","i","categorize-html","82","113195","0.0-6.0-1.0-6.0-1.11","4","3","4","3","3","3","3","4","4","3","4","3","3","4","3","4","3","3","4","5","1","1","2","2","2","1","2","1","2","1","0","1","1","0","0","1","1","0","1","1","0","1","0","1","5","4","4","2","2","3","4","4","3","1","729745091731918850","黄","462","","","","","","","","","","","","","","","","","","","true","13","3","moral","885","negative","缺德","","","","","","","","","","","","","","",""
"null","","null","html-keyboard-response","83","113449","0.0-6.0-1.0-6.0-0.12","4","3","4","3","3","3","3","4","4","3","4","3","3","4","3","4","3","3","4","5","1","1","2","2","2","1","2","1","2","1","0","1","1","0","0","1","1","0","1","1","0","1","0","1","5","4","4","2","2","3","4","4","3","1","729745091731918850","黄","462","","","","","","","","","","","","","","","","","","","","","","","","","","","","","","","","","","","","","","","",""
"774","<p style=""color:rgb(150, 250, 100); font-size: 35px;"">他人</p>","e","categorize-html","84","114228","0.0-6.0-1.0-6.0-1.12","4","3","4","3","3","3","3","4","4","3","4","3","3","4","3","4","3","3","4","5","1","1","2","2","2","1","2","1","2","1","0","1","1","0","0","1","1","0","1","1","0","1","0","1","5","4","4","2","2","3","4","4","3","1","729745091731918850","黄","462","","","","","","","","","","","","","","","","","","","true","13","3","moral","774","other","他人","","","","","","","","","","","","","","",""
"null","","null","html-keyboard-response","85","114481","0.0-6.0-1.0-6.0-0.13","4","3","4","3","3","3","3","4","4","3","4","3","3","4","3","4","3","3","4","5","1","1","2","2","2","1","2","1","2","1","0","1","1","0","0","1","1","0","1","1","0","1","0","1","5","4","4","2","2","3","4","4","3","1","729745091731918850","黄","462","","","","","","","","","","","","","","","","","","","","","","","","","","","","","","","","","","","","","","","",""
"885","<p style=""color:white; font-size: 35px;"">廉正</p>","e","categorize-html","86","115371","0.0-6.0-1.0-6.0-1.13","4","3","4","3","3","3","3","4","4","3","4","3","3","4","3","4","3","3","4","5","1","1","2","2","2","1","2","1","2","1","0","1","1","0","0","1","1","0","1","1","0","1","0","1","5","4","4","2","2","3","4","4","3","1","729745091731918850","黄","462","","","","","","","","","","","","","","","","","","","true","13","3","moral","885","positive","廉正","","","","","","","","","","","","","","",""
"null","","null","html-keyboard-response","87","115623","0.0-6.0-1.0-6.0-0.14","4","3","4","3","3","3","3","4","4","3","4","3","3","4","3","4","3","3","4","5","1","1","2","2","2","1","2","1","2","1","0","1","1","0","0","1","1","0","1","1","0","1","0","1","5","4","4","2","2","3","4","4","3","1","729745091731918850","黄","462","","","","","","","","","","","","","","","","","","","","","","","","","","","","","","","","","","","","","","","",""
"622","<p style=""color:rgb(150, 250, 100); font-size: 35px;"">自己的</p>","i","categorize-html","88","116252","0.0-6.0-1.0-6.0-1.14","4","3","4","3","3","3","3","4","4","3","4","3","3","4","3","4","3","3","4","5","1","1","2","2","2","1","2","1","2","1","0","1","1","0","0","1","1","0","1","1","0","1","0","1","5","4","4","2","2","3","4","4","3","1","729745091731918850","黄","462","","","","","","","","","","","","","","","","","","","true","13","3","moral","622","self","自己的","","","","","","","","","","","","","","",""
"null","","null","html-keyboard-response","89","116505","0.0-6.0-1.0-6.0-0.15","4","3","4","3","3","3","3","4","4","3","4","3","3","4","3","4","3","3","4","5","1","1","2","2","2","1","2","1","2","1","0","1","1","0","0","1","1","0","1","1","0","1","0","1","5","4","4","2","2","3","4","4","3","1","729745091731918850","黄","462","","","","","","","","","","","","","","","","","","","","","","","","","","","","","","","","","","","","","","","",""
"925","<p style=""color:white; font-size: 35px;"">不仁</p>","i","categorize-html","90","117435","0.0-6.0-1.0-6.0-1.15","4","3","4","3","3","3","3","4","4","3","4","3","3","4","3","4","3","3","4","5","1","1","2","2","2","1","2","1","2","1","0","1","1","0","0","1","1","0","1","1","0","1","0","1","5","4","4","2","2","3","4","4","3","1","729745091731918850","黄","462","","","","","","","","","","","","","","","","","","","true","13","3","moral","925","negative","不仁","","","","","","","","","","","","","","",""
"null","","null","html-keyboard-response","91","117689","0.0-6.0-1.0-6.0-0.16","4","3","4","3","3","3","3","4","4","3","4","3","3","4","3","4","3","3","4","5","1","1","2","2","2","1","2","1","2","1","0","1","1","0","0","1","1","0","1","1","0","1","0","1","5","4","4","2","2","3","4","4","3","1","729745091731918850","黄","462","","","","","","","","","","","","","","","","","","","","","","","","","","","","","","","","","","","","","","","",""
"581","<p style=""color:rgb(150, 250, 100); font-size: 35px;"">我的</p>","i","categorize-html","92","118275","0.0-6.0-1.0-6.0-1.16","4","3","4","3","3","3","3","4","4","3","4","3","3","4","3","4","3","3","4","5","1","1","2","2","2","1","2","1","2","1","0","1","1","0","0","1","1","0","1","1","0","1","0","1","5","4","4","2","2","3","4","4","3","1","729745091731918850","黄","462","","","","","","","","","","","","","","","","","","","true","13","3","moral","581","self","我的","","","","","","","","","","","","","","",""
"null","","null","html-keyboard-response","93","118537","0.0-6.0-1.0-6.0-0.17","4","3","4","3","3","3","3","4","4","3","4","3","3","4","3","4","3","3","4","5","1","1","2","2","2","1","2","1","2","1","0","1","1","0","0","1","1","0","1","1","0","1","0","1","5","4","4","2","2","3","4","4","3","1","729745091731918850","黄","462","","","","","","","","","","","","","","","","","","","","","","","","","","","","","","","","","","","","","","","",""
"645","<p style=""color:white; font-size: 35px;"">小人</p>","i","categorize-html","94","119187","0.0-6.0-1.0-6.0-1.17","4","3","4","3","3","3","3","4","4","3","4","3","3","4","3","4","3","3","4","5","1","1","2","2","2","1","2","1","2","1","0","1","1","0","0","1","1","0","1","1","0","1","0","1","5","4","4","2","2","3","4","4","3","1","729745091731918850","黄","462","","","","","","","","","","","","","","","","","","","true","13","3","moral","645","negative","小人","","","","","","","","","","","","","","",""
"null","","null","html-keyboard-response","95","119441","0.0-6.0-1.0-6.0-0.18","4","3","4","3","3","3","3","4","4","3","4","3","3","4","3","4","3","3","4","5","1","1","2","2","2","1","2","1","2","1","0","1","1","0","0","1","1","0","1","1","0","1","0","1","5","4","4","2","2","3","4","4","3","1","729745091731918850","黄","462","","","","","","","","","","","","","","","","","","","","","","","","","","","","","","","","","","","","","","","",""
"669","<p style=""color:rgb(150, 250, 100); font-size: 35px;"">他人的</p>","e","categorize-html","96","120115","0.0-6.0-1.0-6.0-1.18","4","3","4","3","3","3","3","4","4","3","4","3","3","4","3","4","3","3","4","5","1","1","2","2","2","1","2","1","2","1","0","1","1","0","0","1","1","0","1","1","0","1","0","1","5","4","4","2","2","3","4","4","3","1","729745091731918850","黄","462","","","","","","","","","","","","","","","","","","","true","13","3","moral","669","other","他人的","","","","","","","","","","","","","","",""
"null","","null","html-keyboard-response","97","120367","0.0-6.0-1.0-6.0-0.19","4","3","4","3","3","3","3","4","4","3","4","3","3","4","3","4","3","3","4","5","1","1","2","2","2","1","2","1","2","1","0","1","1","0","0","1","1","0","1","1","0","1","0","1","5","4","4","2","2","3","4","4","3","1","729745091731918850","黄","462","","","","","","","","","","","","","","","","","","","","","","","","","","","","","","","","","","","","","","","",""
"711","<p style=""color:white; font-size: 35px;"">君子</p>","e","categorize-html","98","121083","0.0-6.0-1.0-6.0-1.19","4","3","4","3","3","3","3","4","4","3","4","3","3","4","3","4","3","3","4","5","1","1","2","2","2","1","2","1","2","1","0","1","1","0","0","1","1","0","1","1","0","1","0","1","5","4","4","2","2","3","4","4","3","1","729745091731918850","黄","462","","","","","","","","","","","","","","","","","","","true","13","3","moral","711","positive","君子","","","","","","","","","","","","","","",""
"null","","null","html-keyboard-response","99","121337","0.0-6.0-1.0-6.0-0.20","4","3","4","3","3","3","3","4","4","3","4","3","3","4","3","4","3","3","4","5","1","1","2","2","2","1","2","1","2","1","0","1","1","0","0","1","1","0","1","1","0","1","0","1","5","4","4","2","2","3","4","4","3","1","729745091731918850","黄","462","","","","","","","","","","","","","","","","","","","","","","","","","","","","","","","","","","","","","","","",""
"621","<p style=""color:rgb(150, 250, 100); font-size: 35px;"">我</p>","i","categorize-html","100","121963","0.0-6.0-1.0-6.0-1.20","4","3","4","3","3","3","3","4","4","3","4","3","3","4","3","4","3","3","4","5","1","1","2","2","2","1","2","1","2","1","0","1","1","0","0","1","1","0","1","1","0","1","0","1","5","4","4","2","2","3","4","4","3","1","729745091731918850","黄","462","","","","","","","","","","","","","","","","","","","true","13","3","moral","621","self","我","","","","","","","","","","","","","","",""
"null","","null","html-keyboard-response","101","122216","0.0-6.0-1.0-6.0-0.21","4","3","4","3","3","3","3","4","4","3","4","3","3","4","3","4","3","3","4","5","1","1","2","2","2","1","2","1","2","1","0","1","1","0","0","1","1","0","1","1","0","1","0","1","5","4","4","2","2","3","4","4","3","1","729745091731918850","黄","462","","","","","","","","","","","","","","","","","","","","","","","","","","","","","","","","","","","","","","","",""
"662","<p style=""color:white; font-size: 35px;"">不孝</p>","i","categorize-html","102","122883","0.0-6.0-1.0-6.0-1.21","4","3","4","3","3","3","3","4","4","3","4","3","3","4","3","4","3","3","4","5","1","1","2","2","2","1","2","1","2","1","0","1","1","0","0","1","1","0","1","1","0","1","0","1","5","4","4","2","2","3","4","4","3","1","729745091731918850","黄","462","","","","","","","","","","","","","","","","","","","true","13","3","moral","662","negative","不孝","","","","","","","","","","","","","","",""
"null","","null","html-keyboard-response","103","123136","0.0-6.0-1.0-6.0-0.22","4","3","4","3","3","3","3","4","4","3","4","3","3","4","3","4","3","3","4","5","1","1","2","2","2","1","2","1","2","1","0","1","1","0","0","1","1","0","1","1","0","1","0","1","5","4","4","2","2","3","4","4","3","1","729745091731918850","黄","462","","","","","","","","","","","","","","","","","","","","","","","","","","","","","","","","","","","","","","","",""
"758","<p style=""color:rgb(150, 250, 100); font-size: 35px;"">他的</p>","e","categorize-html","104","123899","0.0-6.0-1.0-6.0-1.22","4","3","4","3","3","3","3","4","4","3","4","3","3","4","3","4","3","3","4","5","1","1","2","2","2","1","2","1","2","1","0","1","1","0","0","1","1","0","1","1","0","1","0","1","5","4","4","2","2","3","4","4","3","1","729745091731918850","黄","462","","","","","","","","","","","","","","","","","","","true","13","3","moral","758","other","他的","","","","","","","","","","","","","","",""
"null","","null","html-keyboard-response","105","124160","0.0-6.0-1.0-6.0-0.23","4","3","4","3","3","3","3","4","4","3","4","3","3","4","3","4","3","3","4","5","1","1","2","2","2","1","2","1","2","1","0","1","1","0","0","1","1","0","1","1","0","1","0","1","5","4","4","2","2","3","4","4","3","1","729745091731918850","黄","462","","","","","","","","","","","","","","","","","","","","","","","","","","","","","","","","","","","","","","","",""
"966","<p style=""color:white; font-size: 35px;"">高尚</p>","e","categorize-html","106","125132","0.0-6.0-1.0-6.0-1.23","4","3","4","3","3","3","3","4","4","3","4","3","3","4","3","4","3","3","4","5","1","1","2","2","2","1","2","1","2","1","0","1","1","0","0","1","1","0","1","1","0","1","0","1","5","4","4","2","2","3","4","4","3","1","729745091731918850","黄","462","","","","","","","","","","","","","","","","","","","true","13","3","moral","966","positive","高尚","","","","","","","","","","","","","","",""
"730","
    <div class=""tag-bottom""><p>
    —— 任务4：对“他人/积极”词和“自我/消极”词分类 ——<p/>
    <span style=""color:#78DCE8""><b>与刚才的任务完全相同，请再次对这四类词语分类</b></span><p/>
    <span style=""color:#FFD866""><b>请根据上方标签的提示，尽可能正确并且快速地做出按键反应</b></span><p/>
    当按键错误时屏幕中会出现<span style=""color:red""> X </span>，需要按另一个键纠正才能继续<br/><p/>
    请把双手食指分别放在键盘的“E”键和“I”键上<p/>
    按<空格键>开始
    </p></div>"," ","html-keyboard-response","107","125863","0.0-6.0-1.0-7.0","4","3","4","3","3","3","3","4","4","3","4","3","3","4","3","4","3","3","4","5","1","1","2","2","2","1","2","1","2","1","0","1","1","0","0","1","1","0","1","1","0","1","0","1","5","4","4","2","2","3","4","4","3","1","729745091731918850","黄","462","","","","","","","","","","","","","","","","","","","","","","","","","","","","","","","","","","","","","","","",""
"null","","null","html-keyboard-response","108","126120","0.0-6.0-1.0-8.0-0.0","4","3","4","3","3","3","3","4","4","3","4","3","3","4","3","4","3","3","4","5","1","1","2","2","2","1","2","1","2","1","0","1","1","0","0","1","1","0","1","1","0","1","0","1","5","4","4","2","2","3","4","4","3","1","729745091731918850","黄","462","","","","","","","","","","","","","","","","","","","","","","","","","","","","","","","","","","","","","","","",""
"660","<p style=""color:rgb(150, 250, 100); font-size: 35px;"">我的</p>","i","categorize-html","109","126787","0.0-6.0-1.0-8.0-1.0","4","3","4","3","3","3","3","4","4","3","4","3","3","4","3","4","3","3","4","5","1","1","2","2","2","1","2","1","2","1","0","1","1","0","0","1","1","0","1","1","0","1","0","1","5","4","4","2","2","3","4","4","3","1","729745091731918850","黄","462","","","","","","","","","","","","","","","","","","","true","14","4","moral","660","self","我的","","","","","","","","","","","","","","",""
"null","","null","html-keyboard-response","110","127040","0.0-6.0-1.0-8.0-0.1","4","3","4","3","3","3","3","4","4","3","4","3","3","4","3","4","3","3","4","5","1","1","2","2","2","1","2","1","2","1","0","1","1","0","0","1","1","0","1","1","0","1","0","1","5","4","4","2","2","3","4","4","3","1","729745091731918850","黄","462","","","","","","","","","","","","","","","","","","","","","","","","","","","","","","","","","","","","","","","",""
"614","<p style=""color:white; font-size: 35px;"">廉正</p>","i","categorize-html","111","128183","0.0-6.0-1.0-8.0-1.1","4","3","4","3","3","3","3","4","4","3","4","3","3","4","3","4","3","3","4","5","1","1","2","2","2","1","2","1","2","1","0","1","1","0","0","1","1","0","1","1","0","1","0","1","5","4","4","2","2","3","4","4","3","1","729745091731918850","黄","462","","","","","","","","","","","","","","","","","","","false","14","4","moral","1674.3111111111111","positive","廉正","","","","","","","","","","","","","","",""
"null","","null","html-keyboard-response","112","128439","0.0-6.0-1.0-8.0-0.2","4","3","4","3","3","3","3","4","4","3","4","3","3","4","3","4","3","3","4","5","1","1","2","2","2","1","2","1","2","1","0","1","1","0","0","1","1","0","1","1","0","1","0","1","5","4","4","2","2","3","4","4","3","1","729745091731918850","黄","462","","","","","","","","","","","","","","","","","","","","","","","","","","","","","","","","","","","","","","","",""
"727","<p style=""color:rgb(150, 250, 100); font-size: 35px;"">他</p>","e","categorize-html","113","129171","0.0-6.0-1.0-8.0-1.2","4","3","4","3","3","3","3","4","4","3","4","3","3","4","3","4","3","3","4","5","1","1","2","2","2","1","2","1","2","1","0","1","1","0","0","1","1","0","1","1","0","1","0","1","5","4","4","2","2","3","4","4","3","1","729745091731918850","黄","462","","","","","","","","","","","","","","","","","","","true","14","4","moral","727","other","他","","","","","","","","","","","","","","",""
"null","","null","html-keyboard-response","114","129433","0.0-6.0-1.0-8.0-0.3","4","3","4","3","3","3","3","4","4","3","4","3","3","4","3","4","3","3","4","5","1","1","2","2","2","1","2","1","2","1","0","1","1","0","0","1","1","0","1","1","0","1","0","1","5","4","4","2","2","3","4","4","3","1","729745091731918850","黄","462","","","","","","","","","","","","","","","","","","","","","","","","","","","","","","","","","","","","","","","",""
"1182","<p style=""color:white; font-size: 35px;"">小人</p>","i","categorize-html","115","130619","0.0-6.0-1.0-8.0-1.3","4","3","4","3","3","3","3","4","4","3","4","3","3","4","3","4","3","3","4","5","1","1","2","2","2","1","2","1","2","1","0","1","1","0","0","1","1","0","1","1","0","1","0","1","5","4","4","2","2","3","4","4","3","1","729745091731918850","黄","462","","","","","","","","","","","","","","","","","","","true","14","4","moral","1182","negative","小人","","","","","","","","","","","","","","",""
"null","","null","html-keyboard-response","116","130871","0.0-6.0-1.0-8.0-0.4","4","3","4","3","3","3","3","4","4","3","4","3","3","4","3","4","3","3","4","5","1","1","2","2","2","1","2","1","2","1","0","1","1","0","0","1","1","0","1","1","0","1","0","1","5","4","4","2","2","3","4","4","3","1","729745091731918850","黄","462","","","","","","","","","","","","","","","","","","","","","","","","","","","","","","","","","","","","","","","",""
"631","<p style=""color:rgb(150, 250, 100); font-size: 35px;"">本人的</p>","i","categorize-html","117","131507","0.0-6.0-1.0-8.0-1.4","4","3","4","3","3","3","3","4","4","3","4","3","3","4","3","4","3","3","4","5","1","1","2","2","2","1","2","1","2","1","0","1","1","0","0","1","1","0","1","1","0","1","0","1","5","4","4","2","2","3","4","4","3","1","729745091731918850","黄","462","","","","","","","","","","","","","","","","","","","true","14","4","moral","631","self","本人的","","","","","","","","","","","","","","",""
"null","","null","html-keyboard-response","118","131761","0.0-6.0-1.0-8.0-0.5","4","3","4","3","3","3","3","4","4","3","4","3","3","4","3","4","3","3","4","5","1","1","2","2","2","1","2","1","2","1","0","1","1","0","0","1","1","0","1","1","0","1","0","1","5","4","4","2","2","3","4","4","3","1","729745091731918850","黄","462","","","","","","","","","","","","","","","","","","","","","","","","","","","","","","","","","","","","","","","",""
"677","<p style=""color:white; font-size: 35px;"">缺德</p>","i","categorize-html","119","132443","0.0-6.0-1.0-8.0-1.5","4","3","4","3","3","3","3","4","4","3","4","3","3","4","3","4","3","3","4","5","1","1","2","2","2","1","2","1","2","1","0","1","1","0","0","1","1","0","1","1","0","1","0","1","5","4","4","2","2","3","4","4","3","1","729745091731918850","黄","462","","","","","","","","","","","","","","","","","","","true","14","4","moral","677","negative","缺德","","","","","","","","","","","","","","",""
"null","","null","html-keyboard-response","120","132697","0.0-6.0-1.0-8.0-0.6","4","3","4","3","3","3","3","4","4","3","4","3","3","4","3","4","3","3","4","5","1","1","2","2","2","1","2","1","2","1","0","1","1","0","0","1","1","0","1","1","0","1","0","1","5","4","4","2","2","3","4","4","3","1","729745091731918850","黄","462","","","","","","","","","","","","","","","","","","","","","","","","","","","","","","","","","","","","","","","",""
"733","<p style=""color:rgb(150, 250, 100); font-size: 35px;"">别人的</p>","e","categorize-html","121","133435","0.0-6.0-1.0-8.0-1.6","4","3","4","3","3","3","3","4","4","3","4","3","3","4","3","4","3","3","4","5","1","1","2","2","2","1","2","1","2","1","0","1","1","0","0","1","1","0","1","1","0","1","0","1","5","4","4","2","2","3","4","4","3","1","729745091731918850","黄","462","","","","","","","","","","","","","","","","","","","true","14","4","moral","733","other","别人的","","","","","","","","","","","","","","",""
"null","","null","html-keyboard-response","122","133689","0.0-6.0-1.0-8.0-0.7","4","3","4","3","3","3","3","4","4","3","4","3","3","4","3","4","3","3","4","5","1","1","2","2","2","1","2","1","2","1","0","1","1","0","0","1","1","0","1","1","0","1","0","1","5","4","4","2","2","3","4","4","3","1","729745091731918850","黄","462","","","","","","","","","","","","","","","","","","","","","","","","","","","","","","","","","","","","","","","",""
"2206","<p style=""color:white; font-size: 35px;"">善良</p>","e","categorize-html","123","135901","0.0-6.0-1.0-8.0-1.7","4","3","4","3","3","3","3","4","4","3","4","3","3","4","3","4","3","3","4","5","1","1","2","2","2","1","2","1","2","1","0","1","1","0","0","1","1","0","1","1","0","1","0","1","5","4","4","2","2","3","4","4","3","1","729745091731918850","黄","462","","","","","","","","","","","","","","","","","","","true","14","4","moral","2206","positive","善良","","","","","","","","","","","","","","",""
"null","","null","html-keyboard-response","124","136153","0.0-6.0-1.0-8.0-0.8","4","3","4","3","3","3","3","4","4","3","4","3","3","4","3","4","3","3","4","5","1","1","2","2","2","1","2","1","2","1","0","1","1","0","0","1","1","0","1","1","0","1","0","1","5","4","4","2","2","3","4","4","3","1","729745091731918850","黄","462","","","","","","","","","","","","","","","","","","","","","","","","","","","","","","","","","","","","","","","",""
"765","<p style=""color:rgb(150, 250, 100); font-size: 35px;"">本人</p>","i","categorize-html","125","136923","0.0-6.0-1.0-8.0-1.8","4","3","4","3","3","3","3","4","4","3","4","3","3","4","3","4","3","3","4","5","1","1","2","2","2","1","2","1","2","1","0","1","1","0","0","1","1","0","1","1","0","1","0","1","5","4","4","2","2","3","4","4","3","1","729745091731918850","黄","462","","","","","","","","","","","","","","","","","","","true","14","4","moral","765","self","本人","","","","","","","","","","","","","","",""
"null","","null","html-keyboard-response","126","137177","0.0-6.0-1.0-8.0-0.9","4","3","4","3","3","3","3","4","4","3","4","3","3","4","3","4","3","3","4","5","1","1","2","2","2","1","2","1","2","1","0","1","1","0","0","1","1","0","1","1","0","1","0","1","5","4","4","2","2","3","4","4","3","1","729745091731918850","黄","462","","","","","","","","","","","","","","","","","","","","","","","","","","","","","","","","","","","","","","","",""
"773","<p style=""color:white; font-size: 35px;"">高尚</p>","e","categorize-html","127","137955","0.0-6.0-1.0-8.0-1.9","4","3","4","3","3","3","3","4","4","3","4","3","3","4","3","4","3","3","4","5","1","1","2","2","2","1","2","1","2","1","0","1","1","0","0","1","1","0","1","1","0","1","0","1","5","4","4","2","2","3","4","4","3","1","729745091731918850","黄","462","","","","","","","","","","","","","","","","","","","true","14","4","moral","773","positive","高尚","","","","","","","","","","","","","","",""
"null","","null","html-keyboard-response","128","138215","0.0-6.0-1.0-8.0-0.10","4","3","4","3","3","3","3","4","4","3","4","3","3","4","3","4","3","3","4","5","1","1","2","2","2","1","2","1","2","1","0","1","1","0","0","1","1","0","1","1","0","1","0","1","5","4","4","2","2","3","4","4","3","1","729745091731918850","黄","462","","","","","","","","","","","","","","","","","","","","","","","","","","","","","","","","","","","","","","","",""
"982","<p style=""color:rgb(150, 250, 100); font-size: 35px;"">他的</p>","e","categorize-html","129","139203","0.0-6.0-1.0-8.0-1.10","4","3","4","3","3","3","3","4","4","3","4","3","3","4","3","4","3","3","4","5","1","1","2","2","2","1","2","1","2","1","0","1","1","0","0","1","1","0","1","1","0","1","0","1","5","4","4","2","2","3","4","4","3","1","729745091731918850","黄","462","","","","","","","","","","","","","","","","","","","true","14","4","moral","982","other","他的","","","","","","","","","","","","","","",""
"null","","null","html-keyboard-response","130","139457","0.0-6.0-1.0-8.0-0.11","4","3","4","3","3","3","3","4","4","3","4","3","3","4","3","4","3","3","4","5","1","1","2","2","2","1","2","1","2","1","0","1","1","0","0","1","1","0","1","1","0","1","0","1","5","4","4","2","2","3","4","4","3","1","729745091731918850","黄","462","","","","","","","","","","","","","","","","","","","","","","","","","","","","","","","","","","","","","","","",""
"1221","<p style=""color:white; font-size: 35px;"">卑鄙</p>","e","categorize-html","131","141415","0.0-6.0-1.0-8.0-1.11","4","3","4","3","3","3","3","4","4","3","4","3","3","4","3","4","3","3","4","5","1","1","2","2","2","1","2","1","2","1","0","1","1","0","0","1","1","0","1","1","0","1","0","1","5","4","4","2","2","3","4","4","3","1","729745091731918850","黄","462","","","","","","","","","","","","","","","","","","","false","14","4","moral","1674.3111111111111","negative","卑鄙","","","","","","","","","","","","","","",""
"null","","null","html-keyboard-response","132","141671","0.0-6.0-1.0-8.0-0.12","4","3","4","3","3","3","3","4","4","3","4","3","3","4","3","4","3","3","4","5","1","1","2","2","2","1","2","1","2","1","0","1","1","0","0","1","1","0","1","1","0","1","0","1","5","4","4","2","2","3","4","4","3","1","729745091731918850","黄","462","","","","","","","","","","","","","","","","","","","","","","","","","","","","","","","","","","","","","","","",""
"879","<p style=""color:rgb(150, 250, 100); font-size: 35px;"">自己</p>","i","categorize-html","133","142555","0.0-6.0-1.0-8.0-1.12","4","3","4","3","3","3","3","4","4","3","4","3","3","4","3","4","3","3","4","5","1","1","2","2","2","1","2","1","2","1","0","1","1","0","0","1","1","0","1","1","0","1","0","1","5","4","4","2","2","3","4","4","3","1","729745091731918850","黄","462","","","","","","","","","","","","","","","","","","","true","14","4","moral","879","self","自己","","","","","","","","","","","","","","",""
"null","","null","html-keyboard-response","134","142816","0.0-6.0-1.0-8.0-0.13","4","3","4","3","3","3","3","4","4","3","4","3","3","4","3","4","3","3","4","5","1","1","2","2","2","1","2","1","2","1","0","1","1","0","0","1","1","0","1","1","0","1","0","1","5","4","4","2","2","3","4","4","3","1","729745091731918850","黄","462","","","","","","","","","","","","","","","","","","","","","","","","","","","","","","","","","","","","","","","",""
"974","<p style=""color:white; font-size: 35px;"">正直</p>","e","categorize-html","135","143795","0.0-6.0-1.0-8.0-1.13","4","3","4","3","3","3","3","4","4","3","4","3","3","4","3","4","3","3","4","5","1","1","2","2","2","1","2","1","2","1","0","1","1","0","0","1","1","0","1","1","0","1","0","1","5","4","4","2","2","3","4","4","3","1","729745091731918850","黄","462","","","","","","","","","","","","","","","","","","","true","14","4","moral","974","positive","正直","","","","","","","","","","","","","","",""
"null","","null","html-keyboard-response","136","144048","0.0-6.0-1.0-8.0-0.14","4","3","4","3","3","3","3","4","4","3","4","3","3","4","3","4","3","3","4","5","1","1","2","2","2","1","2","1","2","1","0","1","1","0","0","1","1","0","1","1","0","1","0","1","5","4","4","2","2","3","4","4","3","1","729745091731918850","黄","462","","","","","","","","","","","","","","","","","","","","","","","","","","","","","","","","","","","","","","","",""
"838","<p style=""color:rgb(150, 250, 100); font-size: 35px;"">别人的</p>","e","categorize-html","137","144891","0.0-6.0-1.0-8.0-1.14","4","3","4","3","3","3","3","4","4","3","4","3","3","4","3","4","3","3","4","5","1","1","2","2","2","1","2","1","2","1","0","1","1","0","0","1","1","0","1","1","0","1","0","1","5","4","4","2","2","3","4","4","3","1","729745091731918850","黄","462","","","","","","","","","","","","","","","","","","","true","14","4","moral","838","other","别人的","","","","","","","","","","","","","","",""
"null","","null","html-keyboard-response","138","145144","0.0-6.0-1.0-8.0-0.15","4","3","4","3","3","3","3","4","4","3","4","3","3","4","3","4","3","3","4","5","1","1","2","2","2","1","2","1","2","1","0","1","1","0","0","1","1","0","1","1","0","1","0","1","5","4","4","2","2","3","4","4","3","1","729745091731918850","黄","462","","","","","","","","","","","","","","","","","","","","","","","","","","","","","","","","","","","","","","","",""
"2374","<p style=""color:white; font-size: 35px;"">黑心</p>","i","categorize-html","139","147524","0.0-6.0-1.0-8.0-1.15","4","3","4","3","3","3","3","4","4","3","4","3","3","4","3","4","3","3","4","5","1","1","2","2","2","1","2","1","2","1","0","1","1","0","0","1","1","0","1","1","0","1","0","1","5","4","4","2","2","3","4","4","3","1","729745091731918850","黄","462","","","","","","","","","","","","","","","","","","","true","14","4","moral","2374","negative","黑心","","","","","","","","","","","","","","",""
"null","","null","html-keyboard-response","140","147776","0.0-6.0-1.0-8.0-0.16","4","3","4","3","3","3","3","4","4","3","4","3","3","4","3","4","3","3","4","5","1","1","2","2","2","1","2","1","2","1","0","1","1","0","0","1","1","0","1","1","0","1","0","1","5","4","4","2","2","3","4","4","3","1","729745091731918850","黄","462","","","","","","","","","","","","","","","","","","","","","","","","","","","","","","","","","","","","","","","",""
"614","<p style=""color:rgb(150, 250, 100); font-size: 35px;"">我的</p>","i","categorize-html","141","148395","0.0-6.0-1.0-8.0-1.16","4","3","4","3","3","3","3","4","4","3","4","3","3","4","3","4","3","3","4","5","1","1","2","2","2","1","2","1","2","1","0","1","1","0","0","1","1","0","1","1","0","1","0","1","5","4","4","2","2","3","4","4","3","1","729745091731918850","黄","462","","","","","","","","","","","","","","","","","","","true","14","4","moral","614","self","我的","","","","","","","","","","","","","","",""
"null","","null","html-keyboard-response","142","148648","0.0-6.0-1.0-8.0-0.17","4","3","4","3","3","3","3","4","4","3","4","3","3","4","3","4","3","3","4","5","1","1","2","2","2","1","2","1","2","1","0","1","1","0","0","1","1","0","1","1","0","1","0","1","5","4","4","2","2","3","4","4","3","1","729745091731918850","黄","462","","","","","","","","","","","","","","","","","","","","","","","","","","","","","","","","","","","","","","","",""
"685","<p style=""color:white; font-size: 35px;"">君子</p>","e","categorize-html","143","149339","0.0-6.0-1.0-8.0-1.17","4","3","4","3","3","3","3","4","4","3","4","3","3","4","3","4","3","3","4","5","1","1","2","2","2","1","2","1","2","1","0","1","1","0","0","1","1","0","1","1","0","1","0","1","5","4","4","2","2","3","4","4","3","1","729745091731918850","黄","462","","","","","","","","","","","","","","","","","","","true","14","4","moral","685","positive","君子","","","","","","","","","","","","","","",""
"null","","null","html-keyboard-response","144","149593","0.0-6.0-1.0-8.0-0.18","4","3","4","3","3","3","3","4","4","3","4","3","3","4","3","4","3","3","4","5","1","1","2","2","2","1","2","1","2","1","0","1","1","0","0","1","1","0","1","1","0","1","0","1","5","4","4","2","2","3","4","4","3","1","729745091731918850","黄","462","","","","","","","","","","","","","","","","","","","","","","","","","","","","","","","","","","","","","","","",""
"653","<p style=""color:rgb(150, 250, 100); font-size: 35px;"">他的</p>","e","categorize-html","145","150251","0.0-6.0-1.0-8.0-1.18","4","3","4","3","3","3","3","4","4","3","4","3","3","4","3","4","3","3","4","5","1","1","2","2","2","1","2","1","2","1","0","1","1","0","0","1","1","0","1","1","0","1","0","1","5","4","4","2","2","3","4","4","3","1","729745091731918850","黄","462","","","","","","","","","","","","","","","","","","","true","14","4","moral","653","other","他的","","","","","","","","","","","","","","",""
"null","","null","html-keyboard-response","146","150505","0.0-6.0-1.0-8.0-0.19","4","3","4","3","3","3","3","4","4","3","4","3","3","4","3","4","3","3","4","5","1","1","2","2","2","1","2","1","2","1","0","1","1","0","0","1","1","0","1","1","0","1","0","1","5","4","4","2","2","3","4","4","3","1","729745091731918850","黄","462","","","","","","","","","","","","","","","","","","","","","","","","","","","","","","","","","","","","","","","",""
"1278","<p style=""color:white; font-size: 35px;"">黑心</p>","i","categorize-html","147","151787","0.0-6.0-1.0-8.0-1.19","4","3","4","3","3","3","3","4","4","3","4","3","3","4","3","4","3","3","4","5","1","1","2","2","2","1","2","1","2","1","0","1","1","0","0","1","1","0","1","1","0","1","0","1","5","4","4","2","2","3","4","4","3","1","729745091731918850","黄","462","","","","","","","","","","","","","","","","","","","true","14","4","moral","1278","negative","黑心","","","","","","","","","","","","","","",""
"null","","null","html-keyboard-response","148","152041","0.0-6.0-1.0-8.0-0.20","4","3","4","3","3","3","3","4","4","3","4","3","3","4","3","4","3","3","4","5","1","1","2","2","2","1","2","1","2","1","0","1","1","0","0","1","1","0","1","1","0","1","0","1","5","4","4","2","2","3","4","4","3","1","729745091731918850","黄","462","","","","","","","","","","","","","","","","","","","","","","","","","","","","","","","","","","","","","","","",""
"725","<p style=""color:rgb(150, 250, 100); font-size: 35px;"">本人</p>","i","categorize-html","149","152771","0.0-6.0-1.0-8.0-1.20","4","3","4","3","3","3","3","4","4","3","4","3","3","4","3","4","3","3","4","5","1","1","2","2","2","1","2","1","2","1","0","1","1","0","0","1","1","0","1","1","0","1","0","1","5","4","4","2","2","3","4","4","3","1","729745091731918850","黄","462","","","","","","","","","","","","","","","","","","","true","14","4","moral","725","self","本人","","","","","","","","","","","","","","",""
"null","","null","html-keyboard-response","150","153025","0.0-6.0-1.0-8.0-0.21","4","3","4","3","3","3","3","4","4","3","4","3","3","4","3","4","3","3","4","5","1","1","2","2","2","1","2","1","2","1","0","1","1","0","0","1","1","0","1","1","0","1","0","1","5","4","4","2","2","3","4","4","3","1","729745091731918850","黄","462","","","","","","","","","","","","","","","","","","","","","","","","","","","","","","","","","","","","","","","",""
"669","<p style=""color:white; font-size: 35px;"">诚信</p>","e","categorize-html","151","153699","0.0-6.0-1.0-8.0-1.21","4","3","4","3","3","3","3","4","4","3","4","3","3","4","3","4","3","3","4","5","1","1","2","2","2","1","2","1","2","1","0","1","1","0","0","1","1","0","1","1","0","1","0","1","5","4","4","2","2","3","4","4","3","1","729745091731918850","黄","462","","","","","","","","","","","","","","","","","","","true","14","4","moral","669","positive","诚信","","","","","","","","","","","","","","",""
"null","","null","html-keyboard-response","152","153953","0.0-6.0-1.0-8.0-0.22","4","3","4","3","3","3","3","4","4","3","4","3","3","4","3","4","3","3","4","5","1","1","2","2","2","1","2","1","2","1","0","1","1","0","0","1","1","0","1","1","0","1","0","1","5","4","4","2","2","3","4","4","3","1","729745091731918850","黄","462","","","","","","","","","","","","","","","","","","","","","","","","","","","","","","","","","","","","","","","",""
"1205","<p style=""color:rgb(150, 250, 100); font-size: 35px;"">别人</p>","e","categorize-html","153","155163","0.0-6.0-1.0-8.0-1.22","4","3","4","3","3","3","3","4","4","3","4","3","3","4","3","4","3","3","4","5","1","1","2","2","2","1","2","1","2","1","0","1","1","0","0","1","1","0","1","1","0","1","0","1","5","4","4","2","2","3","4","4","3","1","729745091731918850","黄","462","","","","","","","","","","","","","","","","","","","true","14","4","moral","1205","other","别人","","","","","","","","","","","","","","",""
"null","","null","html-keyboard-response","154","155417","0.0-6.0-1.0-8.0-0.23","4","3","4","3","3","3","3","4","4","3","4","3","3","4","3","4","3","3","4","5","1","1","2","2","2","1","2","1","2","1","0","1","1","0","0","1","1","0","1","1","0","1","0","1","5","4","4","2","2","3","4","4","3","1","729745091731918850","黄","462","","","","","","","","","","","","","","","","","","","","","","","","","","","","","","","","","","","","","","","",""
"3494","<p style=""color:white; font-size: 35px;"">不孝</p>","i","categorize-html","155","158916","0.0-6.0-1.0-8.0-1.23","4","3","4","3","3","3","3","4","4","3","4","3","3","4","3","4","3","3","4","5","1","1","2","2","2","1","2","1","2","1","0","1","1","0","0","1","1","0","1","1","0","1","0","1","5","4","4","2","2","3","4","4","3","1","729745091731918850","黄","462","","","","","","","","","","","","","","","","","","","true","14","4","moral","3494","negative","不孝","","","","","","","","","","","","","","",""
"null","","null","html-keyboard-response","156","159169","0.0-6.0-1.0-8.0-0.24","4","3","4","3","3","3","3","4","4","3","4","3","3","4","3","4","3","3","4","5","1","1","2","2","2","1","2","1","2","1","0","1","1","0","0","1","1","0","1","1","0","1","0","1","5","4","4","2","2","3","4","4","3","1","729745091731918850","黄","462","","","","","","","","","","","","","","","","","","","","","","","","","","","","","","","","","","","","","","","",""
"1269","<p style=""color:rgb(150, 250, 100); font-size: 35px;"">别人</p>","e","categorize-html","157","160443","0.0-6.0-1.0-8.0-1.24","4","3","4","3","3","3","3","4","4","3","4","3","3","4","3","4","3","3","4","5","1","1","2","2","2","1","2","1","2","1","0","1","1","0","0","1","1","0","1","1","0","1","0","1","5","4","4","2","2","3","4","4","3","1","729745091731918850","黄","462","","","","","","","","","","","","","","","","","","","true","14","4","moral","1269","other","别人","","","","","","","","","","","","","","",""
"null","","null","html-keyboard-response","158","160696","0.0-6.0-1.0-8.0-0.25","4","3","4","3","3","3","3","4","4","3","4","3","3","4","3","4","3","3","4","5","1","1","2","2","2","1","2","1","2","1","0","1","1","0","0","1","1","0","1","1","0","1","0","1","5","4","4","2","2","3","4","4","3","1","729745091731918850","黄","462","","","","","","","","","","","","","","","","","","","","","","","","","","","","","","","","","","","","","","","",""
"2534","<p style=""color:white; font-size: 35px;"">廉正</p>","e","categorize-html","159","163235","0.0-6.0-1.0-8.0-1.25","4","3","4","3","3","3","3","4","4","3","4","3","3","4","3","4","3","3","4","5","1","1","2","2","2","1","2","1","2","1","0","1","1","0","0","1","1","0","1","1","0","1","0","1","5","4","4","2","2","3","4","4","3","1","729745091731918850","黄","462","","","","","","","","","","","","","","","","","","","true","14","4","moral","2534","positive","廉正","","","","","","","","","","","","","","",""
"null","","null","html-keyboard-response","160","163488","0.0-6.0-1.0-8.0-0.26","4","3","4","3","3","3","3","4","4","3","4","3","3","4","3","4","3","3","4","5","1","1","2","2","2","1","2","1","2","1","0","1","1","0","0","1","1","0","1","1","0","1","0","1","5","4","4","2","2","3","4","4","3","1","729745091731918850","黄","462","","","","","","","","","","","","","","","","","","","","","","","","","","","","","","","","","","","","","","","",""
"678","<p style=""color:rgb(150, 250, 100); font-size: 35px;"">我</p>","i","categorize-html","161","164171","0.0-6.0-1.0-8.0-1.26","4","3","4","3","3","3","3","4","4","3","4","3","3","4","3","4","3","3","4","5","1","1","2","2","2","1","2","1","2","1","0","1","1","0","0","1","1","0","1","1","0","1","0","1","5","4","4","2","2","3","4","4","3","1","729745091731918850","黄","462","","","","","","","","","","","","","","","","","","","true","14","4","moral","678","self","我","","","","","","","","","","","","","","",""
"null","","null","html-keyboard-response","162","164424","0.0-6.0-1.0-8.0-0.27","4","3","4","3","3","3","3","4","4","3","4","3","3","4","3","4","3","3","4","5","1","1","2","2","2","1","2","1","2","1","0","1","1","0","0","1","1","0","1","1","0","1","0","1","5","4","4","2","2","3","4","4","3","1","729745091731918850","黄","462","","","","","","","","","","","","","","","","","","","","","","","","","","","","","","","","","","","","","","","",""
"1526","<p style=""color:white; font-size: 35px;"">卑鄙</p>","i","categorize-html","163","165955","0.0-6.0-1.0-8.0-1.27","4","3","4","3","3","3","3","4","4","3","4","3","3","4","3","4","3","3","4","5","1","1","2","2","2","1","2","1","2","1","0","1","1","0","0","1","1","0","1","1","0","1","0","1","5","4","4","2","2","3","4","4","3","1","729745091731918850","黄","462","","","","","","","","","","","","","","","","","","","true","14","4","moral","1526","negative","卑鄙","","","","","","","","","","","","","","",""
"null","","null","html-keyboard-response","164","166208","0.0-6.0-1.0-8.0-0.28","4","3","4","3","3","3","3","4","4","3","4","3","3","4","3","4","3","3","4","5","1","1","2","2","2","1","2","1","2","1","0","1","1","0","0","1","1","0","1","1","0","1","0","1","5","4","4","2","2","3","4","4","3","1","729745091731918850","黄","462","","","","","","","","","","","","","","","","","","","","","","","","","","","","","","","","","","","","","","","",""
"830","<p style=""color:rgb(150, 250, 100); font-size: 35px;"">他</p>","e","categorize-html","165","167043","0.0-6.0-1.0-8.0-1.28","4","3","4","3","3","3","3","4","4","3","4","3","3","4","3","4","3","3","4","5","1","1","2","2","2","1","2","1","2","1","0","1","1","0","0","1","1","0","1","1","0","1","0","1","5","4","4","2","2","3","4","4","3","1","729745091731918850","黄","462","","","","","","","","","","","","","","","","","","","true","14","4","moral","830","other","他","","","","","","","","","","","","","","",""
"null","","null","html-keyboard-response","166","167296","0.0-6.0-1.0-8.0-0.29","4","3","4","3","3","3","3","4","4","3","4","3","3","4","3","4","3","3","4","5","1","1","2","2","2","1","2","1","2","1","0","1","1","0","0","1","1","0","1","1","0","1","0","1","5","4","4","2","2","3","4","4","3","1","729745091731918850","黄","462","","","","","","","","","","","","","","","","","","","","","","","","","","","","","","","","","","","","","","","",""
"1501","<p style=""color:white; font-size: 35px;"">不仁</p>","i","categorize-html","167","168803","0.0-6.0-1.0-8.0-1.29","4","3","4","3","3","3","3","4","4","3","4","3","3","4","3","4","3","3","4","5","1","1","2","2","2","1","2","1","2","1","0","1","1","0","0","1","1","0","1","1","0","1","0","1","5","4","4","2","2","3","4","4","3","1","729745091731918850","黄","462","","","","","","","","","","","","","","","","","","","true","14","4","moral","1501","negative","不仁","","","","","","","","","","","","","","",""
"null","","null","html-keyboard-response","168","169057","0.0-6.0-1.0-8.0-0.30","4","3","4","3","3","3","3","4","4","3","4","3","3","4","3","4","3","3","4","5","1","1","2","2","2","1","2","1","2","1","0","1","1","0","0","1","1","0","1","1","0","1","0","1","5","4","4","2","2","3","4","4","3","1","729745091731918850","黄","462","","","","","","","","","","","","","","","","","","","","","","","","","","","","","","","","","","","","","","","",""
"646","<p style=""color:rgb(150, 250, 100); font-size: 35px;"">本人的</p>","i","categorize-html","169","169708","0.0-6.0-1.0-8.0-1.30","4","3","4","3","3","3","3","4","4","3","4","3","3","4","3","4","3","3","4","5","1","1","2","2","2","1","2","1","2","1","0","1","1","0","0","1","1","0","1","1","0","1","0","1","5","4","4","2","2","3","4","4","3","1","729745091731918850","黄","462","","","","","","","","","","","","","","","","","","","true","14","4","moral","646","self","本人的","","","","","","","","","","","","","","",""
"null","","null","html-keyboard-response","170","169961","0.0-6.0-1.0-8.0-0.31","4","3","4","3","3","3","3","4","4","3","4","3","3","4","3","4","3","3","4","5","1","1","2","2","2","1","2","1","2","1","0","1","1","0","0","1","1","0","1","1","0","1","0","1","5","4","4","2","2","3","4","4","3","1","729745091731918850","黄","462","","","","","","","","","","","","","","","","","","","","","","","","","","","","","","","","","","","","","","","",""
"677","<p style=""color:white; font-size: 35px;"">高尚</p>","e","categorize-html","171","170643","0.0-6.0-1.0-8.0-1.31","4","3","4","3","3","3","3","4","4","3","4","3","3","4","3","4","3","3","4","5","1","1","2","2","2","1","2","1","2","1","0","1","1","0","0","1","1","0","1","1","0","1","0","1","5","4","4","2","2","3","4","4","3","1","729745091731918850","黄","462","","","","","","","","","","","","","","","","","","","true","14","4","moral","677","positive","高尚","","","","","","","","","","","","","","",""
"null","","null","html-keyboard-response","172","170897","0.0-6.0-1.0-8.0-0.32","4","3","4","3","3","3","3","4","4","3","4","3","3","4","3","4","3","3","4","5","1","1","2","2","2","1","2","1","2","1","0","1","1","0","0","1","1","0","1","1","0","1","0","1","5","4","4","2","2","3","4","4","3","1","729745091731918850","黄","462","","","","","","","","","","","","","","","","","","","","","","","","","","","","","","","","","","","","","","","",""
"741","<p style=""color:rgb(150, 250, 100); font-size: 35px;"">自己</p>","i","categorize-html","173","171643","0.0-6.0-1.0-8.0-1.32","4","3","4","3","3","3","3","4","4","3","4","3","3","4","3","4","3","3","4","5","1","1","2","2","2","1","2","1","2","1","0","1","1","0","0","1","1","0","1","1","0","1","0","1","5","4","4","2","2","3","4","4","3","1","729745091731918850","黄","462","","","","","","","","","","","","","","","","","","","true","14","4","moral","741","self","自己","","","","","","","","","","","","","","",""
"null","","null","html-keyboard-response","174","171897","0.0-6.0-1.0-8.0-0.33","4","3","4","3","3","3","3","4","4","3","4","3","3","4","3","4","3","3","4","5","1","1","2","2","2","1","2","1","2","1","0","1","1","0","0","1","1","0","1","1","0","1","0","1","5","4","4","2","2","3","4","4","3","1","729745091731918850","黄","462","","","","","","","","","","","","","","","","","","","","","","","","","","","","","","","","","","","","","","","",""
"1165","<p style=""color:white; font-size: 35px;"">诚信</p>","e","categorize-html","175","173067","0.0-6.0-1.0-8.0-1.33","4","3","4","3","3","3","3","4","4","3","4","3","3","4","3","4","3","3","4","5","1","1","2","2","2","1","2","1","2","1","0","1","1","0","0","1","1","0","1","1","0","1","0","1","5","4","4","2","2","3","4","4","3","1","729745091731918850","黄","462","","","","","","","","","","","","","","","","","","","true","14","4","moral","1165","positive","诚信","","","","","","","","","","","","","","",""
"null","","null","html-keyboard-response","176","173321","0.0-6.0-1.0-8.0-0.34","4","3","4","3","3","3","3","4","4","3","4","3","3","4","3","4","3","3","4","5","1","1","2","2","2","1","2","1","2","1","0","1","1","0","0","1","1","0","1","1","0","1","0","1","5","4","4","2","2","3","4","4","3","1","729745091731918850","黄","462","","","","","","","","","","","","","","","","","","","","","","","","","","","","","","","","","","","","","","","",""
"733","<p style=""color:rgb(150, 250, 100); font-size: 35px;"">他人的</p>","e","categorize-html","177","174059","0.0-6.0-1.0-8.0-1.34","4","3","4","3","3","3","3","4","4","3","4","3","3","4","3","4","3","3","4","5","1","1","2","2","2","1","2","1","2","1","0","1","1","0","0","1","1","0","1","1","0","1","0","1","5","4","4","2","2","3","4","4","3","1","729745091731918850","黄","462","","","","","","","","","","","","","","","","","","","true","14","4","moral","733","other","他人的","","","","","","","","","","","","","","",""
"null","","null","html-keyboard-response","178","174313","0.0-6.0-1.0-8.0-0.35","4","3","4","3","3","3","3","4","4","3","4","3","3","4","3","4","3","3","4","5","1","1","2","2","2","1","2","1","2","1","0","1","1","0","0","1","1","0","1","1","0","1","0","1","5","4","4","2","2","3","4","4","3","1","729745091731918850","黄","462","","","","","","","","","","","","","","","","","","","","","","","","","","","","","","","","","","","","","","","",""
"1405","<p style=""color:white; font-size: 35px;"">小人</p>","i","categorize-html","179","175723","0.0-6.0-1.0-8.0-1.35","4","3","4","3","3","3","3","4","4","3","4","3","3","4","3","4","3","3","4","5","1","1","2","2","2","1","2","1","2","1","0","1","1","0","0","1","1","0","1","1","0","1","0","1","5","4","4","2","2","3","4","4","3","1","729745091731918850","黄","462","","","","","","","","","","","","","","","","","","","true","14","4","moral","1405","negative","小人","","","","","","","","","","","","","","",""
"null","","null","html-keyboard-response","180","175977","0.0-6.0-1.0-8.0-0.36","4","3","4","3","3","3","3","4","4","3","4","3","3","4","3","4","3","3","4","5","1","1","2","2","2","1","2","1","2","1","0","1","1","0","0","1","1","0","1","1","0","1","0","1","5","4","4","2","2","3","4","4","3","1","729745091731918850","黄","462","","","","","","","","","","","","","","","","","","","","","","","","","","","","","","","","","","","","","","","",""
"1077","<p style=""color:rgb(150, 250, 100); font-size: 35px;"">他人</p>","e","categorize-html","181","177059","0.0-6.0-1.0-8.0-1.36","4","3","4","3","3","3","3","4","4","3","4","3","3","4","3","4","3","3","4","5","1","1","2","2","2","1","2","1","2","1","0","1","1","0","0","1","1","0","1","1","0","1","0","1","5","4","4","2","2","3","4","4","3","1","729745091731918850","黄","462","","","","","","","","","","","","","","","","","","","true","14","4","moral","1077","other","他人","","","","","","","","","","","","","","",""
"null","","null","html-keyboard-response","182","177313","0.0-6.0-1.0-8.0-0.37","4","3","4","3","3","3","3","4","4","3","4","3","3","4","3","4","3","3","4","5","1","1","2","2","2","1","2","1","2","1","0","1","1","0","0","1","1","0","1","1","0","1","0","1","5","4","4","2","2","3","4","4","3","1","729745091731918850","黄","462","","","","","","","","","","","","","","","","","","","","","","","","","","","","","","","","","","","","","","","",""
"933","<p style=""color:white; font-size: 35px;"">正直</p>","e","categorize-html","183","178252","0.0-6.0-1.0-8.0-1.37","4","3","4","3","3","3","3","4","4","3","4","3","3","4","3","4","3","3","4","5","1","1","2","2","2","1","2","1","2","1","0","1","1","0","0","1","1","0","1","1","0","1","0","1","5","4","4","2","2","3","4","4","3","1","729745091731918850","黄","462","","","","","","","","","","","","","","","","","","","true","14","4","moral","933","positive","正直","","","","","","","","","","","","","","",""
"null","","null","html-keyboard-response","184","178504","0.0-6.0-1.0-8.0-0.38","4","3","4","3","3","3","3","4","4","3","4","3","3","4","3","4","3","3","4","5","1","1","2","2","2","1","2","1","2","1","0","1","1","0","0","1","1","0","1","1","0","1","0","1","5","4","4","2","2","3","4","4","3","1","729745091731918850","黄","462","","","","","","","","","","","","","","","","","","","","","","","","","","","","","","","","","","","","","","","",""
"758","<p style=""color:rgb(150, 250, 100); font-size: 35px;"">我</p>","i","categorize-html","185","179267","0.0-6.0-1.0-8.0-1.38","4","3","4","3","3","3","3","4","4","3","4","3","3","4","3","4","3","3","4","5","1","1","2","2","2","1","2","1","2","1","0","1","1","0","0","1","1","0","1","1","0","1","0","1","5","4","4","2","2","3","4","4","3","1","729745091731918850","黄","462","","","","","","","","","","","","","","","","","","","true","14","4","moral","758","self","我","","","","","","","","","","","","","","",""
"null","","null","html-keyboard-response","186","179520","0.0-6.0-1.0-8.0-0.39","4","3","4","3","3","3","3","4","4","3","4","3","3","4","3","4","3","3","4","5","1","1","2","2","2","1","2","1","2","1","0","1","1","0","0","1","1","0","1","1","0","1","0","1","5","4","4","2","2","3","4","4","3","1","729745091731918850","黄","462","","","","","","","","","","","","","","","","","","","","","","","","","","","","","","","","","","","","","","","",""
"1830","<p style=""color:white; font-size: 35px;"">缺德</p>","e","categorize-html","187","182031","0.0-6.0-1.0-8.0-1.39","4","3","4","3","3","3","3","4","4","3","4","3","3","4","3","4","3","3","4","5","1","1","2","2","2","1","2","1","2","1","0","1","1","0","0","1","1","0","1","1","0","1","0","1","5","4","4","2","2","3","4","4","3","1","729745091731918850","黄","462","","","","","","","","","","","","","","","","","","","false","14","4","moral","1674.3111111111111","negative","缺德","","","","","","","","","","","","","","",""
"null","","null","html-keyboard-response","188","182289","0.0-6.0-1.0-8.0-0.40","4","3","4","3","3","3","3","4","4","3","4","3","3","4","3","4","3","3","4","5","1","1","2","2","2","1","2","1","2","1","0","1","1","0","0","1","1","0","1","1","0","1","0","1","5","4","4","2","2","3","4","4","3","1","729745091731918850","黄","462","","","","","","","","","","","","","","","","","","","","","","","","","","","","","","","","","","","","","","","",""
"1126","<p style=""color:rgb(150, 250, 100); font-size: 35px;"">他人</p>","e","categorize-html","189","183419","0.0-6.0-1.0-8.0-1.40","4","3","4","3","3","3","3","4","4","3","4","3","3","4","3","4","3","3","4","5","1","1","2","2","2","1","2","1","2","1","0","1","1","0","0","1","1","0","1","1","0","1","0","1","5","4","4","2","2","3","4","4","3","1","729745091731918850","黄","462","","","","","","","","","","","","","","","","","","","true","14","4","moral","1126","other","他人","","","","","","","","","","","","","","",""
"null","","null","html-keyboard-response","190","183672","0.0-6.0-1.0-8.0-0.41","4","3","4","3","3","3","3","4","4","3","4","3","3","4","3","4","3","3","4","5","1","1","2","2","2","1","2","1","2","1","0","1","1","0","0","1","1","0","1","1","0","1","0","1","5","4","4","2","2","3","4","4","3","1","729745091731918850","黄","462","","","","","","","","","","","","","","","","","","","","","","","","","","","","","","","","","","","","","","","",""
"757","<p style=""color:white; font-size: 35px;"">不仁</p>","i","categorize-html","191","184435","0.0-6.0-1.0-8.0-1.41","4","3","4","3","3","3","3","4","4","3","4","3","3","4","3","4","3","3","4","5","1","1","2","2","2","1","2","1","2","1","0","1","1","0","0","1","1","0","1","1","0","1","0","1","5","4","4","2","2","3","4","4","3","1","729745091731918850","黄","462","","","","","","","","","","","","","","","","","","","true","14","4","moral","757","negative","不仁","","","","","","","","","","","","","","",""
"null","","null","html-keyboard-response","192","184689","0.0-6.0-1.0-8.0-0.42","4","3","4","3","3","3","3","4","4","3","4","3","3","4","3","4","3","3","4","5","1","1","2","2","2","1","2","1","2","1","0","1","1","0","0","1","1","0","1","1","0","1","0","1","5","4","4","2","2","3","4","4","3","1","729745091731918850","黄","462","","","","","","","","","","","","","","","","","","","","","","","","","","","","","","","","","","","","","","","",""
"606","<p style=""color:rgb(150, 250, 100); font-size: 35px;"">自己的</p>","i","categorize-html","193","185299","0.0-6.0-1.0-8.0-1.42","4","3","4","3","3","3","3","4","4","3","4","3","3","4","3","4","3","3","4","5","1","1","2","2","2","1","2","1","2","1","0","1","1","0","0","1","1","0","1","1","0","1","0","1","5","4","4","2","2","3","4","4","3","1","729745091731918850","黄","462","","","","","","","","","","","","","","","","","","","true","14","4","moral","606","self","自己的","","","","","","","","","","","","","","",""
"null","","null","html-keyboard-response","194","185553","0.0-6.0-1.0-8.0-0.43","4","3","4","3","3","3","3","4","4","3","4","3","3","4","3","4","3","3","4","5","1","1","2","2","2","1","2","1","2","1","0","1","1","0","0","1","1","0","1","1","0","1","0","1","5","4","4","2","2","3","4","4","3","1","729745091731918850","黄","462","","","","","","","","","","","","","","","","","","","","","","","","","","","","","","","","","","","","","","","",""
"765","<p style=""color:white; font-size: 35px;"">君子</p>","e","categorize-html","195","186323","0.0-6.0-1.0-8.0-1.43","4","3","4","3","3","3","3","4","4","3","4","3","3","4","3","4","3","3","4","5","1","1","2","2","2","1","2","1","2","1","0","1","1","0","0","1","1","0","1","1","0","1","0","1","5","4","4","2","2","3","4","4","3","1","729745091731918850","黄","462","","","","","","","","","","","","","","","","","","","true","14","4","moral","765","positive","君子","","","","","","","","","","","","","","",""
"null","","null","html-keyboard-response","196","186577","0.0-6.0-1.0-8.0-0.44","4","3","4","3","3","3","3","4","4","3","4","3","3","4","3","4","3","3","4","5","1","1","2","2","2","1","2","1","2","1","0","1","1","0","0","1","1","0","1","1","0","1","0","1","5","4","4","2","2","3","4","4","3","1","729745091731918850","黄","462","","","","","","","","","","","","","","","","","","","","","","","","","","","","","","","","","","","","","","","",""
"1133","<p style=""color:rgb(150, 250, 100); font-size: 35px;"">自己的</p>","i","categorize-html","197","187715","0.0-6.0-1.0-8.0-1.44","4","3","4","3","3","3","3","4","4","3","4","3","3","4","3","4","3","3","4","5","1","1","2","2","2","1","2","1","2","1","0","1","1","0","0","1","1","0","1","1","0","1","0","1","5","4","4","2","2","3","4","4","3","1","729745091731918850","黄","462","","","","","","","","","","","","","","","","","","","true","14","4","moral","1133","self","自己的","","","","","","","","","","","","","","",""
