"rt","stimulus","response","trial_type","trial_index","time_elapsed","internal_node_id","ses_1","ses_2","ses_3","ses_4","ses_5","ses_6","ses_7","ses_8","ses_9","ses_10","coreself_1","coreself_2","coreself_3","coreself_4","coreself_5","coreself_6","coreself_7","coreself_8","coreself_9","coreself_10","SGPS_1","SGPS_2","SGPS_3","SGPS_4","SGPS_5","SGPS_6","SGPS_7","SGPS_8","SGPS_9","NPI1","NPI2","NPI3","NPI4","NPI5","NPI6","NPI7","NPI8","NPI9","NPI10","NPI11","NPI12","NPI13","NPI14","NPI15","hsns_1","hsns_2","hsns_3","hsns_4","hsns_5","hsns_6","hsns_7","hsns_8","hsns_9","hsns_10","subj_idx","friend_name","ParticipantID","value","success","user_agent","responses","item_order","radio_event_ids","radio_event_times","key_event_times","mouse_event_times","straightlining","zigzagging","honeypot","timeout","failed_images","failed_audio","failed_video","version_attrib","version_target","correct","IAT","screen_id","task_id","RT","condition","word","varname","summary","version_attrib2","version_target2","time_stamp","view_history","response_type","key_press","avg_frame_time","center_x","center_y","correct_response","identity","Image","question_order"
"3881","
   <p><div style = ""color: white;font-size:25px;"">您好，欢迎参加本次实验。</div> </p>
   <p><div style = ""color: white;font-size:25px;"">为充分保障您的权利，请确保您已经知晓并同意《参与实验同意书》以及《数据公开知情同意书》。</div></p>
   <p><div style = ""color: white;font-size:25px;"">如果您未见过上述内容，请咨询实验员。</div></p>
   <p><div style = ""color: white;font-size:25px;"">如果您选择继续实验，则表示您已经清楚两份知情同意书的内容并同意。</div></p>
   <p><div style = ""color: red;font-size:30px;"">请确保您记得day0的实验编号，您将在本次实验输入该编号，若您忘记，请咨询实验员后作答。</div></p>
   <p> <div style = ""color: green;font-size:25px;""><按空格键至下页></div> </p>
   "," ","html-keyboard-response","0","3888","0.0-0.0","3","4","3","3","3","3","3","3","3","4","4","3","2","4","3","4","3","3","4","4","2","2","2","2","2","2","2","1","2","1","0","1","1","0","0","1","1","0","1","1","0","1","0","1","4","3","3","2","3","3","4","4","5","2","768419588089319425","林","401","","","","","","","","","","","","","","","","","","","","","","","","","","","","","","","","","","","","","","","",""
"","","","call-function","1","3893","0.0-1.0-0.0","3","4","3","3","3","3","3","3","3","4","4","3","2","4","3","4","3","3","4","4","2","2","2","2","2","2","2","1","2","1","0","1","1","0","0","1","1","0","1","1","0","1","0","1","4","3","3","2","3","3","4","4","5","2","768419588089319425","林","401","","","","","","","","","","","","","","","","","","","","","","","","","","","","","","","","","","","","","","","",""
"35590","","{""friend_name"":""林"",""ParticipantID"":""401""}","survey-html-form","2","39487","0.0-1.0-1.0","3","4","3","3","3","3","3","3","3","4","4","3","2","4","3","4","3","3","4","4","2","2","2","2","2","2","2","1","2","1","0","1","1","0","0","1","1","0","1","1","0","1","0","1","4","3","3","2","3","3","4","4","5","2","768419588089319425","林","401","","","","","","","","","","","","","","","","","","","","","","","","","","","","","","","","","","","","","","","",""
"","","","fullscreen","3","41496","0.0-2.0","3","4","3","3","3","3","3","3","3","4","4","3","2","4","3","4","3","3","4","4","2","2","2","2","2","2","2","1","2","1","0","1","1","0","0","1","1","0","1","1","0","1","0","1","4","3","3","2","3","3","4","4","5","2","768419588089319425","林","401","","true","{}","","","","","","","","","","","","","","","","","","","","","","","","","","","","","","","","","","","","",""
"18153.700000001118","","{""Q01"":""3"",""Q02"":""4"",""Q03"":""3"",""Q04"":""3"",""Q05"":""3"",""Q06"":""3"",""Q07"":""3"",""Q08"":""3"",""Q09"":""3"",""Q10"":""4""}","survey-template","4","59659","0.0-3.0","3","4","3","3","3","3","3","3","3","4","4","3","2","4","3","4","3","3","4","4","2","2","2","2","2","2","2","1","2","1","0","1","1","0","0","1","1","0","1","1","0","1","0","1","4","3","3","2","3","3","4","4","5","2","768419588089319425","林","401","","","","{""Q01"":""3"",""Q02"":""4"",""Q03"":""3"",""Q04"":""3"",""Q05"":""3"",""Q06"":""3"",""Q07"":""3"",""Q08"":""3"",""Q09"":""3"",""Q10"":""4""}","[0,1,2,3,4,5,6,7,8,9]","[""Q01"",""Q02"",""Q03"",""Q04"",""Q05"",""Q06"",""Q07"",""Q08"",""Q09"",""Q10""]","[3742.5,4438.10000000149,6574.200000001118,8174.300000000745,10726.10000000149,11590.300000000745,12662.200000001118,14494.200000001118,15774.200000001118,17022.10000000149]","[]","[2838.300000000745,3742.5,4438.10000000149,6574.200000001118,7582.300000000745,8174.300000000745,10726.10000000149,11590.300000000745,12662.200000001118,14494.200000001118,15774.200000001118,16726.60000000149,17022.10000000149,18150.300000000745]","0.4","0.6666666666666666","0","","","","","","","","","","","","","","","","","","","","","","","","","","","",""
"18123.5","","{""Q01"":""4"",""Q02"":""3"",""Q03"":""2"",""Q04"":""4"",""Q05"":""3"",""Q06"":""4"",""Q07"":""3"",""Q08"":""3"",""Q09"":""4"",""Q10"":""4""}","survey-template","5","77802","0.0-4.0","3","4","3","3","3","3","3","3","3","4","4","3","2","4","3","4","3","3","4","4","2","2","2","2","2","2","2","1","2","1","0","1","1","0","0","1","1","0","1","1","0","1","0","1","4","3","3","2","3","3","4","4","5","2","768419588089319425","林","401","","","","{""Q01"":""4"",""Q02"":""3"",""Q03"":""2"",""Q04"":""4"",""Q05"":""3"",""Q06"":""4"",""Q07"":""3"",""Q08"":""3"",""Q09"":""4"",""Q10"":""4""}","[0,1,2,3,4,5,6,7,8,9]","[""Q01"",""Q02"",""Q03"",""Q04"",""Q05"",""Q06"",""Q07"",""Q08"",""Q09"",""Q10""]","[2352.5,4120.200000001118,6328,7247.4000000003725,9016.300000000745,10064.200000001118,11344.099999999627,14536.099999999627,15888.099999999627,17296]","[]","[2352.5,4120.200000001118,6328,7247.4000000003725,9016.300000000745,10064.200000001118,11344.099999999627,14536.099999999627,15888.099999999627,17296,18119.900000000373]","0.5","0.6666666666666666","0","","","","","","","","","","","","","","","","","","","","","","","","","","","",""
"","","","preload","6","78575","0.0-5.0","3","4","3","3","3","3","3","3","3","4","4","3","2","4","3","4","3","3","4","4","2","2","2","2","2","2","2","1","2","1","0","1","1","0","0","1","1","0","1","1","0","1","0","1","4","3","3","2","3","3","4","4","5","2","768419588089319425","林","401","","true","","","","","","","","","","","false","[]","[]","[]","","","","","","","","","","","","","","","","","","","","","","","",""
"11978","
    <h3>词语分类任务</h3>
    <p>在接下来的任务中，你需要对一系列词语进行分类。</p>
    <p>请先熟悉这些词语，这有利于你完成接下来的任务。</p>
    <table align=""center"" border=1 cellpadding=3 cellspacing=0>
    <tr> <th>类别</th> <th>词语</th> </tr>
    <tr> <td>&emsp;积极&emsp;</td> <td>&emsp;能干、全能、全才、高效、精干、天才&emsp;</td> </tr>
    <tr> <td>&emsp;消极&emsp;</td> <td>&emsp;无能、低能、废物、拙笨、愚钝、蠢笨&emsp;</td> </tr>
    <tr> <td>&emsp;自我&emsp;</td> <td>&emsp;我、我的、自己、自己的、本人、本人的&emsp;</td> </tr>
    <tr> <td>&emsp;他人&emsp;</td> <td>&emsp;他、他的、别人、别人的、他人、他人的&emsp;</td> </tr>
    </table><br/>","0","html-button-response","7","90558","0.0-6.0-0.0-0.0","3","4","3","3","3","3","3","3","3","4","4","3","2","4","3","4","3","3","4","4","2","2","2","2","2","2","2","1","2","1","0","1","1","0","0","1","1","0","1","1","0","1","0","1","4","3","3","2","3","3","4","4","5","2","768419588089319425","林","401","","","","","","","","","","","","","","","","","1","2","","","","","","","","","","","","","","","","","","","","","",""
"8101","
    <div class=""tag-bottom"">
    <p> —— 任务1：对“他人”词和“自我”词分类 ——<p/>
    不同词语会出现在屏幕中央，类别标签将始终显示在屏幕上方<p/>   
    <span style=""color:#FFD866""><b>请根据上方标签的提示，尽可能正确并且快速地做出按键反应</b></span><p/>
    当按键错误时屏幕中会出现<span style=""color:red""> X </span>，需要按另一个键纠正才能继续<br/><p/>
    请把双手食指分别放在键盘的“E”键和“I”键上<p/>
    按<空格键>开始
    </p></div>"," ","html-keyboard-response","8","98669","0.0-6.0-0.0-1.0","3","4","3","3","3","3","3","3","3","4","4","3","2","4","3","4","3","3","4","4","2","2","2","2","2","2","2","1","2","1","0","1","1","0","0","1","1","0","1","1","0","1","0","1","4","3","3","2","3","3","4","4","5","2","768419588089319425","林","401","","","","","","","","","","","","","","","","","","","","","","","","","","","","","","","","","","","","","","","",""
"null","","null","html-keyboard-response","9","98928","0.0-6.0-0.0-2.0-0.0","3","4","3","3","3","3","3","3","3","4","4","3","2","4","3","4","3","3","4","4","2","2","2","2","2","2","2","1","2","1","0","1","1","0","0","1","1","0","1","1","0","1","0","1","4","3","3","2","3","3","4","4","5","2","768419588089319425","林","401","","","","","","","","","","","","","","","","","","","","","","","","","","","","","","","","","","","","","","","",""
"1184","<p style=""color:rgb(150, 250, 100); font-size: 35px;"">自己的</p>","i","categorize-html","10","100120","0.0-6.0-0.0-2.0-1.0","3","4","3","3","3","3","3","3","3","4","4","3","2","4","3","4","3","3","4","4","2","2","2","2","2","2","2","1","2","1","0","1","1","0","0","1","1","0","1","1","0","1","0","1","4","3","3","2","3","3","4","4","5","2","768419588089319425","林","401","","","","","","","","","","","","","","","","","","","true","1","1","ability","1184","self","自己的","","","","","","","","","","","","","","",""
"null","","null","html-keyboard-response","11","100376","0.0-6.0-0.0-2.0-0.1","3","4","3","3","3","3","3","3","3","4","4","3","2","4","3","4","3","3","4","4","2","2","2","2","2","2","2","1","2","1","0","1","1","0","0","1","1","0","1","1","0","1","0","1","4","3","3","2","3","3","4","4","5","2","768419588089319425","林","401","","","","","","","","","","","","","","","","","","","","","","","","","","","","","","","","","","","","","","","",""
"851","<p style=""color:rgb(150, 250, 100); font-size: 35px;"">他人</p>","e","categorize-html","12","101232","0.0-6.0-0.0-2.0-1.1","3","4","3","3","3","3","3","3","3","4","4","3","2","4","3","4","3","3","4","4","2","2","2","2","2","2","2","1","2","1","0","1","1","0","0","1","1","0","1","1","0","1","0","1","4","3","3","2","3","3","4","4","5","2","768419588089319425","林","401","","","","","","","","","","","","","","","","","","","true","1","1","ability","851","other","他人","","","","","","","","","","","","","","",""
"null","","null","html-keyboard-response","13","101488","0.0-6.0-0.0-2.0-0.2","3","4","3","3","3","3","3","3","3","4","4","3","2","4","3","4","3","3","4","4","2","2","2","2","2","2","2","1","2","1","0","1","1","0","0","1","1","0","1","1","0","1","0","1","4","3","3","2","3","3","4","4","5","2","768419588089319425","林","401","","","","","","","","","","","","","","","","","","","","","","","","","","","","","","","","","","","","","","","",""
"787","<p style=""color:rgb(150, 250, 100); font-size: 35px;"">别人</p>","e","categorize-html","14","102279","0.0-6.0-0.0-2.0-1.2","3","4","3","3","3","3","3","3","3","4","4","3","2","4","3","4","3","3","4","4","2","2","2","2","2","2","2","1","2","1","0","1","1","0","0","1","1","0","1","1","0","1","0","1","4","3","3","2","3","3","4","4","5","2","768419588089319425","林","401","","","","","","","","","","","","","","","","","","","true","1","1","ability","787","other","别人","","","","","","","","","","","","","","",""
"null","","null","html-keyboard-response","15","102536","0.0-6.0-0.0-2.0-0.3","3","4","3","3","3","3","3","3","3","4","4","3","2","4","3","4","3","3","4","4","2","2","2","2","2","2","2","1","2","1","0","1","1","0","0","1","1","0","1","1","0","1","0","1","4","3","3","2","3","3","4","4","5","2","768419588089319425","林","401","","","","","","","","","","","","","","","","","","","","","","","","","","","","","","","","","","","","","","","",""
"675","<p style=""color:rgb(150, 250, 100); font-size: 35px;"">本人</p>","i","categorize-html","16","103215","0.0-6.0-0.0-2.0-1.3","3","4","3","3","3","3","3","3","3","4","4","3","2","4","3","4","3","3","4","4","2","2","2","2","2","2","2","1","2","1","0","1","1","0","0","1","1","0","1","1","0","1","0","1","4","3","3","2","3","3","4","4","5","2","768419588089319425","林","401","","","","","","","","","","","","","","","","","","","true","1","1","ability","675","self","本人","","","","","","","","","","","","","","",""
"null","","null","html-keyboard-response","17","103472","0.0-6.0-0.0-2.0-0.4","3","4","3","3","3","3","3","3","3","4","4","3","2","4","3","4","3","3","4","4","2","2","2","2","2","2","2","1","2","1","0","1","1","0","0","1","1","0","1","1","0","1","0","1","4","3","3","2","3","3","4","4","5","2","768419588089319425","林","401","","","","","","","","","","","","","","","","","","","","","","","","","","","","","","","","","","","","","","","",""
"587","<p style=""color:rgb(150, 250, 100); font-size: 35px;"">他</p>","e","categorize-html","18","104065","0.0-6.0-0.0-2.0-1.4","3","4","3","3","3","3","3","3","3","4","4","3","2","4","3","4","3","3","4","4","2","2","2","2","2","2","2","1","2","1","0","1","1","0","0","1","1","0","1","1","0","1","0","1","4","3","3","2","3","3","4","4","5","2","768419588089319425","林","401","","","","","","","","","","","","","","","","","","","true","1","1","ability","587","other","他","","","","","","","","","","","","","","",""
"null","","null","html-keyboard-response","19","104320","0.0-6.0-0.0-2.0-0.5","3","4","3","3","3","3","3","3","3","4","4","3","2","4","3","4","3","3","4","4","2","2","2","2","2","2","2","1","2","1","0","1","1","0","0","1","1","0","1","1","0","1","0","1","4","3","3","2","3","3","4","4","5","2","768419588089319425","林","401","","","","","","","","","","","","","","","","","","","","","","","","","","","","","","","","","","","","","","","",""
"643","<p style=""color:rgb(150, 250, 100); font-size: 35px;"">我的</p>","i","categorize-html","20","104967","0.0-6.0-0.0-2.0-1.5","3","4","3","3","3","3","3","3","3","4","4","3","2","4","3","4","3","3","4","4","2","2","2","2","2","2","2","1","2","1","0","1","1","0","0","1","1","0","1","1","0","1","0","1","4","3","3","2","3","3","4","4","5","2","768419588089319425","林","401","","","","","","","","","","","","","","","","","","","true","1","1","ability","643","self","我的","","","","","","","","","","","","","","",""
"null","","null","html-keyboard-response","21","105224","0.0-6.0-0.0-2.0-0.6","3","4","3","3","3","3","3","3","3","4","4","3","2","4","3","4","3","3","4","4","2","2","2","2","2","2","2","1","2","1","0","1","1","0","0","1","1","0","1","1","0","1","0","1","4","3","3","2","3","3","4","4","5","2","768419588089319425","林","401","","","","","","","","","","","","","","","","","","","","","","","","","","","","","","","","","","","","","","","",""
"1451","<p style=""color:rgb(150, 250, 100); font-size: 35px;"">他的</p>","e","categorize-html","22","106679","0.0-6.0-0.0-2.0-1.6","3","4","3","3","3","3","3","3","3","4","4","3","2","4","3","4","3","3","4","4","2","2","2","2","2","2","2","1","2","1","0","1","1","0","0","1","1","0","1","1","0","1","0","1","4","3","3","2","3","3","4","4","5","2","768419588089319425","林","401","","","","","","","","","","","","","","","","","","","true","1","1","ability","1451","other","他的","","","","","","","","","","","","","","",""
"null","","null","html-keyboard-response","23","106935","0.0-6.0-0.0-2.0-0.7","3","4","3","3","3","3","3","3","3","4","4","3","2","4","3","4","3","3","4","4","2","2","2","2","2","2","2","1","2","1","0","1","1","0","0","1","1","0","1","1","0","1","0","1","4","3","3","2","3","3","4","4","5","2","768419588089319425","林","401","","","","","","","","","","","","","","","","","","","","","","","","","","","","","","","","","","","","","","","",""
"1291","<p style=""color:rgb(150, 250, 100); font-size: 35px;"">他人的</p>","e","categorize-html","24","108231","0.0-6.0-0.0-2.0-1.7","3","4","3","3","3","3","3","3","3","4","4","3","2","4","3","4","3","3","4","4","2","2","2","2","2","2","2","1","2","1","0","1","1","0","0","1","1","0","1","1","0","1","0","1","4","3","3","2","3","3","4","4","5","2","768419588089319425","林","401","","","","","","","","","","","","","","","","","","","true","1","1","ability","1291","other","他人的","","","","","","","","","","","","","","",""
"null","","null","html-keyboard-response","25","108487","0.0-6.0-0.0-2.0-0.8","3","4","3","3","3","3","3","3","3","4","4","3","2","4","3","4","3","3","4","4","2","2","2","2","2","2","2","1","2","1","0","1","1","0","0","1","1","0","1","1","0","1","0","1","4","3","3","2","3","3","4","4","5","2","768419588089319425","林","401","","","","","","","","","","","","","","","","","","","","","","","","","","","","","","","","","","","","","","","",""
"1484","<p style=""color:rgb(150, 250, 100); font-size: 35px;"">我</p>","i","categorize-html","26","109976","0.0-6.0-0.0-2.0-1.8","3","4","3","3","3","3","3","3","3","4","4","3","2","4","3","4","3","3","4","4","2","2","2","2","2","2","2","1","2","1","0","1","1","0","0","1","1","0","1","1","0","1","0","1","4","3","3","2","3","3","4","4","5","2","768419588089319425","林","401","","","","","","","","","","","","","","","","","","","true","1","1","ability","1484","self","我","","","","","","","","","","","","","","",""
"null","","null","html-keyboard-response","27","110231","0.0-6.0-0.0-2.0-0.9","3","4","3","3","3","3","3","3","3","4","4","3","2","4","3","4","3","3","4","4","2","2","2","2","2","2","2","1","2","1","0","1","1","0","0","1","1","0","1","1","0","1","0","1","4","3","3","2","3","3","4","4","5","2","768419588089319425","林","401","","","","","","","","","","","","","","","","","","","","","","","","","","","","","","","","","","","","","","","",""
"1444","<p style=""color:rgb(150, 250, 100); font-size: 35px;"">本人的</p>","i","categorize-html","28","111680","0.0-6.0-0.0-2.0-1.9","3","4","3","3","3","3","3","3","3","4","4","3","2","4","3","4","3","3","4","4","2","2","2","2","2","2","2","1","2","1","0","1","1","0","0","1","1","0","1","1","0","1","0","1","4","3","3","2","3","3","4","4","5","2","768419588089319425","林","401","","","","","","","","","","","","","","","","","","","true","1","1","ability","1444","self","本人的","","","","","","","","","","","","","","",""
"null","","null","html-keyboard-response","29","111932","0.0-6.0-0.0-2.0-0.10","3","4","3","3","3","3","3","3","3","4","4","3","2","4","3","4","3","3","4","4","2","2","2","2","2","2","2","1","2","1","0","1","1","0","0","1","1","0","1","1","0","1","0","1","4","3","3","2","3","3","4","4","5","2","768419588089319425","林","401","","","","","","","","","","","","","","","","","","","","","","","","","","","","","","","","","","","","","","","",""
"1511","<p style=""color:rgb(150, 250, 100); font-size: 35px;"">别人的</p>","e","categorize-html","30","113447","0.0-6.0-0.0-2.0-1.10","3","4","3","3","3","3","3","3","3","4","4","3","2","4","3","4","3","3","4","4","2","2","2","2","2","2","2","1","2","1","0","1","1","0","0","1","1","0","1","1","0","1","0","1","4","3","3","2","3","3","4","4","5","2","768419588089319425","林","401","","","","","","","","","","","","","","","","","","","true","1","1","ability","1511","other","别人的","","","","","","","","","","","","","","",""
"null","","null","html-keyboard-response","31","113703","0.0-6.0-0.0-2.0-0.11","3","4","3","3","3","3","3","3","3","4","4","3","2","4","3","4","3","3","4","4","2","2","2","2","2","2","2","1","2","1","0","1","1","0","0","1","1","0","1","1","0","1","0","1","4","3","3","2","3","3","4","4","5","2","768419588089319425","林","401","","","","","","","","","","","","","","","","","","","","","","","","","","","","","","","","","","","","","","","",""
"755","<p style=""color:rgb(150, 250, 100); font-size: 35px;"">自己</p>","i","categorize-html","32","114463","0.0-6.0-0.0-2.0-1.11","3","4","3","3","3","3","3","3","3","4","4","3","2","4","3","4","3","3","4","4","2","2","2","2","2","2","2","1","2","1","0","1","1","0","0","1","1","0","1","1","0","1","0","1","4","3","3","2","3","3","4","4","5","2","768419588089319425","林","401","","","","","","","","","","","","","","","","","","","true","1","1","ability","755","self","自己","","","","","","","","","","","","","","",""
"810","
    <div class=""tag-bottom""><p>
    —— 任务2：对“积极”词和“消极”词分类 ——<p/>   
    <span style=""color:#78DCE8""><b>注意上方，类别标签和需要分类的词语都已经改变</b></span><p/>
    <span style=""color:#FFD866""><b>请根据上方标签的提示，尽可能正确并且快速地做出按键反应</b></span><p/>
    当按键错误时屏幕中会出现<span style=""color:red""> X </span>，需要按另一个键纠正才能继续<br/><p/>
    请把双手食指分别放在键盘的“E”键和“I”键上<p/>
    按<空格键>开始
    </p></div>"," ","html-keyboard-response","33","115276","0.0-6.0-0.0-3.0","3","4","3","3","3","3","3","3","3","4","4","3","2","4","3","4","3","3","4","4","2","2","2","2","2","2","2","1","2","1","0","1","1","0","0","1","1","0","1","1","0","1","0","1","4","3","3","2","3","3","4","4","5","2","768419588089319425","林","401","","","","","","","","","","","","","","","","","","","","","","","","","","","","","","","","","","","","","","","",""
"null","","null","html-keyboard-response","34","115535","0.0-6.0-0.0-4.0-0.0","3","4","3","3","3","3","3","3","3","4","4","3","2","4","3","4","3","3","4","4","2","2","2","2","2","2","2","1","2","1","0","1","1","0","0","1","1","0","1","1","0","1","0","1","4","3","3","2","3","3","4","4","5","2","768419588089319425","林","401","","","","","","","","","","","","","","","","","","","","","","","","","","","","","","","","","","","","","","","",""
"1146","<p style=""color:white; font-size: 35px;"">全才</p>","e","categorize-html","35","116685","0.0-6.0-0.0-4.0-1.0","3","4","3","3","3","3","3","3","3","4","4","3","2","4","3","4","3","3","4","4","2","2","2","2","2","2","2","1","2","1","0","1","1","0","0","1","1","0","1","1","0","1","0","1","4","3","3","2","3","3","4","4","5","2","768419588089319425","林","401","","","","","","","","","","","","","","","","","","","true","2","2","ability","1146","positive","全才","","","","","","","","","","","","","","",""
"null","","null","html-keyboard-response","36","116943","0.0-6.0-0.0-4.0-0.1","3","4","3","3","3","3","3","3","3","4","4","3","2","4","3","4","3","3","4","4","2","2","2","2","2","2","2","1","2","1","0","1","1","0","0","1","1","0","1","1","0","1","0","1","4","3","3","2","3","3","4","4","5","2","768419588089319425","林","401","","","","","","","","","","","","","","","","","","","","","","","","","","","","","","","","","","","","","","","",""
"571","<p style=""color:white; font-size: 35px;"">拙笨</p>","i","categorize-html","37","117517","0.0-6.0-0.0-4.0-1.1","3","4","3","3","3","3","3","3","3","4","4","3","2","4","3","4","3","3","4","4","2","2","2","2","2","2","2","1","2","1","0","1","1","0","0","1","1","0","1","1","0","1","0","1","4","3","3","2","3","3","4","4","5","2","768419588089319425","林","401","","","","","","","","","","","","","","","","","","","true","2","2","ability","571","negative","拙笨","","","","","","","","","","","","","","",""
"null","","null","html-keyboard-response","38","117775","0.0-6.0-0.0-4.0-0.2","3","4","3","3","3","3","3","3","3","4","4","3","2","4","3","4","3","3","4","4","2","2","2","2","2","2","2","1","2","1","0","1","1","0","0","1","1","0","1","1","0","1","0","1","4","3","3","2","3","3","4","4","5","2","768419588089319425","林","401","","","","","","","","","","","","","","","","","","","","","","","","","","","","","","","","","","","","","","","",""
"596","<p style=""color:white; font-size: 35px;"">天才</p>","e","categorize-html","39","118375","0.0-6.0-0.0-4.0-1.2","3","4","3","3","3","3","3","3","3","4","4","3","2","4","3","4","3","3","4","4","2","2","2","2","2","2","2","1","2","1","0","1","1","0","0","1","1","0","1","1","0","1","0","1","4","3","3","2","3","3","4","4","5","2","768419588089319425","林","401","","","","","","","","","","","","","","","","","","","true","2","2","ability","596","positive","天才","","","","","","","","","","","","","","",""
"null","","null","html-keyboard-response","40","118632","0.0-6.0-0.0-4.0-0.3","3","4","3","3","3","3","3","3","3","4","4","3","2","4","3","4","3","3","4","4","2","2","2","2","2","2","2","1","2","1","0","1","1","0","0","1","1","0","1","1","0","1","0","1","4","3","3","2","3","3","4","4","5","2","768419588089319425","林","401","","","","","","","","","","","","","","","","","","","","","","","","","","","","","","","","","","","","","","","",""
"699","<p style=""color:white; font-size: 35px;"">能干</p>","e","categorize-html","41","119335","0.0-6.0-0.0-4.0-1.3","3","4","3","3","3","3","3","3","3","4","4","3","2","4","3","4","3","3","4","4","2","2","2","2","2","2","2","1","2","1","0","1","1","0","0","1","1","0","1","1","0","1","0","1","4","3","3","2","3","3","4","4","5","2","768419588089319425","林","401","","","","","","","","","","","","","","","","","","","true","2","2","ability","699","positive","能干","","","","","","","","","","","","","","",""
"null","","null","html-keyboard-response","42","119592","0.0-6.0-0.0-4.0-0.4","3","4","3","3","3","3","3","3","3","4","4","3","2","4","3","4","3","3","4","4","2","2","2","2","2","2","2","1","2","1","0","1","1","0","0","1","1","0","1","1","0","1","0","1","4","3","3","2","3","3","4","4","5","2","768419588089319425","林","401","","","","","","","","","","","","","","","","","","","","","","","","","","","","","","","","","","","","","","","",""
"627","<p style=""color:white; font-size: 35px;"">愚钝</p>","i","categorize-html","43","120223","0.0-6.0-0.0-4.0-1.4","3","4","3","3","3","3","3","3","3","4","4","3","2","4","3","4","3","3","4","4","2","2","2","2","2","2","2","1","2","1","0","1","1","0","0","1","1","0","1","1","0","1","0","1","4","3","3","2","3","3","4","4","5","2","768419588089319425","林","401","","","","","","","","","","","","","","","","","","","true","2","2","ability","627","negative","愚钝","","","","","","","","","","","","","","",""
"null","","null","html-keyboard-response","44","120480","0.0-6.0-0.0-4.0-0.5","3","4","3","3","3","3","3","3","3","4","4","3","2","4","3","4","3","3","4","4","2","2","2","2","2","2","2","1","2","1","0","1","1","0","0","1","1","0","1","1","0","1","0","1","4","3","3","2","3","3","4","4","5","2","768419588089319425","林","401","","","","","","","","","","","","","","","","","","","","","","","","","","","","","","","","","","","","","","","",""
"611","<p style=""color:white; font-size: 35px;"">废物</p>","i","categorize-html","45","121095","0.0-6.0-0.0-4.0-1.5","3","4","3","3","3","3","3","3","3","4","4","3","2","4","3","4","3","3","4","4","2","2","2","2","2","2","2","1","2","1","0","1","1","0","0","1","1","0","1","1","0","1","0","1","4","3","3","2","3","3","4","4","5","2","768419588089319425","林","401","","","","","","","","","","","","","","","","","","","true","2","2","ability","611","negative","废物","","","","","","","","","","","","","","",""
"null","","null","html-keyboard-response","46","121348","0.0-6.0-0.0-4.0-0.6","3","4","3","3","3","3","3","3","3","4","4","3","2","4","3","4","3","3","4","4","2","2","2","2","2","2","2","1","2","1","0","1","1","0","0","1","1","0","1","1","0","1","0","1","4","3","3","2","3","3","4","4","5","2","768419588089319425","林","401","","","","","","","","","","","","","","","","","","","","","","","","","","","","","","","","","","","","","","","",""
"919","<p style=""color:white; font-size: 35px;"">无能</p>","i","categorize-html","47","122271","0.0-6.0-0.0-4.0-1.6","3","4","3","3","3","3","3","3","3","4","4","3","2","4","3","4","3","3","4","4","2","2","2","2","2","2","2","1","2","1","0","1","1","0","0","1","1","0","1","1","0","1","0","1","4","3","3","2","3","3","4","4","5","2","768419588089319425","林","401","","","","","","","","","","","","","","","","","","","true","2","2","ability","919","negative","无能","","","","","","","","","","","","","","",""
"null","","null","html-keyboard-response","48","122528","0.0-6.0-0.0-4.0-0.7","3","4","3","3","3","3","3","3","3","4","4","3","2","4","3","4","3","3","4","4","2","2","2","2","2","2","2","1","2","1","0","1","1","0","0","1","1","0","1","1","0","1","0","1","4","3","3","2","3","3","4","4","5","2","768419588089319425","林","401","","","","","","","","","","","","","","","","","","","","","","","","","","","","","","","","","","","","","","","",""
"683","<p style=""color:white; font-size: 35px;"">低能</p>","i","categorize-html","49","123215","0.0-6.0-0.0-4.0-1.7","3","4","3","3","3","3","3","3","3","4","4","3","2","4","3","4","3","3","4","4","2","2","2","2","2","2","2","1","2","1","0","1","1","0","0","1","1","0","1","1","0","1","0","1","4","3","3","2","3","3","4","4","5","2","768419588089319425","林","401","","","","","","","","","","","","","","","","","","","true","2","2","ability","683","negative","低能","","","","","","","","","","","","","","",""
"null","","null","html-keyboard-response","50","123472","0.0-6.0-0.0-4.0-0.8","3","4","3","3","3","3","3","3","3","4","4","3","2","4","3","4","3","3","4","4","2","2","2","2","2","2","2","1","2","1","0","1","1","0","0","1","1","0","1","1","0","1","0","1","4","3","3","2","3","3","4","4","5","2","768419588089319425","林","401","","","","","","","","","","","","","","","","","","","","","","","","","","","","","","","","","","","","","","","",""
"731","<p style=""color:white; font-size: 35px;"">高效</p>","e","categorize-html","51","124205","0.0-6.0-0.0-4.0-1.8","3","4","3","3","3","3","3","3","3","4","4","3","2","4","3","4","3","3","4","4","2","2","2","2","2","2","2","1","2","1","0","1","1","0","0","1","1","0","1","1","0","1","0","1","4","3","3","2","3","3","4","4","5","2","768419588089319425","林","401","","","","","","","","","","","","","","","","","","","true","2","2","ability","731","positive","高效","","","","","","","","","","","","","","",""
"null","","null","html-keyboard-response","52","124464","0.0-6.0-0.0-4.0-0.9","3","4","3","3","3","3","3","3","3","4","4","3","2","4","3","4","3","3","4","4","2","2","2","2","2","2","2","1","2","1","0","1","1","0","0","1","1","0","1","1","0","1","0","1","4","3","3","2","3","3","4","4","5","2","768419588089319425","林","401","","","","","","","","","","","","","","","","","","","","","","","","","","","","","","","","","","","","","","","",""
"515","<p style=""color:white; font-size: 35px;"">精干</p>","e","categorize-html","53","124983","0.0-6.0-0.0-4.0-1.9","3","4","3","3","3","3","3","3","3","4","4","3","2","4","3","4","3","3","4","4","2","2","2","2","2","2","2","1","2","1","0","1","1","0","0","1","1","0","1","1","0","1","0","1","4","3","3","2","3","3","4","4","5","2","768419588089319425","林","401","","","","","","","","","","","","","","","","","","","true","2","2","ability","515","positive","精干","","","","","","","","","","","","","","",""
"null","","null","html-keyboard-response","54","125240","0.0-6.0-0.0-4.0-0.10","3","4","3","3","3","3","3","3","3","4","4","3","2","4","3","4","3","3","4","4","2","2","2","2","2","2","2","1","2","1","0","1","1","0","0","1","1","0","1","1","0","1","0","1","4","3","3","2","3","3","4","4","5","2","768419588089319425","林","401","","","","","","","","","","","","","","","","","","","","","","","","","","","","","","","","","","","","","","","",""
"579","<p style=""color:white; font-size: 35px;"">全能</p>","e","categorize-html","55","125823","0.0-6.0-0.0-4.0-1.10","3","4","3","3","3","3","3","3","3","4","4","3","2","4","3","4","3","3","4","4","2","2","2","2","2","2","2","1","2","1","0","1","1","0","0","1","1","0","1","1","0","1","0","1","4","3","3","2","3","3","4","4","5","2","768419588089319425","林","401","","","","","","","","","","","","","","","","","","","true","2","2","ability","579","positive","全能","","","","","","","","","","","","","","",""
"null","","null","html-keyboard-response","56","126080","0.0-6.0-0.0-4.0-0.11","3","4","3","3","3","3","3","3","3","4","4","3","2","4","3","4","3","3","4","4","2","2","2","2","2","2","2","1","2","1","0","1","1","0","0","1","1","0","1","1","0","1","0","1","4","3","3","2","3","3","4","4","5","2","768419588089319425","林","401","","","","","","","","","","","","","","","","","","","","","","","","","","","","","","","","","","","","","","","",""
"643","<p style=""color:white; font-size: 35px;"">蠢笨</p>","i","categorize-html","57","126727","0.0-6.0-0.0-4.0-1.11","3","4","3","3","3","3","3","3","3","4","4","3","2","4","3","4","3","3","4","4","2","2","2","2","2","2","2","1","2","1","0","1","1","0","0","1","1","0","1","1","0","1","0","1","4","3","3","2","3","3","4","4","5","2","768419588089319425","林","401","","","","","","","","","","","","","","","","","","","true","2","2","ability","643","negative","蠢笨","","","","","","","","","","","","","","",""
"826","
    <div class=""tag-bottom""><p>
    —— 任务3：对“他人/积极”词和“自我/消极”词分类 ——<p/>
    <span style=""color:#78DCE8""><b>注意上方，之前的四类词语将混合在一起交替呈现</b></span><p/>
    <span style=""color:#FFD866""><b>请根据上方标签的提示，尽可能正确并且快速地做出按键反应</b></span><p/>
    当按键错误时屏幕中会出现<span style=""color:red""> X </span>，需要按另一个键纠正才能继续<br/><p/>
    请把双手食指分别放在键盘的“E”键和“I”键上<p/>
    按<空格键>开始
    </p></div>"," ","html-keyboard-response","58","127556","0.0-6.0-0.0-5.0","3","4","3","3","3","3","3","3","3","4","4","3","2","4","3","4","3","3","4","4","2","2","2","2","2","2","2","1","2","1","0","1","1","0","0","1","1","0","1","1","0","1","0","1","4","3","3","2","3","3","4","4","5","2","768419588089319425","林","401","","","","","","","","","","","","","","","","","","","","","","","","","","","","","","","","","","","","","","","",""
"null","","null","html-keyboard-response","59","127815","0.0-6.0-0.0-6.0-0.0","3","4","3","3","3","3","3","3","3","4","4","3","2","4","3","4","3","3","4","4","2","2","2","2","2","2","2","1","2","1","0","1","1","0","0","1","1","0","1","1","0","1","0","1","4","3","3","2","3","3","4","4","5","2","768419588089319425","林","401","","","","","","","","","","","","","","","","","","","","","","","","","","","","","","","","","","","","","","","",""
"906","<p style=""color:rgb(150, 250, 100); font-size: 35px;"">他</p>","e","categorize-html","60","128727","0.0-6.0-0.0-6.0-1.0","3","4","3","3","3","3","3","3","3","4","4","3","2","4","3","4","3","3","4","4","2","2","2","2","2","2","2","1","2","1","0","1","1","0","0","1","1","0","1","1","0","1","0","1","4","3","3","2","3","3","4","4","5","2","768419588089319425","林","401","","","","","","","","","","","","","","","","","","","true","3","3","ability","906","other","他","","","","","","","","","","","","","","",""
"null","","null","html-keyboard-response","61","128983","0.0-6.0-0.0-6.0-0.1","3","4","3","3","3","3","3","3","3","4","4","3","2","4","3","4","3","3","4","4","2","2","2","2","2","2","2","1","2","1","0","1","1","0","0","1","1","0","1","1","0","1","0","1","4","3","3","2","3","3","4","4","5","2","768419588089319425","林","401","","","","","","","","","","","","","","","","","","","","","","","","","","","","","","","","","","","","","","","",""
"995","<p style=""color:white; font-size: 35px;"">天才</p>","e","categorize-html","62","129983","0.0-6.0-0.0-6.0-1.1","3","4","3","3","3","3","3","3","3","4","4","3","2","4","3","4","3","3","4","4","2","2","2","2","2","2","2","1","2","1","0","1","1","0","0","1","1","0","1","1","0","1","0","1","4","3","3","2","3","3","4","4","5","2","768419588089319425","林","401","","","","","","","","","","","","","","","","","","","true","3","3","ability","995","positive","天才","","","","","","","","","","","","","","",""
"null","","null","html-keyboard-response","63","130239","0.0-6.0-0.0-6.0-0.2","3","4","3","3","3","3","3","3","3","4","4","3","2","4","3","4","3","3","4","4","2","2","2","2","2","2","2","1","2","1","0","1","1","0","0","1","1","0","1","1","0","1","0","1","4","3","3","2","3","3","4","4","5","2","768419588089319425","林","401","","","","","","","","","","","","","","","","","","","","","","","","","","","","","","","","","","","","","","","",""
"683","<p style=""color:rgb(150, 250, 100); font-size: 35px;"">自己</p>","i","categorize-html","64","130927","0.0-6.0-0.0-6.0-1.2","3","4","3","3","3","3","3","3","3","4","4","3","2","4","3","4","3","3","4","4","2","2","2","2","2","2","2","1","2","1","0","1","1","0","0","1","1","0","1","1","0","1","0","1","4","3","3","2","3","3","4","4","5","2","768419588089319425","林","401","","","","","","","","","","","","","","","","","","","true","3","3","ability","683","self","自己","","","","","","","","","","","","","","",""
"null","","null","html-keyboard-response","65","131183","0.0-6.0-0.0-6.0-0.3","3","4","3","3","3","3","3","3","3","4","4","3","2","4","3","4","3","3","4","4","2","2","2","2","2","2","2","1","2","1","0","1","1","0","0","1","1","0","1","1","0","1","0","1","4","3","3","2","3","3","4","4","5","2","768419588089319425","林","401","","","","","","","","","","","","","","","","","","","","","","","","","","","","","","","","","","","","","","","",""
"611","<p style=""color:white; font-size: 35px;"">废物</p>","i","categorize-html","66","131799","0.0-6.0-0.0-6.0-1.3","3","4","3","3","3","3","3","3","3","4","4","3","2","4","3","4","3","3","4","4","2","2","2","2","2","2","2","1","2","1","0","1","1","0","0","1","1","0","1","1","0","1","0","1","4","3","3","2","3","3","4","4","5","2","768419588089319425","林","401","","","","","","","","","","","","","","","","","","","true","3","3","ability","611","negative","废物","","","","","","","","","","","","","","",""
"null","","null","html-keyboard-response","67","132055","0.0-6.0-0.0-6.0-0.4","3","4","3","3","3","3","3","3","3","4","4","3","2","4","3","4","3","3","4","4","2","2","2","2","2","2","2","1","2","1","0","1","1","0","0","1","1","0","1","1","0","1","0","1","4","3","3","2","3","3","4","4","5","2","768419588089319425","林","401","","","","","","","","","","","","","","","","","","","","","","","","","","","","","","","","","","","","","","","",""
"587","<p style=""color:rgb(150, 250, 100); font-size: 35px;"">自己的</p>","i","categorize-html","68","132650","0.0-6.0-0.0-6.0-1.4","3","4","3","3","3","3","3","3","3","4","4","3","2","4","3","4","3","3","4","4","2","2","2","2","2","2","2","1","2","1","0","1","1","0","0","1","1","0","1","1","0","1","0","1","4","3","3","2","3","3","4","4","5","2","768419588089319425","林","401","","","","","","","","","","","","","","","","","","","true","3","3","ability","587","self","自己的","","","","","","","","","","","","","","",""
"null","","null","html-keyboard-response","69","132903","0.0-6.0-0.0-6.0-0.5","3","4","3","3","3","3","3","3","3","4","4","3","2","4","3","4","3","3","4","4","2","2","2","2","2","2","2","1","2","1","0","1","1","0","0","1","1","0","1","1","0","1","0","1","4","3","3","2","3","3","4","4","5","2","768419588089319425","林","401","","","","","","","","","","","","","","","","","","","","","","","","","","","","","","","","","","","","","","","",""
"595","<p style=""color:white; font-size: 35px;"">无能</p>","i","categorize-html","70","133503","0.0-6.0-0.0-6.0-1.5","3","4","3","3","3","3","3","3","3","4","4","3","2","4","3","4","3","3","4","4","2","2","2","2","2","2","2","1","2","1","0","1","1","0","0","1","1","0","1","1","0","1","0","1","4","3","3","2","3","3","4","4","5","2","768419588089319425","林","401","","","","","","","","","","","","","","","","","","","true","3","3","ability","595","negative","无能","","","","","","","","","","","","","","",""
"null","","null","html-keyboard-response","71","133759","0.0-6.0-0.0-6.0-0.6","3","4","3","3","3","3","3","3","3","4","4","3","2","4","3","4","3","3","4","4","2","2","2","2","2","2","2","1","2","1","0","1","1","0","0","1","1","0","1","1","0","1","0","1","4","3","3","2","3","3","4","4","5","2","768419588089319425","林","401","","","","","","","","","","","","","","","","","","","","","","","","","","","","","","","","","","","","","","","",""
"555","<p style=""color:rgb(150, 250, 100); font-size: 35px;"">他人</p>","e","categorize-html","72","134319","0.0-6.0-0.0-6.0-1.6","3","4","3","3","3","3","3","3","3","4","4","3","2","4","3","4","3","3","4","4","2","2","2","2","2","2","2","1","2","1","0","1","1","0","0","1","1","0","1","1","0","1","0","1","4","3","3","2","3","3","4","4","5","2","768419588089319425","林","401","","","","","","","","","","","","","","","","","","","true","3","3","ability","555","other","他人","","","","","","","","","","","","","","",""
"null","","null","html-keyboard-response","73","134575","0.0-6.0-0.0-6.0-0.7","3","4","3","3","3","3","3","3","3","4","4","3","2","4","3","4","3","3","4","4","2","2","2","2","2","2","2","1","2","1","0","1","1","0","0","1","1","0","1","1","0","1","0","1","4","3","3","2","3","3","4","4","5","2","768419588089319425","林","401","","","","","","","","","","","","","","","","","","","","","","","","","","","","","","","","","","","","","","","",""
"619","<p style=""color:white; font-size: 35px;"">能干</p>","e","categorize-html","74","135199","0.0-6.0-0.0-6.0-1.7","3","4","3","3","3","3","3","3","3","4","4","3","2","4","3","4","3","3","4","4","2","2","2","2","2","2","2","1","2","1","0","1","1","0","0","1","1","0","1","1","0","1","0","1","4","3","3","2","3","3","4","4","5","2","768419588089319425","林","401","","","","","","","","","","","","","","","","","","","true","3","3","ability","619","positive","能干","","","","","","","","","","","","","","",""
"null","","null","html-keyboard-response","75","135455","0.0-6.0-0.0-6.0-0.8","3","4","3","3","3","3","3","3","3","4","4","3","2","4","3","4","3","3","4","4","2","2","2","2","2","2","2","1","2","1","0","1","1","0","0","1","1","0","1","1","0","1","0","1","4","3","3","2","3","3","4","4","5","2","768419588089319425","林","401","","","","","","","","","","","","","","","","","","","","","","","","","","","","","","","","","","","","","","","",""
"683","<p style=""color:rgb(150, 250, 100); font-size: 35px;"">我</p>","i","categorize-html","76","136143","0.0-6.0-0.0-6.0-1.8","3","4","3","3","3","3","3","3","3","4","4","3","2","4","3","4","3","3","4","4","2","2","2","2","2","2","2","1","2","1","0","1","1","0","0","1","1","0","1","1","0","1","0","1","4","3","3","2","3","3","4","4","5","2","768419588089319425","林","401","","","","","","","","","","","","","","","","","","","true","3","3","ability","683","self","我","","","","","","","","","","","","","","",""
"null","","null","html-keyboard-response","77","136400","0.0-6.0-0.0-6.0-0.9","3","4","3","3","3","3","3","3","3","4","4","3","2","4","3","4","3","3","4","4","2","2","2","2","2","2","2","1","2","1","0","1","1","0","0","1","1","0","1","1","0","1","0","1","4","3","3","2","3","3","4","4","5","2","768419588089319425","林","401","","","","","","","","","","","","","","","","","","","","","","","","","","","","","","","","","","","","","","","",""
"1099","<p style=""color:white; font-size: 35px;"">低能</p>","i","categorize-html","78","137503","0.0-6.0-0.0-6.0-1.9","3","4","3","3","3","3","3","3","3","4","4","3","2","4","3","4","3","3","4","4","2","2","2","2","2","2","2","1","2","1","0","1","1","0","0","1","1","0","1","1","0","1","0","1","4","3","3","2","3","3","4","4","5","2","768419588089319425","林","401","","","","","","","","","","","","","","","","","","","true","3","3","ability","1099","negative","低能","","","","","","","","","","","","","","",""
"null","","null","html-keyboard-response","79","137760","0.0-6.0-0.0-6.0-0.10","3","4","3","3","3","3","3","3","3","4","4","3","2","4","3","4","3","3","4","4","2","2","2","2","2","2","2","1","2","1","0","1","1","0","0","1","1","0","1","1","0","1","0","1","4","3","3","2","3","3","4","4","5","2","768419588089319425","林","401","","","","","","","","","","","","","","","","","","","","","","","","","","","","","","","","","","","","","","","",""
"723","<p style=""color:rgb(150, 250, 100); font-size: 35px;"">他人的</p>","e","categorize-html","80","138487","0.0-6.0-0.0-6.0-1.10","3","4","3","3","3","3","3","3","3","4","4","3","2","4","3","4","3","3","4","4","2","2","2","2","2","2","2","1","2","1","0","1","1","0","0","1","1","0","1","1","0","1","0","1","4","3","3","2","3","3","4","4","5","2","768419588089319425","林","401","","","","","","","","","","","","","","","","","","","true","3","3","ability","723","other","他人的","","","","","","","","","","","","","","",""
"null","","null","html-keyboard-response","81","138744","0.0-6.0-0.0-6.0-0.11","3","4","3","3","3","3","3","3","3","4","4","3","2","4","3","4","3","3","4","4","2","2","2","2","2","2","2","1","2","1","0","1","1","0","0","1","1","0","1","1","0","1","0","1","4","3","3","2","3","3","4","4","5","2","768419588089319425","林","401","","","","","","","","","","","","","","","","","","","","","","","","","","","","","","","","","","","","","","","",""
"1611","<p style=""color:white; font-size: 35px;"">高效</p>","e","categorize-html","82","140359","0.0-6.0-0.0-6.0-1.11","3","4","3","3","3","3","3","3","3","4","4","3","2","4","3","4","3","3","4","4","2","2","2","2","2","2","2","1","2","1","0","1","1","0","0","1","1","0","1","1","0","1","0","1","4","3","3","2","3","3","4","4","5","2","768419588089319425","林","401","","","","","","","","","","","","","","","","","","","true","3","3","ability","1611","positive","高效","","","","","","","","","","","","","","",""
"null","","null","html-keyboard-response","83","140616","0.0-6.0-0.0-6.0-0.12","3","4","3","3","3","3","3","3","3","4","4","3","2","4","3","4","3","3","4","4","2","2","2","2","2","2","2","1","2","1","0","1","1","0","0","1","1","0","1","1","0","1","0","1","4","3","3","2","3","3","4","4","5","2","768419588089319425","林","401","","","","","","","","","","","","","","","","","","","","","","","","","","","","","","","","","","","","","","","",""
"722","<p style=""color:rgb(150, 250, 100); font-size: 35px;"">本人</p>","i","categorize-html","84","141343","0.0-6.0-0.0-6.0-1.12","3","4","3","3","3","3","3","3","3","4","4","3","2","4","3","4","3","3","4","4","2","2","2","2","2","2","2","1","2","1","0","1","1","0","0","1","1","0","1","1","0","1","0","1","4","3","3","2","3","3","4","4","5","2","768419588089319425","林","401","","","","","","","","","","","","","","","","","","","true","3","3","ability","722","self","本人","","","","","","","","","","","","","","",""
"null","","null","html-keyboard-response","85","141600","0.0-6.0-0.0-6.0-0.13","3","4","3","3","3","3","3","3","3","4","4","3","2","4","3","4","3","3","4","4","2","2","2","2","2","2","2","1","2","1","0","1","1","0","0","1","1","0","1","1","0","1","0","1","4","3","3","2","3","3","4","4","5","2","768419588089319425","林","401","","","","","","","","","","","","","","","","","","","","","","","","","","","","","","","","","","","","","","","",""
"1147","<p style=""color:white; font-size: 35px;"">愚钝</p>","e","categorize-html","86","143540","0.0-6.0-0.0-6.0-1.13","3","4","3","3","3","3","3","3","3","4","4","3","2","4","3","4","3","3","4","4","2","2","2","2","2","2","2","1","2","1","0","1","1","0","0","1","1","0","1","1","0","1","0","1","4","3","3","2","3","3","4","4","5","2","768419588089319425","林","401","","","","","","","","","","","","","","","","","","","false","3","3","ability","1454.8260869565217","negative","愚钝","","","","","","","","","","","","","","",""
"null","","null","html-keyboard-response","87","143800","0.0-6.0-0.0-6.0-0.14","3","4","3","3","3","3","3","3","3","4","4","3","2","4","3","4","3","3","4","4","2","2","2","2","2","2","2","1","2","1","0","1","1","0","0","1","1","0","1","1","0","1","0","1","4","3","3","2","3","3","4","4","5","2","768419588089319425","林","401","","","","","","","","","","","","","","","","","","","","","","","","","","","","","","","","","","","","","","","",""
"1002","<p style=""color:rgb(150, 250, 100); font-size: 35px;"">别人的</p>","e","categorize-html","88","144809","0.0-6.0-0.0-6.0-1.14","3","4","3","3","3","3","3","3","3","4","4","3","2","4","3","4","3","3","4","4","2","2","2","2","2","2","2","1","2","1","0","1","1","0","0","1","1","0","1","1","0","1","0","1","4","3","3","2","3","3","4","4","5","2","768419588089319425","林","401","","","","","","","","","","","","","","","","","","","true","3","3","ability","1002","other","别人的","","","","","","","","","","","","","","",""
"null","","null","html-keyboard-response","89","145064","0.0-6.0-0.0-6.0-0.15","3","4","3","3","3","3","3","3","3","4","4","3","2","4","3","4","3","3","4","4","2","2","2","2","2","2","2","1","2","1","0","1","1","0","0","1","1","0","1","1","0","1","0","1","4","3","3","2","3","3","4","4","5","2","768419588089319425","林","401","","","","","","","","","","","","","","","","","","","","","","","","","","","","","","","","","","","","","","","",""
"714","<p style=""color:white; font-size: 35px;"">全才</p>","e","categorize-html","90","145783","0.0-6.0-0.0-6.0-1.15","3","4","3","3","3","3","3","3","3","4","4","3","2","4","3","4","3","3","4","4","2","2","2","2","2","2","2","1","2","1","0","1","1","0","0","1","1","0","1","1","0","1","0","1","4","3","3","2","3","3","4","4","5","2","768419588089319425","林","401","","","","","","","","","","","","","","","","","","","true","3","3","ability","714","positive","全才","","","","","","","","","","","","","","",""
"null","","null","html-keyboard-response","91","146040","0.0-6.0-0.0-6.0-0.16","3","4","3","3","3","3","3","3","3","4","4","3","2","4","3","4","3","3","4","4","2","2","2","2","2","2","2","1","2","1","0","1","1","0","0","1","1","0","1","1","0","1","0","1","4","3","3","2","3","3","4","4","5","2","768419588089319425","林","401","","","","","","","","","","","","","","","","","","","","","","","","","","","","","","","","","","","","","","","",""
"818","<p style=""color:rgb(150, 250, 100); font-size: 35px;"">别人</p>","e","categorize-html","92","146863","0.0-6.0-0.0-6.0-1.16","3","4","3","3","3","3","3","3","3","4","4","3","2","4","3","4","3","3","4","4","2","2","2","2","2","2","2","1","2","1","0","1","1","0","0","1","1","0","1","1","0","1","0","1","4","3","3","2","3","3","4","4","5","2","768419588089319425","林","401","","","","","","","","","","","","","","","","","","","true","3","3","ability","818","other","别人","","","","","","","","","","","","","","",""
"null","","null","html-keyboard-response","93","147120","0.0-6.0-0.0-6.0-0.17","3","4","3","3","3","3","3","3","3","4","4","3","2","4","3","4","3","3","4","4","2","2","2","2","2","2","2","1","2","1","0","1","1","0","0","1","1","0","1","1","0","1","0","1","4","3","3","2","3","3","4","4","5","2","768419588089319425","林","401","","","","","","","","","","","","","","","","","","","","","","","","","","","","","","","","","","","","","","","",""
"666","<p style=""color:white; font-size: 35px;"">全能</p>","e","categorize-html","94","147792","0.0-6.0-0.0-6.0-1.17","3","4","3","3","3","3","3","3","3","4","4","3","2","4","3","4","3","3","4","4","2","2","2","2","2","2","2","1","2","1","0","1","1","0","0","1","1","0","1","1","0","1","0","1","4","3","3","2","3","3","4","4","5","2","768419588089319425","林","401","","","","","","","","","","","","","","","","","","","true","3","3","ability","666","positive","全能","","","","","","","","","","","","","","",""
"null","","null","html-keyboard-response","95","148049","0.0-6.0-0.0-6.0-0.18","3","4","3","3","3","3","3","3","3","4","4","3","2","4","3","4","3","3","4","4","2","2","2","2","2","2","2","1","2","1","0","1","1","0","0","1","1","0","1","1","0","1","0","1","4","3","3","2","3","3","4","4","5","2","768419588089319425","林","401","","","","","","","","","","","","","","","","","","","","","","","","","","","","","","","","","","","","","","","",""
"762","<p style=""color:rgb(150, 250, 100); font-size: 35px;"">本人的</p>","i","categorize-html","96","148816","0.0-6.0-0.0-6.0-1.18","3","4","3","3","3","3","3","3","3","4","4","3","2","4","3","4","3","3","4","4","2","2","2","2","2","2","2","1","2","1","0","1","1","0","0","1","1","0","1","1","0","1","0","1","4","3","3","2","3","3","4","4","5","2","768419588089319425","林","401","","","","","","","","","","","","","","","","","","","true","3","3","ability","762","self","本人的","","","","","","","","","","","","","","",""
"null","","null","html-keyboard-response","97","149073","0.0-6.0-0.0-6.0-0.19","3","4","3","3","3","3","3","3","3","4","4","3","2","4","3","4","3","3","4","4","2","2","2","2","2","2","2","1","2","1","0","1","1","0","0","1","1","0","1","1","0","1","0","1","4","3","3","2","3","3","4","4","5","2","768419588089319425","林","401","","","","","","","","","","","","","","","","","","","","","","","","","","","","","","","","","","","","","","","",""
"970","<p style=""color:white; font-size: 35px;"">拙笨</p>","i","categorize-html","98","150048","0.0-6.0-0.0-6.0-1.19","3","4","3","3","3","3","3","3","3","4","4","3","2","4","3","4","3","3","4","4","2","2","2","2","2","2","2","1","2","1","0","1","1","0","0","1","1","0","1","1","0","1","0","1","4","3","3","2","3","3","4","4","5","2","768419588089319425","林","401","","","","","","","","","","","","","","","","","","","true","3","3","ability","970","negative","拙笨","","","","","","","","","","","","","","",""
"null","","null","html-keyboard-response","99","150304","0.0-6.0-0.0-6.0-0.20","3","4","3","3","3","3","3","3","3","4","4","3","2","4","3","4","3","3","4","4","2","2","2","2","2","2","2","1","2","1","0","1","1","0","0","1","1","0","1","1","0","1","0","1","4","3","3","2","3","3","4","4","5","2","768419588089319425","林","401","","","","","","","","","","","","","","","","","","","","","","","","","","","","","","","","","","","","","","","",""
"787","<p style=""color:rgb(150, 250, 100); font-size: 35px;"">我的</p>","i","categorize-html","100","151096","0.0-6.0-0.0-6.0-1.20","3","4","3","3","3","3","3","3","3","4","4","3","2","4","3","4","3","3","4","4","2","2","2","2","2","2","2","1","2","1","0","1","1","0","0","1","1","0","1","1","0","1","0","1","4","3","3","2","3","3","4","4","5","2","768419588089319425","林","401","","","","","","","","","","","","","","","","","","","true","3","3","ability","787","self","我的","","","","","","","","","","","","","","",""
"null","","null","html-keyboard-response","101","151352","0.0-6.0-0.0-6.0-0.21","3","4","3","3","3","3","3","3","3","4","4","3","2","4","3","4","3","3","4","4","2","2","2","2","2","2","2","1","2","1","0","1","1","0","0","1","1","0","1","1","0","1","0","1","4","3","3","2","3","3","4","4","5","2","768419588089319425","林","401","","","","","","","","","","","","","","","","","","","","","","","","","","","","","","","","","","","","","","","",""
"979","<p style=""color:white; font-size: 35px;"">精干</p>","e","categorize-html","102","152336","0.0-6.0-0.0-6.0-1.21","3","4","3","3","3","3","3","3","3","4","4","3","2","4","3","4","3","3","4","4","2","2","2","2","2","2","2","1","2","1","0","1","1","0","0","1","1","0","1","1","0","1","0","1","4","3","3","2","3","3","4","4","5","2","768419588089319425","林","401","","","","","","","","","","","","","","","","","","","true","3","3","ability","979","positive","精干","","","","","","","","","","","","","","",""
"null","","null","html-keyboard-response","103","152592","0.0-6.0-0.0-6.0-0.22","3","4","3","3","3","3","3","3","3","4","4","3","2","4","3","4","3","3","4","4","2","2","2","2","2","2","2","1","2","1","0","1","1","0","0","1","1","0","1","1","0","1","0","1","4","3","3","2","3","3","4","4","5","2","768419588089319425","林","401","","","","","","","","","","","","","","","","","","","","","","","","","","","","","","","","","","","","","","","",""
"1155","<p style=""color:rgb(150, 250, 100); font-size: 35px;"">他的</p>","e","categorize-html","104","153752","0.0-6.0-0.0-6.0-1.22","3","4","3","3","3","3","3","3","3","4","4","3","2","4","3","4","3","3","4","4","2","2","2","2","2","2","2","1","2","1","0","1","1","0","0","1","1","0","1","1","0","1","0","1","4","3","3","2","3","3","4","4","5","2","768419588089319425","林","401","","","","","","","","","","","","","","","","","","","true","3","3","ability","1155","other","他的","","","","","","","","","","","","","","",""
"null","","null","html-keyboard-response","105","154008","0.0-6.0-0.0-6.0-0.23","3","4","3","3","3","3","3","3","3","4","4","3","2","4","3","4","3","3","4","4","2","2","2","2","2","2","2","1","2","1","0","1","1","0","0","1","1","0","1","1","0","1","0","1","4","3","3","2","3","3","4","4","5","2","768419588089319425","林","401","","","","","","","","","","","","","","","","","","","","","","","","","","","","","","","","","","","","","","","",""
"1419","<p style=""color:white; font-size: 35px;"">蠢笨</p>","i","categorize-html","106","155432","0.0-6.0-0.0-6.0-1.23","3","4","3","3","3","3","3","3","3","4","4","3","2","4","3","4","3","3","4","4","2","2","2","2","2","2","2","1","2","1","0","1","1","0","0","1","1","0","1","1","0","1","0","1","4","3","3","2","3","3","4","4","5","2","768419588089319425","林","401","","","","","","","","","","","","","","","","","","","true","3","3","ability","1419","negative","蠢笨","","","","","","","","","","","","","","",""
"907","
    <div class=""tag-bottom""><p>
    —— 任务4：对“他人/积极”词和“自我/消极”词分类 ——<p/>
    <span style=""color:#78DCE8""><b>与刚才的任务完全相同，请再次对这四类词语分类</b></span><p/>
    <span style=""color:#FFD866""><b>请根据上方标签的提示，尽可能正确并且快速地做出按键反应</b></span><p/>
    当按键错误时屏幕中会出现<span style=""color:red""> X </span>，需要按另一个键纠正才能继续<br/><p/>
    请把双手食指分别放在键盘的“E”键和“I”键上<p/>
    按<空格键>开始
    </p></div>"," ","html-keyboard-response","107","156340","0.0-6.0-0.0-7.0","3","4","3","3","3","3","3","3","3","4","4","3","2","4","3","4","3","3","4","4","2","2","2","2","2","2","2","1","2","1","0","1","1","0","0","1","1","0","1","1","0","1","0","1","4","3","3","2","3","3","4","4","5","2","768419588089319425","林","401","","","","","","","","","","","","","","","","","","","","","","","","","","","","","","","","","","","","","","","",""
"null","","null","html-keyboard-response","108","156592","0.0-6.0-0.0-8.0-0.0","3","4","3","3","3","3","3","3","3","4","4","3","2","4","3","4","3","3","4","4","2","2","2","2","2","2","2","1","2","1","0","1","1","0","0","1","1","0","1","1","0","1","0","1","4","3","3","2","3","3","4","4","5","2","768419588089319425","林","401","","","","","","","","","","","","","","","","","","","","","","","","","","","","","","","","","","","","","","","",""
"770","<p style=""color:rgb(150, 250, 100); font-size: 35px;"">自己的</p>","i","categorize-html","109","157367","0.0-6.0-0.0-8.0-1.0","3","4","3","3","3","3","3","3","3","4","4","3","2","4","3","4","3","3","4","4","2","2","2","2","2","2","2","1","2","1","0","1","1","0","0","1","1","0","1","1","0","1","0","1","4","3","3","2","3","3","4","4","5","2","768419588089319425","林","401","","","","","","","","","","","","","","","","","","","true","4","4","ability","770","self","自己的","","","","","","","","","","","","","","",""
"null","","null","html-keyboard-response","110","157624","0.0-6.0-0.0-8.0-0.1","3","4","3","3","3","3","3","3","3","4","4","3","2","4","3","4","3","3","4","4","2","2","2","2","2","2","2","1","2","1","0","1","1","0","0","1","1","0","1","1","0","1","0","1","4","3","3","2","3","3","4","4","5","2","768419588089319425","林","401","","","","","","","","","","","","","","","","","","","","","","","","","","","","","","","","","","","","","","","",""
"1210","<p style=""color:white; font-size: 35px;"">精干</p>","e","categorize-html","111","158839","0.0-6.0-0.0-8.0-1.1","3","4","3","3","3","3","3","3","3","4","4","3","2","4","3","4","3","3","4","4","2","2","2","2","2","2","2","1","2","1","0","1","1","0","0","1","1","0","1","1","0","1","0","1","4","3","3","2","3","3","4","4","5","2","768419588089319425","林","401","","","","","","","","","","","","","","","","","","","true","4","4","ability","1210","positive","精干","","","","","","","","","","","","","","",""
"null","","null","html-keyboard-response","112","159096","0.0-6.0-0.0-8.0-0.2","3","4","3","3","3","3","3","3","3","4","4","3","2","4","3","4","3","3","4","4","2","2","2","2","2","2","2","1","2","1","0","1","1","0","0","1","1","0","1","1","0","1","0","1","4","3","3","2","3","3","4","4","5","2","768419588089319425","林","401","","","","","","","","","","","","","","","","","","","","","","","","","","","","","","","","","","","","","","","",""
"971","<p style=""color:rgb(150, 250, 100); font-size: 35px;"">他人</p>","e","categorize-html","113","160072","0.0-6.0-0.0-8.0-1.2","3","4","3","3","3","3","3","3","3","4","4","3","2","4","3","4","3","3","4","4","2","2","2","2","2","2","2","1","2","1","0","1","1","0","0","1","1","0","1","1","0","1","0","1","4","3","3","2","3","3","4","4","5","2","768419588089319425","林","401","","","","","","","","","","","","","","","","","","","true","4","4","ability","971","other","他人","","","","","","","","","","","","","","",""
"null","","null","html-keyboard-response","114","160324","0.0-6.0-0.0-8.0-0.3","3","4","3","3","3","3","3","3","3","4","4","3","2","4","3","4","3","3","4","4","2","2","2","2","2","2","2","1","2","1","0","1","1","0","0","1","1","0","1","1","0","1","0","1","4","3","3","2","3","3","4","4","5","2","768419588089319425","林","401","","","","","","","","","","","","","","","","","","","","","","","","","","","","","","","","","","","","","","","",""
"1351","<p style=""color:white; font-size: 35px;"">拙笨</p>","i","categorize-html","115","161679","0.0-6.0-0.0-8.0-1.3","3","4","3","3","3","3","3","3","3","4","4","3","2","4","3","4","3","3","4","4","2","2","2","2","2","2","2","1","2","1","0","1","1","0","0","1","1","0","1","1","0","1","0","1","4","3","3","2","3","3","4","4","5","2","768419588089319425","林","401","","","","","","","","","","","","","","","","","","","true","4","4","ability","1351","negative","拙笨","","","","","","","","","","","","","","",""
"null","","null","html-keyboard-response","116","161932","0.0-6.0-0.0-8.0-0.4","3","4","3","3","3","3","3","3","3","4","4","3","2","4","3","4","3","3","4","4","2","2","2","2","2","2","2","1","2","1","0","1","1","0","0","1","1","0","1","1","0","1","0","1","4","3","3","2","3","3","4","4","5","2","768419588089319425","林","401","","","","","","","","","","","","","","","","","","","","","","","","","","","","","","","","","","","","","","","",""
"775","<p style=""color:rgb(150, 250, 100); font-size: 35px;"">本人</p>","i","categorize-html","117","162711","0.0-6.0-0.0-8.0-1.4","3","4","3","3","3","3","3","3","3","4","4","3","2","4","3","4","3","3","4","4","2","2","2","2","2","2","2","1","2","1","0","1","1","0","0","1","1","0","1","1","0","1","0","1","4","3","3","2","3","3","4","4","5","2","768419588089319425","林","401","","","","","","","","","","","","","","","","","","","true","4","4","ability","775","self","本人","","","","","","","","","","","","","","",""
"null","","null","html-keyboard-response","118","162968","0.0-6.0-0.0-8.0-0.5","3","4","3","3","3","3","3","3","3","4","4","3","2","4","3","4","3","3","4","4","2","2","2","2","2","2","2","1","2","1","0","1","1","0","0","1","1","0","1","1","0","1","0","1","4","3","3","2","3","3","4","4","5","2","768419588089319425","林","401","","","","","","","","","","","","","","","","","","","","","","","","","","","","","","","","","","","","","","","",""
"1058","<p style=""color:white; font-size: 35px;"">愚钝</p>","i","categorize-html","119","164029","0.0-6.0-0.0-8.0-1.5","3","4","3","3","3","3","3","3","3","4","4","3","2","4","3","4","3","3","4","4","2","2","2","2","2","2","2","1","2","1","0","1","1","0","0","1","1","0","1","1","0","1","0","1","4","3","3","2","3","3","4","4","5","2","768419588089319425","林","401","","","","","","","","","","","","","","","","","","","true","4","4","ability","1058","negative","愚钝","","","","","","","","","","","","","","",""
"null","","null","html-keyboard-response","120","164288","0.0-6.0-0.0-8.0-0.6","3","4","3","3","3","3","3","3","3","4","4","3","2","4","3","4","3","3","4","4","2","2","2","2","2","2","2","1","2","1","0","1","1","0","0","1","1","0","1","1","0","1","0","1","4","3","3","2","3","3","4","4","5","2","768419588089319425","林","401","","","","","","","","","","","","","","","","","","","","","","","","","","","","","","","","","","","","","","","",""
"730","<p style=""color:rgb(150, 250, 100); font-size: 35px;"">他人</p>","e","categorize-html","121","165023","0.0-6.0-0.0-8.0-1.6","3","4","3","3","3","3","3","3","3","4","4","3","2","4","3","4","3","3","4","4","2","2","2","2","2","2","2","1","2","1","0","1","1","0","0","1","1","0","1","1","0","1","0","1","4","3","3","2","3","3","4","4","5","2","768419588089319425","林","401","","","","","","","","","","","","","","","","","","","true","4","4","ability","730","other","他人","","","","","","","","","","","","","","",""
"null","","null","html-keyboard-response","122","165280","0.0-6.0-0.0-8.0-0.7","3","4","3","3","3","3","3","3","3","4","4","3","2","4","3","4","3","3","4","4","2","2","2","2","2","2","2","1","2","1","0","1","1","0","0","1","1","0","1","1","0","1","0","1","4","3","3","2","3","3","4","4","5","2","768419588089319425","林","401","","","","","","","","","","","","","","","","","","","","","","","","","","","","","","","","","","","","","","","",""
"778","<p style=""color:white; font-size: 35px;"">能干</p>","e","categorize-html","123","166063","0.0-6.0-0.0-8.0-1.7","3","4","3","3","3","3","3","3","3","4","4","3","2","4","3","4","3","3","4","4","2","2","2","2","2","2","2","1","2","1","0","1","1","0","0","1","1","0","1","1","0","1","0","1","4","3","3","2","3","3","4","4","5","2","768419588089319425","林","401","","","","","","","","","","","","","","","","","","","true","4","4","ability","778","positive","能干","","","","","","","","","","","","","","",""
"null","","null","html-keyboard-response","124","166320","0.0-6.0-0.0-8.0-0.8","3","4","3","3","3","3","3","3","3","4","4","3","2","4","3","4","3","3","4","4","2","2","2","2","2","2","2","1","2","1","0","1","1","0","0","1","1","0","1","1","0","1","0","1","4","3","3","2","3","3","4","4","5","2","768419588089319425","林","401","","","","","","","","","","","","","","","","","","","","","","","","","","","","","","","","","","","","","","","",""
"642","<p style=""color:rgb(150, 250, 100); font-size: 35px;"">自己的</p>","i","categorize-html","125","166967","0.0-6.0-0.0-8.0-1.8","3","4","3","3","3","3","3","3","3","4","4","3","2","4","3","4","3","3","4","4","2","2","2","2","2","2","2","1","2","1","0","1","1","0","0","1","1","0","1","1","0","1","0","1","4","3","3","2","3","3","4","4","5","2","768419588089319425","林","401","","","","","","","","","","","","","","","","","","","true","4","4","ability","642","self","自己的","","","","","","","","","","","","","","",""
"null","","null","html-keyboard-response","126","167224","0.0-6.0-0.0-8.0-0.9","3","4","3","3","3","3","3","3","3","4","4","3","2","4","3","4","3","3","4","4","2","2","2","2","2","2","2","1","2","1","0","1","1","0","0","1","1","0","1","1","0","1","0","1","4","3","3","2","3","3","4","4","5","2","768419588089319425","林","401","","","","","","","","","","","","","","","","","","","","","","","","","","","","","","","","","","","","","","","",""
"1578","<p style=""color:white; font-size: 35px;"">天才</p>","e","categorize-html","127","168808","0.0-6.0-0.0-8.0-1.9","3","4","3","3","3","3","3","3","3","4","4","3","2","4","3","4","3","3","4","4","2","2","2","2","2","2","2","1","2","1","0","1","1","0","0","1","1","0","1","1","0","1","0","1","4","3","3","2","3","3","4","4","5","2","768419588089319425","林","401","","","","","","","","","","","","","","","","","","","true","4","4","ability","1578","positive","天才","","","","","","","","","","","","","","",""
"null","","null","html-keyboard-response","128","169064","0.0-6.0-0.0-8.0-0.10","3","4","3","3","3","3","3","3","3","4","4","3","2","4","3","4","3","3","4","4","2","2","2","2","2","2","2","1","2","1","0","1","1","0","0","1","1","0","1","1","0","1","0","1","4","3","3","2","3","3","4","4","5","2","768419588089319425","林","401","","","","","","","","","","","","","","","","","","","","","","","","","","","","","","","","","","","","","","","",""
"738","<p style=""color:rgb(150, 250, 100); font-size: 35px;"">他的</p>","e","categorize-html","129","169807","0.0-6.0-0.0-8.0-1.10","3","4","3","3","3","3","3","3","3","4","4","3","2","4","3","4","3","3","4","4","2","2","2","2","2","2","2","1","2","1","0","1","1","0","0","1","1","0","1","1","0","1","0","1","4","3","3","2","3","3","4","4","5","2","768419588089319425","林","401","","","","","","","","","","","","","","","","","","","true","4","4","ability","738","other","他的","","","","","","","","","","","","","","",""
"null","","null","html-keyboard-response","130","170064","0.0-6.0-0.0-8.0-0.11","3","4","3","3","3","3","3","3","3","4","4","3","2","4","3","4","3","3","4","4","2","2","2","2","2","2","2","1","2","1","0","1","1","0","0","1","1","0","1","1","0","1","0","1","4","3","3","2","3","3","4","4","5","2","768419588089319425","林","401","","","","","","","","","","","","","","","","","","","","","","","","","","","","","","","","","","","","","","","",""
"1283","<p style=""color:white; font-size: 35px;"">无能</p>","e","categorize-html","131","172012","0.0-6.0-0.0-8.0-1.11","3","4","3","3","3","3","3","3","3","4","4","3","2","4","3","4","3","3","4","4","2","2","2","2","2","2","2","1","2","1","0","1","1","0","0","1","1","0","1","1","0","1","0","1","4","3","3","2","3","3","4","4","5","2","768419588089319425","林","401","","","","","","","","","","","","","","","","","","","false","4","4","ability","1591.8297872340427","negative","无能","","","","","","","","","","","","","","",""
"null","","null","html-keyboard-response","132","172264","0.0-6.0-0.0-8.0-0.12","3","4","3","3","3","3","3","3","3","4","4","3","2","4","3","4","3","3","4","4","2","2","2","2","2","2","2","1","2","1","0","1","1","0","0","1","1","0","1","1","0","1","0","1","4","3","3","2","3","3","4","4","5","2","768419588089319425","林","401","","","","","","","","","","","","","","","","","","","","","","","","","","","","","","","","","","","","","","","",""
"915","<p style=""color:rgb(150, 250, 100); font-size: 35px;"">我的</p>","i","categorize-html","133","173183","0.0-6.0-0.0-8.0-1.12","3","4","3","3","3","3","3","3","3","4","4","3","2","4","3","4","3","3","4","4","2","2","2","2","2","2","2","1","2","1","0","1","1","0","0","1","1","0","1","1","0","1","0","1","4","3","3","2","3","3","4","4","5","2","768419588089319425","林","401","","","","","","","","","","","","","","","","","","","true","4","4","ability","915","self","我的","","","","","","","","","","","","","","",""
"null","","null","html-keyboard-response","134","173440","0.0-6.0-0.0-8.0-0.13","3","4","3","3","3","3","3","3","3","4","4","3","2","4","3","4","3","3","4","4","2","2","2","2","2","2","2","1","2","1","0","1","1","0","0","1","1","0","1","1","0","1","0","1","4","3","3","2","3","3","4","4","5","2","768419588089319425","林","401","","","","","","","","","","","","","","","","","","","","","","","","","","","","","","","","","","","","","","","",""
"747","<p style=""color:white; font-size: 35px;"">低能</p>","i","categorize-html","135","174194","0.0-6.0-0.0-8.0-1.13","3","4","3","3","3","3","3","3","3","4","4","3","2","4","3","4","3","3","4","4","2","2","2","2","2","2","2","1","2","1","0","1","1","0","0","1","1","0","1","1","0","1","0","1","4","3","3","2","3","3","4","4","5","2","768419588089319425","林","401","","","","","","","","","","","","","","","","","","","true","4","4","ability","747","negative","低能","","","","","","","","","","","","","","",""
"null","","null","html-keyboard-response","136","174448","0.0-6.0-0.0-8.0-0.14","3","4","3","3","3","3","3","3","3","4","4","3","2","4","3","4","3","3","4","4","2","2","2","2","2","2","2","1","2","1","0","1","1","0","0","1","1","0","1","1","0","1","0","1","4","3","3","2","3","3","4","4","5","2","768419588089319425","林","401","","","","","","","","","","","","","","","","","","","","","","","","","","","","","","","","","","","","","","","",""
"1067","<p style=""color:rgb(150, 250, 100); font-size: 35px;"">别人</p>","e","categorize-html","137","175519","0.0-6.0-0.0-8.0-1.14","3","4","3","3","3","3","3","3","3","4","4","3","2","4","3","4","3","3","4","4","2","2","2","2","2","2","2","1","2","1","0","1","1","0","0","1","1","0","1","1","0","1","0","1","4","3","3","2","3","3","4","4","5","2","768419588089319425","林","401","","","","","","","","","","","","","","","","","","","true","4","4","ability","1067","other","别人","","","","","","","","","","","","","","",""
"null","","null","html-keyboard-response","138","175776","0.0-6.0-0.0-8.0-0.15","3","4","3","3","3","3","3","3","3","4","4","3","2","4","3","4","3","3","4","4","2","2","2","2","2","2","2","1","2","1","0","1","1","0","0","1","1","0","1","1","0","1","0","1","4","3","3","2","3","3","4","4","5","2","768419588089319425","林","401","","","","","","","","","","","","","","","","","","","","","","","","","","","","","","","","","","","","","","","",""
"1186","<p style=""color:white; font-size: 35px;"">精干</p>","e","categorize-html","139","176967","0.0-6.0-0.0-8.0-1.15","3","4","3","3","3","3","3","3","3","4","4","3","2","4","3","4","3","3","4","4","2","2","2","2","2","2","2","1","2","1","0","1","1","0","0","1","1","0","1","1","0","1","0","1","4","3","3","2","3","3","4","4","5","2","768419588089319425","林","401","","","","","","","","","","","","","","","","","","","true","4","4","ability","1186","positive","精干","","","","","","","","","","","","","","",""
"null","","null","html-keyboard-response","140","177224","0.0-6.0-0.0-8.0-0.16","3","4","3","3","3","3","3","3","3","4","4","3","2","4","3","4","3","3","4","4","2","2","2","2","2","2","2","1","2","1","0","1","1","0","0","1","1","0","1","1","0","1","0","1","4","3","3","2","3","3","4","4","5","2","768419588089319425","林","401","","","","","","","","","","","","","","","","","","","","","","","","","","","","","","","","","","","","","","","",""
"963","<p style=""color:rgb(150, 250, 100); font-size: 35px;"">别人</p>","e","categorize-html","141","178191","0.0-6.0-0.0-8.0-1.16","3","4","3","3","3","3","3","3","3","4","4","3","2","4","3","4","3","3","4","4","2","2","2","2","2","2","2","1","2","1","0","1","1","0","0","1","1","0","1","1","0","1","0","1","4","3","3","2","3","3","4","4","5","2","768419588089319425","林","401","","","","","","","","","","","","","","","","","","","true","4","4","ability","963","other","别人","","","","","","","","","","","","","","",""
"null","","null","html-keyboard-response","142","178448","0.0-6.0-0.0-8.0-0.17","3","4","3","3","3","3","3","3","3","4","4","3","2","4","3","4","3","3","4","4","2","2","2","2","2","2","2","1","2","1","0","1","1","0","0","1","1","0","1","1","0","1","0","1","4","3","3","2","3","3","4","4","5","2","768419588089319425","林","401","","","","","","","","","","","","","","","","","","","","","","","","","","","","","","","","","","","","","","","",""
"802","<p style=""color:white; font-size: 35px;"">废物</p>","i","categorize-html","143","179255","0.0-6.0-0.0-8.0-1.17","3","4","3","3","3","3","3","3","3","4","4","3","2","4","3","4","3","3","4","4","2","2","2","2","2","2","2","1","2","1","0","1","1","0","0","1","1","0","1","1","0","1","0","1","4","3","3","2","3","3","4","4","5","2","768419588089319425","林","401","","","","","","","","","","","","","","","","","","","true","4","4","ability","802","negative","废物","","","","","","","","","","","","","","",""
"null","","null","html-keyboard-response","144","179512","0.0-6.0-0.0-8.0-0.18","3","4","3","3","3","3","3","3","3","4","4","3","2","4","3","4","3","3","4","4","2","2","2","2","2","2","2","1","2","1","0","1","1","0","0","1","1","0","1","1","0","1","0","1","4","3","3","2","3","3","4","4","5","2","768419588089319425","林","401","","","","","","","","","","","","","","","","","","","","","","","","","","","","","","","","","","","","","","","",""
"707","<p style=""color:rgb(150, 250, 100); font-size: 35px;"">本人的</p>","i","categorize-html","145","180223","0.0-6.0-0.0-8.0-1.18","3","4","3","3","3","3","3","3","3","4","4","3","2","4","3","4","3","3","4","4","2","2","2","2","2","2","2","1","2","1","0","1","1","0","0","1","1","0","1","1","0","1","0","1","4","3","3","2","3","3","4","4","5","2","768419588089319425","林","401","","","","","","","","","","","","","","","","","","","true","4","4","ability","707","self","本人的","","","","","","","","","","","","","","",""
"null","","null","html-keyboard-response","146","180480","0.0-6.0-0.0-8.0-0.19","3","4","3","3","3","3","3","3","3","4","4","3","2","4","3","4","3","3","4","4","2","2","2","2","2","2","2","1","2","1","0","1","1","0","0","1","1","0","1","1","0","1","0","1","4","3","3","2","3","3","4","4","5","2","768419588089319425","林","401","","","","","","","","","","","","","","","","","","","","","","","","","","","","","","","","","","","","","","","",""
"1106","<p style=""color:white; font-size: 35px;"">全能</p>","e","categorize-html","147","181591","0.0-6.0-0.0-8.0-1.19","3","4","3","3","3","3","3","3","3","4","4","3","2","4","3","4","3","3","4","4","2","2","2","2","2","2","2","1","2","1","0","1","1","0","0","1","1","0","1","1","0","1","0","1","4","3","3","2","3","3","4","4","5","2","768419588089319425","林","401","","","","","","","","","","","","","","","","","","","true","4","4","ability","1106","positive","全能","","","","","","","","","","","","","","",""
"null","","null","html-keyboard-response","148","181848","0.0-6.0-0.0-8.0-0.20","3","4","3","3","3","3","3","3","3","4","4","3","2","4","3","4","3","3","4","4","2","2","2","2","2","2","2","1","2","1","0","1","1","0","0","1","1","0","1","1","0","1","0","1","4","3","3","2","3","3","4","4","5","2","768419588089319425","林","401","","","","","","","","","","","","","","","","","","","","","","","","","","","","","","","","","","","","","","","",""
"1042","<p style=""color:rgb(150, 250, 100); font-size: 35px;"">他</p>","e","categorize-html","149","182895","0.0-6.0-0.0-8.0-1.20","3","4","3","3","3","3","3","3","3","4","4","3","2","4","3","4","3","3","4","4","2","2","2","2","2","2","2","1","2","1","0","1","1","0","0","1","1","0","1","1","0","1","0","1","4","3","3","2","3","3","4","4","5","2","768419588089319425","林","401","","","","","","","","","","","","","","","","","","","true","4","4","ability","1042","other","他","","","","","","","","","","","","","","",""
"null","","null","html-keyboard-response","150","183152","0.0-6.0-0.0-8.0-0.21","3","4","3","3","3","3","3","3","3","4","4","3","2","4","3","4","3","3","4","4","2","2","2","2","2","2","2","1","2","1","0","1","1","0","0","1","1","0","1","1","0","1","0","1","4","3","3","2","3","3","4","4","5","2","768419588089319425","林","401","","","","","","","","","","","","","","","","","","","","","","","","","","","","","","","","","","","","","","","",""
"778","<p style=""color:white; font-size: 35px;"">天才</p>","e","categorize-html","151","183935","0.0-6.0-0.0-8.0-1.21","3","4","3","3","3","3","3","3","3","4","4","3","2","4","3","4","3","3","4","4","2","2","2","2","2","2","2","1","2","1","0","1","1","0","0","1","1","0","1","1","0","1","0","1","4","3","3","2","3","3","4","4","5","2","768419588089319425","林","401","","","","","","","","","","","","","","","","","","","true","4","4","ability","778","positive","天才","","","","","","","","","","","","","","",""
"null","","null","html-keyboard-response","152","184192","0.0-6.0-0.0-8.0-0.22","3","4","3","3","3","3","3","3","3","4","4","3","2","4","3","4","3","3","4","4","2","2","2","2","2","2","2","1","2","1","0","1","1","0","0","1","1","0","1","1","0","1","0","1","4","3","3","2","3","3","4","4","5","2","768419588089319425","林","401","","","","","","","","","","","","","","","","","","","","","","","","","","","","","","","","","","","","","","","",""
"794","<p style=""color:rgb(150, 250, 100); font-size: 35px;"">自己</p>","i","categorize-html","153","184994","0.0-6.0-0.0-8.0-1.22","3","4","3","3","3","3","3","3","3","4","4","3","2","4","3","4","3","3","4","4","2","2","2","2","2","2","2","1","2","1","0","1","1","0","0","1","1","0","1","1","0","1","0","1","4","3","3","2","3","3","4","4","5","2","768419588089319425","林","401","","","","","","","","","","","","","","","","","","","true","4","4","ability","794","self","自己","","","","","","","","","","","","","","",""
"null","","null","html-keyboard-response","154","185248","0.0-6.0-0.0-8.0-0.23","3","4","3","3","3","3","3","3","3","4","4","3","2","4","3","4","3","3","4","4","2","2","2","2","2","2","2","1","2","1","0","1","1","0","0","1","1","0","1","1","0","1","0","1","4","3","3","2","3","3","4","4","5","2","768419588089319425","林","401","","","","","","","","","","","","","","","","","","","","","","","","","","","","","","","","","","","","","","","",""
"714","<p style=""color:white; font-size: 35px;"">拙笨</p>","i","categorize-html","155","185967","0.0-6.0-0.0-8.0-1.23","3","4","3","3","3","3","3","3","3","4","4","3","2","4","3","4","3","3","4","4","2","2","2","2","2","2","2","1","2","1","0","1","1","0","0","1","1","0","1","1","0","1","0","1","4","3","3","2","3","3","4","4","5","2","768419588089319425","林","401","","","","","","","","","","","","","","","","","","","true","4","4","ability","714","negative","拙笨","","","","","","","","","","","","","","",""
"null","","null","html-keyboard-response","156","186224","0.0-6.0-0.0-8.0-0.24","3","4","3","3","3","3","3","3","3","4","4","3","2","4","3","4","3","3","4","4","2","2","2","2","2","2","2","1","2","1","0","1","1","0","0","1","1","0","1","1","0","1","0","1","4","3","3","2","3","3","4","4","5","2","768419588089319425","林","401","","","","","","","","","","","","","","","","","","","","","","","","","","","","","","","","","","","","","","","",""
"1082","<p style=""color:rgb(150, 250, 100); font-size: 35px;"">他的</p>","e","categorize-html","157","187311","0.0-6.0-0.0-8.0-1.24","3","4","3","3","3","3","3","3","3","4","4","3","2","4","3","4","3","3","4","4","2","2","2","2","2","2","2","1","2","1","0","1","1","0","0","1","1","0","1","1","0","1","0","1","4","3","3","2","3","3","4","4","5","2","768419588089319425","林","401","","","","","","","","","","","","","","","","","","","true","4","4","ability","1082","other","他的","","","","","","","","","","","","","","",""
"null","","null","html-keyboard-response","158","187568","0.0-6.0-0.0-8.0-0.25","3","4","3","3","3","3","3","3","3","4","4","3","2","4","3","4","3","3","4","4","2","2","2","2","2","2","2","1","2","1","0","1","1","0","0","1","1","0","1","1","0","1","0","1","4","3","3","2","3","3","4","4","5","2","768419588089319425","林","401","","","","","","","","","","","","","","","","","","","","","","","","","","","","","","","","","","","","","","","",""
"2490","<p style=""color:white; font-size: 35px;"">低能</p>","i","categorize-html","159","190063","0.0-6.0-0.0-8.0-1.25","3","4","3","3","3","3","3","3","3","4","4","3","2","4","3","4","3","3","4","4","2","2","2","2","2","2","2","1","2","1","0","1","1","0","0","1","1","0","1","1","0","1","0","1","4","3","3","2","3","3","4","4","5","2","768419588089319425","林","401","","","","","","","","","","","","","","","","","","","true","4","4","ability","2490","negative","低能","","","","","","","","","","","","","","",""
"null","","null","html-keyboard-response","160","190316","0.0-6.0-0.0-8.0-0.26","3","4","3","3","3","3","3","3","3","4","4","3","2","4","3","4","3","3","4","4","2","2","2","2","2","2","2","1","2","1","0","1","1","0","0","1","1","0","1","1","0","1","0","1","4","3","3","2","3","3","4","4","5","2","768419588089319425","林","401","","","","","","","","","","","","","","","","","","","","","","","","","","","","","","","","","","","","","","","",""
"1175","<p style=""color:rgb(150, 250, 100); font-size: 35px;"">我</p>","i","categorize-html","161","191495","0.0-6.0-0.0-8.0-1.26","3","4","3","3","3","3","3","3","3","4","4","3","2","4","3","4","3","3","4","4","2","2","2","2","2","2","2","1","2","1","0","1","1","0","0","1","1","0","1","1","0","1","0","1","4","3","3","2","3","3","4","4","5","2","768419588089319425","林","401","","","","","","","","","","","","","","","","","","","true","4","4","ability","1175","self","我","","","","","","","","","","","","","","",""
"null","","null","html-keyboard-response","162","191752","0.0-6.0-0.0-8.0-0.27","3","4","3","3","3","3","3","3","3","4","4","3","2","4","3","4","3","3","4","4","2","2","2","2","2","2","2","1","2","1","0","1","1","0","0","1","1","0","1","1","0","1","0","1","4","3","3","2","3","3","4","4","5","2","768419588089319425","林","401","","","","","","","","","","","","","","","","","","","","","","","","","","","","","","","","","","","","","","","",""
"691","<p style=""color:white; font-size: 35px;"">能干</p>","e","categorize-html","163","192447","0.0-6.0-0.0-8.0-1.27","3","4","3","3","3","3","3","3","3","4","4","3","2","4","3","4","3","3","4","4","2","2","2","2","2","2","2","1","2","1","0","1","1","0","0","1","1","0","1","1","0","1","0","1","4","3","3","2","3","3","4","4","5","2","768419588089319425","林","401","","","","","","","","","","","","","","","","","","","true","4","4","ability","691","positive","能干","","","","","","","","","","","","","","",""
"null","","null","html-keyboard-response","164","192704","0.0-6.0-0.0-8.0-0.28","3","4","3","3","3","3","3","3","3","4","4","3","2","4","3","4","3","3","4","4","2","2","2","2","2","2","2","1","2","1","0","1","1","0","0","1","1","0","1","1","0","1","0","1","4","3","3","2","3","3","4","4","5","2","768419588089319425","林","401","","","","","","","","","","","","","","","","","","","","","","","","","","","","","","","","","","","","","","","",""
"683","<p style=""color:rgb(150, 250, 100); font-size: 35px;"">我</p>","i","categorize-html","165","193391","0.0-6.0-0.0-8.0-1.28","3","4","3","3","3","3","3","3","3","4","4","3","2","4","3","4","3","3","4","4","2","2","2","2","2","2","2","1","2","1","0","1","1","0","0","1","1","0","1","1","0","1","0","1","4","3","3","2","3","3","4","4","5","2","768419588089319425","林","401","","","","","","","","","","","","","","","","","","","true","4","4","ability","683","self","我","","","","","","","","","","","","","","",""
"null","","null","html-keyboard-response","166","193648","0.0-6.0-0.0-8.0-0.29","3","4","3","3","3","3","3","3","3","4","4","3","2","4","3","4","3","3","4","4","2","2","2","2","2","2","2","1","2","1","0","1","1","0","0","1","1","0","1","1","0","1","0","1","4","3","3","2","3","3","4","4","5","2","768419588089319425","林","401","","","","","","","","","","","","","","","","","","","","","","","","","","","","","","","","","","","","","","","",""
"722","<p style=""color:white; font-size: 35px;"">愚钝</p>","i","categorize-html","167","194375","0.0-6.0-0.0-8.0-1.29","3","4","3","3","3","3","3","3","3","4","4","3","2","4","3","4","3","3","4","4","2","2","2","2","2","2","2","1","2","1","0","1","1","0","0","1","1","0","1","1","0","1","0","1","4","3","3","2","3","3","4","4","5","2","768419588089319425","林","401","","","","","","","","","","","","","","","","","","","true","4","4","ability","722","negative","愚钝","","","","","","","","","","","","","","",""
"null","","null","html-keyboard-response","168","194632","0.0-6.0-0.0-8.0-0.30","3","4","3","3","3","3","3","3","3","4","4","3","2","4","3","4","3","3","4","4","2","2","2","2","2","2","2","1","2","1","0","1","1","0","0","1","1","0","1","1","0","1","0","1","4","3","3","2","3","3","4","4","5","2","768419588089319425","林","401","","","","","","","","","","","","","","","","","","","","","","","","","","","","","","","","","","","","","","","",""
"635","<p style=""color:rgb(150, 250, 100); font-size: 35px;"">别人的</p>","e","categorize-html","169","195272","0.0-6.0-0.0-8.0-1.30","3","4","3","3","3","3","3","3","3","4","4","3","2","4","3","4","3","3","4","4","2","2","2","2","2","2","2","1","2","1","0","1","1","0","0","1","1","0","1","1","0","1","0","1","4","3","3","2","3","3","4","4","5","2","768419588089319425","林","401","","","","","","","","","","","","","","","","","","","true","4","4","ability","635","other","别人的","","","","","","","","","","","","","","",""
"null","","null","html-keyboard-response","170","195528","0.0-6.0-0.0-8.0-0.31","3","4","3","3","3","3","3","3","3","4","4","3","2","4","3","4","3","3","4","4","2","2","2","2","2","2","2","1","2","1","0","1","1","0","0","1","1","0","1","1","0","1","0","1","4","3","3","2","3","3","4","4","5","2","768419588089319425","林","401","","","","","","","","","","","","","","","","","","","","","","","","","","","","","","","","","","","","","","","",""
"675","<p style=""color:white; font-size: 35px;"">全才</p>","e","categorize-html","171","196207","0.0-6.0-0.0-8.0-1.31","3","4","3","3","3","3","3","3","3","4","4","3","2","4","3","4","3","3","4","4","2","2","2","2","2","2","2","1","2","1","0","1","1","0","0","1","1","0","1","1","0","1","0","1","4","3","3","2","3","3","4","4","5","2","768419588089319425","林","401","","","","","","","","","","","","","","","","","","","true","4","4","ability","675","positive","全才","","","","","","","","","","","","","","",""
"null","","null","html-keyboard-response","172","196464","0.0-6.0-0.0-8.0-0.32","3","4","3","3","3","3","3","3","3","4","4","3","2","4","3","4","3","3","4","4","2","2","2","2","2","2","2","1","2","1","0","1","1","0","0","1","1","0","1","1","0","1","0","1","4","3","3","2","3","3","4","4","5","2","768419588089319425","林","401","","","","","","","","","","","","","","","","","","","","","","","","","","","","","","","","","","","","","","","",""
"610","<p style=""color:rgb(150, 250, 100); font-size: 35px;"">他人的</p>","e","categorize-html","173","197079","0.0-6.0-0.0-8.0-1.32","3","4","3","3","3","3","3","3","3","4","4","3","2","4","3","4","3","3","4","4","2","2","2","2","2","2","2","1","2","1","0","1","1","0","0","1","1","0","1","1","0","1","0","1","4","3","3","2","3","3","4","4","5","2","768419588089319425","林","401","","","","","","","","","","","","","","","","","","","true","4","4","ability","610","other","他人的","","","","","","","","","","","","","","",""
"null","","null","html-keyboard-response","174","197336","0.0-6.0-0.0-8.0-0.33","3","4","3","3","3","3","3","3","3","4","4","3","2","4","3","4","3","3","4","4","2","2","2","2","2","2","2","1","2","1","0","1","1","0","0","1","1","0","1","1","0","1","0","1","4","3","3","2","3","3","4","4","5","2","768419588089319425","林","401","","","","","","","","","","","","","","","","","","","","","","","","","","","","","","","","","","","","","","","",""
"578","<p style=""color:white; font-size: 35px;"">高效</p>","e","categorize-html","175","197919","0.0-6.0-0.0-8.0-1.33","3","4","3","3","3","3","3","3","3","4","4","3","2","4","3","4","3","3","4","4","2","2","2","2","2","2","2","1","2","1","0","1","1","0","0","1","1","0","1","1","0","1","0","1","4","3","3","2","3","3","4","4","5","2","768419588089319425","林","401","","","","","","","","","","","","","","","","","","","true","4","4","ability","578","positive","高效","","","","","","","","","","","","","","",""
"null","","null","html-keyboard-response","176","198176","0.0-6.0-0.0-8.0-0.34","3","4","3","3","3","3","3","3","3","4","4","3","2","4","3","4","3","3","4","4","2","2","2","2","2","2","2","1","2","1","0","1","1","0","0","1","1","0","1","1","0","1","0","1","4","3","3","2","3","3","4","4","5","2","768419588089319425","林","401","","","","","","","","","","","","","","","","","","","","","","","","","","","","","","","","","","","","","","","",""
"770","<p style=""color:rgb(150, 250, 100); font-size: 35px;"">我的</p>","i","categorize-html","177","198951","0.0-6.0-0.0-8.0-1.34","3","4","3","3","3","3","3","3","3","4","4","3","2","4","3","4","3","3","4","4","2","2","2","2","2","2","2","1","2","1","0","1","1","0","0","1","1","0","1","1","0","1","0","1","4","3","3","2","3","3","4","4","5","2","768419588089319425","林","401","","","","","","","","","","","","","","","","","","","true","4","4","ability","770","self","我的","","","","","","","","","","","","","","",""
"null","","null","html-keyboard-response","178","199208","0.0-6.0-0.0-8.0-0.35","3","4","3","3","3","3","3","3","3","4","4","3","2","4","3","4","3","3","4","4","2","2","2","2","2","2","2","1","2","1","0","1","1","0","0","1","1","0","1","1","0","1","0","1","4","3","3","2","3","3","4","4","5","2","768419588089319425","林","401","","","","","","","","","","","","","","","","","","","","","","","","","","","","","","","","","","","","","","","",""
"1274","<p style=""color:white; font-size: 35px;"">无能</p>","i","categorize-html","179","200487","0.0-6.0-0.0-8.0-1.35","3","4","3","3","3","3","3","3","3","4","4","3","2","4","3","4","3","3","4","4","2","2","2","2","2","2","2","1","2","1","0","1","1","0","0","1","1","0","1","1","0","1","0","1","4","3","3","2","3","3","4","4","5","2","768419588089319425","林","401","","","","","","","","","","","","","","","","","","","true","4","4","ability","1274","negative","无能","","","","","","","","","","","","","","",""
"null","","null","html-keyboard-response","180","200744","0.0-6.0-0.0-8.0-0.36","3","4","3","3","3","3","3","3","3","4","4","3","2","4","3","4","3","3","4","4","2","2","2","2","2","2","2","1","2","1","0","1","1","0","0","1","1","0","1","1","0","1","0","1","4","3","3","2","3","3","4","4","5","2","768419588089319425","林","401","","","","","","","","","","","","","","","","","","","","","","","","","","","","","","","","","","","","","","","",""
"698","<p style=""color:rgb(150, 250, 100); font-size: 35px;"">本人</p>","i","categorize-html","181","201447","0.0-6.0-0.0-8.0-1.36","3","4","3","3","3","3","3","3","3","4","4","3","2","4","3","4","3","3","4","4","2","2","2","2","2","2","2","1","2","1","0","1","1","0","0","1","1","0","1","1","0","1","0","1","4","3","3","2","3","3","4","4","5","2","768419588089319425","林","401","","","","","","","","","","","","","","","","","","","true","4","4","ability","698","self","本人","","","","","","","","","","","","","","",""
"null","","null","html-keyboard-response","182","201704","0.0-6.0-0.0-8.0-0.37","3","4","3","3","3","3","3","3","3","4","4","3","2","4","3","4","3","3","4","4","2","2","2","2","2","2","2","1","2","1","0","1","1","0","0","1","1","0","1","1","0","1","0","1","4","3","3","2","3","3","4","4","5","2","768419588089319425","林","401","","","","","","","","","","","","","","","","","","","","","","","","","","","","","","","","","","","","","","","",""
"1306","<p style=""color:white; font-size: 35px;"">全才</p>","e","categorize-html","183","203016","0.0-6.0-0.0-8.0-1.37","3","4","3","3","3","3","3","3","3","4","4","3","2","4","3","4","3","3","4","4","2","2","2","2","2","2","2","1","2","1","0","1","1","0","0","1","1","0","1","1","0","1","0","1","4","3","3","2","3","3","4","4","5","2","768419588089319425","林","401","","","","","","","","","","","","","","","","","","","true","4","4","ability","1306","positive","全才","","","","","","","","","","","","","","",""
"null","","null","html-keyboard-response","184","203274","0.0-6.0-0.0-8.0-0.38","3","4","3","3","3","3","3","3","3","4","4","3","2","4","3","4","3","3","4","4","2","2","2","2","2","2","2","1","2","1","0","1","1","0","0","1","1","0","1","1","0","1","0","1","4","3","3","2","3","3","4","4","5","2","768419588089319425","林","401","","","","","","","","","","","","","","","","","","","","","","","","","","","","","","","","","","","","","","","",""
"642","<p style=""color:rgb(150, 250, 100); font-size: 35px;"">他人的</p>","e","categorize-html","185","203920","0.0-6.0-0.0-8.0-1.38","3","4","3","3","3","3","3","3","3","4","4","3","2","4","3","4","3","3","4","4","2","2","2","2","2","2","2","1","2","1","0","1","1","0","0","1","1","0","1","1","0","1","0","1","4","3","3","2","3","3","4","4","5","2","768419588089319425","林","401","","","","","","","","","","","","","","","","","","","true","4","4","ability","642","other","他人的","","","","","","","","","","","","","","",""
"null","","null","html-keyboard-response","186","204178","0.0-6.0-0.0-8.0-0.39","3","4","3","3","3","3","3","3","3","4","4","3","2","4","3","4","3","3","4","4","2","2","2","2","2","2","2","1","2","1","0","1","1","0","0","1","1","0","1","1","0","1","0","1","4","3","3","2","3","3","4","4","5","2","768419588089319425","林","401","","","","","","","","","","","","","","","","","","","","","","","","","","","","","","","","","","","","","","","",""
"738","<p style=""color:white; font-size: 35px;"">蠢笨</p>","i","categorize-html","187","204920","0.0-6.0-0.0-8.0-1.39","3","4","3","3","3","3","3","3","3","4","4","3","2","4","3","4","3","3","4","4","2","2","2","2","2","2","2","1","2","1","0","1","1","0","0","1","1","0","1","1","0","1","0","1","4","3","3","2","3","3","4","4","5","2","768419588089319425","林","401","","","","","","","","","","","","","","","","","","","true","4","4","ability","738","negative","蠢笨","","","","","","","","","","","","","","",""
"null","","null","html-keyboard-response","188","205178","0.0-6.0-0.0-8.0-0.40","3","4","3","3","3","3","3","3","3","4","4","3","2","4","3","4","3","3","4","4","2","2","2","2","2","2","2","1","2","1","0","1","1","0","0","1","1","0","1","1","0","1","0","1","4","3","3","2","3","3","4","4","5","2","768419588089319425","林","401","","","","","","","","","","","","","","","","","","","","","","","","","","","","","","","","","","","","","","","",""
"834","<p style=""color:rgb(150, 250, 100); font-size: 35px;"">他</p>","e","categorize-html","189","206017","0.0-6.0-0.0-8.0-1.40","3","4","3","3","3","3","3","3","3","4","4","3","2","4","3","4","3","3","4","4","2","2","2","2","2","2","2","1","2","1","0","1","1","0","0","1","1","0","1","1","0","1","0","1","4","3","3","2","3","3","4","4","5","2","768419588089319425","林","401","","","","","","","","","","","","","","","","","","","true","4","4","ability","834","other","他","","","","","","","","","","","","","","",""
"null","","null","html-keyboard-response","190","206274","0.0-6.0-0.0-8.0-0.41","3","4","3","3","3","3","3","3","3","4","4","3","2","4","3","4","3","3","4","4","2","2","2","2","2","2","2","1","2","1","0","1","1","0","0","1","1","0","1","1","0","1","0","1","4","3","3","2","3","3","4","4","5","2","768419588089319425","林","401","","","","","","","","","","","","","","","","","","","","","","","","","","","","","","","","","","","","","","","",""
"914","<p style=""color:white; font-size: 35px;"">高效</p>","e","categorize-html","191","207192","0.0-6.0-0.0-8.0-1.41","3","4","3","3","3","3","3","3","3","4","4","3","2","4","3","4","3","3","4","4","2","2","2","2","2","2","2","1","2","1","0","1","1","0","0","1","1","0","1","1","0","1","0","1","4","3","3","2","3","3","4","4","5","2","768419588089319425","林","401","","","","","","","","","","","","","","","","","","","true","4","4","ability","914","positive","高效","","","","","","","","","","","","","","",""
"null","","null","html-keyboard-response","192","207450","0.0-6.0-0.0-8.0-0.42","3","4","3","3","3","3","3","3","3","4","4","3","2","4","3","4","3","3","4","4","2","2","2","2","2","2","2","1","2","1","0","1","1","0","0","1","1","0","1","1","0","1","0","1","4","3","3","2","3","3","4","4","5","2","768419588089319425","林","401","","","","","","","","","","","","","","","","","","","","","","","","","","","","","","","","","","","","","","","",""
"1226","<p style=""color:rgb(150, 250, 100); font-size: 35px;"">本人的</p>","i","categorize-html","193","208678","0.0-6.0-0.0-8.0-1.42","3","4","3","3","3","3","3","3","3","4","4","3","2","4","3","4","3","3","4","4","2","2","2","2","2","2","2","1","2","1","0","1","1","0","0","1","1","0","1","1","0","1","0","1","4","3","3","2","3","3","4","4","5","2","768419588089319425","林","401","","","","","","","","","","","","","","","","","","","true","4","4","ability","1226","self","本人的","","","","","","","","","","","","","","",""
"null","","null","html-keyboard-response","194","208938","0.0-6.0-0.0-8.0-0.43","3","4","3","3","3","3","3","3","3","4","4","3","2","4","3","4","3","3","4","4","2","2","2","2","2","2","2","1","2","1","0","1","1","0","0","1","1","0","1","1","0","1","0","1","4","3","3","2","3","3","4","4","5","2","768419588089319425","林","401","","","","","","","","","","","","","","","","","","","","","","","","","","","","","","","","","","","","","","","",""
"1018","<p style=""color:white; font-size: 35px;"">蠢笨</p>","i","categorize-html","195","209960","0.0-6.0-0.0-8.0-1.43","3","4","3","3","3","3","3","3","3","4","4","3","2","4","3","4","3","3","4","4","2","2","2","2","2","2","2","1","2","1","0","1","1","0","0","1","1","0","1","1","0","1","0","1","4","3","3","2","3","3","4","4","5","2","768419588089319425","林","401","","","","","","","","","","","","","","","","","","","true","4","4","ability","1018","negative","蠢笨","","","","","","","","","","","","","","",""
"null","","null","html-keyboard-response","196","210218","0.0-6.0-0.0-8.0-0.44","3","4","3","3","3","3","3","3","3","4","4","3","2","4","3","4","3","3","4","4","2","2","2","2","2","2","2","1","2","1","0","1","1","0","0","1","1","0","1","1","0","1","0","1","4","3","3","2","3","3","4","4","5","2","768419588089319425","林","401","","","","","","","","","","","","","","","","","","","","","","","","","","","","","","","","","","","","","","","",""
"1729","<p style=""color:rgb(150, 250, 100); font-size: 35px;"">别人的</p>","e","categorize-html","197","211952","0.0-6.0-0.0-8.0-1.44","3","4","3","3","3","3","3","3","3","4","4","3","2","4","3","4","3","3","4","4","2","2","2","2","2","2","2","1","2","1","0","1","1","0","0","1","1","0","1","1","0","1","0","1","4","3","3","2","3","3","4","4","5","2","768419588089319425","林","401","","","","","","","","","","","","","","","","","","","true","4","4","ability","1729","other","别人的","","","","","","","","","","","","","","",""
