"rt","stimulus","response","trial_type","trial_index","time_elapsed","internal_node_id","ses_1","ses_2","ses_3","ses_4","ses_5","ses_6","ses_7","ses_8","ses_9","ses_10","coreself_1","coreself_2","coreself_3","coreself_4","coreself_5","coreself_6","coreself_7","coreself_8","coreself_9","coreself_10","SGPS_1","SGPS_2","SGPS_3","SGPS_4","SGPS_5","SGPS_6","SGPS_7","SGPS_8","SGPS_9","NPI1","NPI2","NPI3","NPI4","NPI5","NPI6","NPI7","NPI8","NPI9","NPI10","NPI11","NPI12","NPI13","NPI14","NPI15","hsns_1","hsns_2","hsns_3","hsns_4","hsns_5","hsns_6","hsns_7","hsns_8","hsns_9","hsns_10","subj_idx","friend_name","ParticipantID","value","success","user_agent","responses","item_order","radio_event_ids","radio_event_times","key_event_times","mouse_event_times","straightlining","zigzagging","honeypot","timeout","failed_images","failed_audio","failed_video","version_attrib","version_target","correct","IAT","screen_id","task_id","RT","condition","word","varname","summary","version_attrib2","version_target2","time_stamp","view_history","response_type","key_press","avg_frame_time","center_x","center_y","correct_response","identity","Image","question_order"
"1900","
   <p><div style = ""color: white;font-size:25px;"">您好，欢迎参加本次实验。</div> </p>
   <p><div style = ""color: white;font-size:25px;"">为充分保障您的权利，请确保您已经知晓并同意《参与实验同意书》以及《数据公开知情同意书》。</div></p>
   <p><div style = ""color: white;font-size:25px;"">如果您未见过上述内容，请咨询实验员。</div></p>
   <p><div style = ""color: white;font-size:25px;"">如果您选择继续实验，则表示您已经清楚两份知情同意书的内容并同意。</div></p>
   <p><div style = ""color: red;font-size:30px;"">请确保您记得day0的实验编号，您将在本次实验输入该编号，若您忘记，请咨询实验员后作答。</div></p>
   <p> <div style = ""color: green;font-size:25px;""><按空格键至下页></div> </p>
   "," ","html-keyboard-response","0","1907","0.0-0.0","4","3","4","4","3","3","4","3","4","4","4","5","4","4","5","5","4","5","4","4","2","1","2","2","1","2","1","2","2","1","0","1","1","0","0","0","1","0","1","1","0","1","0","1","4","2","1","2","1","2","2","4","5","1","634787525419859968","刘","524","","","","","","","","","","","","","","","","","","","","","","","","","","","","","","","","","","","","","","","",""
"","","","call-function","1","1908","0.0-1.0-0.0","4","3","4","4","3","3","4","3","4","4","4","5","4","4","5","5","4","5","4","4","2","1","2","2","1","2","1","2","2","1","0","1","1","0","0","0","1","0","1","1","0","1","0","1","4","2","1","2","1","2","2","4","5","1","634787525419859968","刘","524","","","","","","","","","","","","","","","","","","","","","","","","","","","","","","","","","","","","","","","",""
"61032","","{""friend_name"":""刘"",""ParticipantID"":""524""}","survey-html-form","2","62942","0.0-1.0-1.0","4","3","4","4","3","3","4","3","4","4","4","5","4","4","5","5","4","5","4","4","2","1","2","2","1","2","1","2","2","1","0","1","1","0","0","0","1","0","1","1","0","1","0","1","4","2","1","2","1","2","2","4","5","1","634787525419859968","刘","524","","","","","","","","","","","","","","","","","","","","","","","","","","","","","","","","","","","","","","","",""
"","","","fullscreen","3","128186","0.0-2.0","4","3","4","4","3","3","4","3","4","4","4","5","4","4","5","5","4","5","4","4","2","1","2","2","1","2","1","2","2","1","0","1","1","0","0","0","1","0","1","1","0","1","0","1","4","2","1","2","1","2","2","4","5","1","634787525419859968","刘","524","","true","{}","","","","","","","","","","","","","","","","","","","","","","","","","","","","","","","","","","","","",""
"92075.20000004768","","{""Q01"":""4"",""Q02"":""3"",""Q03"":""4"",""Q04"":""4"",""Q05"":""3"",""Q06"":""3"",""Q07"":""4"",""Q08"":""3"",""Q09"":""4"",""Q10"":""4""}","survey-template","4","220266","0.0-3.0","4","3","4","4","3","3","4","3","4","4","4","5","4","4","5","5","4","5","4","4","2","1","2","2","1","2","1","2","2","1","0","1","1","0","0","0","1","0","1","1","0","1","0","1","4","2","1","2","1","2","2","4","5","1","634787525419859968","刘","524","","","","{""Q01"":""4"",""Q02"":""3"",""Q03"":""4"",""Q04"":""4"",""Q05"":""3"",""Q06"":""3"",""Q07"":""4"",""Q08"":""3"",""Q09"":""4"",""Q10"":""4""}","[0,1,2,3,4,5,6,7,8,9]","[""Q01"",""Q02"",""Q03"",""Q04"",""Q05"",""Q06"",""Q07"",""Q08"",""Q09"",""Q10""]","[18031.900000095367,19648.200000047684,27858,30506.200000047684,31902.200000047684,34834.200000047684,35628.200000047684,36989.800000071526,37892.10000002384,38664.200000047684]","[]","[17542.100000023842,18031.900000095367,19648.200000047684,26723.5,27134.100000023842,27858,30506.200000047684,31902.200000047684,32842,33373.90000009537,34481.90000009537,34834.200000047684,35628.200000047684,36989.800000071526,37892.10000002384,38664.200000047684,92073.90000009537]","0.3","0.5555555555555556","0","","","","","","","","","","","","","","","","","","","","","","","","","","","",""
"223567.70000004768","","{""Q01"":""4"",""Q02"":""5"",""Q03"":""4"",""Q04"":""4"",""Q05"":""5"",""Q06"":""5"",""Q07"":""4"",""Q08"":""5"",""Q09"":""4"",""Q10"":""4""}","survey-template","5","443860","0.0-4.0","4","3","4","4","3","3","4","3","4","4","4","5","4","4","5","5","4","5","4","4","2","1","2","2","1","2","1","2","2","1","0","1","1","0","0","0","1","0","1","1","0","1","0","1","4","2","1","2","1","2","2","4","5","1","634787525419859968","刘","524","","","","{""Q01"":""4"",""Q02"":""5"",""Q03"":""4"",""Q04"":""4"",""Q05"":""5"",""Q06"":""5"",""Q07"":""4"",""Q08"":""5"",""Q09"":""4"",""Q10"":""4""}","[0,1,2,3,4,5,6,7,8,9]","[""Q01"",""Q02"",""Q03"",""Q04"",""Q05"",""Q06"",""Q07"",""Q08"",""Q08"",""Q09"",""Q10""]","[21271.800000071526,23277.400000095367,24123.400000095367,39981.60000002384,41435.300000071526,43667.300000071526,45057.200000047684,46033.300000071526,46575.5,47487.5,48745.60000002384]","[]","[21271.800000071526,22821.600000023842,23277.400000095367,24123.400000095367,39981.60000002384,41435.300000071526,43667.300000071526,45057.200000047684,46033.300000071526,46575.5,47487.5,48745.60000002384,209666.70000004768,223557.20000004768]","0.3","0.3333333333333333","0","","","","","","","","","","","","","","","","","","","","","","","","","","","",""
"","","","preload","6","444126","0.0-5.0","4","3","4","4","3","3","4","3","4","4","4","5","4","4","5","5","4","5","4","4","2","1","2","2","1","2","1","2","2","1","0","1","1","0","0","0","1","0","1","1","0","1","0","1","4","2","1","2","1","2","2","4","5","1","634787525419859968","刘","524","","true","","","","","","","","","","","false","[]","[]","[]","","","","","","","","","","","","","","","","","","","","","","","",""
"47667","
    <h3>词语分类任务</h3>
    <p>在接下来的任务中，你需要对一系列词语进行分类。</p>
    <p>请先熟悉这些词语，这有利于你完成接下来的任务。</p>
    <table align=""center"" border=1 cellpadding=3 cellspacing=0>
    <tr> <th>类别</th> <th>词语</th> </tr>
    <tr> <td>&emsp;积极&emsp;</td> <td>&emsp;能干、全能、全才、高效、精干、天才&emsp;</td> </tr>
    <tr> <td>&emsp;消极&emsp;</td> <td>&emsp;无能、低能、废物、拙笨、愚钝、蠢笨&emsp;</td> </tr>
    <tr> <td>&emsp;自我&emsp;</td> <td>&emsp;我、我的、自己、自己的、本人、本人的&emsp;</td> </tr>
    <tr> <td>&emsp;他人&emsp;</td> <td>&emsp;他、他的、别人、别人的、他人、他人的&emsp;</td> </tr>
    </table><br/>","0","html-button-response","7","491810","0.0-6.0-0.0-0.0","4","3","4","4","3","3","4","3","4","4","4","5","4","4","5","5","4","5","4","4","2","1","2","2","1","2","1","2","2","1","0","1","1","0","0","0","1","0","1","1","0","1","0","1","4","2","1","2","1","2","2","4","5","1","634787525419859968","刘","524","","","","","","","","","","","","","","","","","2","2","","","","","","","","","","","","","","","","","","","","","",""
"5016","
    <div class=""tag-bottom"">
    <p> —— 任务1：对“他人”词和“自我”词分类 ——<p/>
    不同词语会出现在屏幕中央，类别标签将始终显示在屏幕上方<p/>   
    <span style=""color:#FFD866""><b>请根据上方标签的提示，尽可能正确并且快速地做出按键反应</b></span><p/>
    当按键错误时屏幕中会出现<span style=""color:red""> X </span>，需要按另一个键纠正才能继续<br/><p/>
    请把双手食指分别放在键盘的“E”键和“I”键上<p/>
    按<空格键>开始
    </p></div>"," ","html-keyboard-response","8","496841","0.0-6.0-0.0-1.0","4","3","4","4","3","3","4","3","4","4","4","5","4","4","5","5","4","5","4","4","2","1","2","2","1","2","1","2","2","1","0","1","1","0","0","0","1","0","1","1","0","1","0","1","4","2","1","2","1","2","2","4","5","1","634787525419859968","刘","524","","","","","","","","","","","","","","","","","","","","","","","","","","","","","","","","","","","","","","","",""
"null","","null","html-keyboard-response","9","497094","0.0-6.0-0.0-2.0-0.0","4","3","4","4","3","3","4","3","4","4","4","5","4","4","5","5","4","5","4","4","2","1","2","2","1","2","1","2","2","1","0","1","1","0","0","0","1","0","1","1","0","1","0","1","4","2","1","2","1","2","2","4","5","1","634787525419859968","刘","524","","","","","","","","","","","","","","","","","","","","","","","","","","","","","","","","","","","","","","","",""
"1974","<p style=""color:rgb(150, 250, 100); font-size: 35px;"">自己的</p>","i","categorize-html","10","499076","0.0-6.0-0.0-2.0-1.0","4","3","4","4","3","3","4","3","4","4","4","5","4","4","5","5","4","5","4","4","2","1","2","2","1","2","1","2","2","1","0","1","1","0","0","0","1","0","1","1","0","1","0","1","4","2","1","2","1","2","2","4","5","1","634787525419859968","刘","524","","","","","","","","","","","","","","","","","","","true","1","1","ability","1974","self","自己的","","","","","","","","","","","","","","",""
"null","","null","html-keyboard-response","11","499329","0.0-6.0-0.0-2.0-0.1","4","3","4","4","3","3","4","3","4","4","4","5","4","4","5","5","4","5","4","4","2","1","2","2","1","2","1","2","2","1","0","1","1","0","0","0","1","0","1","1","0","1","0","1","4","2","1","2","1","2","2","4","5","1","634787525419859968","刘","524","","","","","","","","","","","","","","","","","","","","","","","","","","","","","","","","","","","","","","","",""
"629","<p style=""color:rgb(150, 250, 100); font-size: 35px;"">别人的</p>","e","categorize-html","12","499961","0.0-6.0-0.0-2.0-1.1","4","3","4","4","3","3","4","3","4","4","4","5","4","4","5","5","4","5","4","4","2","1","2","2","1","2","1","2","2","1","0","1","1","0","0","0","1","0","1","1","0","1","0","1","4","2","1","2","1","2","2","4","5","1","634787525419859968","刘","524","","","","","","","","","","","","","","","","","","","true","1","1","ability","629","other","别人的","","","","","","","","","","","","","","",""
"null","","null","html-keyboard-response","13","500212","0.0-6.0-0.0-2.0-0.2","4","3","4","4","3","3","4","3","4","4","4","5","4","4","5","5","4","5","4","4","2","1","2","2","1","2","1","2","2","1","0","1","1","0","0","0","1","0","1","1","0","1","0","1","4","2","1","2","1","2","2","4","5","1","634787525419859968","刘","524","","","","","","","","","","","","","","","","","","","","","","","","","","","","","","","","","","","","","","","",""
"630","<p style=""color:rgb(150, 250, 100); font-size: 35px;"">我</p>","i","categorize-html","14","500846","0.0-6.0-0.0-2.0-1.2","4","3","4","4","3","3","4","3","4","4","4","5","4","4","5","5","4","5","4","4","2","1","2","2","1","2","1","2","2","1","0","1","1","0","0","0","1","0","1","1","0","1","0","1","4","2","1","2","1","2","2","4","5","1","634787525419859968","刘","524","","","","","","","","","","","","","","","","","","","true","1","1","ability","630","self","我","","","","","","","","","","","","","","",""
"null","","null","html-keyboard-response","15","501097","0.0-6.0-0.0-2.0-0.3","4","3","4","4","3","3","4","3","4","4","4","5","4","4","5","5","4","5","4","4","2","1","2","2","1","2","1","2","2","1","0","1","1","0","0","0","1","0","1","1","0","1","0","1","4","2","1","2","1","2","2","4","5","1","634787525419859968","刘","524","","","","","","","","","","","","","","","","","","","","","","","","","","","","","","","","","","","","","","","",""
"875","<p style=""color:rgb(150, 250, 100); font-size: 35px;"">自己</p>","i","categorize-html","16","501975","0.0-6.0-0.0-2.0-1.3","4","3","4","4","3","3","4","3","4","4","4","5","4","4","5","5","4","5","4","4","2","1","2","2","1","2","1","2","2","1","0","1","1","0","0","0","1","0","1","1","0","1","0","1","4","2","1","2","1","2","2","4","5","1","634787525419859968","刘","524","","","","","","","","","","","","","","","","","","","true","1","1","ability","875","self","自己","","","","","","","","","","","","","","",""
"null","","null","html-keyboard-response","17","502229","0.0-6.0-0.0-2.0-0.4","4","3","4","4","3","3","4","3","4","4","4","5","4","4","5","5","4","5","4","4","2","1","2","2","1","2","1","2","2","1","0","1","1","0","0","0","1","0","1","1","0","1","0","1","4","2","1","2","1","2","2","4","5","1","634787525419859968","刘","524","","","","","","","","","","","","","","","","","","","","","","","","","","","","","","","","","","","","","","","",""
"522","<p style=""color:rgb(150, 250, 100); font-size: 35px;"">他人的</p>","e","categorize-html","18","502753","0.0-6.0-0.0-2.0-1.4","4","3","4","4","3","3","4","3","4","4","4","5","4","4","5","5","4","5","4","4","2","1","2","2","1","2","1","2","2","1","0","1","1","0","0","0","1","0","1","1","0","1","0","1","4","2","1","2","1","2","2","4","5","1","634787525419859968","刘","524","","","","","","","","","","","","","","","","","","","true","1","1","ability","522","other","他人的","","","","","","","","","","","","","","",""
"null","","null","html-keyboard-response","19","503004","0.0-6.0-0.0-2.0-0.5","4","3","4","4","3","3","4","3","4","4","4","5","4","4","5","5","4","5","4","4","2","1","2","2","1","2","1","2","2","1","0","1","1","0","0","0","1","0","1","1","0","1","0","1","4","2","1","2","1","2","2","4","5","1","634787525419859968","刘","524","","","","","","","","","","","","","","","","","","","","","","","","","","","","","","","","","","","","","","","",""
"551","<p style=""color:rgb(150, 250, 100); font-size: 35px;"">本人</p>","i","categorize-html","20","503557","0.0-6.0-0.0-2.0-1.5","4","3","4","4","3","3","4","3","4","4","4","5","4","4","5","5","4","5","4","4","2","1","2","2","1","2","1","2","2","1","0","1","1","0","0","0","1","0","1","1","0","1","0","1","4","2","1","2","1","2","2","4","5","1","634787525419859968","刘","524","","","","","","","","","","","","","","","","","","","true","1","1","ability","551","self","本人","","","","","","","","","","","","","","",""
"null","","null","html-keyboard-response","21","503808","0.0-6.0-0.0-2.0-0.6","4","3","4","4","3","3","4","3","4","4","4","5","4","4","5","5","4","5","4","4","2","1","2","2","1","2","1","2","2","1","0","1","1","0","0","0","1","0","1","1","0","1","0","1","4","2","1","2","1","2","2","4","5","1","634787525419859968","刘","524","","","","","","","","","","","","","","","","","","","","","","","","","","","","","","","","","","","","","","","",""
"581","<p style=""color:rgb(150, 250, 100); font-size: 35px;"">别人</p>","e","categorize-html","22","504391","0.0-6.0-0.0-2.0-1.6","4","3","4","4","3","3","4","3","4","4","4","5","4","4","5","5","4","5","4","4","2","1","2","2","1","2","1","2","2","1","0","1","1","0","0","0","1","0","1","1","0","1","0","1","4","2","1","2","1","2","2","4","5","1","634787525419859968","刘","524","","","","","","","","","","","","","","","","","","","true","1","1","ability","581","other","别人","","","","","","","","","","","","","","",""
"null","","null","html-keyboard-response","23","504658","0.0-6.0-0.0-2.0-0.7","4","3","4","4","3","3","4","3","4","4","4","5","4","4","5","5","4","5","4","4","2","1","2","2","1","2","1","2","2","1","0","1","1","0","0","0","1","0","1","1","0","1","0","1","4","2","1","2","1","2","2","4","5","1","634787525419859968","刘","524","","","","","","","","","","","","","","","","","","","","","","","","","","","","","","","","","","","","","","","",""
"598","<p style=""color:rgb(150, 250, 100); font-size: 35px;"">本人的</p>","i","categorize-html","24","505259","0.0-6.0-0.0-2.0-1.7","4","3","4","4","3","3","4","3","4","4","4","5","4","4","5","5","4","5","4","4","2","1","2","2","1","2","1","2","2","1","0","1","1","0","0","0","1","0","1","1","0","1","0","1","4","2","1","2","1","2","2","4","5","1","634787525419859968","刘","524","","","","","","","","","","","","","","","","","","","true","1","1","ability","598","self","本人的","","","","","","","","","","","","","","",""
"null","","null","html-keyboard-response","25","505510","0.0-6.0-0.0-2.0-0.8","4","3","4","4","3","3","4","3","4","4","4","5","4","4","5","5","4","5","4","4","2","1","2","2","1","2","1","2","2","1","0","1","1","0","0","0","1","0","1","1","0","1","0","1","4","2","1","2","1","2","2","4","5","1","634787525419859968","刘","524","","","","","","","","","","","","","","","","","","","","","","","","","","","","","","","","","","","","","","","",""
"719","<p style=""color:rgb(150, 250, 100); font-size: 35px;"">我的</p>","i","categorize-html","26","506233","0.0-6.0-0.0-2.0-1.8","4","3","4","4","3","3","4","3","4","4","4","5","4","4","5","5","4","5","4","4","2","1","2","2","1","2","1","2","2","1","0","1","1","0","0","0","1","0","1","1","0","1","0","1","4","2","1","2","1","2","2","4","5","1","634787525419859968","刘","524","","","","","","","","","","","","","","","","","","","true","1","1","ability","719","self","我的","","","","","","","","","","","","","","",""
"null","","null","html-keyboard-response","27","506485","0.0-6.0-0.0-2.0-0.9","4","3","4","4","3","3","4","3","4","4","4","5","4","4","5","5","4","5","4","4","2","1","2","2","1","2","1","2","2","1","0","1","1","0","0","0","1","0","1","1","0","1","0","1","4","2","1","2","1","2","2","4","5","1","634787525419859968","刘","524","","","","","","","","","","","","","","","","","","","","","","","","","","","","","","","","","","","","","","","",""
"662","<p style=""color:rgb(150, 250, 100); font-size: 35px;"">他的</p>","e","categorize-html","28","507151","0.0-6.0-0.0-2.0-1.9","4","3","4","4","3","3","4","3","4","4","4","5","4","4","5","5","4","5","4","4","2","1","2","2","1","2","1","2","2","1","0","1","1","0","0","0","1","0","1","1","0","1","0","1","4","2","1","2","1","2","2","4","5","1","634787525419859968","刘","524","","","","","","","","","","","","","","","","","","","true","1","1","ability","662","other","他的","","","","","","","","","","","","","","",""
"null","","null","html-keyboard-response","29","507403","0.0-6.0-0.0-2.0-0.10","4","3","4","4","3","3","4","3","4","4","4","5","4","4","5","5","4","5","4","4","2","1","2","2","1","2","1","2","2","1","0","1","1","0","0","0","1","0","1","1","0","1","0","1","4","2","1","2","1","2","2","4","5","1","634787525419859968","刘","524","","","","","","","","","","","","","","","","","","","","","","","","","","","","","","","","","","","","","","","",""
"566","<p style=""color:rgb(150, 250, 100); font-size: 35px;"">他</p>","e","categorize-html","30","507971","0.0-6.0-0.0-2.0-1.10","4","3","4","4","3","3","4","3","4","4","4","5","4","4","5","5","4","5","4","4","2","1","2","2","1","2","1","2","2","1","0","1","1","0","0","0","1","0","1","1","0","1","0","1","4","2","1","2","1","2","2","4","5","1","634787525419859968","刘","524","","","","","","","","","","","","","","","","","","","true","1","1","ability","566","other","他","","","","","","","","","","","","","","",""
"null","","null","html-keyboard-response","31","508222","0.0-6.0-0.0-2.0-0.11","4","3","4","4","3","3","4","3","4","4","4","5","4","4","5","5","4","5","4","4","2","1","2","2","1","2","1","2","2","1","0","1","1","0","0","0","1","0","1","1","0","1","0","1","4","2","1","2","1","2","2","4","5","1","634787525419859968","刘","524","","","","","","","","","","","","","","","","","","","","","","","","","","","","","","","","","","","","","","","",""
"698","<p style=""color:rgb(150, 250, 100); font-size: 35px;"">他人</p>","e","categorize-html","32","508923","0.0-6.0-0.0-2.0-1.11","4","3","4","4","3","3","4","3","4","4","4","5","4","4","5","5","4","5","4","4","2","1","2","2","1","2","1","2","2","1","0","1","1","0","0","0","1","0","1","1","0","1","0","1","4","2","1","2","1","2","2","4","5","1","634787525419859968","刘","524","","","","","","","","","","","","","","","","","","","true","1","1","ability","698","other","他人","","","","","","","","","","","","","","",""
"4194","
    <div class=""tag-bottom""><p>
    —— 任务2：对“消极”词和“积极”词分类 ——<p/>   
    <span style=""color:#78DCE8""><b>注意上方，类别标签和需要分类的词语都已经改变</b></span><p/>
    <span style=""color:#FFD866""><b>请根据上方标签的提示，尽可能正确并且快速地做出按键反应</b></span><p/>
    当按键错误时屏幕中会出现<span style=""color:red""> X </span>，需要按另一个键纠正才能继续<br/><p/>
    请把双手食指分别放在键盘的“E”键和“I”键上<p/>
    按<空格键>开始
    </p></div>"," ","html-keyboard-response","33","513119","0.0-6.0-0.0-3.0","4","3","4","4","3","3","4","3","4","4","4","5","4","4","5","5","4","5","4","4","2","1","2","2","1","2","1","2","2","1","0","1","1","0","0","0","1","0","1","1","0","1","0","1","4","2","1","2","1","2","2","4","5","1","634787525419859968","刘","524","","","","","","","","","","","","","","","","","","","","","","","","","","","","","","","","","","","","","","","",""
"null","","null","html-keyboard-response","34","513370","0.0-6.0-0.0-4.0-0.0","4","3","4","4","3","3","4","3","4","4","4","5","4","4","5","5","4","5","4","4","2","1","2","2","1","2","1","2","2","1","0","1","1","0","0","0","1","0","1","1","0","1","0","1","4","2","1","2","1","2","2","4","5","1","634787525419859968","刘","524","","","","","","","","","","","","","","","","","","","","","","","","","","","","","","","","","","","","","","","",""
"3347","<p style=""color:white; font-size: 35px;"">废物</p>","e","categorize-html","35","516720","0.0-6.0-0.0-4.0-1.0","4","3","4","4","3","3","4","3","4","4","4","5","4","4","5","5","4","5","4","4","2","1","2","2","1","2","1","2","2","1","0","1","1","0","0","0","1","0","1","1","0","1","0","1","4","2","1","2","1","2","2","4","5","1","634787525419859968","刘","524","","","","","","","","","","","","","","","","","","","true","2","2","ability","3347","negative","废物","","","","","","","","","","","","","","",""
"null","","null","html-keyboard-response","36","516971","0.0-6.0-0.0-4.0-0.1","4","3","4","4","3","3","4","3","4","4","4","5","4","4","5","5","4","5","4","4","2","1","2","2","1","2","1","2","2","1","0","1","1","0","0","0","1","0","1","1","0","1","0","1","4","2","1","2","1","2","2","4","5","1","634787525419859968","刘","524","","","","","","","","","","","","","","","","","","","","","","","","","","","","","","","","","","","","","","","",""
"798","<p style=""color:white; font-size: 35px;"">无能</p>","e","categorize-html","37","517771","0.0-6.0-0.0-4.0-1.1","4","3","4","4","3","3","4","3","4","4","4","5","4","4","5","5","4","5","4","4","2","1","2","2","1","2","1","2","2","1","0","1","1","0","0","0","1","0","1","1","0","1","0","1","4","2","1","2","1","2","2","4","5","1","634787525419859968","刘","524","","","","","","","","","","","","","","","","","","","true","2","2","ability","798","negative","无能","","","","","","","","","","","","","","",""
"null","","null","html-keyboard-response","38","518022","0.0-6.0-0.0-4.0-0.2","4","3","4","4","3","3","4","3","4","4","4","5","4","4","5","5","4","5","4","4","2","1","2","2","1","2","1","2","2","1","0","1","1","0","0","0","1","0","1","1","0","1","0","1","4","2","1","2","1","2","2","4","5","1","634787525419859968","刘","524","","","","","","","","","","","","","","","","","","","","","","","","","","","","","","","","","","","","","","","",""
"884","<p style=""color:white; font-size: 35px;"">全才</p>","i","categorize-html","39","518907","0.0-6.0-0.0-4.0-1.2","4","3","4","4","3","3","4","3","4","4","4","5","4","4","5","5","4","5","4","4","2","1","2","2","1","2","1","2","2","1","0","1","1","0","0","0","1","0","1","1","0","1","0","1","4","2","1","2","1","2","2","4","5","1","634787525419859968","刘","524","","","","","","","","","","","","","","","","","","","true","2","2","ability","884","positive","全才","","","","","","","","","","","","","","",""
"null","","null","html-keyboard-response","40","519159","0.0-6.0-0.0-4.0-0.3","4","3","4","4","3","3","4","3","4","4","4","5","4","4","5","5","4","5","4","4","2","1","2","2","1","2","1","2","2","1","0","1","1","0","0","0","1","0","1","1","0","1","0","1","4","2","1","2","1","2","2","4","5","1","634787525419859968","刘","524","","","","","","","","","","","","","","","","","","","","","","","","","","","","","","","","","","","","","","","",""
"538","<p style=""color:white; font-size: 35px;"">低能</p>","i","categorize-html","41","520314","0.0-6.0-0.0-4.0-1.3","4","3","4","4","3","3","4","3","4","4","4","5","4","4","5","5","4","5","4","4","2","1","2","2","1","2","1","2","2","1","0","1","1","0","0","0","1","0","1","1","0","1","0","1","4","2","1","2","1","2","2","4","5","1","634787525419859968","刘","524","","","","","","","","","","","","","","","","","","","false","2","2","ability","538","negative","低能","","","","","","","","","","","","","","",""
"null","","null","html-keyboard-response","42","520566","0.0-6.0-0.0-4.0-0.4","4","3","4","4","3","3","4","3","4","4","4","5","4","4","5","5","4","5","4","4","2","1","2","2","1","2","1","2","2","1","0","1","1","0","0","0","1","0","1","1","0","1","0","1","4","2","1","2","1","2","2","4","5","1","634787525419859968","刘","524","","","","","","","","","","","","","","","","","","","","","","","","","","","","","","","","","","","","","","","",""
"1067","<p style=""color:white; font-size: 35px;"">天才</p>","i","categorize-html","43","521634","0.0-6.0-0.0-4.0-1.4","4","3","4","4","3","3","4","3","4","4","4","5","4","4","5","5","4","5","4","4","2","1","2","2","1","2","1","2","2","1","0","1","1","0","0","0","1","0","1","1","0","1","0","1","4","2","1","2","1","2","2","4","5","1","634787525419859968","刘","524","","","","","","","","","","","","","","","","","","","true","2","2","ability","1067","positive","天才","","","","","","","","","","","","","","",""
"null","","null","html-keyboard-response","44","521884","0.0-6.0-0.0-4.0-0.5","4","3","4","4","3","3","4","3","4","4","4","5","4","4","5","5","4","5","4","4","2","1","2","2","1","2","1","2","2","1","0","1","1","0","0","0","1","0","1","1","0","1","0","1","4","2","1","2","1","2","2","4","5","1","634787525419859968","刘","524","","","","","","","","","","","","","","","","","","","","","","","","","","","","","","","","","","","","","","","",""
"980","<p style=""color:white; font-size: 35px;"">能干</p>","i","categorize-html","45","522865","0.0-6.0-0.0-4.0-1.5","4","3","4","4","3","3","4","3","4","4","4","5","4","4","5","5","4","5","4","4","2","1","2","2","1","2","1","2","2","1","0","1","1","0","0","0","1","0","1","1","0","1","0","1","4","2","1","2","1","2","2","4","5","1","634787525419859968","刘","524","","","","","","","","","","","","","","","","","","","true","2","2","ability","980","positive","能干","","","","","","","","","","","","","","",""
"null","","null","html-keyboard-response","46","523117","0.0-6.0-0.0-4.0-0.6","4","3","4","4","3","3","4","3","4","4","4","5","4","4","5","5","4","5","4","4","2","1","2","2","1","2","1","2","2","1","0","1","1","0","0","0","1","0","1","1","0","1","0","1","4","2","1","2","1","2","2","4","5","1","634787525419859968","刘","524","","","","","","","","","","","","","","","","","","","","","","","","","","","","","","","","","","","","","","","",""
"606","<p style=""color:white; font-size: 35px;"">愚钝</p>","e","categorize-html","47","523725","0.0-6.0-0.0-4.0-1.6","4","3","4","4","3","3","4","3","4","4","4","5","4","4","5","5","4","5","4","4","2","1","2","2","1","2","1","2","2","1","0","1","1","0","0","0","1","0","1","1","0","1","0","1","4","2","1","2","1","2","2","4","5","1","634787525419859968","刘","524","","","","","","","","","","","","","","","","","","","true","2","2","ability","606","negative","愚钝","","","","","","","","","","","","","","",""
"null","","null","html-keyboard-response","48","523976","0.0-6.0-0.0-4.0-0.7","4","3","4","4","3","3","4","3","4","4","4","5","4","4","5","5","4","5","4","4","2","1","2","2","1","2","1","2","2","1","0","1","1","0","0","0","1","0","1","1","0","1","0","1","4","2","1","2","1","2","2","4","5","1","634787525419859968","刘","524","","","","","","","","","","","","","","","","","","","","","","","","","","","","","","","","","","","","","","","",""
"590","<p style=""color:white; font-size: 35px;"">精干</p>","i","categorize-html","49","524568","0.0-6.0-0.0-4.0-1.7","4","3","4","4","3","3","4","3","4","4","4","5","4","4","5","5","4","5","4","4","2","1","2","2","1","2","1","2","2","1","0","1","1","0","0","0","1","0","1","1","0","1","0","1","4","2","1","2","1","2","2","4","5","1","634787525419859968","刘","524","","","","","","","","","","","","","","","","","","","true","2","2","ability","590","positive","精干","","","","","","","","","","","","","","",""
"null","","null","html-keyboard-response","50","524820","0.0-6.0-0.0-4.0-0.8","4","3","4","4","3","3","4","3","4","4","4","5","4","4","5","5","4","5","4","4","2","1","2","2","1","2","1","2","2","1","0","1","1","0","0","0","1","0","1","1","0","1","0","1","4","2","1","2","1","2","2","4","5","1","634787525419859968","刘","524","","","","","","","","","","","","","","","","","","","","","","","","","","","","","","","","","","","","","","","",""
"979","<p style=""color:white; font-size: 35px;"">高效</p>","i","categorize-html","51","525801","0.0-6.0-0.0-4.0-1.8","4","3","4","4","3","3","4","3","4","4","4","5","4","4","5","5","4","5","4","4","2","1","2","2","1","2","1","2","2","1","0","1","1","0","0","0","1","0","1","1","0","1","0","1","4","2","1","2","1","2","2","4","5","1","634787525419859968","刘","524","","","","","","","","","","","","","","","","","","","true","2","2","ability","979","positive","高效","","","","","","","","","","","","","","",""
"null","","null","html-keyboard-response","52","526052","0.0-6.0-0.0-4.0-0.9","4","3","4","4","3","3","4","3","4","4","4","5","4","4","5","5","4","5","4","4","2","1","2","2","1","2","1","2","2","1","0","1","1","0","0","0","1","0","1","1","0","1","0","1","4","2","1","2","1","2","2","4","5","1","634787525419859968","刘","524","","","","","","","","","","","","","","","","","","","","","","","","","","","","","","","","","","","","","","","",""
"881","<p style=""color:white; font-size: 35px;"">全能</p>","i","categorize-html","53","526935","0.0-6.0-0.0-4.0-1.9","4","3","4","4","3","3","4","3","4","4","4","5","4","4","5","5","4","5","4","4","2","1","2","2","1","2","1","2","2","1","0","1","1","0","0","0","1","0","1","1","0","1","0","1","4","2","1","2","1","2","2","4","5","1","634787525419859968","刘","524","","","","","","","","","","","","","","","","","","","true","2","2","ability","881","positive","全能","","","","","","","","","","","","","","",""
"null","","null","html-keyboard-response","54","527187","0.0-6.0-0.0-4.0-0.10","4","3","4","4","3","3","4","3","4","4","4","5","4","4","5","5","4","5","4","4","2","1","2","2","1","2","1","2","2","1","0","1","1","0","0","0","1","0","1","1","0","1","0","1","4","2","1","2","1","2","2","4","5","1","634787525419859968","刘","524","","","","","","","","","","","","","","","","","","","","","","","","","","","","","","","","","","","","","","","",""
"1369","<p style=""color:white; font-size: 35px;"">拙笨</p>","e","categorize-html","55","528557","0.0-6.0-0.0-4.0-1.10","4","3","4","4","3","3","4","3","4","4","4","5","4","4","5","5","4","5","4","4","2","1","2","2","1","2","1","2","2","1","0","1","1","0","0","0","1","0","1","1","0","1","0","1","4","2","1","2","1","2","2","4","5","1","634787525419859968","刘","524","","","","","","","","","","","","","","","","","","","true","2","2","ability","1369","negative","拙笨","","","","","","","","","","","","","","",""
"null","","null","html-keyboard-response","56","528808","0.0-6.0-0.0-4.0-0.11","4","3","4","4","3","3","4","3","4","4","4","5","4","4","5","5","4","5","4","4","2","1","2","2","1","2","1","2","2","1","0","1","1","0","0","0","1","0","1","1","0","1","0","1","4","2","1","2","1","2","2","4","5","1","634787525419859968","刘","524","","","","","","","","","","","","","","","","","","","","","","","","","","","","","","","","","","","","","","","",""
"522","<p style=""color:white; font-size: 35px;"">蠢笨</p>","e","categorize-html","57","529332","0.0-6.0-0.0-4.0-1.11","4","3","4","4","3","3","4","3","4","4","4","5","4","4","5","5","4","5","4","4","2","1","2","2","1","2","1","2","2","1","0","1","1","0","0","0","1","0","1","1","0","1","0","1","4","2","1","2","1","2","2","4","5","1","634787525419859968","刘","524","","","","","","","","","","","","","","","","","","","true","2","2","ability","522","negative","蠢笨","","","","","","","","","","","","","","",""
"1189","
    <div class=""tag-bottom""><p>
    —— 任务3：对“他人/消极”词和“自我/积极”词分类 ——<p/>
    <span style=""color:#78DCE8""><b>注意上方，之前的四类词语将混合在一起交替呈现</b></span><p/>
    <span style=""color:#FFD866""><b>请根据上方标签的提示，尽可能正确并且快速地做出按键反应</b></span><p/>
    当按键错误时屏幕中会出现<span style=""color:red""> X </span>，需要按另一个键纠正才能继续<br/><p/>
    请把双手食指分别放在键盘的“E”键和“I”键上<p/>
    按<空格键>开始
    </p></div>"," ","html-keyboard-response","58","530522","0.0-6.0-0.0-5.0","4","3","4","4","3","3","4","3","4","4","4","5","4","4","5","5","4","5","4","4","2","1","2","2","1","2","1","2","2","1","0","1","1","0","0","0","1","0","1","1","0","1","0","1","4","2","1","2","1","2","2","4","5","1","634787525419859968","刘","524","","","","","","","","","","","","","","","","","","","","","","","","","","","","","","","","","","","","","","","",""
"null","","null","html-keyboard-response","59","530773","0.0-6.0-0.0-6.0-0.0","4","3","4","4","3","3","4","3","4","4","4","5","4","4","5","5","4","5","4","4","2","1","2","2","1","2","1","2","2","1","0","1","1","0","0","0","1","0","1","1","0","1","0","1","4","2","1","2","1","2","2","4","5","1","634787525419859968","刘","524","","","","","","","","","","","","","","","","","","","","","","","","","","","","","","","","","","","","","","","",""
"905","<p style=""color:rgb(150, 250, 100); font-size: 35px;"">他人</p>","e","categorize-html","60","531681","0.0-6.0-0.0-6.0-1.0","4","3","4","4","3","3","4","3","4","4","4","5","4","4","5","5","4","5","4","4","2","1","2","2","1","2","1","2","2","1","0","1","1","0","0","0","1","0","1","1","0","1","0","1","4","2","1","2","1","2","2","4","5","1","634787525419859968","刘","524","","","","","","","","","","","","","","","","","","","true","3","3","ability","905","other","他人","","","","","","","","","","","","","","",""
"null","","null","html-keyboard-response","61","531931","0.0-6.0-0.0-6.0-0.1","4","3","4","4","3","3","4","3","4","4","4","5","4","4","5","5","4","5","4","4","2","1","2","2","1","2","1","2","2","1","0","1","1","0","0","0","1","0","1","1","0","1","0","1","4","2","1","2","1","2","2","4","5","1","634787525419859968","刘","524","","","","","","","","","","","","","","","","","","","","","","","","","","","","","","","","","","","","","","","",""
"814","<p style=""color:white; font-size: 35px;"">高效</p>","i","categorize-html","62","532747","0.0-6.0-0.0-6.0-1.1","4","3","4","4","3","3","4","3","4","4","4","5","4","4","5","5","4","5","4","4","2","1","2","2","1","2","1","2","2","1","0","1","1","0","0","0","1","0","1","1","0","1","0","1","4","2","1","2","1","2","2","4","5","1","634787525419859968","刘","524","","","","","","","","","","","","","","","","","","","true","3","3","ability","814","positive","高效","","","","","","","","","","","","","","",""
"null","","null","html-keyboard-response","63","533000","0.0-6.0-0.0-6.0-0.2","4","3","4","4","3","3","4","3","4","4","4","5","4","4","5","5","4","5","4","4","2","1","2","2","1","2","1","2","2","1","0","1","1","0","0","0","1","0","1","1","0","1","0","1","4","2","1","2","1","2","2","4","5","1","634787525419859968","刘","524","","","","","","","","","","","","","","","","","","","","","","","","","","","","","","","","","","","","","","","",""
"843","<p style=""color:rgb(150, 250, 100); font-size: 35px;"">本人</p>","i","categorize-html","64","533845","0.0-6.0-0.0-6.0-1.2","4","3","4","4","3","3","4","3","4","4","4","5","4","4","5","5","4","5","4","4","2","1","2","2","1","2","1","2","2","1","0","1","1","0","0","0","1","0","1","1","0","1","0","1","4","2","1","2","1","2","2","4","5","1","634787525419859968","刘","524","","","","","","","","","","","","","","","","","","","true","3","3","ability","843","self","本人","","","","","","","","","","","","","","",""
"null","","null","html-keyboard-response","65","534097","0.0-6.0-0.0-6.0-0.3","4","3","4","4","3","3","4","3","4","4","4","5","4","4","5","5","4","5","4","4","2","1","2","2","1","2","1","2","2","1","0","1","1","0","0","0","1","0","1","1","0","1","0","1","4","2","1","2","1","2","2","4","5","1","634787525419859968","刘","524","","","","","","","","","","","","","","","","","","","","","","","","","","","","","","","","","","","","","","","",""
"605","<p style=""color:white; font-size: 35px;"">无能</p>","e","categorize-html","66","534704","0.0-6.0-0.0-6.0-1.3","4","3","4","4","3","3","4","3","4","4","4","5","4","4","5","5","4","5","4","4","2","1","2","2","1","2","1","2","2","1","0","1","1","0","0","0","1","0","1","1","0","1","0","1","4","2","1","2","1","2","2","4","5","1","634787525419859968","刘","524","","","","","","","","","","","","","","","","","","","true","3","3","ability","605","negative","无能","","","","","","","","","","","","","","",""
"null","","null","html-keyboard-response","67","534956","0.0-6.0-0.0-6.0-0.4","4","3","4","4","3","3","4","3","4","4","4","5","4","4","5","5","4","5","4","4","2","1","2","2","1","2","1","2","2","1","0","1","1","0","0","0","1","0","1","1","0","1","0","1","4","2","1","2","1","2","2","4","5","1","634787525419859968","刘","524","","","","","","","","","","","","","","","","","","","","","","","","","","","","","","","","","","","","","","","",""
"671","<p style=""color:rgb(150, 250, 100); font-size: 35px;"">别人的</p>","e","categorize-html","68","535629","0.0-6.0-0.0-6.0-1.4","4","3","4","4","3","3","4","3","4","4","4","5","4","4","5","5","4","5","4","4","2","1","2","2","1","2","1","2","2","1","0","1","1","0","0","0","1","0","1","1","0","1","0","1","4","2","1","2","1","2","2","4","5","1","634787525419859968","刘","524","","","","","","","","","","","","","","","","","","","true","3","3","ability","671","other","别人的","","","","","","","","","","","","","","",""
"null","","null","html-keyboard-response","69","535880","0.0-6.0-0.0-6.0-0.5","4","3","4","4","3","3","4","3","4","4","4","5","4","4","5","5","4","5","4","4","2","1","2","2","1","2","1","2","2","1","0","1","1","0","0","0","1","0","1","1","0","1","0","1","4","2","1","2","1","2","2","4","5","1","634787525419859968","刘","524","","","","","","","","","","","","","","","","","","","","","","","","","","","","","","","","","","","","","","","",""
"769","<p style=""color:white; font-size: 35px;"">能干</p>","i","categorize-html","70","536652","0.0-6.0-0.0-6.0-1.5","4","3","4","4","3","3","4","3","4","4","4","5","4","4","5","5","4","5","4","4","2","1","2","2","1","2","1","2","2","1","0","1","1","0","0","0","1","0","1","1","0","1","0","1","4","2","1","2","1","2","2","4","5","1","634787525419859968","刘","524","","","","","","","","","","","","","","","","","","","true","3","3","ability","769","positive","能干","","","","","","","","","","","","","","",""
"null","","null","html-keyboard-response","71","536903","0.0-6.0-0.0-6.0-0.6","4","3","4","4","3","3","4","3","4","4","4","5","4","4","5","5","4","5","4","4","2","1","2","2","1","2","1","2","2","1","0","1","1","0","0","0","1","0","1","1","0","1","0","1","4","2","1","2","1","2","2","4","5","1","634787525419859968","刘","524","","","","","","","","","","","","","","","","","","","","","","","","","","","","","","","","","","","","","","","",""
"660","<p style=""color:rgb(150, 250, 100); font-size: 35px;"">自己</p>","i","categorize-html","72","537565","0.0-6.0-0.0-6.0-1.6","4","3","4","4","3","3","4","3","4","4","4","5","4","4","5","5","4","5","4","4","2","1","2","2","1","2","1","2","2","1","0","1","1","0","0","0","1","0","1","1","0","1","0","1","4","2","1","2","1","2","2","4","5","1","634787525419859968","刘","524","","","","","","","","","","","","","","","","","","","true","3","3","ability","660","self","自己","","","","","","","","","","","","","","",""
"null","","null","html-keyboard-response","73","537817","0.0-6.0-0.0-6.0-0.7","4","3","4","4","3","3","4","3","4","4","4","5","4","4","5","5","4","5","4","4","2","1","2","2","1","2","1","2","2","1","0","1","1","0","0","0","1","0","1","1","0","1","0","1","4","2","1","2","1","2","2","4","5","1","634787525419859968","刘","524","","","","","","","","","","","","","","","","","","","","","","","","","","","","","","","","","","","","","","","",""
"593","<p style=""color:white; font-size: 35px;"">蠢笨</p>","e","categorize-html","74","538411","0.0-6.0-0.0-6.0-1.7","4","3","4","4","3","3","4","3","4","4","4","5","4","4","5","5","4","5","4","4","2","1","2","2","1","2","1","2","2","1","0","1","1","0","0","0","1","0","1","1","0","1","0","1","4","2","1","2","1","2","2","4","5","1","634787525419859968","刘","524","","","","","","","","","","","","","","","","","","","true","3","3","ability","593","negative","蠢笨","","","","","","","","","","","","","","",""
"null","","null","html-keyboard-response","75","538662","0.0-6.0-0.0-6.0-0.8","4","3","4","4","3","3","4","3","4","4","4","5","4","4","5","5","4","5","4","4","2","1","2","2","1","2","1","2","2","1","0","1","1","0","0","0","1","0","1","1","0","1","0","1","4","2","1","2","1","2","2","4","5","1","634787525419859968","刘","524","","","","","","","","","","","","","","","","","","","","","","","","","","","","","","","","","","","","","","","",""
"723","<p style=""color:rgb(150, 250, 100); font-size: 35px;"">他的</p>","e","categorize-html","76","539387","0.0-6.0-0.0-6.0-1.8","4","3","4","4","3","3","4","3","4","4","4","5","4","4","5","5","4","5","4","4","2","1","2","2","1","2","1","2","2","1","0","1","1","0","0","0","1","0","1","1","0","1","0","1","4","2","1","2","1","2","2","4","5","1","634787525419859968","刘","524","","","","","","","","","","","","","","","","","","","true","3","3","ability","723","other","他的","","","","","","","","","","","","","","",""
"null","","null","html-keyboard-response","77","539638","0.0-6.0-0.0-6.0-0.9","4","3","4","4","3","3","4","3","4","4","4","5","4","4","5","5","4","5","4","4","2","1","2","2","1","2","1","2","2","1","0","1","1","0","0","0","1","0","1","1","0","1","0","1","4","2","1","2","1","2","2","4","5","1","634787525419859968","刘","524","","","","","","","","","","","","","","","","","","","","","","","","","","","","","","","","","","","","","","","",""
"611","<p style=""color:white; font-size: 35px;"">天才</p>","i","categorize-html","78","540251","0.0-6.0-0.0-6.0-1.9","4","3","4","4","3","3","4","3","4","4","4","5","4","4","5","5","4","5","4","4","2","1","2","2","1","2","1","2","2","1","0","1","1","0","0","0","1","0","1","1","0","1","0","1","4","2","1","2","1","2","2","4","5","1","634787525419859968","刘","524","","","","","","","","","","","","","","","","","","","true","3","3","ability","611","positive","天才","","","","","","","","","","","","","","",""
"null","","null","html-keyboard-response","79","540503","0.0-6.0-0.0-6.0-0.10","4","3","4","4","3","3","4","3","4","4","4","5","4","4","5","5","4","5","4","4","2","1","2","2","1","2","1","2","2","1","0","1","1","0","0","0","1","0","1","1","0","1","0","1","4","2","1","2","1","2","2","4","5","1","634787525419859968","刘","524","","","","","","","","","","","","","","","","","","","","","","","","","","","","","","","","","","","","","","","",""
"594","<p style=""color:rgb(150, 250, 100); font-size: 35px;"">本人的</p>","i","categorize-html","80","541099","0.0-6.0-0.0-6.0-1.10","4","3","4","4","3","3","4","3","4","4","4","5","4","4","5","5","4","5","4","4","2","1","2","2","1","2","1","2","2","1","0","1","1","0","0","0","1","0","1","1","0","1","0","1","4","2","1","2","1","2","2","4","5","1","634787525419859968","刘","524","","","","","","","","","","","","","","","","","","","true","3","3","ability","594","self","本人的","","","","","","","","","","","","","","",""
"null","","null","html-keyboard-response","81","541350","0.0-6.0-0.0-6.0-0.11","4","3","4","4","3","3","4","3","4","4","4","5","4","4","5","5","4","5","4","4","2","1","2","2","1","2","1","2","2","1","0","1","1","0","0","0","1","0","1","1","0","1","0","1","4","2","1","2","1","2","2","4","5","1","634787525419859968","刘","524","","","","","","","","","","","","","","","","","","","","","","","","","","","","","","","","","","","","","","","",""
"602","<p style=""color:white; font-size: 35px;"">拙笨</p>","e","categorize-html","82","541954","0.0-6.0-0.0-6.0-1.11","4","3","4","4","3","3","4","3","4","4","4","5","4","4","5","5","4","5","4","4","2","1","2","2","1","2","1","2","2","1","0","1","1","0","0","0","1","0","1","1","0","1","0","1","4","2","1","2","1","2","2","4","5","1","634787525419859968","刘","524","","","","","","","","","","","","","","","","","","","true","3","3","ability","602","negative","拙笨","","","","","","","","","","","","","","",""
"null","","null","html-keyboard-response","83","542206","0.0-6.0-0.0-6.0-0.12","4","3","4","4","3","3","4","3","4","4","4","5","4","4","5","5","4","5","4","4","2","1","2","2","1","2","1","2","2","1","0","1","1","0","0","0","1","0","1","1","0","1","0","1","4","2","1","2","1","2","2","4","5","1","634787525419859968","刘","524","","","","","","","","","","","","","","","","","","","","","","","","","","","","","","","","","","","","","","","",""
"730","<p style=""color:rgb(150, 250, 100); font-size: 35px;"">别人</p>","e","categorize-html","84","542938","0.0-6.0-0.0-6.0-1.12","4","3","4","4","3","3","4","3","4","4","4","5","4","4","5","5","4","5","4","4","2","1","2","2","1","2","1","2","2","1","0","1","1","0","0","0","1","0","1","1","0","1","0","1","4","2","1","2","1","2","2","4","5","1","634787525419859968","刘","524","","","","","","","","","","","","","","","","","","","true","3","3","ability","730","other","别人","","","","","","","","","","","","","","",""
"null","","null","html-keyboard-response","85","543190","0.0-6.0-0.0-6.0-0.13","4","3","4","4","3","3","4","3","4","4","4","5","4","4","5","5","4","5","4","4","2","1","2","2","1","2","1","2","2","1","0","1","1","0","0","0","1","0","1","1","0","1","0","1","4","2","1","2","1","2","2","4","5","1","634787525419859968","刘","524","","","","","","","","","","","","","","","","","","","","","","","","","","","","","","","","","","","","","","","",""
"990","<p style=""color:white; font-size: 35px;"">精干</p>","i","categorize-html","86","544182","0.0-6.0-0.0-6.0-1.13","4","3","4","4","3","3","4","3","4","4","4","5","4","4","5","5","4","5","4","4","2","1","2","2","1","2","1","2","2","1","0","1","1","0","0","0","1","0","1","1","0","1","0","1","4","2","1","2","1","2","2","4","5","1","634787525419859968","刘","524","","","","","","","","","","","","","","","","","","","true","3","3","ability","990","positive","精干","","","","","","","","","","","","","","",""
"null","","null","html-keyboard-response","87","544434","0.0-6.0-0.0-6.0-0.14","4","3","4","4","3","3","4","3","4","4","4","5","4","4","5","5","4","5","4","4","2","1","2","2","1","2","1","2","2","1","0","1","1","0","0","0","1","0","1","1","0","1","0","1","4","2","1","2","1","2","2","4","5","1","634787525419859968","刘","524","","","","","","","","","","","","","","","","","","","","","","","","","","","","","","","","","","","","","","","",""
"689","<p style=""color:rgb(150, 250, 100); font-size: 35px;"">我的</p>","i","categorize-html","88","545125","0.0-6.0-0.0-6.0-1.14","4","3","4","4","3","3","4","3","4","4","4","5","4","4","5","5","4","5","4","4","2","1","2","2","1","2","1","2","2","1","0","1","1","0","0","0","1","0","1","1","0","1","0","1","4","2","1","2","1","2","2","4","5","1","634787525419859968","刘","524","","","","","","","","","","","","","","","","","","","true","3","3","ability","689","self","我的","","","","","","","","","","","","","","",""
"null","","null","html-keyboard-response","89","545376","0.0-6.0-0.0-6.0-0.15","4","3","4","4","3","3","4","3","4","4","4","5","4","4","5","5","4","5","4","4","2","1","2","2","1","2","1","2","2","1","0","1","1","0","0","0","1","0","1","1","0","1","0","1","4","2","1","2","1","2","2","4","5","1","634787525419859968","刘","524","","","","","","","","","","","","","","","","","","","","","","","","","","","","","","","","","","","","","","","",""
"558","<p style=""color:white; font-size: 35px;"">低能</p>","e","categorize-html","90","545936","0.0-6.0-0.0-6.0-1.15","4","3","4","4","3","3","4","3","4","4","4","5","4","4","5","5","4","5","4","4","2","1","2","2","1","2","1","2","2","1","0","1","1","0","0","0","1","0","1","1","0","1","0","1","4","2","1","2","1","2","2","4","5","1","634787525419859968","刘","524","","","","","","","","","","","","","","","","","","","true","3","3","ability","558","negative","低能","","","","","","","","","","","","","","",""
"null","","null","html-keyboard-response","91","546200","0.0-6.0-0.0-6.0-0.16","4","3","4","4","3","3","4","3","4","4","4","5","4","4","5","5","4","5","4","4","2","1","2","2","1","2","1","2","2","1","0","1","1","0","0","0","1","0","1","1","0","1","0","1","4","2","1","2","1","2","2","4","5","1","634787525419859968","刘","524","","","","","","","","","","","","","","","","","","","","","","","","","","","","","","","","","","","","","","","",""
"549","<p style=""color:rgb(150, 250, 100); font-size: 35px;"">他</p>","e","categorize-html","92","546752","0.0-6.0-0.0-6.0-1.16","4","3","4","4","3","3","4","3","4","4","4","5","4","4","5","5","4","5","4","4","2","1","2","2","1","2","1","2","2","1","0","1","1","0","0","0","1","0","1","1","0","1","0","1","4","2","1","2","1","2","2","4","5","1","634787525419859968","刘","524","","","","","","","","","","","","","","","","","","","true","3","3","ability","549","other","他","","","","","","","","","","","","","","",""
"null","","null","html-keyboard-response","93","547003","0.0-6.0-0.0-6.0-0.17","4","3","4","4","3","3","4","3","4","4","4","5","4","4","5","5","4","5","4","4","2","1","2","2","1","2","1","2","2","1","0","1","1","0","0","0","1","0","1","1","0","1","0","1","4","2","1","2","1","2","2","4","5","1","634787525419859968","刘","524","","","","","","","","","","","","","","","","","","","","","","","","","","","","","","","","","","","","","","","",""
"677","<p style=""color:white; font-size: 35px;"">全才</p>","i","categorize-html","94","547682","0.0-6.0-0.0-6.0-1.17","4","3","4","4","3","3","4","3","4","4","4","5","4","4","5","5","4","5","4","4","2","1","2","2","1","2","1","2","2","1","0","1","1","0","0","0","1","0","1","1","0","1","0","1","4","2","1","2","1","2","2","4","5","1","634787525419859968","刘","524","","","","","","","","","","","","","","","","","","","true","3","3","ability","677","positive","全才","","","","","","","","","","","","","","",""
"null","","null","html-keyboard-response","95","547933","0.0-6.0-0.0-6.0-0.18","4","3","4","4","3","3","4","3","4","4","4","5","4","4","5","5","4","5","4","4","2","1","2","2","1","2","1","2","2","1","0","1","1","0","0","0","1","0","1","1","0","1","0","1","4","2","1","2","1","2","2","4","5","1","634787525419859968","刘","524","","","","","","","","","","","","","","","","","","","","","","","","","","","","","","","","","","","","","","","",""
"569","<p style=""color:rgb(150, 250, 100); font-size: 35px;"">我</p>","i","categorize-html","96","548504","0.0-6.0-0.0-6.0-1.18","4","3","4","4","3","3","4","3","4","4","4","5","4","4","5","5","4","5","4","4","2","1","2","2","1","2","1","2","2","1","0","1","1","0","0","0","1","0","1","1","0","1","0","1","4","2","1","2","1","2","2","4","5","1","634787525419859968","刘","524","","","","","","","","","","","","","","","","","","","true","3","3","ability","569","self","我","","","","","","","","","","","","","","",""
"null","","null","html-keyboard-response","97","548755","0.0-6.0-0.0-6.0-0.19","4","3","4","4","3","3","4","3","4","4","4","5","4","4","5","5","4","5","4","4","2","1","2","2","1","2","1","2","2","1","0","1","1","0","0","0","1","0","1","1","0","1","0","1","4","2","1","2","1","2","2","4","5","1","634787525419859968","刘","524","","","","","","","","","","","","","","","","","","","","","","","","","","","","","","","","","","","","","","","",""
"602","<p style=""color:white; font-size: 35px;"">废物</p>","e","categorize-html","98","549359","0.0-6.0-0.0-6.0-1.19","4","3","4","4","3","3","4","3","4","4","4","5","4","4","5","5","4","5","4","4","2","1","2","2","1","2","1","2","2","1","0","1","1","0","0","0","1","0","1","1","0","1","0","1","4","2","1","2","1","2","2","4","5","1","634787525419859968","刘","524","","","","","","","","","","","","","","","","","","","true","3","3","ability","602","negative","废物","","","","","","","","","","","","","","",""
"null","","null","html-keyboard-response","99","549611","0.0-6.0-0.0-6.0-0.20","4","3","4","4","3","3","4","3","4","4","4","5","4","4","5","5","4","5","4","4","2","1","2","2","1","2","1","2","2","1","0","1","1","0","0","0","1","0","1","1","0","1","0","1","4","2","1","2","1","2","2","4","5","1","634787525419859968","刘","524","","","","","","","","","","","","","","","","","","","","","","","","","","","","","","","","","","","","","","","",""
"644","<p style=""color:rgb(150, 250, 100); font-size: 35px;"">他人的</p>","e","categorize-html","100","550257","0.0-6.0-0.0-6.0-1.20","4","3","4","4","3","3","4","3","4","4","4","5","4","4","5","5","4","5","4","4","2","1","2","2","1","2","1","2","2","1","0","1","1","0","0","0","1","0","1","1","0","1","0","1","4","2","1","2","1","2","2","4","5","1","634787525419859968","刘","524","","","","","","","","","","","","","","","","","","","true","3","3","ability","644","other","他人的","","","","","","","","","","","","","","",""
"null","","null","html-keyboard-response","101","550508","0.0-6.0-0.0-6.0-0.21","4","3","4","4","3","3","4","3","4","4","4","5","4","4","5","5","4","5","4","4","2","1","2","2","1","2","1","2","2","1","0","1","1","0","0","0","1","0","1","1","0","1","0","1","4","2","1","2","1","2","2","4","5","1","634787525419859968","刘","524","","","","","","","","","","","","","","","","","","","","","","","","","","","","","","","","","","","","","","","",""
"908","<p style=""color:white; font-size: 35px;"">愚钝</p>","e","categorize-html","102","551418","0.0-6.0-0.0-6.0-1.21","4","3","4","4","3","3","4","3","4","4","4","5","4","4","5","5","4","5","4","4","2","1","2","2","1","2","1","2","2","1","0","1","1","0","0","0","1","0","1","1","0","1","0","1","4","2","1","2","1","2","2","4","5","1","634787525419859968","刘","524","","","","","","","","","","","","","","","","","","","true","3","3","ability","908","negative","愚钝","","","","","","","","","","","","","","",""
"null","","null","html-keyboard-response","103","551669","0.0-6.0-0.0-6.0-0.22","4","3","4","4","3","3","4","3","4","4","4","5","4","4","5","5","4","5","4","4","2","1","2","2","1","2","1","2","2","1","0","1","1","0","0","0","1","0","1","1","0","1","0","1","4","2","1","2","1","2","2","4","5","1","634787525419859968","刘","524","","","","","","","","","","","","","","","","","","","","","","","","","","","","","","","","","","","","","","","",""
"834","<p style=""color:rgb(150, 250, 100); font-size: 35px;"">自己的</p>","i","categorize-html","104","552505","0.0-6.0-0.0-6.0-1.22","4","3","4","4","3","3","4","3","4","4","4","5","4","4","5","5","4","5","4","4","2","1","2","2","1","2","1","2","2","1","0","1","1","0","0","0","1","0","1","1","0","1","0","1","4","2","1","2","1","2","2","4","5","1","634787525419859968","刘","524","","","","","","","","","","","","","","","","","","","true","3","3","ability","834","self","自己的","","","","","","","","","","","","","","",""
"null","","null","html-keyboard-response","105","552756","0.0-6.0-0.0-6.0-0.23","4","3","4","4","3","3","4","3","4","4","4","5","4","4","5","5","4","5","4","4","2","1","2","2","1","2","1","2","2","1","0","1","1","0","0","0","1","0","1","1","0","1","0","1","4","2","1","2","1","2","2","4","5","1","634787525419859968","刘","524","","","","","","","","","","","","","","","","","","","","","","","","","","","","","","","","","","","","","","","",""
"611","<p style=""color:white; font-size: 35px;"">全能</p>","i","categorize-html","106","553369","0.0-6.0-0.0-6.0-1.23","4","3","4","4","3","3","4","3","4","4","4","5","4","4","5","5","4","5","4","4","2","1","2","2","1","2","1","2","2","1","0","1","1","0","0","0","1","0","1","1","0","1","0","1","4","2","1","2","1","2","2","4","5","1","634787525419859968","刘","524","","","","","","","","","","","","","","","","","","","true","3","3","ability","611","positive","全能","","","","","","","","","","","","","","",""
"2149","
    <div class=""tag-bottom""><p>
    —— 任务4：对“他人/消极”词和“自我/积极”词分类 ——<p/>
    <span style=""color:#78DCE8""><b>与刚才的任务完全相同，请再次对这四类词语分类</b></span><p/>
    <span style=""color:#FFD866""><b>请根据上方标签的提示，尽可能正确并且快速地做出按键反应</b></span><p/>
    当按键错误时屏幕中会出现<span style=""color:red""> X </span>，需要按另一个键纠正才能继续<br/><p/>
    请把双手食指分别放在键盘的“E”键和“I”键上<p/>
    按<空格键>开始
    </p></div>"," ","html-keyboard-response","107","555519","0.0-6.0-0.0-7.0","4","3","4","4","3","3","4","3","4","4","4","5","4","4","5","5","4","5","4","4","2","1","2","2","1","2","1","2","2","1","0","1","1","0","0","0","1","0","1","1","0","1","0","1","4","2","1","2","1","2","2","4","5","1","634787525419859968","刘","524","","","","","","","","","","","","","","","","","","","","","","","","","","","","","","","","","","","","","","","",""
"null","","null","html-keyboard-response","108","555769","0.0-6.0-0.0-8.0-0.0","4","3","4","4","3","3","4","3","4","4","4","5","4","4","5","5","4","5","4","4","2","1","2","2","1","2","1","2","2","1","0","1","1","0","0","0","1","0","1","1","0","1","0","1","4","2","1","2","1","2","2","4","5","1","634787525419859968","刘","524","","","","","","","","","","","","","","","","","","","","","","","","","","","","","","","","","","","","","","","",""
"569","<p style=""color:rgb(150, 250, 100); font-size: 35px;"">我</p>","i","categorize-html","109","556341","0.0-6.0-0.0-8.0-1.0","4","3","4","4","3","3","4","3","4","4","4","5","4","4","5","5","4","5","4","4","2","1","2","2","1","2","1","2","2","1","0","1","1","0","0","0","1","0","1","1","0","1","0","1","4","2","1","2","1","2","2","4","5","1","634787525419859968","刘","524","","","","","","","","","","","","","","","","","","","true","4","4","ability","569","self","我","","","","","","","","","","","","","","",""
"null","","null","html-keyboard-response","110","556593","0.0-6.0-0.0-8.0-0.1","4","3","4","4","3","3","4","3","4","4","4","5","4","4","5","5","4","5","4","4","2","1","2","2","1","2","1","2","2","1","0","1","1","0","0","0","1","0","1","1","0","1","0","1","4","2","1","2","1","2","2","4","5","1","634787525419859968","刘","524","","","","","","","","","","","","","","","","","","","","","","","","","","","","","","","","","","","","","","","",""
"454","<p style=""color:white; font-size: 35px;"">低能</p>","i","categorize-html","111","557440","0.0-6.0-0.0-8.0-1.1","4","3","4","4","3","3","4","3","4","4","4","5","4","4","5","5","4","5","4","4","2","1","2","2","1","2","1","2","2","1","0","1","1","0","0","0","1","0","1","1","0","1","0","1","4","2","1","2","1","2","2","4","5","1","634787525419859968","刘","524","","","","","","","","","","","","","","","","","","","false","4","4","ability","1333.2666666666667","negative","低能","","","","","","","","","","","","","","",""
"null","","null","html-keyboard-response","112","557692","0.0-6.0-0.0-8.0-0.2","4","3","4","4","3","3","4","3","4","4","4","5","4","4","5","5","4","5","4","4","2","1","2","2","1","2","1","2","2","1","0","1","1","0","0","0","1","0","1","1","0","1","0","1","4","2","1","2","1","2","2","4","5","1","634787525419859968","刘","524","","","","","","","","","","","","","","","","","","","","","","","","","","","","","","","","","","","","","","","",""
"816","<p style=""color:rgb(150, 250, 100); font-size: 35px;"">别人</p>","e","categorize-html","113","558510","0.0-6.0-0.0-8.0-1.2","4","3","4","4","3","3","4","3","4","4","4","5","4","4","5","5","4","5","4","4","2","1","2","2","1","2","1","2","2","1","0","1","1","0","0","0","1","0","1","1","0","1","0","1","4","2","1","2","1","2","2","4","5","1","634787525419859968","刘","524","","","","","","","","","","","","","","","","","","","true","4","4","ability","816","other","别人","","","","","","","","","","","","","","",""
"null","","null","html-keyboard-response","114","558761","0.0-6.0-0.0-8.0-0.3","4","3","4","4","3","3","4","3","4","4","4","5","4","4","5","5","4","5","4","4","2","1","2","2","1","2","1","2","2","1","0","1","1","0","0","0","1","0","1","1","0","1","0","1","4","2","1","2","1","2","2","4","5","1","634787525419859968","刘","524","","","","","","","","","","","","","","","","","","","","","","","","","","","","","","","","","","","","","","","",""
"670","<p style=""color:white; font-size: 35px;"">高效</p>","i","categorize-html","115","559434","0.0-6.0-0.0-8.0-1.3","4","3","4","4","3","3","4","3","4","4","4","5","4","4","5","5","4","5","4","4","2","1","2","2","1","2","1","2","2","1","0","1","1","0","0","0","1","0","1","1","0","1","0","1","4","2","1","2","1","2","2","4","5","1","634787525419859968","刘","524","","","","","","","","","","","","","","","","","","","true","4","4","ability","670","positive","高效","","","","","","","","","","","","","","",""
"null","","null","html-keyboard-response","116","559684","0.0-6.0-0.0-8.0-0.4","4","3","4","4","3","3","4","3","4","4","4","5","4","4","5","5","4","5","4","4","2","1","2","2","1","2","1","2","2","1","0","1","1","0","0","0","1","0","1","1","0","1","0","1","4","2","1","2","1","2","2","4","5","1","634787525419859968","刘","524","","","","","","","","","","","","","","","","","","","","","","","","","","","","","","","","","","","","","","","",""
"614","<p style=""color:rgb(150, 250, 100); font-size: 35px;"">他人</p>","e","categorize-html","117","560300","0.0-6.0-0.0-8.0-1.4","4","3","4","4","3","3","4","3","4","4","4","5","4","4","5","5","4","5","4","4","2","1","2","2","1","2","1","2","2","1","0","1","1","0","0","0","1","0","1","1","0","1","0","1","4","2","1","2","1","2","2","4","5","1","634787525419859968","刘","524","","","","","","","","","","","","","","","","","","","true","4","4","ability","614","other","他人","","","","","","","","","","","","","","",""
"null","","null","html-keyboard-response","118","560551","0.0-6.0-0.0-8.0-0.5","4","3","4","4","3","3","4","3","4","4","4","5","4","4","5","5","4","5","4","4","2","1","2","2","1","2","1","2","2","1","0","1","1","0","0","0","1","0","1","1","0","1","0","1","4","2","1","2","1","2","2","4","5","1","634787525419859968","刘","524","","","","","","","","","","","","","","","","","","","","","","","","","","","","","","","","","","","","","","","",""
"802","<p style=""color:white; font-size: 35px;"">拙笨</p>","e","categorize-html","119","561356","0.0-6.0-0.0-8.0-1.5","4","3","4","4","3","3","4","3","4","4","4","5","4","4","5","5","4","5","4","4","2","1","2","2","1","2","1","2","2","1","0","1","1","0","0","0","1","0","1","1","0","1","0","1","4","2","1","2","1","2","2","4","5","1","634787525419859968","刘","524","","","","","","","","","","","","","","","","","","","true","4","4","ability","802","negative","拙笨","","","","","","","","","","","","","","",""
"null","","null","html-keyboard-response","120","561607","0.0-6.0-0.0-8.0-0.6","4","3","4","4","3","3","4","3","4","4","4","5","4","4","5","5","4","5","4","4","2","1","2","2","1","2","1","2","2","1","0","1","1","0","0","0","1","0","1","1","0","1","0","1","4","2","1","2","1","2","2","4","5","1","634787525419859968","刘","524","","","","","","","","","","","","","","","","","","","","","","","","","","","","","","","","","","","","","","","",""
"566","<p style=""color:rgb(150, 250, 100); font-size: 35px;"">我的</p>","i","categorize-html","121","562176","0.0-6.0-0.0-8.0-1.6","4","3","4","4","3","3","4","3","4","4","4","5","4","4","5","5","4","5","4","4","2","1","2","2","1","2","1","2","2","1","0","1","1","0","0","0","1","0","1","1","0","1","0","1","4","2","1","2","1","2","2","4","5","1","634787525419859968","刘","524","","","","","","","","","","","","","","","","","","","true","4","4","ability","566","self","我的","","","","","","","","","","","","","","",""
"null","","null","html-keyboard-response","122","562440","0.0-6.0-0.0-8.0-0.7","4","3","4","4","3","3","4","3","4","4","4","5","4","4","5","5","4","5","4","4","2","1","2","2","1","2","1","2","2","1","0","1","1","0","0","0","1","0","1","1","0","1","0","1","4","2","1","2","1","2","2","4","5","1","634787525419859968","刘","524","","","","","","","","","","","","","","","","","","","","","","","","","","","","","","","","","","","","","","","",""
"638","<p style=""color:white; font-size: 35px;"">能干</p>","i","categorize-html","123","563080","0.0-6.0-0.0-8.0-1.7","4","3","4","4","3","3","4","3","4","4","4","5","4","4","5","5","4","5","4","4","2","1","2","2","1","2","1","2","2","1","0","1","1","0","0","0","1","0","1","1","0","1","0","1","4","2","1","2","1","2","2","4","5","1","634787525419859968","刘","524","","","","","","","","","","","","","","","","","","","true","4","4","ability","638","positive","能干","","","","","","","","","","","","","","",""
"null","","null","html-keyboard-response","124","563331","0.0-6.0-0.0-8.0-0.8","4","3","4","4","3","3","4","3","4","4","4","5","4","4","5","5","4","5","4","4","2","1","2","2","1","2","1","2","2","1","0","1","1","0","0","0","1","0","1","1","0","1","0","1","4","2","1","2","1","2","2","4","5","1","634787525419859968","刘","524","","","","","","","","","","","","","","","","","","","","","","","","","","","","","","","","","","","","","","","",""
"665","<p style=""color:rgb(150, 250, 100); font-size: 35px;"">本人</p>","i","categorize-html","125","563998","0.0-6.0-0.0-8.0-1.8","4","3","4","4","3","3","4","3","4","4","4","5","4","4","5","5","4","5","4","4","2","1","2","2","1","2","1","2","2","1","0","1","1","0","0","0","1","0","1","1","0","1","0","1","4","2","1","2","1","2","2","4","5","1","634787525419859968","刘","524","","","","","","","","","","","","","","","","","","","true","4","4","ability","665","self","本人","","","","","","","","","","","","","","",""
"null","","null","html-keyboard-response","126","564249","0.0-6.0-0.0-8.0-0.9","4","3","4","4","3","3","4","3","4","4","4","5","4","4","5","5","4","5","4","4","2","1","2","2","1","2","1","2","2","1","0","1","1","0","0","0","1","0","1","1","0","1","0","1","4","2","1","2","1","2","2","4","5","1","634787525419859968","刘","524","","","","","","","","","","","","","","","","","","","","","","","","","","","","","","","","","","","","","","","",""
"610","<p style=""color:white; font-size: 35px;"">废物</p>","e","categorize-html","127","564864","0.0-6.0-0.0-8.0-1.9","4","3","4","4","3","3","4","3","4","4","4","5","4","4","5","5","4","5","4","4","2","1","2","2","1","2","1","2","2","1","0","1","1","0","0","0","1","0","1","1","0","1","0","1","4","2","1","2","1","2","2","4","5","1","634787525419859968","刘","524","","","","","","","","","","","","","","","","","","","true","4","4","ability","610","negative","废物","","","","","","","","","","","","","","",""
"null","","null","html-keyboard-response","128","565115","0.0-6.0-0.0-8.0-0.10","4","3","4","4","3","3","4","3","4","4","4","5","4","4","5","5","4","5","4","4","2","1","2","2","1","2","1","2","2","1","0","1","1","0","0","0","1","0","1","1","0","1","0","1","4","2","1","2","1","2","2","4","5","1","634787525419859968","刘","524","","","","","","","","","","","","","","","","","","","","","","","","","","","","","","","","","","","","","","","",""
"797","<p style=""color:rgb(150, 250, 100); font-size: 35px;"">他人的</p>","e","categorize-html","129","565914","0.0-6.0-0.0-8.0-1.10","4","3","4","4","3","3","4","3","4","4","4","5","4","4","5","5","4","5","4","4","2","1","2","2","1","2","1","2","2","1","0","1","1","0","0","0","1","0","1","1","0","1","0","1","4","2","1","2","1","2","2","4","5","1","634787525419859968","刘","524","","","","","","","","","","","","","","","","","","","true","4","4","ability","797","other","他人的","","","","","","","","","","","","","","",""
"null","","null","html-keyboard-response","130","566165","0.0-6.0-0.0-8.0-0.11","4","3","4","4","3","3","4","3","4","4","4","5","4","4","5","5","4","5","4","4","2","1","2","2","1","2","1","2","2","1","0","1","1","0","0","0","1","0","1","1","0","1","0","1","4","2","1","2","1","2","2","4","5","1","634787525419859968","刘","524","","","","","","","","","","","","","","","","","","","","","","","","","","","","","","","","","","","","","","","",""
"528","<p style=""color:white; font-size: 35px;"">天才</p>","i","categorize-html","131","566696","0.0-6.0-0.0-8.0-1.11","4","3","4","4","3","3","4","3","4","4","4","5","4","4","5","5","4","5","4","4","2","1","2","2","1","2","1","2","2","1","0","1","1","0","0","0","1","0","1","1","0","1","0","1","4","2","1","2","1","2","2","4","5","1","634787525419859968","刘","524","","","","","","","","","","","","","","","","","","","true","4","4","ability","528","positive","天才","","","","","","","","","","","","","","",""
"null","","null","html-keyboard-response","132","566947","0.0-6.0-0.0-8.0-0.12","4","3","4","4","3","3","4","3","4","4","4","5","4","4","5","5","4","5","4","4","2","1","2","2","1","2","1","2","2","1","0","1","1","0","0","0","1","0","1","1","0","1","0","1","4","2","1","2","1","2","2","4","5","1","634787525419859968","刘","524","","","","","","","","","","","","","","","","","","","","","","","","","","","","","","","","","","","","","","","",""
"600","<p style=""color:rgb(150, 250, 100); font-size: 35px;"">本人</p>","i","categorize-html","133","567549","0.0-6.0-0.0-8.0-1.12","4","3","4","4","3","3","4","3","4","4","4","5","4","4","5","5","4","5","4","4","2","1","2","2","1","2","1","2","2","1","0","1","1","0","0","0","1","0","1","1","0","1","0","1","4","2","1","2","1","2","2","4","5","1","634787525419859968","刘","524","","","","","","","","","","","","","","","","","","","true","4","4","ability","600","self","本人","","","","","","","","","","","","","","",""
"null","","null","html-keyboard-response","134","567801","0.0-6.0-0.0-8.0-0.13","4","3","4","4","3","3","4","3","4","4","4","5","4","4","5","5","4","5","4","4","2","1","2","2","1","2","1","2","2","1","0","1","1","0","0","0","1","0","1","1","0","1","0","1","4","2","1","2","1","2","2","4","5","1","634787525419859968","刘","524","","","","","","","","","","","","","","","","","","","","","","","","","","","","","","","","","","","","","","","",""
"836","<p style=""color:white; font-size: 35px;"">全才</p>","i","categorize-html","135","568639","0.0-6.0-0.0-8.0-1.13","4","3","4","4","3","3","4","3","4","4","4","5","4","4","5","5","4","5","4","4","2","1","2","2","1","2","1","2","2","1","0","1","1","0","0","0","1","0","1","1","0","1","0","1","4","2","1","2","1","2","2","4","5","1","634787525419859968","刘","524","","","","","","","","","","","","","","","","","","","true","4","4","ability","836","positive","全才","","","","","","","","","","","","","","",""
"null","","null","html-keyboard-response","136","568891","0.0-6.0-0.0-8.0-0.14","4","3","4","4","3","3","4","3","4","4","4","5","4","4","5","5","4","5","4","4","2","1","2","2","1","2","1","2","2","1","0","1","1","0","0","0","1","0","1","1","0","1","0","1","4","2","1","2","1","2","2","4","5","1","634787525419859968","刘","524","","","","","","","","","","","","","","","","","","","","","","","","","","","","","","","","","","","","","","","",""
"737","<p style=""color:rgb(150, 250, 100); font-size: 35px;"">别人</p>","e","categorize-html","137","569630","0.0-6.0-0.0-8.0-1.14","4","3","4","4","3","3","4","3","4","4","4","5","4","4","5","5","4","5","4","4","2","1","2","2","1","2","1","2","2","1","0","1","1","0","0","0","1","0","1","1","0","1","0","1","4","2","1","2","1","2","2","4","5","1","634787525419859968","刘","524","","","","","","","","","","","","","","","","","","","true","4","4","ability","737","other","别人","","","","","","","","","","","","","","",""
"null","","null","html-keyboard-response","138","569880","0.0-6.0-0.0-8.0-0.15","4","3","4","4","3","3","4","3","4","4","4","5","4","4","5","5","4","5","4","4","2","1","2","2","1","2","1","2","2","1","0","1","1","0","0","0","1","0","1","1","0","1","0","1","4","2","1","2","1","2","2","4","5","1","634787525419859968","刘","524","","","","","","","","","","","","","","","","","","","","","","","","","","","","","","","","","","","","","","","",""
"636","<p style=""color:white; font-size: 35px;"">愚钝</p>","i","categorize-html","139","571082","0.0-6.0-0.0-8.0-1.15","4","3","4","4","3","3","4","3","4","4","4","5","4","4","5","5","4","5","4","4","2","1","2","2","1","2","1","2","2","1","0","1","1","0","0","0","1","0","1","1","0","1","0","1","4","2","1","2","1","2","2","4","5","1","634787525419859968","刘","524","","","","","","","","","","","","","","","","","","","false","4","4","ability","1333.2666666666667","negative","愚钝","","","","","","","","","","","","","","",""
"null","","null","html-keyboard-response","140","571333","0.0-6.0-0.0-8.0-0.16","4","3","4","4","3","3","4","3","4","4","4","5","4","4","5","5","4","5","4","4","2","1","2","2","1","2","1","2","2","1","0","1","1","0","0","0","1","0","1","1","0","1","0","1","4","2","1","2","1","2","2","4","5","1","634787525419859968","刘","524","","","","","","","","","","","","","","","","","","","","","","","","","","","","","","","","","","","","","","","",""
"739","<p style=""color:rgb(150, 250, 100); font-size: 35px;"">他</p>","e","categorize-html","141","572076","0.0-6.0-0.0-8.0-1.16","4","3","4","4","3","3","4","3","4","4","4","5","4","4","5","5","4","5","4","4","2","1","2","2","1","2","1","2","2","1","0","1","1","0","0","0","1","0","1","1","0","1","0","1","4","2","1","2","1","2","2","4","5","1","634787525419859968","刘","524","","","","","","","","","","","","","","","","","","","true","4","4","ability","739","other","他","","","","","","","","","","","","","","",""
"null","","null","html-keyboard-response","142","572328","0.0-6.0-0.0-8.0-0.17","4","3","4","4","3","3","4","3","4","4","4","5","4","4","5","5","4","5","4","4","2","1","2","2","1","2","1","2","2","1","0","1","1","0","0","0","1","0","1","1","0","1","0","1","4","2","1","2","1","2","2","4","5","1","634787525419859968","刘","524","","","","","","","","","","","","","","","","","","","","","","","","","","","","","","","","","","","","","","","",""
"902","<p style=""color:white; font-size: 35px;"">无能</p>","e","categorize-html","143","573232","0.0-6.0-0.0-8.0-1.17","4","3","4","4","3","3","4","3","4","4","4","5","4","4","5","5","4","5","4","4","2","1","2","2","1","2","1","2","2","1","0","1","1","0","0","0","1","0","1","1","0","1","0","1","4","2","1","2","1","2","2","4","5","1","634787525419859968","刘","524","","","","","","","","","","","","","","","","","","","true","4","4","ability","902","negative","无能","","","","","","","","","","","","","","",""
"null","","null","html-keyboard-response","144","573496","0.0-6.0-0.0-8.0-0.18","4","3","4","4","3","3","4","3","4","4","4","5","4","4","5","5","4","5","4","4","2","1","2","2","1","2","1","2","2","1","0","1","1","0","0","0","1","0","1","1","0","1","0","1","4","2","1","2","1","2","2","4","5","1","634787525419859968","刘","524","","","","","","","","","","","","","","","","","","","","","","","","","","","","","","","","","","","","","","","",""
"592","<p style=""color:rgb(150, 250, 100); font-size: 35px;"">本人的</p>","i","categorize-html","145","574090","0.0-6.0-0.0-8.0-1.18","4","3","4","4","3","3","4","3","4","4","4","5","4","4","5","5","4","5","4","4","2","1","2","2","1","2","1","2","2","1","0","1","1","0","0","0","1","0","1","1","0","1","0","1","4","2","1","2","1","2","2","4","5","1","634787525419859968","刘","524","","","","","","","","","","","","","","","","","","","true","4","4","ability","592","self","本人的","","","","","","","","","","","","","","",""
"null","","null","html-keyboard-response","146","574340","0.0-6.0-0.0-8.0-0.19","4","3","4","4","3","3","4","3","4","4","4","5","4","4","5","5","4","5","4","4","2","1","2","2","1","2","1","2","2","1","0","1","1","0","0","0","1","0","1","1","0","1","0","1","4","2","1","2","1","2","2","4","5","1","634787525419859968","刘","524","","","","","","","","","","","","","","","","","","","","","","","","","","","","","","","","","","","","","","","",""
"730","<p style=""color:white; font-size: 35px;"">全能</p>","i","categorize-html","147","575072","0.0-6.0-0.0-8.0-1.19","4","3","4","4","3","3","4","3","4","4","4","5","4","4","5","5","4","5","4","4","2","1","2","2","1","2","1","2","2","1","0","1","1","0","0","0","1","0","1","1","0","1","0","1","4","2","1","2","1","2","2","4","5","1","634787525419859968","刘","524","","","","","","","","","","","","","","","","","","","true","4","4","ability","730","positive","全能","","","","","","","","","","","","","","",""
"null","","null","html-keyboard-response","148","575324","0.0-6.0-0.0-8.0-0.20","4","3","4","4","3","3","4","3","4","4","4","5","4","4","5","5","4","5","4","4","2","1","2","2","1","2","1","2","2","1","0","1","1","0","0","0","1","0","1","1","0","1","0","1","4","2","1","2","1","2","2","4","5","1","634787525419859968","刘","524","","","","","","","","","","","","","","","","","","","","","","","","","","","","","","","","","","","","","","","",""
"534","<p style=""color:rgb(150, 250, 100); font-size: 35px;"">我</p>","i","categorize-html","149","575860","0.0-6.0-0.0-8.0-1.20","4","3","4","4","3","3","4","3","4","4","4","5","4","4","5","5","4","5","4","4","2","1","2","2","1","2","1","2","2","1","0","1","1","0","0","0","1","0","1","1","0","1","0","1","4","2","1","2","1","2","2","4","5","1","634787525419859968","刘","524","","","","","","","","","","","","","","","","","","","true","4","4","ability","534","self","我","","","","","","","","","","","","","","",""
"null","","null","html-keyboard-response","150","576112","0.0-6.0-0.0-8.0-0.21","4","3","4","4","3","3","4","3","4","4","4","5","4","4","5","5","4","5","4","4","2","1","2","2","1","2","1","2","2","1","0","1","1","0","0","0","1","0","1","1","0","1","0","1","4","2","1","2","1","2","2","4","5","1","634787525419859968","刘","524","","","","","","","","","","","","","","","","","","","","","","","","","","","","","","","","","","","","","","","",""
"938","<p style=""color:white; font-size: 35px;"">高效</p>","i","categorize-html","151","577052","0.0-6.0-0.0-8.0-1.21","4","3","4","4","3","3","4","3","4","4","4","5","4","4","5","5","4","5","4","4","2","1","2","2","1","2","1","2","2","1","0","1","1","0","0","0","1","0","1","1","0","1","0","1","4","2","1","2","1","2","2","4","5","1","634787525419859968","刘","524","","","","","","","","","","","","","","","","","","","true","4","4","ability","938","positive","高效","","","","","","","","","","","","","","",""
"null","","null","html-keyboard-response","152","577303","0.0-6.0-0.0-8.0-0.22","4","3","4","4","3","3","4","3","4","4","4","5","4","4","5","5","4","5","4","4","2","1","2","2","1","2","1","2","2","1","0","1","1","0","0","0","1","0","1","1","0","1","0","1","4","2","1","2","1","2","2","4","5","1","634787525419859968","刘","524","","","","","","","","","","","","","","","","","","","","","","","","","","","","","","","","","","","","","","","",""
"603","<p style=""color:rgb(150, 250, 100); font-size: 35px;"">别人的</p>","e","categorize-html","153","577911","0.0-6.0-0.0-8.0-1.22","4","3","4","4","3","3","4","3","4","4","4","5","4","4","5","5","4","5","4","4","2","1","2","2","1","2","1","2","2","1","0","1","1","0","0","0","1","0","1","1","0","1","0","1","4","2","1","2","1","2","2","4","5","1","634787525419859968","刘","524","","","","","","","","","","","","","","","","","","","true","4","4","ability","603","other","别人的","","","","","","","","","","","","","","",""
"null","","null","html-keyboard-response","154","578162","0.0-6.0-0.0-8.0-0.23","4","3","4","4","3","3","4","3","4","4","4","5","4","4","5","5","4","5","4","4","2","1","2","2","1","2","1","2","2","1","0","1","1","0","0","0","1","0","1","1","0","1","0","1","4","2","1","2","1","2","2","4","5","1","634787525419859968","刘","524","","","","","","","","","","","","","","","","","","","","","","","","","","","","","","","","","","","","","","","",""
"918","<p style=""color:white; font-size: 35px;"">蠢笨</p>","e","categorize-html","155","579082","0.0-6.0-0.0-8.0-1.23","4","3","4","4","3","3","4","3","4","4","4","5","4","4","5","5","4","5","4","4","2","1","2","2","1","2","1","2","2","1","0","1","1","0","0","0","1","0","1","1","0","1","0","1","4","2","1","2","1","2","2","4","5","1","634787525419859968","刘","524","","","","","","","","","","","","","","","","","","","true","4","4","ability","918","negative","蠢笨","","","","","","","","","","","","","","",""
"null","","null","html-keyboard-response","156","579333","0.0-6.0-0.0-8.0-0.24","4","3","4","4","3","3","4","3","4","4","4","5","4","4","5","5","4","5","4","4","2","1","2","2","1","2","1","2","2","1","0","1","1","0","0","0","1","0","1","1","0","1","0","1","4","2","1","2","1","2","2","4","5","1","634787525419859968","刘","524","","","","","","","","","","","","","","","","","","","","","","","","","","","","","","","","","","","","","","","",""
"613","<p style=""color:rgb(150, 250, 100); font-size: 35px;"">他的</p>","e","categorize-html","157","579948","0.0-6.0-0.0-8.0-1.24","4","3","4","4","3","3","4","3","4","4","4","5","4","4","5","5","4","5","4","4","2","1","2","2","1","2","1","2","2","1","0","1","1","0","0","0","1","0","1","1","0","1","0","1","4","2","1","2","1","2","2","4","5","1","634787525419859968","刘","524","","","","","","","","","","","","","","","","","","","true","4","4","ability","613","other","他的","","","","","","","","","","","","","","",""
"null","","null","html-keyboard-response","158","580200","0.0-6.0-0.0-8.0-0.25","4","3","4","4","3","3","4","3","4","4","4","5","4","4","5","5","4","5","4","4","2","1","2","2","1","2","1","2","2","1","0","1","1","0","0","0","1","0","1","1","0","1","0","1","4","2","1","2","1","2","2","4","5","1","634787525419859968","刘","524","","","","","","","","","","","","","","","","","","","","","","","","","","","","","","","","","","","","","","","",""
"688","<p style=""color:white; font-size: 35px;"">全能</p>","i","categorize-html","159","580890","0.0-6.0-0.0-8.0-1.25","4","3","4","4","3","3","4","3","4","4","4","5","4","4","5","5","4","5","4","4","2","1","2","2","1","2","1","2","2","1","0","1","1","0","0","0","1","0","1","1","0","1","0","1","4","2","1","2","1","2","2","4","5","1","634787525419859968","刘","524","","","","","","","","","","","","","","","","","","","true","4","4","ability","688","positive","全能","","","","","","","","","","","","","","",""
"null","","null","html-keyboard-response","160","581142","0.0-6.0-0.0-8.0-0.26","4","3","4","4","3","3","4","3","4","4","4","5","4","4","5","5","4","5","4","4","2","1","2","2","1","2","1","2","2","1","0","1","1","0","0","0","1","0","1","1","0","1","0","1","4","2","1","2","1","2","2","4","5","1","634787525419859968","刘","524","","","","","","","","","","","","","","","","","","","","","","","","","","","","","","","","","","","","","","","",""
"580","<p style=""color:rgb(150, 250, 100); font-size: 35px;"">我的</p>","i","categorize-html","161","581724","0.0-6.0-0.0-8.0-1.26","4","3","4","4","3","3","4","3","4","4","4","5","4","4","5","5","4","5","4","4","2","1","2","2","1","2","1","2","2","1","0","1","1","0","0","0","1","0","1","1","0","1","0","1","4","2","1","2","1","2","2","4","5","1","634787525419859968","刘","524","","","","","","","","","","","","","","","","","","","true","4","4","ability","580","self","我的","","","","","","","","","","","","","","",""
"null","","null","html-keyboard-response","162","581975","0.0-6.0-0.0-8.0-0.27","4","3","4","4","3","3","4","3","4","4","4","5","4","4","5","5","4","5","4","4","2","1","2","2","1","2","1","2","2","1","0","1","1","0","0","0","1","0","1","1","0","1","0","1","4","2","1","2","1","2","2","4","5","1","634787525419859968","刘","524","","","","","","","","","","","","","","","","","","","","","","","","","","","","","","","","","","","","","","","",""
"836","<p style=""color:white; font-size: 35px;"">蠢笨</p>","e","categorize-html","163","582813","0.0-6.0-0.0-8.0-1.27","4","3","4","4","3","3","4","3","4","4","4","5","4","4","5","5","4","5","4","4","2","1","2","2","1","2","1","2","2","1","0","1","1","0","0","0","1","0","1","1","0","1","0","1","4","2","1","2","1","2","2","4","5","1","634787525419859968","刘","524","","","","","","","","","","","","","","","","","","","true","4","4","ability","836","negative","蠢笨","","","","","","","","","","","","","","",""
"null","","null","html-keyboard-response","164","583063","0.0-6.0-0.0-8.0-0.28","4","3","4","4","3","3","4","3","4","4","4","5","4","4","5","5","4","5","4","4","2","1","2","2","1","2","1","2","2","1","0","1","1","0","0","0","1","0","1","1","0","1","0","1","4","2","1","2","1","2","2","4","5","1","634787525419859968","刘","524","","","","","","","","","","","","","","","","","","","","","","","","","","","","","","","","","","","","","","","",""
"632","<p style=""color:rgb(150, 250, 100); font-size: 35px;"">自己的</p>","i","categorize-html","165","583697","0.0-6.0-0.0-8.0-1.28","4","3","4","4","3","3","4","3","4","4","4","5","4","4","5","5","4","5","4","4","2","1","2","2","1","2","1","2","2","1","0","1","1","0","0","0","1","0","1","1","0","1","0","1","4","2","1","2","1","2","2","4","5","1","634787525419859968","刘","524","","","","","","","","","","","","","","","","","","","true","4","4","ability","632","self","自己的","","","","","","","","","","","","","","",""
"null","","null","html-keyboard-response","166","583948","0.0-6.0-0.0-8.0-0.29","4","3","4","4","3","3","4","3","4","4","4","5","4","4","5","5","4","5","4","4","2","1","2","2","1","2","1","2","2","1","0","1","1","0","0","0","1","0","1","1","0","1","0","1","4","2","1","2","1","2","2","4","5","1","634787525419859968","刘","524","","","","","","","","","","","","","","","","","","","","","","","","","","","","","","","","","","","","","","","",""
"702","<p style=""color:white; font-size: 35px;"">废物</p>","e","categorize-html","167","584652","0.0-6.0-0.0-8.0-1.29","4","3","4","4","3","3","4","3","4","4","4","5","4","4","5","5","4","5","4","4","2","1","2","2","1","2","1","2","2","1","0","1","1","0","0","0","1","0","1","1","0","1","0","1","4","2","1","2","1","2","2","4","5","1","634787525419859968","刘","524","","","","","","","","","","","","","","","","","","","true","4","4","ability","702","negative","废物","","","","","","","","","","","","","","",""
"null","","null","html-keyboard-response","168","584902","0.0-6.0-0.0-8.0-0.30","4","3","4","4","3","3","4","3","4","4","4","5","4","4","5","5","4","5","4","4","2","1","2","2","1","2","1","2","2","1","0","1","1","0","0","0","1","0","1","1","0","1","0","1","4","2","1","2","1","2","2","4","5","1","634787525419859968","刘","524","","","","","","","","","","","","","","","","","","","","","","","","","","","","","","","","","","","","","","","",""
"705","<p style=""color:rgb(150, 250, 100); font-size: 35px;"">他</p>","e","categorize-html","169","585609","0.0-6.0-0.0-8.0-1.30","4","3","4","4","3","3","4","3","4","4","4","5","4","4","5","5","4","5","4","4","2","1","2","2","1","2","1","2","2","1","0","1","1","0","0","0","1","0","1","1","0","1","0","1","4","2","1","2","1","2","2","4","5","1","634787525419859968","刘","524","","","","","","","","","","","","","","","","","","","true","4","4","ability","705","other","他","","","","","","","","","","","","","","",""
"null","","null","html-keyboard-response","170","585861","0.0-6.0-0.0-8.0-0.31","4","3","4","4","3","3","4","3","4","4","4","5","4","4","5","5","4","5","4","4","2","1","2","2","1","2","1","2","2","1","0","1","1","0","0","0","1","0","1","1","0","1","0","1","4","2","1","2","1","2","2","4","5","1","634787525419859968","刘","524","","","","","","","","","","","","","","","","","","","","","","","","","","","","","","","","","","","","","","","",""
"761","<p style=""color:white; font-size: 35px;"">全才</p>","i","categorize-html","171","586624","0.0-6.0-0.0-8.0-1.31","4","3","4","4","3","3","4","3","4","4","4","5","4","4","5","5","4","5","4","4","2","1","2","2","1","2","1","2","2","1","0","1","1","0","0","0","1","0","1","1","0","1","0","1","4","2","1","2","1","2","2","4","5","1","634787525419859968","刘","524","","","","","","","","","","","","","","","","","","","true","4","4","ability","761","positive","全才","","","","","","","","","","","","","","",""
"null","","null","html-keyboard-response","172","586876","0.0-6.0-0.0-8.0-0.32","4","3","4","4","3","3","4","3","4","4","4","5","4","4","5","5","4","5","4","4","2","1","2","2","1","2","1","2","2","1","0","1","1","0","0","0","1","0","1","1","0","1","0","1","4","2","1","2","1","2","2","4","5","1","634787525419859968","刘","524","","","","","","","","","","","","","","","","","","","","","","","","","","","","","","","","","","","","","","","",""
"707","<p style=""color:rgb(150, 250, 100); font-size: 35px;"">他人的</p>","e","categorize-html","173","587585","0.0-6.0-0.0-8.0-1.32","4","3","4","4","3","3","4","3","4","4","4","5","4","4","5","5","4","5","4","4","2","1","2","2","1","2","1","2","2","1","0","1","1","0","0","0","1","0","1","1","0","1","0","1","4","2","1","2","1","2","2","4","5","1","634787525419859968","刘","524","","","","","","","","","","","","","","","","","","","true","4","4","ability","707","other","他人的","","","","","","","","","","","","","","",""
"null","","null","html-keyboard-response","174","587835","0.0-6.0-0.0-8.0-0.33","4","3","4","4","3","3","4","3","4","4","4","5","4","4","5","5","4","5","4","4","2","1","2","2","1","2","1","2","2","1","0","1","1","0","0","0","1","0","1","1","0","1","0","1","4","2","1","2","1","2","2","4","5","1","634787525419859968","刘","524","","","","","","","","","","","","","","","","","","","","","","","","","","","","","","","","","","","","","","","",""
"890","<p style=""color:white; font-size: 35px;"">能干</p>","i","categorize-html","175","588728","0.0-6.0-0.0-8.0-1.33","4","3","4","4","3","3","4","3","4","4","4","5","4","4","5","5","4","5","4","4","2","1","2","2","1","2","1","2","2","1","0","1","1","0","0","0","1","0","1","1","0","1","0","1","4","2","1","2","1","2","2","4","5","1","634787525419859968","刘","524","","","","","","","","","","","","","","","","","","","true","4","4","ability","890","positive","能干","","","","","","","","","","","","","","",""
"null","","null","html-keyboard-response","176","588980","0.0-6.0-0.0-8.0-0.34","4","3","4","4","3","3","4","3","4","4","4","5","4","4","5","5","4","5","4","4","2","1","2","2","1","2","1","2","2","1","0","1","1","0","0","0","1","0","1","1","0","1","0","1","4","2","1","2","1","2","2","4","5","1","634787525419859968","刘","524","","","","","","","","","","","","","","","","","","","","","","","","","","","","","","","","","","","","","","","",""
"940","<p style=""color:rgb(150, 250, 100); font-size: 35px;"">自己的</p>","i","categorize-html","177","589924","0.0-6.0-0.0-8.0-1.34","4","3","4","4","3","3","4","3","4","4","4","5","4","4","5","5","4","5","4","4","2","1","2","2","1","2","1","2","2","1","0","1","1","0","0","0","1","0","1","1","0","1","0","1","4","2","1","2","1","2","2","4","5","1","634787525419859968","刘","524","","","","","","","","","","","","","","","","","","","true","4","4","ability","940","self","自己的","","","","","","","","","","","","","","",""
"null","","null","html-keyboard-response","178","590189","0.0-6.0-0.0-8.0-0.35","4","3","4","4","3","3","4","3","4","4","4","5","4","4","5","5","4","5","4","4","2","1","2","2","1","2","1","2","2","1","0","1","1","0","0","0","1","0","1","1","0","1","0","1","4","2","1","2","1","2","2","4","5","1","634787525419859968","刘","524","","","","","","","","","","","","","","","","","","","","","","","","","","","","","","","","","","","","","","","",""
"626","<p style=""color:white; font-size: 35px;"">低能</p>","e","categorize-html","179","590817","0.0-6.0-0.0-8.0-1.35","4","3","4","4","3","3","4","3","4","4","4","5","4","4","5","5","4","5","4","4","2","1","2","2","1","2","1","2","2","1","0","1","1","0","0","0","1","0","1","1","0","1","0","1","4","2","1","2","1","2","2","4","5","1","634787525419859968","刘","524","","","","","","","","","","","","","","","","","","","true","4","4","ability","626","negative","低能","","","","","","","","","","","","","","",""
"null","","null","html-keyboard-response","180","591068","0.0-6.0-0.0-8.0-0.36","4","3","4","4","3","3","4","3","4","4","4","5","4","4","5","5","4","5","4","4","2","1","2","2","1","2","1","2","2","1","0","1","1","0","0","0","1","0","1","1","0","1","0","1","4","2","1","2","1","2","2","4","5","1","634787525419859968","刘","524","","","","","","","","","","","","","","","","","","","","","","","","","","","","","","","","","","","","","","","",""
"533","<p style=""color:rgb(150, 250, 100); font-size: 35px;"">他的</p>","e","categorize-html","181","591603","0.0-6.0-0.0-8.0-1.36","4","3","4","4","3","3","4","3","4","4","4","5","4","4","5","5","4","5","4","4","2","1","2","2","1","2","1","2","2","1","0","1","1","0","0","0","1","0","1","1","0","1","0","1","4","2","1","2","1","2","2","4","5","1","634787525419859968","刘","524","","","","","","","","","","","","","","","","","","","true","4","4","ability","533","other","他的","","","","","","","","","","","","","","",""
"null","","null","html-keyboard-response","182","591855","0.0-6.0-0.0-8.0-0.37","4","3","4","4","3","3","4","3","4","4","4","5","4","4","5","5","4","5","4","4","2","1","2","2","1","2","1","2","2","1","0","1","1","0","0","0","1","0","1","1","0","1","0","1","4","2","1","2","1","2","2","4","5","1","634787525419859968","刘","524","","","","","","","","","","","","","","","","","","","","","","","","","","","","","","","","","","","","","","","",""
"843","<p style=""color:white; font-size: 35px;"">拙笨</p>","e","categorize-html","183","592700","0.0-6.0-0.0-8.0-1.37","4","3","4","4","3","3","4","3","4","4","4","5","4","4","5","5","4","5","4","4","2","1","2","2","1","2","1","2","2","1","0","1","1","0","0","0","1","0","1","1","0","1","0","1","4","2","1","2","1","2","2","4","5","1","634787525419859968","刘","524","","","","","","","","","","","","","","","","","","","true","4","4","ability","843","negative","拙笨","","","","","","","","","","","","","","",""
"null","","null","html-keyboard-response","184","592951","0.0-6.0-0.0-8.0-0.38","4","3","4","4","3","3","4","3","4","4","4","5","4","4","5","5","4","5","4","4","2","1","2","2","1","2","1","2","2","1","0","1","1","0","0","0","1","0","1","1","0","1","0","1","4","2","1","2","1","2","2","4","5","1","634787525419859968","刘","524","","","","","","","","","","","","","","","","","","","","","","","","","","","","","","","","","","","","","","","",""
"887","<p style=""color:rgb(150, 250, 100); font-size: 35px;"">自己</p>","i","categorize-html","185","593840","0.0-6.0-0.0-8.0-1.38","4","3","4","4","3","3","4","3","4","4","4","5","4","4","5","5","4","5","4","4","2","1","2","2","1","2","1","2","2","1","0","1","1","0","0","0","1","0","1","1","0","1","0","1","4","2","1","2","1","2","2","4","5","1","634787525419859968","刘","524","","","","","","","","","","","","","","","","","","","true","4","4","ability","887","self","自己","","","","","","","","","","","","","","",""
"null","","null","html-keyboard-response","186","594092","0.0-6.0-0.0-8.0-0.39","4","3","4","4","3","3","4","3","4","4","4","5","4","4","5","5","4","5","4","4","2","1","2","2","1","2","1","2","2","1","0","1","1","0","0","0","1","0","1","1","0","1","0","1","4","2","1","2","1","2","2","4","5","1","634787525419859968","刘","524","","","","","","","","","","","","","","","","","","","","","","","","","","","","","","","","","","","","","","","",""
"895","<p style=""color:white; font-size: 35px;"">天才</p>","i","categorize-html","187","594989","0.0-6.0-0.0-8.0-1.39","4","3","4","4","3","3","4","3","4","4","4","5","4","4","5","5","4","5","4","4","2","1","2","2","1","2","1","2","2","1","0","1","1","0","0","0","1","0","1","1","0","1","0","1","4","2","1","2","1","2","2","4","5","1","634787525419859968","刘","524","","","","","","","","","","","","","","","","","","","true","4","4","ability","895","positive","天才","","","","","","","","","","","","","","",""
"null","","null","html-keyboard-response","188","595241","0.0-6.0-0.0-8.0-0.40","4","3","4","4","3","3","4","3","4","4","4","5","4","4","5","5","4","5","4","4","2","1","2","2","1","2","1","2","2","1","0","1","1","0","0","0","1","0","1","1","0","1","0","1","4","2","1","2","1","2","2","4","5","1","634787525419859968","刘","524","","","","","","","","","","","","","","","","","","","","","","","","","","","","","","","","","","","","","","","",""
"614","<p style=""color:rgb(150, 250, 100); font-size: 35px;"">别人的</p>","e","categorize-html","189","595858","0.0-6.0-0.0-8.0-1.40","4","3","4","4","3","3","4","3","4","4","4","5","4","4","5","5","4","5","4","4","2","1","2","2","1","2","1","2","2","1","0","1","1","0","0","0","1","0","1","1","0","1","0","1","4","2","1","2","1","2","2","4","5","1","634787525419859968","刘","524","","","","","","","","","","","","","","","","","","","true","4","4","ability","614","other","别人的","","","","","","","","","","","","","","",""
"null","","null","html-keyboard-response","190","596110","0.0-6.0-0.0-8.0-0.41","4","3","4","4","3","3","4","3","4","4","4","5","4","4","5","5","4","5","4","4","2","1","2","2","1","2","1","2","2","1","0","1","1","0","0","0","1","0","1","1","0","1","0","1","4","2","1","2","1","2","2","4","5","1","634787525419859968","刘","524","","","","","","","","","","","","","","","","","","","","","","","","","","","","","","","","","","","","","","","",""
"1513","<p style=""color:white; font-size: 35px;"">精干</p>","i","categorize-html","191","597626","0.0-6.0-0.0-8.0-1.41","4","3","4","4","3","3","4","3","4","4","4","5","4","4","5","5","4","5","4","4","2","1","2","2","1","2","1","2","2","1","0","1","1","0","0","0","1","0","1","1","0","1","0","1","4","2","1","2","1","2","2","4","5","1","634787525419859968","刘","524","","","","","","","","","","","","","","","","","","","true","4","4","ability","1513","positive","精干","","","","","","","","","","","","","","",""
"null","","null","html-keyboard-response","192","597878","0.0-6.0-0.0-8.0-0.42","4","3","4","4","3","3","4","3","4","4","4","5","4","4","5","5","4","5","4","4","2","1","2","2","1","2","1","2","2","1","0","1","1","0","0","0","1","0","1","1","0","1","0","1","4","2","1","2","1","2","2","4","5","1","634787525419859968","刘","524","","","","","","","","","","","","","","","","","","","","","","","","","","","","","","","","","","","","","","","",""
"647","<p style=""color:rgb(150, 250, 100); font-size: 35px;"">自己</p>","i","categorize-html","193","598526","0.0-6.0-0.0-8.0-1.42","4","3","4","4","3","3","4","3","4","4","4","5","4","4","5","5","4","5","4","4","2","1","2","2","1","2","1","2","2","1","0","1","1","0","0","0","1","0","1","1","0","1","0","1","4","2","1","2","1","2","2","4","5","1","634787525419859968","刘","524","","","","","","","","","","","","","","","","","","","true","4","4","ability","647","self","自己","","","","","","","","","","","","","","",""
"null","","null","html-keyboard-response","194","598778","0.0-6.0-0.0-8.0-0.43","4","3","4","4","3","3","4","3","4","4","4","5","4","4","5","5","4","5","4","4","2","1","2","2","1","2","1","2","2","1","0","1","1","0","0","0","1","0","1","1","0","1","0","1","4","2","1","2","1","2","2","4","5","1","634787525419859968","刘","524","","","","","","","","","","","","","","","","","","","","","","","","","","","","","","","","","","","","","","","",""
"545","<p style=""color:white; font-size: 35px;"">无能</p>","e","categorize-html","195","599326","0.0-6.0-0.0-8.0-1.43","4","3","4","4","3","3","4","3","4","4","4","5","4","4","5","5","4","5","4","4","2","1","2","2","1","2","1","2","2","1","0","1","1","0","0","0","1","0","1","1","0","1","0","1","4","2","1","2","1","2","2","4","5","1","634787525419859968","刘","524","","","","","","","","","","","","","","","","","","","true","4","4","ability","545","negative","无能","","","","","","","","","","","","","","",""
"null","","null","html-keyboard-response","196","599577","0.0-6.0-0.0-8.0-0.44","4","3","4","4","3","3","4","3","4","4","4","5","4","4","5","5","4","5","4","4","2","1","2","2","1","2","1","2","2","1","0","1","1","0","0","0","1","0","1","1","0","1","0","1","4","2","1","2","1","2","2","4","5","1","634787525419859968","刘","524","","","","","","","","","","","","","","","","","","","","","","","","","","","","","","","","","","","","","","","",""
"1028","<p style=""color:rgb(150, 250, 100); font-size: 35px;"">本人的</p>","i","categorize-html","197","600608","0.0-6.0-0.0-8.0-1.44","4","3","4","4","3","3","4","3","4","4","4","5","4","4","5","5","4","5","4","4","2","1","2","2","1","2","1","2","2","1","0","1","1","0","0","0","1","0","1","1","0","1","0","1","4","2","1","2","1","2","2","4","5","1","634787525419859968","刘","524","","","","","","","","","","","","","","","","","","","true","4","4","ability","1028","self","本人的","","","","","","","","","","","","","","",""
