"rt","stimulus","response","trial_type","trial_index","time_elapsed","internal_node_id","ses_1","ses_2","ses_3","ses_4","ses_5","ses_6","ses_7","ses_8","ses_9","ses_10","coreself_1","coreself_2","coreself_3","coreself_4","coreself_5","coreself_6","coreself_7","coreself_8","coreself_9","coreself_10","SGPS_1","SGPS_2","SGPS_3","SGPS_4","SGPS_5","SGPS_6","SGPS_7","SGPS_8","SGPS_9","NPI1","NPI2","NPI3","NPI4","NPI5","NPI6","NPI7","NPI8","NPI9","NPI10","NPI11","NPI12","NPI13","NPI14","NPI15","hsns_1","hsns_2","hsns_3","hsns_4","hsns_5","hsns_6","hsns_7","hsns_8","hsns_9","hsns_10","subj_idx","friend_name","ParticipantID","value","success","user_agent","responses","item_order","radio_event_ids","radio_event_times","key_event_times","mouse_event_times","straightlining","zigzagging","honeypot","timeout","failed_images","failed_audio","failed_video","view_history","response_type","key_press","avg_frame_time","center_x","center_y","correct_response","correct","identity","Image","word","condition","task_id","screen_id","time_stamp","version_attrib2","version_target2","IAT","RT","varname","summary","version_attrib","version_target","question_order"
"1828","
   <p><div style = ""color: white;font-size:25px;"">您好，欢迎参加本次实验。</div> </p>
   <p><div style = ""color: white;font-size:25px;"">为充分保障您的权利，请确保您已经知晓并同意《参与实验同意书》以及《数据公开知情同意书》。</div></p>
   <p><div style = ""color: white;font-size:25px;"">如果您未见过上述内容，请咨询实验员。</div></p>
   <p><div style = ""color: white;font-size:25px;"">如果您选择继续实验，则表示您已经清楚两份知情同意书的内容并同意。</div></p>
   <p><div style = ""color: red;font-size:30px;"">请确保您记得day0的实验编号，您将在本次实验输入该编号，若您忘记，请咨询实验员后作答。</div></p>
   <p> <div style = ""color: green;font-size:25px;""><按空格键至下页></div> </p>
   "," ","html-keyboard-response","0","1831","0.0-0.0","4","3","3","3","4","3","4","2","4","4","4","5","3","4","4","4","2","5","4","4","2","2","2","2","2","1","1","2","1","1","0","0","1","0","1","0","1","0","1","0","0","0","0","0","5","2","4","2","4","5","4","4","5","4","598907506583928832","刘","443","","","","","","","","","","","","","","","","","","","","","","","","","","","","","","","","","","","","","","","",""
"","","","call-function","1","1831","0.0-1.0-0.0","4","3","3","3","4","3","4","2","4","4","4","5","3","4","4","4","2","5","4","4","2","2","2","2","2","1","1","2","1","1","0","0","1","0","1","0","1","0","1","0","0","0","0","0","5","2","4","2","4","5","4","4","5","4","598907506583928832","刘","443","","","","","","","","","","","","","","","","","","","","","","","","","","","","","","","","","","","","","","","",""
"19737","","{""friend_name"":""刘"",""ParticipantID"":""443""}","survey-html-form","2","21569","0.0-1.0-1.0","4","3","3","3","4","3","4","2","4","4","4","5","3","4","4","4","2","5","4","4","2","2","2","2","2","1","1","2","1","1","0","0","1","0","1","0","1","0","1","0","0","0","0","0","5","2","4","2","4","5","4","4","5","4","598907506583928832","刘","443","","","","","","","","","","","","","","","","","","","","","","","","","","","","","","","","","","","","","","","",""
"","","","fullscreen","3","23582","0.0-2.0","4","3","3","3","4","3","4","2","4","4","4","5","3","4","4","4","2","5","4","4","2","2","2","2","2","1","1","2","1","1","0","0","1","0","1","0","1","0","1","0","0","0","0","0","5","2","4","2","4","5","4","4","5","4","598907506583928832","刘","443","","true","{}","","","","","","","","","","","","","","","","","","","","","","","","","","","","","","","","","","","","",""
"25608.300000071526","","{""Q01"":""4"",""Q02"":""3"",""Q03"":""3"",""Q04"":""3"",""Q05"":""4"",""Q06"":""3"",""Q07"":""4"",""Q08"":""2"",""Q09"":""4"",""Q10"":""4""}","survey-template","4","49195","0.0-3.0","4","3","3","3","4","3","4","2","4","4","4","5","3","4","4","4","2","5","4","4","2","2","2","2","2","1","1","2","1","1","0","0","1","0","1","0","1","0","1","0","0","0","0","0","5","2","4","2","4","5","4","4","5","4","598907506583928832","刘","443","","","","{""Q01"":""4"",""Q02"":""3"",""Q03"":""3"",""Q04"":""3"",""Q05"":""4"",""Q06"":""3"",""Q07"":""4"",""Q08"":""2"",""Q09"":""4"",""Q10"":""4""}","[0,1,2,3,4,5,6,7,8,9]","[""Q01"",""Q02"",""Q03"",""Q04"",""Q05"",""Q06"",""Q06"",""Q07"",""Q08"",""Q09"",""Q10""]","[4471.200000047684,6167.100000023842,7614.800000071526,9303,11048.600000023842,13094.600000023842,14694.800000071526,16214.800000071526,19366.800000071526,21455.100000023842,23406.5]","[]","[4471.200000047684,5799.600000023842,6167.100000023842,7614.800000071526,8961.600000023842,9303,11048.600000023842,13094.600000023842,14142.800000071526,14438.900000095367,14694.800000071526,16214.800000071526,17439.100000023842,17895,18942.600000023842,19366.800000071526,21455.100000023842,22966.600000023842,23406.5,25606.900000095367]","0.4","0.5555555555555556","0","","","","","","","","","","","","","","","","","","","","","","","","","","","",""
"56488.89999997616","","{""Q01"":""4"",""Q02"":""5"",""Q03"":""3"",""Q04"":""4"",""Q05"":""4"",""Q06"":""4"",""Q07"":""2"",""Q08"":""5"",""Q09"":""4"",""Q10"":""4""}","survey-template","5","105690","0.0-4.0","4","3","3","3","4","3","4","2","4","4","4","5","3","4","4","4","2","5","4","4","2","2","2","2","2","1","1","2","1","1","0","0","1","0","1","0","1","0","1","0","0","0","0","0","5","2","4","2","4","5","4","4","5","4","598907506583928832","刘","443","","","","{""Q01"":""4"",""Q02"":""5"",""Q03"":""3"",""Q04"":""4"",""Q05"":""4"",""Q06"":""4"",""Q07"":""2"",""Q08"":""5"",""Q09"":""4"",""Q10"":""4""}","[0,1,2,3,4,5,6,7,8,9]","[""Q01"",""Q02"",""Q03"",""Q04"",""Q05"",""Q06"",""Q06"",""Q07"",""Q08"",""Q09"",""Q10""]","[2488.100000023842,5489.200000047684,6535.800000071526,9052.399999976158,11184,12543.600000023842,13368,14343.600000023842,16711.5,17759.700000047684,19280.100000023842]","[]","[2488.100000023842,4783.5,5489.200000047684,6535.800000071526,9052.399999976158,11184,12543.600000023842,13024,13368,14343.600000023842,16711.5,17759.700000047684,19280.100000023842,56487.700000047684]","0.5","0.1111111111111111","0","","","","","","","","","","","","","","","","","","","","","","","","","","","",""
"","","","preload","6","106481","0.0-5.0","4","3","3","3","4","3","4","2","4","4","4","5","3","4","4","4","2","5","4","4","2","2","2","2","2","1","1","2","1","1","0","0","1","0","1","0","1","0","1","0","0","0","0","0","5","2","4","2","4","5","4","4","5","4","598907506583928832","刘","443","","true","","","","","","","","","","","false","[]","[]","[]","","","","","","","","","","","","","","","","","","","","","","","",""
"2398","","","instructions","7","108881","0.0-6.0","4","3","3","3","4","3","4","2","4","4","4","5","3","4","4","4","2","5","4","4","2","2","2","2","2","1","1","2","1","1","0","0","1","0","1","0","1","0","1","0","0","0","0","0","5","2","4","2","4","5","4","4","5","4","598907506583928832","刘","443","","","","","","","","","","","","","","","","","[{""page_index"":0,""viewing_time"":2398}]","","","","","","","","","","","","","","","","","","","","","","",""
"103479","","","instructions","8","212360","0.0-7.0-1.0-0.0","4","3","3","3","4","3","4","2","4","4","4","5","3","4","4","4","2","5","4","4","2","2","2","2","2","1","1","2","1","1","0","0","1","0","1","0","1","0","1","0","0","0","0","0","5","2","4","2","4","5","4","4","5","4","598907506583928832","刘","443","","","","","","","","","","","","","","","","","[{""page_index"":0,""viewing_time"":99807},{""page_index"":1,""viewing_time"":2120},{""page_index"":2,""viewing_time"":1552}]","","","","","","","","","","","","","","","","","","","","","","",""
"818","","f","psychophysics","9","214182","0.0-7.0-1.0-1.0-0.0-0.0","4","3","3","3","4","3","4","2","4","4","4","5","3","4","4","4","2","5","4","4","2","2","2","2","2","1","1","2","1","1","0","0","1","0","1","0","1","0","1","0","0","0","0","0","5","2","4","2","4","5","4","4","5","4","598907506583928832","刘","443","","","","nonmatch","","","","","","","","","","","","","","key","f","16.674757009345733","758.3333534223067","422.22223340729164","f","true","nonmatch","img/ellipse.png","菱形","椭圆","ALT1_2","prac_ALT1_2","","","","","","","","","",""
"null","<span style='color:GreenYellow; font-size: 70px;'>正确! </span>","null","html-keyboard-response","10","214693","0.0-7.0-1.0-1.0-0.0-1.0","4","3","3","3","4","3","4","2","4","4","4","5","3","4","4","4","2","5","4","4","2","2","2","2","2","1","1","2","1","1","0","0","1","0","1","0","1","0","1","0","0","0","0","0","5","2","4","2","4","5","4","4","5","4","598907506583928832","刘","443","","","","","","","","","","","","","","","","","","","","","","","","","","","","","","feedback_test","","","","","","","","","",""
"685","","j","psychophysics","11","216379","0.0-7.0-1.0-1.0-0.0-0.1","4","3","3","3","4","3","4","2","4","4","4","5","3","4","4","4","2","5","4","4","2","2","2","2","2","1","1","2","1","1","0","0","1","0","1","0","1","0","1","0","0","0","0","0","5","2","4","2","4","5","4","4","5","4","598907506583928832","刘","443","","","","match","","","","","","","","","","","","","","key","j","16.674230000000097","758.3333534223067","422.22223340729164","f","false","nonmatch","img/pentagon.png","菱形","五边","ALT1_2","prac_ALT1_2","","","","","","","","","",""
"null","<span style='color:red; font-size: 70px;'>错误! </span>","null","html-keyboard-response","12","216881","0.0-7.0-1.0-1.0-0.0-1.1","4","3","3","3","4","3","4","2","4","4","4","5","3","4","4","4","2","5","4","4","2","2","2","2","2","1","1","2","1","1","0","0","1","0","1","0","1","0","1","0","0","0","0","0","5","2","4","2","4","5","4","4","5","4","598907506583928832","刘","443","","","","","","","","","","","","","","","","","","","","","","","","","","","","","","feedback_test","","","","","","","","","",""
"677","","j","psychophysics","13","218561","0.0-7.0-1.0-1.0-0.0-0.2","4","3","3","3","4","3","4","2","4","4","4","5","3","4","4","4","2","5","4","4","2","2","2","2","2","1","1","2","1","1","0","0","1","0","1","0","1","0","1","0","0","0","0","0","5","2","4","2","4","5","4","4","5","4","598907506583928832","刘","443","","","","match","","","","","","","","","","","","","","key","j","16.675280000000203","758.3333534223067","422.22223340729164","j","true","match","img/square.png","方形","方形","ALT1_2","prac_ALT1_2","","","","","","","","","",""
"null","<span style='color:GreenYellow; font-size: 70px;'>正确! </span>","null","html-keyboard-response","14","219061","0.0-7.0-1.0-1.0-0.0-1.2","4","3","3","3","4","3","4","2","4","4","4","5","3","4","4","4","2","5","4","4","2","2","2","2","2","1","1","2","1","1","0","0","1","0","1","0","1","0","1","0","0","0","0","0","5","2","4","2","4","5","4","4","5","4","598907506583928832","刘","443","","","","","","","","","","","","","","","","","","","","","","","","","","","","","","feedback_test","","","","","","","","","",""
"770","","f","psychophysics","15","220832","0.0-7.0-1.0-1.0-0.0-0.3","4","3","3","3","4","3","4","2","4","4","4","5","3","4","4","4","2","5","4","4","2","2","2","2","2","1","1","2","1","1","0","0","1","0","1","0","1","0","1","0","0","0","0","0","5","2","4","2","4","5","4","4","5","4","598907506583928832","刘","443","","","","nonmatch","","","","","","","","","","","","","","key","f","16.674895238095253","758.3333534223067","422.22223340729164","f","true","nonmatch","img/ellipse.png","方形","椭圆","ALT1_2","prac_ALT1_2","","","","","","","","","",""
"null","<span style='color:GreenYellow; font-size: 70px;'>正确! </span>","null","html-keyboard-response","16","221334","0.0-7.0-1.0-1.0-0.0-1.3","4","3","3","3","4","3","4","2","4","4","4","5","3","4","4","4","2","5","4","4","2","2","2","2","2","1","1","2","1","1","0","0","1","0","1","0","1","0","1","0","0","0","0","0","5","2","4","2","4","5","4","4","5","4","598907506583928832","刘","443","","","","","","","","","","","","","","","","","","","","","","","","","","","","","","feedback_test","","","","","","","","","",""
"708","","f","psychophysics","17","223043","0.0-7.0-1.0-1.0-0.0-0.4","4","3","3","3","4","3","4","2","4","4","4","5","3","4","4","4","2","5","4","4","2","2","2","2","2","1","1","2","1","1","0","0","1","0","1","0","1","0","1","0","0","0","0","0","5","2","4","2","4","5","4","4","5","4","598907506583928832","刘","443","","","","nonmatch","","","","","","","","","","","","","","key","f","16.675205882353076","758.3333534223067","422.22223340729164","f","true","nonmatch","img/ellipse.png","五边","椭圆","ALT1_2","prac_ALT1_2","","","","","","","","","",""
"null","<span style='color:GreenYellow; font-size: 70px;'>正确! </span>","null","html-keyboard-response","18","223544","0.0-7.0-1.0-1.0-0.0-1.4","4","3","3","3","4","3","4","2","4","4","4","5","3","4","4","4","2","5","4","4","2","2","2","2","2","1","1","2","1","1","0","0","1","0","1","0","1","0","1","0","0","0","0","0","5","2","4","2","4","5","4","4","5","4","598907506583928832","刘","443","","","","","","","","","","","","","","","","","","","","","","","","","","","","","","feedback_test","","","","","","","","","",""
"730","","j","psychophysics","19","225276","0.0-7.0-1.0-1.0-0.0-0.5","4","3","3","3","4","3","4","2","4","4","4","5","3","4","4","4","2","5","4","4","2","2","2","2","2","1","1","2","1","1","0","0","1","0","1","0","1","0","1","0","0","0","0","0","5","2","4","2","4","5","4","4","5","4","598907506583928832","刘","443","","","","match","","","","","","","","","","","","","","key","j","16.674456310679727","758.3333534223067","422.22223340729164","j","true","match","img/pentagon.png","五边","五边","ALT1_2","prac_ALT1_2","","","","","","","","","",""
"null","<span style='color:GreenYellow; font-size: 70px;'>正确! </span>","null","html-keyboard-response","20","225779","0.0-7.0-1.0-1.0-0.0-1.5","4","3","3","3","4","3","4","2","4","4","4","5","3","4","4","4","2","5","4","4","2","2","2","2","2","1","1","2","1","1","0","0","1","0","1","0","1","0","1","0","0","0","0","0","5","2","4","2","4","5","4","4","5","4","598907506583928832","刘","443","","","","","","","","","","","","","","","","","","","","","","","","","","","","","","feedback_test","","","","","","","","","",""
"764","","f","psychophysics","21","227546","0.0-7.0-1.0-1.0-0.0-0.6","4","3","3","3","4","3","4","2","4","4","4","5","3","4","4","4","2","5","4","4","2","2","2","2","2","1","1","2","1","1","0","0","1","0","1","0","1","0","1","0","0","0","0","0","5","2","4","2","4","5","4","4","5","4","598907506583928832","刘","443","","","","nonmatch","","","","","","","","","","","","","","key","f","16.675542857142865","758.3333534223067","422.22223340729164","f","true","nonmatch","img/square.png","菱形","方形","ALT1_2","prac_ALT1_2","","","","","","","","","",""
"null","<span style='color:GreenYellow; font-size: 70px;'>正确! </span>","null","html-keyboard-response","22","228047","0.0-7.0-1.0-1.0-0.0-1.6","4","3","3","3","4","3","4","2","4","4","4","5","3","4","4","4","2","5","4","4","2","2","2","2","2","1","1","2","1","1","0","0","1","0","1","0","1","0","1","0","0","0","0","0","5","2","4","2","4","5","4","4","5","4","598907506583928832","刘","443","","","","","","","","","","","","","","","","","","","","","","","","","","","","","","feedback_test","","","","","","","","","",""
"700","","j","psychophysics","23","229750","0.0-7.0-1.0-1.0-0.0-0.7","4","3","3","3","4","3","4","2","4","4","4","5","3","4","4","4","2","5","4","4","2","2","2","2","2","1","1","2","1","1","0","0","1","0","1","0","1","0","1","0","0","0","0","0","5","2","4","2","4","5","4","4","5","4","598907506583928832","刘","443","","","","match","","","","","","","","","","","","","","key","j","16.675089108910974","758.3333534223067","422.22223340729164","j","true","match","img/diamond.png","菱形","菱形","ALT1_2","prac_ALT1_2","","","","","","","","","",""
"null","<span style='color:GreenYellow; font-size: 70px;'>正确! </span>","null","html-keyboard-response","24","230254","0.0-7.0-1.0-1.0-0.0-1.7","4","3","3","3","4","3","4","2","4","4","4","5","3","4","4","4","2","5","4","4","2","2","2","2","2","1","1","2","1","1","0","0","1","0","1","0","1","0","1","0","0","0","0","0","5","2","4","2","4","5","4","4","5","4","598907506583928832","刘","443","","","","","","","","","","","","","","","","","","","","","","","","","","","","","","feedback_test","","","","","","","","","",""
"696","","f","psychophysics","25","231952","0.0-7.0-1.0-1.0-0.0-0.8","4","3","3","3","4","3","4","2","4","4","4","5","3","4","4","4","2","5","4","4","2","2","2","2","2","1","1","2","1","1","0","0","1","0","1","0","1","0","1","0","0","0","0","0","5","2","4","2","4","5","4","4","5","4","598907506583928832","刘","443","","","","nonmatch","","","","","","","","","","","","","","key","f","16.674693069306933","758.3333534223067","422.22223340729164","f","true","nonmatch","img/square.png","五边","方形","ALT1_2","prac_ALT1_2","","","","","","","","","",""
"null","<span style='color:GreenYellow; font-size: 70px;'>正确! </span>","null","html-keyboard-response","26","232453","0.0-7.0-1.0-1.0-0.0-1.8","4","3","3","3","4","3","4","2","4","4","4","5","3","4","4","4","2","5","4","4","2","2","2","2","2","1","1","2","1","1","0","0","1","0","1","0","1","0","1","0","0","0","0","0","5","2","4","2","4","5","4","4","5","4","598907506583928832","刘","443","","","","","","","","","","","","","","","","","","","","","","","","","","","","","","feedback_test","","","","","","","","","",""
"695","","j","psychophysics","27","234149","0.0-7.0-1.0-1.0-0.0-0.9","4","3","3","3","4","3","4","2","4","4","4","5","3","4","4","4","2","5","4","4","2","2","2","2","2","1","1","2","1","1","0","0","1","0","1","0","1","0","1","0","0","0","0","0","5","2","4","2","4","5","4","4","5","4","598907506583928832","刘","443","","","","match","","","","","","","","","","","","","","key","j","16.677900990098944","758.3333534223067","422.22223340729164","j","true","match","img/diamond.png","菱形","菱形","ALT1_2","prac_ALT1_2","","","","","","","","","",""
"null","<span style='color:GreenYellow; font-size: 70px;'>正确! </span>","null","html-keyboard-response","28","234657","0.0-7.0-1.0-1.0-0.0-1.9","4","3","3","3","4","3","4","2","4","4","4","5","3","4","4","4","2","5","4","4","2","2","2","2","2","1","1","2","1","1","0","0","1","0","1","0","1","0","1","0","0","0","0","0","5","2","4","2","4","5","4","4","5","4","598907506583928832","刘","443","","","","","","","","","","","","","","","","","","","","","","","","","","","","","","feedback_test","","","","","","","","","",""
"704","","j","psychophysics","29","236363","0.0-7.0-1.0-1.0-0.0-0.10","4","3","3","3","4","3","4","2","4","4","4","5","3","4","4","4","2","5","4","4","2","2","2","2","2","1","1","2","1","1","0","0","1","0","1","0","1","0","1","0","0","0","0","0","5","2","4","2","4","5","4","4","5","4","598907506583928832","刘","443","","","","match","","","","","","","","","","","","","","key","j","16.67749019607864","758.3333534223067","422.22223340729164","j","true","match","img/square.png","方形","方形","ALT1_2","prac_ALT1_2","","","","","","","","","",""
"null","<span style='color:GreenYellow; font-size: 70px;'>正确! </span>","null","html-keyboard-response","30","236866","0.0-7.0-1.0-1.0-0.0-1.10","4","3","3","3","4","3","4","2","4","4","4","5","3","4","4","4","2","5","4","4","2","2","2","2","2","1","1","2","1","1","0","0","1","0","1","0","1","0","1","0","0","0","0","0","5","2","4","2","4","5","4","4","5","4","598907506583928832","刘","443","","","","","","","","","","","","","","","","","","","","","","","","","","","","","","feedback_test","","","","","","","","","",""
"716","","j","psychophysics","31","238584","0.0-7.0-1.0-1.0-0.0-0.11","4","3","3","3","4","3","4","2","4","4","4","5","3","4","4","4","2","5","4","4","2","2","2","2","2","1","1","2","1","1","0","0","1","0","1","0","1","0","1","0","0","0","0","0","5","2","4","2","4","5","4","4","5","4","598907506583928832","刘","443","","","","match","","","","","","","","","","","","","","key","j","16.674666666666585","758.3333534223067","422.22223340729164","j","true","match","img/diamond.png","菱形","菱形","ALT1_2","prac_ALT1_2","","","","","","","","","",""
"null","<span style='color:GreenYellow; font-size: 70px;'>正确! </span>","null","html-keyboard-response","32","239086","0.0-7.0-1.0-1.0-0.0-1.11","4","3","3","3","4","3","4","2","4","4","4","5","3","4","4","4","2","5","4","4","2","2","2","2","2","1","1","2","1","1","0","0","1","0","1","0","1","0","1","0","0","0","0","0","5","2","4","2","4","5","4","4","5","4","598907506583928832","刘","443","","","","","","","","","","","","","","","","","","","","","","","","","","","","","","feedback_test","","","","","","","","","",""
"725","","j","psychophysics","33","240814","0.0-7.0-1.0-1.0-0.0-0.12","4","3","3","3","4","3","4","2","4","4","4","5","3","4","4","4","2","5","4","4","2","2","2","2","2","1","1","2","1","1","0","0","1","0","1","0","1","0","1","0","0","0","0","0","5","2","4","2","4","5","4","4","5","4","598907506583928832","刘","443","","","","match","","","","","","","","","","","","","","key","j","16.6721960784315","758.3333534223067","422.22223340729164","j","true","match","img/pentagon.png","五边","五边","ALT1_2","prac_ALT1_2","","","","","","","","","",""
"null","<span style='color:GreenYellow; font-size: 70px;'>正确! </span>","null","html-keyboard-response","34","241314","0.0-7.0-1.0-1.0-0.0-1.12","4","3","3","3","4","3","4","2","4","4","4","5","3","4","4","4","2","5","4","4","2","2","2","2","2","1","1","2","1","1","0","0","1","0","1","0","1","0","1","0","0","0","0","0","5","2","4","2","4","5","4","4","5","4","598907506583928832","刘","443","","","","","","","","","","","","","","","","","","","","","","","","","","","","","","feedback_test","","","","","","","","","",""
"635","","f","psychophysics","35","242950","0.0-7.0-1.0-1.0-0.0-0.13","4","3","3","3","4","3","4","2","4","4","4","5","3","4","4","4","2","5","4","4","2","2","2","2","2","1","1","2","1","1","0","0","1","0","1","0","1","0","1","0","0","0","0","0","5","2","4","2","4","5","4","4","5","4","598907506583928832","刘","443","","","","nonmatch","","","","","","","","","","","","","","key","f","16.675443298969185","758.3333534223067","422.22223340729164","f","true","nonmatch","img/diamond.png","椭圆","菱形","ALT1_2","prac_ALT1_2","","","","","","","","","",""
"null","<span style='color:GreenYellow; font-size: 70px;'>正确! </span>","null","html-keyboard-response","36","243454","0.0-7.0-1.0-1.0-0.0-1.13","4","3","3","3","4","3","4","2","4","4","4","5","3","4","4","4","2","5","4","4","2","2","2","2","2","1","1","2","1","1","0","0","1","0","1","0","1","0","1","0","0","0","0","0","5","2","4","2","4","5","4","4","5","4","598907506583928832","刘","443","","","","","","","","","","","","","","","","","","","","","","","","","","","","","","feedback_test","","","","","","","","","",""
"724","","f","psychophysics","37","245179","0.0-7.0-1.0-1.0-0.0-0.14","4","3","3","3","4","3","4","2","4","4","4","5","3","4","4","4","2","5","4","4","2","2","2","2","2","1","1","2","1","1","0","0","1","0","1","0","1","0","1","0","0","0","0","0","5","2","4","2","4","5","4","4","5","4","598907506583928832","刘","443","","","","nonmatch","","","","","","","","","","","","","","key","f","16.676980392156825","758.3333534223067","422.22223340729164","f","true","nonmatch","img/pentagon.png","方形","五边","ALT1_2","prac_ALT1_2","","","","","","","","","",""
"null","<span style='color:GreenYellow; font-size: 70px;'>正确! </span>","null","html-keyboard-response","38","245680","0.0-7.0-1.0-1.0-0.0-1.14","4","3","3","3","4","3","4","2","4","4","4","5","3","4","4","4","2","5","4","4","2","2","2","2","2","1","1","2","1","1","0","0","1","0","1","0","1","0","1","0","0","0","0","0","5","2","4","2","4","5","4","4","5","4","598907506583928832","刘","443","","","","","","","","","","","","","","","","","","","","","","","","","","","","","","feedback_test","","","","","","","","","",""
"682","","f","psychophysics","39","247364","0.0-7.0-1.0-1.0-0.0-0.15","4","3","3","3","4","3","4","2","4","4","4","5","3","4","4","4","2","5","4","4","2","2","2","2","2","1","1","2","1","1","0","0","1","0","1","0","1","0","1","0","0","0","0","0","5","2","4","2","4","5","4","4","5","4","598907506583928832","刘","443","","","","nonmatch","","","","","","","","","","","","","","key","f","16.677019999999903","758.3333534223067","422.22223340729164","f","true","nonmatch","img/pentagon.png","椭圆","五边","ALT1_2","prac_ALT1_2","","","","","","","","","",""
"null","<span style='color:GreenYellow; font-size: 70px;'>正确! </span>","null","html-keyboard-response","40","247865","0.0-7.0-1.0-1.0-0.0-1.15","4","3","3","3","4","3","4","2","4","4","4","5","3","4","4","4","2","5","4","4","2","2","2","2","2","1","1","2","1","1","0","0","1","0","1","0","1","0","1","0","0","0","0","0","5","2","4","2","4","5","4","4","5","4","598907506583928832","刘","443","","","","","","","","","","","","","","","","","","","","","","","","","","","","","","feedback_test","","","","","","","","","",""
"788","","f","psychophysics","41","249656","0.0-7.0-1.0-1.0-0.0-0.16","4","3","3","3","4","3","4","2","4","4","4","5","3","4","4","4","2","5","4","4","2","2","2","2","2","1","1","2","1","1","0","0","1","0","1","0","1","0","1","0","0","0","0","0","5","2","4","2","4","5","4","4","5","4","598907506583928832","刘","443","","","","nonmatch","","","","","","","","","","","","","","key","f","16.660679245282807","758.3333534223067","422.22223340729164","f","true","nonmatch","img/diamond.png","五边","菱形","ALT1_2","prac_ALT1_2","","","","","","","","","",""
"null","<span style='color:GreenYellow; font-size: 70px;'>正确! </span>","null","html-keyboard-response","42","250158","0.0-7.0-1.0-1.0-0.0-1.16","4","3","3","3","4","3","4","2","4","4","4","5","3","4","4","4","2","5","4","4","2","2","2","2","2","1","1","2","1","1","0","0","1","0","1","0","1","0","1","0","0","0","0","0","5","2","4","2","4","5","4","4","5","4","598907506583928832","刘","443","","","","","","","","","","","","","","","","","","","","","","","","","","","","","","feedback_test","","","","","","","","","",""
"659","","j","psychophysics","43","251820","0.0-7.0-1.0-1.0-0.0-0.17","4","3","3","3","4","3","4","2","4","4","4","5","3","4","4","4","2","5","4","4","2","2","2","2","2","1","1","2","1","1","0","0","1","0","1","0","1","0","1","0","0","0","0","0","5","2","4","2","4","5","4","4","5","4","598907506583928832","刘","443","","","","match","","","","","","","","","","","","","","key","j","16.676414141414106","758.3333534223067","422.22223340729164","j","true","match","img/square.png","方形","方形","ALT1_2","prac_ALT1_2","","","","","","","","","",""
"null","<span style='color:GreenYellow; font-size: 70px;'>正确! </span>","null","html-keyboard-response","44","252332","0.0-7.0-1.0-1.0-0.0-1.17","4","3","3","3","4","3","4","2","4","4","4","5","3","4","4","4","2","5","4","4","2","2","2","2","2","1","1","2","1","1","0","0","1","0","1","0","1","0","1","0","0","0","0","0","5","2","4","2","4","5","4","4","5","4","598907506583928832","刘","443","","","","","","","","","","","","","","","","","","","","","","","","","","","","","","feedback_test","","","","","","","","","",""
"744","","j","psychophysics","45","254079","0.0-7.0-1.0-1.0-0.0-0.18","4","3","3","3","4","3","4","2","4","4","4","5","3","4","4","4","2","5","4","4","2","2","2","2","2","1","1","2","1","1","0","0","1","0","1","0","1","0","1","0","0","0","0","0","5","2","4","2","4","5","4","4","5","4","598907506583928832","刘","443","","","","match","","","","","","","","","","","","","","key","j","16.677269230769387","758.3333534223067","422.22223340729164","j","true","match","img/ellipse.png","椭圆","椭圆","ALT1_2","prac_ALT1_2","","","","","","","","","",""
"null","<span style='color:GreenYellow; font-size: 70px;'>正确! </span>","null","html-keyboard-response","46","254580","0.0-7.0-1.0-1.0-0.0-1.18","4","3","3","3","4","3","4","2","4","4","4","5","3","4","4","4","2","5","4","4","2","2","2","2","2","1","1","2","1","1","0","0","1","0","1","0","1","0","1","0","0","0","0","0","5","2","4","2","4","5","4","4","5","4","598907506583928832","刘","443","","","","","","","","","","","","","","","","","","","","","","","","","","","","","","feedback_test","","","","","","","","","",""
"662","","f","psychophysics","47","256245","0.0-7.0-1.0-1.0-0.0-0.19","4","3","3","3","4","3","4","2","4","4","4","5","3","4","4","4","2","5","4","4","2","2","2","2","2","1","1","2","1","1","0","0","1","0","1","0","1","0","1","0","0","0","0","0","5","2","4","2","4","5","4","4","5","4","598907506583928832","刘","443","","","","nonmatch","","","","","","","","","","","","","","key","f","16.67493939393928","758.3333534223067","422.22223340729164","j","false","match","img/ellipse.png","椭圆","椭圆","ALT1_2","prac_ALT1_2","","","","","","","","","",""
"null","<span style='color:red; font-size: 70px;'>错误! </span>","null","html-keyboard-response","48","256746","0.0-7.0-1.0-1.0-0.0-1.19","4","3","3","3","4","3","4","2","4","4","4","5","3","4","4","4","2","5","4","4","2","2","2","2","2","1","1","2","1","1","0","0","1","0","1","0","1","0","1","0","0","0","0","0","5","2","4","2","4","5","4","4","5","4","598907506583928832","刘","443","","","","","","","","","","","","","","","","","","","","","","","","","","","","","","feedback_test","","","","","","","","","",""
"659","","f","psychophysics","49","258408","0.0-7.0-1.0-1.0-0.0-0.20","4","3","3","3","4","3","4","2","4","4","4","5","3","4","4","4","2","5","4","4","2","2","2","2","2","1","1","2","1","1","0","0","1","0","1","0","1","0","1","0","0","0","0","0","5","2","4","2","4","5","4","4","5","4","598907506583928832","刘","443","","","","nonmatch","","","","","","","","","","","","","","key","f","16.6751313131312","758.3333534223067","422.22223340729164","f","true","nonmatch","img/square.png","椭圆","方形","ALT1_2","prac_ALT1_2","","","","","","","","","",""
"null","<span style='color:GreenYellow; font-size: 70px;'>正确! </span>","null","html-keyboard-response","50","258910","0.0-7.0-1.0-1.0-0.0-1.20","4","3","3","3","4","3","4","2","4","4","4","5","3","4","4","4","2","5","4","4","2","2","2","2","2","1","1","2","1","1","0","0","1","0","1","0","1","0","1","0","0","0","0","0","5","2","4","2","4","5","4","4","5","4","598907506583928832","刘","443","","","","","","","","","","","","","","","","","","","","","","","","","","","","","","feedback_test","","","","","","","","","",""
"825","","j","psychophysics","51","260737","0.0-7.0-1.0-1.0-0.0-0.21","4","3","3","3","4","3","4","2","4","4","4","5","3","4","4","4","2","5","4","4","2","2","2","2","2","1","1","2","1","1","0","0","1","0","1","0","1","0","1","0","0","0","0","0","5","2","4","2","4","5","4","4","5","4","598907506583928832","刘","443","","","","match","","","","","","","","","","","","","","key","j","16.674129629630006","758.3333534223067","422.22223340729164","j","true","match","img/pentagon.png","五边","五边","ALT1_2","prac_ALT1_2","","","","","","","","","",""
"null","<span style='color:GreenYellow; font-size: 70px;'>正确! </span>","null","html-keyboard-response","52","261239","0.0-7.0-1.0-1.0-0.0-1.21","4","3","3","3","4","3","4","2","4","4","4","5","3","4","4","4","2","5","4","4","2","2","2","2","2","1","1","2","1","1","0","0","1","0","1","0","1","0","1","0","0","0","0","0","5","2","4","2","4","5","4","4","5","4","598907506583928832","刘","443","","","","","","","","","","","","","","","","","","","","","","","","","","","","","","feedback_test","","","","","","","","","",""
"805","","f","psychophysics","53","263045","0.0-7.0-1.0-1.0-0.0-0.22","4","3","3","3","4","3","4","2","4","4","4","5","3","4","4","4","2","5","4","4","2","2","2","2","2","1","1","2","1","1","0","0","1","0","1","0","1","0","1","0","0","0","0","0","5","2","4","2","4","5","4","4","5","4","598907506583928832","刘","443","","","","nonmatch","","","","","","","","","","","","","","key","f","16.67265420560736","758.3333534223067","422.22223340729164","f","true","nonmatch","img/diamond.png","方形","菱形","ALT1_2","prac_ALT1_2","","","","","","","","","",""
"null","<span style='color:GreenYellow; font-size: 70px;'>正确! </span>","null","html-keyboard-response","54","263546","0.0-7.0-1.0-1.0-0.0-1.22","4","3","3","3","4","3","4","2","4","4","4","5","3","4","4","4","2","5","4","4","2","2","2","2","2","1","1","2","1","1","0","0","1","0","1","0","1","0","1","0","0","0","0","0","5","2","4","2","4","5","4","4","5","4","598907506583928832","刘","443","","","","","","","","","","","","","","","","","","","","","","","","","","","","","","feedback_test","","","","","","","","","",""
"681","","j","psychophysics","55","265229","0.0-7.0-1.0-1.0-0.0-0.23","4","3","3","3","4","3","4","2","4","4","4","5","3","4","4","4","2","5","4","4","2","2","2","2","2","1","1","2","1","1","0","0","1","0","1","0","1","0","1","0","0","0","0","0","5","2","4","2","4","5","4","4","5","4","598907506583928832","刘","443","","","","match","","","","","","","","","","","","","","key","j","16.674680000000517","758.3333534223067","422.22223340729164","j","true","match","img/ellipse.png","椭圆","椭圆","ALT1_2","prac_ALT1_2","","","","","","","","","",""
"null","<span style='color:GreenYellow; font-size: 70px;'>正确! </span>","null","html-keyboard-response","56","265735","0.0-7.0-1.0-1.0-0.0-1.23","4","3","3","3","4","3","4","2","4","4","4","5","3","4","4","4","2","5","4","4","2","2","2","2","2","1","1","2","1","1","0","0","1","0","1","0","1","0","1","0","0","0","0","0","5","2","4","2","4","5","4","4","5","4","598907506583928832","刘","443","","","","","","","","","","","","","","","","","","","","","","","","","","","","","","feedback_test","","","","","","","","","",""
"866","","f","psychophysics","57","267604","0.0-7.0-1.0-1.0-0.0-0.24","4","3","3","3","4","3","4","2","4","4","4","5","3","4","4","4","2","5","4","4","2","2","2","2","2","1","1","2","1","1","0","0","1","0","1","0","1","0","1","0","0","0","0","0","5","2","4","2","4","5","4","4","5","4","598907506583928832","刘","443","","","","nonmatch","","","","","","","","","","","","","","key","f","16.675072072072243","758.3333534223067","422.22223340729164","f","true","nonmatch","img/square.png","菱形","方形","ALT1_2","prac_ALT1_2","","","","","","","","","",""
"null","<span style='color:GreenYellow; font-size: 70px;'>正确! </span>","null","html-keyboard-response","58","268105","0.0-7.0-1.0-1.0-0.0-1.24","4","3","3","3","4","3","4","2","4","4","4","5","3","4","4","4","2","5","4","4","2","2","2","2","2","1","1","2","1","1","0","0","1","0","1","0","1","0","1","0","0","0","0","0","5","2","4","2","4","5","4","4","5","4","598907506583928832","刘","443","","","","","","","","","","","","","","","","","","","","","","","","","","","","","","feedback_test","","","","","","","","","",""
"825","","j","psychophysics","59","269931","0.0-7.0-1.0-1.0-0.0-0.25","4","3","3","3","4","3","4","2","4","4","4","5","3","4","4","4","2","5","4","4","2","2","2","2","2","1","1","2","1","1","0","0","1","0","1","0","1","0","1","0","0","0","0","0","5","2","4","2","4","5","4","4","5","4","598907506583928832","刘","443","","","","match","","","","","","","","","","","","","","key","j","16.677091743118865","758.3333534223067","422.22223340729164","j","true","match","img/diamond.png","菱形","菱形","ALT1_2","prac_ALT1_2","","","","","","","","","",""
"null","<span style='color:GreenYellow; font-size: 70px;'>正确! </span>","null","html-keyboard-response","60","270433","0.0-7.0-1.0-1.0-0.0-1.25","4","3","3","3","4","3","4","2","4","4","4","5","3","4","4","4","2","5","4","4","2","2","2","2","2","1","1","2","1","1","0","0","1","0","1","0","1","0","1","0","0","0","0","0","5","2","4","2","4","5","4","4","5","4","598907506583928832","刘","443","","","","","","","","","","","","","","","","","","","","","","","","","","","","","","feedback_test","","","","","","","","","",""
"752","","j","psychophysics","61","272187","0.0-7.0-1.0-1.0-0.0-0.26","4","3","3","3","4","3","4","2","4","4","4","5","3","4","4","4","2","5","4","4","2","2","2","2","2","1","1","2","1","1","0","0","1","0","1","0","1","0","1","0","0","0","0","0","5","2","4","2","4","5","4","4","5","4","598907506583928832","刘","443","","","","match","","","","","","","","","","","","","","key","j","16.673644230769312","758.3333534223067","422.22223340729164","j","true","match","img/square.png","方形","方形","ALT1_2","prac_ALT1_2","","","","","","","","","",""
"null","<span style='color:GreenYellow; font-size: 70px;'>正确! </span>","null","html-keyboard-response","62","272689","0.0-7.0-1.0-1.0-0.0-1.26","4","3","3","3","4","3","4","2","4","4","4","5","3","4","4","4","2","5","4","4","2","2","2","2","2","1","1","2","1","1","0","0","1","0","1","0","1","0","1","0","0","0","0","0","5","2","4","2","4","5","4","4","5","4","598907506583928832","刘","443","","","","","","","","","","","","","","","","","","","","","","","","","","","","","","feedback_test","","","","","","","","","",""
"720","","j","psychophysics","63","274410","0.0-7.0-1.0-1.0-0.0-0.27","4","3","3","3","4","3","4","2","4","4","4","5","3","4","4","4","2","5","4","4","2","2","2","2","2","1","1","2","1","1","0","0","1","0","1","0","1","0","1","0","0","0","0","0","5","2","4","2","4","5","4","4","5","4","598907506583928832","刘","443","","","","match","","","","","","","","","","","","","","key","j","16.675029411764733","758.3333534223067","422.22223340729164","f","false","nonmatch","img/ellipse.png","菱形","椭圆","ALT1_2","prac_ALT1_2","","","","","","","","","",""
"null","<span style='color:red; font-size: 70px;'>错误! </span>","null","html-keyboard-response","64","274912","0.0-7.0-1.0-1.0-0.0-1.27","4","3","3","3","4","3","4","2","4","4","4","5","3","4","4","4","2","5","4","4","2","2","2","2","2","1","1","2","1","1","0","0","1","0","1","0","1","0","1","0","0","0","0","0","5","2","4","2","4","5","4","4","5","4","598907506583928832","刘","443","","","","","","","","","","","","","","","","","","","","","","","","","","","","","","feedback_test","","","","","","","","","",""
"713","","j","psychophysics","65","276626","0.0-7.0-1.0-1.0-0.0-0.28","4","3","3","3","4","3","4","2","4","4","4","5","3","4","4","4","2","5","4","4","2","2","2","2","2","1","1","2","1","1","0","0","1","0","1","0","1","0","1","0","0","0","0","0","5","2","4","2","4","5","4","4","5","4","598907506583928832","刘","443","","","","match","","","","","","","","","","","","","","key","j","16.65945544554437","758.3333534223067","422.22223340729164","j","true","match","img/square.png","方形","方形","ALT1_2","prac_ALT1_2","","","","","","","","","",""
"null","<span style='color:GreenYellow; font-size: 70px;'>正确! </span>","null","html-keyboard-response","66","277129","0.0-7.0-1.0-1.0-0.0-1.28","4","3","3","3","4","3","4","2","4","4","4","5","3","4","4","4","2","5","4","4","2","2","2","2","2","1","1","2","1","1","0","0","1","0","1","0","1","0","1","0","0","0","0","0","5","2","4","2","4","5","4","4","5","4","598907506583928832","刘","443","","","","","","","","","","","","","","","","","","","","","","","","","","","","","","feedback_test","","","","","","","","","",""
"866","","j","psychophysics","67","278997","0.0-7.0-1.0-1.0-0.0-0.29","4","3","3","3","4","3","4","2","4","4","4","5","3","4","4","4","2","5","4","4","2","2","2","2","2","1","1","2","1","1","0","0","1","0","1","0","1","0","1","0","0","0","0","0","5","2","4","2","4","5","4","4","5","4","598907506583928832","刘","443","","","","match","","","","","","","","","","","","","","key","j","16.66553636363612","758.3333534223067","422.22223340729164","j","true","match","img/pentagon.png","五边","五边","ALT1_2","prac_ALT1_2","","","","","","","","","",""
"null","<span style='color:GreenYellow; font-size: 70px;'>正确! </span>","null","html-keyboard-response","68","279499","0.0-7.0-1.0-1.0-0.0-1.29","4","3","3","3","4","3","4","2","4","4","4","5","3","4","4","4","2","5","4","4","2","2","2","2","2","1","1","2","1","1","0","0","1","0","1","0","1","0","1","0","0","0","0","0","5","2","4","2","4","5","4","4","5","4","598907506583928832","刘","443","","","","","","","","","","","","","","","","","","","","","","","","","","","","","","feedback_test","","","","","","","","","",""
"759","","j","psychophysics","69","281259","0.0-7.0-1.0-1.0-0.0-0.30","4","3","3","3","4","3","4","2","4","4","4","5","3","4","4","4","2","5","4","4","2","2","2","2","2","1","1","2","1","1","0","0","1","0","1","0","1","0","1","0","0","0","0","0","5","2","4","2","4","5","4","4","5","4","598907506583928832","刘","443","","","","match","","","","","","","","","","","","","","key","j","16.67441346153814","758.3333534223067","422.22223340729164","j","true","match","img/pentagon.png","五边","五边","ALT1_2","prac_ALT1_2","","","","","","","","","",""
"null","<span style='color:GreenYellow; font-size: 70px;'>正确! </span>","null","html-keyboard-response","70","281766","0.0-7.0-1.0-1.0-0.0-1.30","4","3","3","3","4","3","4","2","4","4","4","5","3","4","4","4","2","5","4","4","2","2","2","2","2","1","1","2","1","1","0","0","1","0","1","0","1","0","1","0","0","0","0","0","5","2","4","2","4","5","4","4","5","4","598907506583928832","刘","443","","","","","","","","","","","","","","","","","","","","","","","","","","","","","","feedback_test","","","","","","","","","",""
"687","","j","psychophysics","71","283454","0.0-7.0-1.0-1.0-0.0-0.31","4","3","3","3","4","3","4","2","4","4","4","5","3","4","4","4","2","5","4","4","2","2","2","2","2","1","1","2","1","1","0","0","1","0","1","0","1","0","1","0","0","0","0","0","5","2","4","2","4","5","4","4","5","4","598907506583928832","刘","443","","","","match","","","","","","","","","","","","","","key","j","16.675620000000343","758.3333534223067","422.22223340729164","j","true","match","img/ellipse.png","椭圆","椭圆","ALT1_2","prac_ALT1_2","","","","","","","","","",""
"null","<span style='color:GreenYellow; font-size: 70px;'>正确! </span>","null","html-keyboard-response","72","283956","0.0-7.0-1.0-1.0-0.0-1.31","4","3","3","3","4","3","4","2","4","4","4","5","3","4","4","4","2","5","4","4","2","2","2","2","2","1","1","2","1","1","0","0","1","0","1","0","1","0","1","0","0","0","0","0","5","2","4","2","4","5","4","4","5","4","598907506583928832","刘","443","","","","","","","","","","","","","","","","","","","","","","","","","","","","","","feedback_test","","","","","","","","","",""
"673","","j","psychophysics","73","285630","0.0-7.0-1.0-1.0-0.0-0.32","4","3","3","3","4","3","4","2","4","4","4","5","3","4","4","4","2","5","4","4","2","2","2","2","2","1","1","2","1","1","0","0","1","0","1","0","1","0","1","0","0","0","0","0","5","2","4","2","4","5","4","4","5","4","598907506583928832","刘","443","","","","match","","","","","","","","","","","","","","key","j","16.675575757575587","758.3333534223067","422.22223340729164","j","true","match","img/square.png","方形","方形","ALT1_2","prac_ALT1_2","","","","","","","","","",""
"null","<span style='color:GreenYellow; font-size: 70px;'>正确! </span>","null","html-keyboard-response","74","286132","0.0-7.0-1.0-1.0-0.0-1.32","4","3","3","3","4","3","4","2","4","4","4","5","3","4","4","4","2","5","4","4","2","2","2","2","2","1","1","2","1","1","0","0","1","0","1","0","1","0","1","0","0","0","0","0","5","2","4","2","4","5","4","4","5","4","598907506583928832","刘","443","","","","","","","","","","","","","","","","","","","","","","","","","","","","","","feedback_test","","","","","","","","","",""
"773","","j","psychophysics","75","287906","0.0-7.0-1.0-1.0-0.0-0.33","4","3","3","3","4","3","4","2","4","4","4","5","3","4","4","4","2","5","4","4","2","2","2","2","2","1","1","2","1","1","0","0","1","0","1","0","1","0","1","0","0","0","0","0","5","2","4","2","4","5","4","4","5","4","598907506583928832","刘","443","","","","match","","","","","","","","","","","","","","key","j","16.67532075471728","758.3333534223067","422.22223340729164","j","true","match","img/diamond.png","菱形","菱形","ALT1_2","prac_ALT1_2","","","","","","","","","",""
"null","<span style='color:GreenYellow; font-size: 70px;'>正确! </span>","null","html-keyboard-response","76","288407","0.0-7.0-1.0-1.0-0.0-1.33","4","3","3","3","4","3","4","2","4","4","4","5","3","4","4","4","2","5","4","4","2","2","2","2","2","1","1","2","1","1","0","0","1","0","1","0","1","0","1","0","0","0","0","0","5","2","4","2","4","5","4","4","5","4","598907506583928832","刘","443","","","","","","","","","","","","","","","","","","","","","","","","","","","","","","feedback_test","","","","","","","","","",""
"715","","f","psychophysics","77","290125","0.0-7.0-1.0-1.0-0.0-0.34","4","3","3","3","4","3","4","2","4","4","4","5","3","4","4","4","2","5","4","4","2","2","2","2","2","1","1","2","1","1","0","0","1","0","1","0","1","0","1","0","0","0","0","0","5","2","4","2","4","5","4","4","5","4","598907506583928832","刘","443","","","","nonmatch","","","","","","","","","","","","","","key","f","16.677666666666983","758.3333534223067","422.22223340729164","f","true","nonmatch","img/ellipse.png","五边","椭圆","ALT1_2","prac_ALT1_2","","","","","","","","","",""
"null","<span style='color:GreenYellow; font-size: 70px;'>正确! </span>","null","html-keyboard-response","78","290626","0.0-7.0-1.0-1.0-0.0-1.34","4","3","3","3","4","3","4","2","4","4","4","5","3","4","4","4","2","5","4","4","2","2","2","2","2","1","1","2","1","1","0","0","1","0","1","0","1","0","1","0","0","0","0","0","5","2","4","2","4","5","4","4","5","4","598907506583928832","刘","443","","","","","","","","","","","","","","","","","","","","","","","","","","","","","","feedback_test","","","","","","","","","",""
"688","","f","psychophysics","79","292316","0.0-7.0-1.0-1.0-0.0-0.35","4","3","3","3","4","3","4","2","4","4","4","5","3","4","4","4","2","5","4","4","2","2","2","2","2","1","1","2","1","1","0","0","1","0","1","0","1","0","1","0","0","0","0","0","5","2","4","2","4","5","4","4","5","4","598907506583928832","刘","443","","","","nonmatch","","","","","","","","","","","","","","key","f","16.677370000000227","758.3333534223067","422.22223340729164","f","true","nonmatch","img/pentagon.png","椭圆","五边","ALT1_2","prac_ALT1_2","","","","","","","","","",""
"null","<span style='color:GreenYellow; font-size: 70px;'>正确! </span>","null","html-keyboard-response","80","292822","0.0-7.0-1.0-1.0-0.0-1.35","4","3","3","3","4","3","4","2","4","4","4","5","3","4","4","4","2","5","4","4","2","2","2","2","2","1","1","2","1","1","0","0","1","0","1","0","1","0","1","0","0","0","0","0","5","2","4","2","4","5","4","4","5","4","598907506583928832","刘","443","","","","","","","","","","","","","","","","","","","","","","","","","","","","","","feedback_test","","","","","","","","","",""
"637","","j","psychophysics","81","294459","0.0-7.0-1.0-1.0-0.0-0.36","4","3","3","3","4","3","4","2","4","4","4","5","3","4","4","4","2","5","4","4","2","2","2","2","2","1","1","2","1","1","0","0","1","0","1","0","1","0","1","0","0","0","0","0","5","2","4","2","4","5","4","4","5","4","598907506583928832","刘","443","","","","match","","","","","","","","","","","","","","key","j","16.677463917526147","758.3333534223067","422.22223340729164","j","true","match","img/ellipse.png","椭圆","椭圆","ALT1_2","prac_ALT1_2","","","","","","","","","",""
"null","<span style='color:GreenYellow; font-size: 70px;'>正确! </span>","null","html-keyboard-response","82","294961","0.0-7.0-1.0-1.0-0.0-1.36","4","3","3","3","4","3","4","2","4","4","4","5","3","4","4","4","2","5","4","4","2","2","2","2","2","1","1","2","1","1","0","0","1","0","1","0","1","0","1","0","0","0","0","0","5","2","4","2","4","5","4","4","5","4","598907506583928832","刘","443","","","","","","","","","","","","","","","","","","","","","","","","","","","","","","feedback_test","","","","","","","","","",""
"697","","j","psychophysics","83","296660","0.0-7.0-1.0-1.0-0.0-0.37","4","3","3","3","4","3","4","2","4","4","4","5","3","4","4","4","2","5","4","4","2","2","2","2","2","1","1","2","1","1","0","0","1","0","1","0","1","0","1","0","0","0","0","0","5","2","4","2","4","5","4","4","5","4","598907506583928832","刘","443","","","","match","","","","","","","","","","","","","","key","j","16.674920792079366","758.3333534223067","422.22223340729164","j","true","match","img/ellipse.png","椭圆","椭圆","ALT1_2","prac_ALT1_2","","","","","","","","","",""
"null","<span style='color:GreenYellow; font-size: 70px;'>正确! </span>","null","html-keyboard-response","84","297161","0.0-7.0-1.0-1.0-0.0-1.37","4","3","3","3","4","3","4","2","4","4","4","5","3","4","4","4","2","5","4","4","2","2","2","2","2","1","1","2","1","1","0","0","1","0","1","0","1","0","1","0","0","0","0","0","5","2","4","2","4","5","4","4","5","4","598907506583928832","刘","443","","","","","","","","","","","","","","","","","","","","","","","","","","","","","","feedback_test","","","","","","","","","",""
"649","","f","psychophysics","85","298811","0.0-7.0-1.0-1.0-0.0-0.38","4","3","3","3","4","3","4","2","4","4","4","5","3","4","4","4","2","5","4","4","2","2","2","2","2","1","1","2","1","1","0","0","1","0","1","0","1","0","1","0","0","0","0","0","5","2","4","2","4","5","4","4","5","4","598907506583928832","刘","443","","","","nonmatch","","","","","","","","","","","","","","key","f","16.677571428570854","758.3333534223067","422.22223340729164","f","true","nonmatch","img/diamond.png","五边","菱形","ALT1_2","prac_ALT1_2","","","","","","","","","",""
"null","<span style='color:GreenYellow; font-size: 70px;'>正确! </span>","null","html-keyboard-response","86","299318","0.0-7.0-1.0-1.0-0.0-1.38","4","3","3","3","4","3","4","2","4","4","4","5","3","4","4","4","2","5","4","4","2","2","2","2","2","1","1","2","1","1","0","0","1","0","1","0","1","0","1","0","0","0","0","0","5","2","4","2","4","5","4","4","5","4","598907506583928832","刘","443","","","","","","","","","","","","","","","","","","","","","","","","","","","","","","feedback_test","","","","","","","","","",""
"738","","j","psychophysics","87","301057","0.0-7.0-1.0-1.0-0.0-0.39","4","3","3","3","4","3","4","2","4","4","4","5","3","4","4","4","2","5","4","4","2","2","2","2","2","1","1","2","1","1","0","0","1","0","1","0","1","0","1","0","0","0","0","0","5","2","4","2","4","5","4","4","5","4","598907506583928832","刘","443","","","","match","","","","","","","","","","","","","","key","j","16.675019417475745","758.3333534223067","422.22223340729164","j","true","match","img/diamond.png","菱形","菱形","ALT1_2","prac_ALT1_2","","","","","","","","","",""
"null","<span style='color:GreenYellow; font-size: 70px;'>正确! </span>","null","html-keyboard-response","88","301558","0.0-7.0-1.0-1.0-0.0-1.39","4","3","3","3","4","3","4","2","4","4","4","5","3","4","4","4","2","5","4","4","2","2","2","2","2","1","1","2","1","1","0","0","1","0","1","0","1","0","1","0","0","0","0","0","5","2","4","2","4","5","4","4","5","4","598907506583928832","刘","443","","","","","","","","","","","","","","","","","","","","","","","","","","","","","","feedback_test","","","","","","","","","",""
"845","","f","psychophysics","89","303404","0.0-7.0-1.0-1.0-0.0-0.40","4","3","3","3","4","3","4","2","4","4","4","5","3","4","4","4","2","5","4","4","2","2","2","2","2","1","1","2","1","1","0","0","1","0","1","0","1","0","1","0","0","0","0","0","5","2","4","2","4","5","4","4","5","4","598907506583928832","刘","443","","","","nonmatch","","","","","","","","","","","","","","key","f","16.675697247706537","758.3333534223067","422.22223340729164","f","true","nonmatch","img/diamond.png","椭圆","菱形","ALT1_2","prac_ALT1_2","","","","","","","","","",""
"null","<span style='color:GreenYellow; font-size: 70px;'>正确! </span>","null","html-keyboard-response","90","303914","0.0-7.0-1.0-1.0-0.0-1.40","4","3","3","3","4","3","4","2","4","4","4","5","3","4","4","4","2","5","4","4","2","2","2","2","2","1","1","2","1","1","0","0","1","0","1","0","1","0","1","0","0","0","0","0","5","2","4","2","4","5","4","4","5","4","598907506583928832","刘","443","","","","","","","","","","","","","","","","","","","","","","","","","","","","","","feedback_test","","","","","","","","","",""
"624","","j","psychophysics","91","305540","0.0-7.0-1.0-1.0-0.0-0.41","4","3","3","3","4","3","4","2","4","4","4","5","3","4","4","4","2","5","4","4","2","2","2","2","2","1","1","2","1","1","0","0","1","0","1","0","1","0","1","0","0","0","0","0","5","2","4","2","4","5","4","4","5","4","598907506583928832","刘","443","","","","match","","","","","","","","","","","","","","key","j","16.674875000000004","758.3333534223067","422.22223340729164","j","true","match","img/pentagon.png","五边","五边","ALT1_2","prac_ALT1_2","","","","","","","","","",""
"null","<span style='color:GreenYellow; font-size: 70px;'>正确! </span>","null","html-keyboard-response","92","306040","0.0-7.0-1.0-1.0-0.0-1.41","4","3","3","3","4","3","4","2","4","4","4","5","3","4","4","4","2","5","4","4","2","2","2","2","2","1","1","2","1","1","0","0","1","0","1","0","1","0","1","0","0","0","0","0","5","2","4","2","4","5","4","4","5","4","598907506583928832","刘","443","","","","","","","","","","","","","","","","","","","","","","","","","","","","","","feedback_test","","","","","","","","","",""
"605","","f","psychophysics","93","307648","0.0-7.0-1.0-1.0-0.0-0.42","4","3","3","3","4","3","4","2","4","4","4","5","3","4","4","4","2","5","4","4","2","2","2","2","2","1","1","2","1","1","0","0","1","0","1","0","1","0","1","0","0","0","0","0","5","2","4","2","4","5","4","4","5","4","598907506583928832","刘","443","","","","nonmatch","","","","","","","","","","","","","","key","f","16.67458333333343","758.3333534223067","422.22223340729164","f","true","nonmatch","img/pentagon.png","菱形","五边","ALT1_2","prac_ALT1_2","","","","","","","","","",""
"null","<span style='color:GreenYellow; font-size: 70px;'>正确! </span>","null","html-keyboard-response","94","308150","0.0-7.0-1.0-1.0-0.0-1.42","4","3","3","3","4","3","4","2","4","4","4","5","3","4","4","4","2","5","4","4","2","2","2","2","2","1","1","2","1","1","0","0","1","0","1","0","1","0","1","0","0","0","0","0","5","2","4","2","4","5","4","4","5","4","598907506583928832","刘","443","","","","","","","","","","","","","","","","","","","","","","","","","","","","","","feedback_test","","","","","","","","","",""
"722","","f","psychophysics","95","309873","0.0-7.0-1.0-1.0-0.0-0.43","4","3","3","3","4","3","4","2","4","4","4","5","3","4","4","4","2","5","4","4","2","2","2","2","2","1","1","2","1","1","0","0","1","0","1","0","1","0","1","0","0","0","0","0","5","2","4","2","4","5","4","4","5","4","598907506583928832","刘","443","","","","nonmatch","","","","","","","","","","","","","","key","f","16.674098039215416","758.3333534223067","422.22223340729164","f","true","nonmatch","img/ellipse.png","方形","椭圆","ALT1_2","prac_ALT1_2","","","","","","","","","",""
"null","<span style='color:GreenYellow; font-size: 70px;'>正确! </span>","null","html-keyboard-response","96","310374","0.0-7.0-1.0-1.0-0.0-1.43","4","3","3","3","4","3","4","2","4","4","4","5","3","4","4","4","2","5","4","4","2","2","2","2","2","1","1","2","1","1","0","0","1","0","1","0","1","0","1","0","0","0","0","0","5","2","4","2","4","5","4","4","5","4","598907506583928832","刘","443","","","","","","","","","","","","","","","","","","","","","","","","","","","","","","feedback_test","","","","","","","","","",""
"811","","f","psychophysics","97","312186","0.0-7.0-1.0-1.0-0.0-0.44","4","3","3","3","4","3","4","2","4","4","4","5","3","4","4","4","2","5","4","4","2","2","2","2","2","1","1","2","1","1","0","0","1","0","1","0","1","0","1","0","0","0","0","0","5","2","4","2","4","5","4","4","5","4","598907506583928832","刘","443","","","","nonmatch","","","","","","","","","","","","","","key","f","16.67568518518507","758.3333534223067","422.22223340729164","f","true","nonmatch","img/diamond.png","方形","菱形","ALT1_2","prac_ALT1_2","","","","","","","","","",""
"null","<span style='color:GreenYellow; font-size: 70px;'>正确! </span>","null","html-keyboard-response","98","312688","0.0-7.0-1.0-1.0-0.0-1.44","4","3","3","3","4","3","4","2","4","4","4","5","3","4","4","4","2","5","4","4","2","2","2","2","2","1","1","2","1","1","0","0","1","0","1","0","1","0","1","0","0","0","0","0","5","2","4","2","4","5","4","4","5","4","598907506583928832","刘","443","","","","","","","","","","","","","","","","","","","","","","","","","","","","","","feedback_test","","","","","","","","","",""
"655","","f","psychophysics","99","314344","0.0-7.0-1.0-1.0-0.0-0.45","4","3","3","3","4","3","4","2","4","4","4","5","3","4","4","4","2","5","4","4","2","2","2","2","2","1","1","2","1","1","0","0","1","0","1","0","1","0","1","0","0","0","0","0","5","2","4","2","4","5","4","4","5","4","598907506583928832","刘","443","","","","nonmatch","","","","","","","","","","","","","","key","f","16.67762244897966","758.3333534223067","422.22223340729164","f","true","nonmatch","img/square.png","五边","方形","ALT1_2","prac_ALT1_2","","","","","","","","","",""
"null","<span style='color:GreenYellow; font-size: 70px;'>正确! </span>","null","html-keyboard-response","100","314856","0.0-7.0-1.0-1.0-0.0-1.45","4","3","3","3","4","3","4","2","4","4","4","5","3","4","4","4","2","5","4","4","2","2","2","2","2","1","1","2","1","1","0","0","1","0","1","0","1","0","1","0","0","0","0","0","5","2","4","2","4","5","4","4","5","4","598907506583928832","刘","443","","","","","","","","","","","","","","","","","","","","","","","","","","","","","","feedback_test","","","","","","","","","",""
"611","","f","psychophysics","101","316469","0.0-7.0-1.0-1.0-0.0-0.46","4","3","3","3","4","3","4","2","4","4","4","5","3","4","4","4","2","5","4","4","2","2","2","2","2","1","1","2","1","1","0","0","1","0","1","0","1","0","1","0","0","0","0","0","5","2","4","2","4","5","4","4","5","4","598907506583928832","刘","443","","","","nonmatch","","","","","","","","","","","","","","key","f","16.67499999999988","758.3333534223067","422.22223340729164","f","true","nonmatch","img/square.png","椭圆","方形","ALT1_2","prac_ALT1_2","","","","","","","","","",""
"null","<span style='color:GreenYellow; font-size: 70px;'>正确! </span>","null","html-keyboard-response","102","316982","0.0-7.0-1.0-1.0-0.0-1.46","4","3","3","3","4","3","4","2","4","4","4","5","3","4","4","4","2","5","4","4","2","2","2","2","2","1","1","2","1","1","0","0","1","0","1","0","1","0","1","0","0","0","0","0","5","2","4","2","4","5","4","4","5","4","598907506583928832","刘","443","","","","","","","","","","","","","","","","","","","","","","","","","","","","","","feedback_test","","","","","","","","","",""
"731","","f","psychophysics","103","318715","0.0-7.0-1.0-1.0-0.0-0.47","4","3","3","3","4","3","4","2","4","4","4","5","3","4","4","4","2","5","4","4","2","2","2","2","2","1","1","2","1","1","0","0","1","0","1","0","1","0","1","0","0","0","0","0","5","2","4","2","4","5","4","4","5","4","598907506583928832","刘","443","","","","nonmatch","","","","","","","","","","","","","","key","f","16.675784313725423","758.3333534223067","422.22223340729164","f","true","nonmatch","img/pentagon.png","方形","五边","ALT1_2","prac_ALT1_2","","","","","","","","","",""
"null","<span style='color:GreenYellow; font-size: 70px;'>正确! </span>","null","html-keyboard-response","104","319215","0.0-7.0-1.0-1.0-0.0-1.47","4","3","3","3","4","3","4","2","4","4","4","5","3","4","4","4","2","5","4","4","2","2","2","2","2","1","1","2","1","1","0","0","1","0","1","0","1","0","1","0","0","0","0","0","5","2","4","2","4","5","4","4","5","4","598907506583928832","刘","443","","","","","","","","","","","","","","","","","","","","","","","","","","","","","","feedback_test","","","","","","","","","",""
"72771","<style>.context{color:white; font-size: 35px; line-height:40px}</style>                          <div><p class='context'>您正确回答了94% 的试次。</p><p class='context'>您的平均反应时为723毫秒。</p><p class='context'>恭喜您完成练习。按空格键进入正式实验。</p><p class='footer' style='font-size: 35px; line-height:40px;'>请在进入正式实验实验之前将您的<span style='color: lightgreen;'>食指</span>放在电脑键盘的相应键位上进行按键。</p>"," ","html-keyboard-response","105","391988","0.0-7.0-1.0-2.0","4","3","3","3","4","3","4","2","4","4","4","5","3","4","4","4","2","5","4","4","2","2","2","2","2","1","1","2","1","1","0","0","1","0","1","0","1","0","1","0","0","0","0","0","5","2","4","2","4","5","4","4","5","4","598907506583928832","刘","443","","","","","","","","","","","","","","","","","","","","","","","","","","","","","","","","","","","","","","","",""
"859","
  <p style='color: white; font-size: 22px'>请您将手指放在按键上，准备进入正式的匹配任务。</p>
  <p> <div style = ""color: green""><按空格键进入下一阶段的匹配任务></div></p>
  "," ","html-keyboard-response","106","392852","0.0-7.0-1.0-3.0","4","3","3","3","4","3","4","2","4","4","4","5","3","4","4","4","2","5","4","4","2","2","2","2","2","1","1","2","1","1","0","0","1","0","1","0","1","0","1","0","0","0","0","0","5","2","4","2","4","5","4","4","5","4","598907506583928832","刘","443","","","","","","","","","","","","","","","","","","","","","","","","","","","","","","","","","","","","","","","",""
"808","","f","psychophysics","107","394662","0.0-7.0-1.0-4.0-0.0-0.0","4","3","3","3","4","3","4","2","4","4","4","5","3","4","4","4","2","5","4","4","2","2","2","2","2","1","1","2","1","1","0","0","1","0","1","0","1","0","1","0","0","0","0","0","5","2","4","2","4","5","4","4","5","4","598907506583928832","刘","443","","","","nonmatch","","","","","","","","","","","","","","key","f","16.674467289719676","758.3333534223067","422.22223340729164","f","true","nonmatch","img/square.png","菱形","方形","ALT1","formal_ALT1_2","","","","","","","","","",""
"null","<span style='color:GreenYellow; font-size: 70px;'>正确! </span>","null","html-keyboard-response","108","395163","0.0-7.0-1.0-4.0-0.0-1.0","4","3","3","3","4","3","4","2","4","4","4","5","3","4","4","4","2","5","4","4","2","2","2","2","2","1","1","2","1","1","0","0","1","0","1","0","1","0","1","0","0","0","0","0","5","2","4","2","4","5","4","4","5","4","598907506583928832","刘","443","","","","","","","","","","","","","","","","","","","","","","","","","","","","","","feedback_test","","","","","","","","","",""
"627","","f","psychophysics","109","396791","0.0-7.0-1.0-4.0-0.0-0.1","4","3","3","3","4","3","4","2","4","4","4","5","3","4","4","4","2","5","4","4","2","2","2","2","2","1","1","2","1","1","0","0","1","0","1","0","1","0","1","0","0","0","0","0","5","2","4","2","4","5","4","4","5","4","598907506583928832","刘","443","","","","nonmatch","","","","","","","","","","","","","","key","f","16.675371134020605","758.3333534223067","422.22223340729164","f","true","nonmatch","img/ellipse.png","五边","椭圆","ALT1","formal_ALT1_2","","","","","","","","","",""
"null","<span style='color:GreenYellow; font-size: 70px;'>正确! </span>","null","html-keyboard-response","110","397306","0.0-7.0-1.0-4.0-0.0-1.1","4","3","3","3","4","3","4","2","4","4","4","5","3","4","4","4","2","5","4","4","2","2","2","2","2","1","1","2","1","1","0","0","1","0","1","0","1","0","1","0","0","0","0","0","5","2","4","2","4","5","4","4","5","4","598907506583928832","刘","443","","","","","","","","","","","","","","","","","","","","","","","","","","","","","","feedback_test","","","","","","","","","",""
"628","","f","psychophysics","111","398936","0.0-7.0-1.0-4.0-0.0-0.2","4","3","3","3","4","3","4","2","4","4","4","5","3","4","4","4","2","5","4","4","2","2","2","2","2","1","1","2","1","1","0","0","1","0","1","0","1","0","1","0","0","0","0","0","5","2","4","2","4","5","4","4","5","4","598907506583928832","刘","443","","","","nonmatch","","","","","","","","","","","","","","key","f","16.676260416666384","758.3333534223067","422.22223340729164","f","true","nonmatch","img/diamond.png","方形","菱形","ALT1","formal_ALT1_2","","","","","","","","","",""
"null","<span style='color:GreenYellow; font-size: 70px;'>正确! </span>","null","html-keyboard-response","112","399437","0.0-7.0-1.0-4.0-0.0-1.2","4","3","3","3","4","3","4","2","4","4","4","5","3","4","4","4","2","5","4","4","2","2","2","2","2","1","1","2","1","1","0","0","1","0","1","0","1","0","1","0","0","0","0","0","5","2","4","2","4","5","4","4","5","4","598907506583928832","刘","443","","","","","","","","","","","","","","","","","","","","","","","","","","","","","","feedback_test","","","","","","","","","",""
"772","","j","psychophysics","113","401210","0.0-7.0-1.0-4.0-0.0-0.3","4","3","3","3","4","3","4","2","4","4","4","5","3","4","4","4","2","5","4","4","2","2","2","2","2","1","1","2","1","1","0","0","1","0","1","0","1","0","1","0","0","0","0","0","5","2","4","2","4","5","4","4","5","4","598907506583928832","刘","443","","","","match","","","","","","","","","","","","","","key","j","16.673457142857036","758.3333534223067","422.22223340729164","j","true","match","img/pentagon.png","五边","五边","ALT1","formal_ALT1_2","","","","","","","","","",""
"null","<span style='color:GreenYellow; font-size: 70px;'>正确! </span>","null","html-keyboard-response","114","401710","0.0-7.0-1.0-4.0-0.0-1.3","4","3","3","3","4","3","4","2","4","4","4","5","3","4","4","4","2","5","4","4","2","2","2","2","2","1","1","2","1","1","0","0","1","0","1","0","1","0","1","0","0","0","0","0","5","2","4","2","4","5","4","4","5","4","598907506583928832","刘","443","","","","","","","","","","","","","","","","","","","","","","","","","","","","","","feedback_test","","","","","","","","","",""
"687","","j","psychophysics","115","403399","0.0-7.0-1.0-4.0-0.0-0.4","4","3","3","3","4","3","4","2","4","4","4","5","3","4","4","4","2","5","4","4","2","2","2","2","2","1","1","2","1","1","0","0","1","0","1","0","1","0","1","0","0","0","0","0","5","2","4","2","4","5","4","4","5","4","598907506583928832","刘","443","","","","match","","","","","","","","","","","","","","key","j","16.674799999999813","758.3333534223067","422.22223340729164","j","true","match","img/square.png","方形","方形","ALT1","formal_ALT1_2","","","","","","","","","",""
"null","<span style='color:GreenYellow; font-size: 70px;'>正确! </span>","null","html-keyboard-response","116","403901","0.0-7.0-1.0-4.0-0.0-1.4","4","3","3","3","4","3","4","2","4","4","4","5","3","4","4","4","2","5","4","4","2","2","2","2","2","1","1","2","1","1","0","0","1","0","1","0","1","0","1","0","0","0","0","0","5","2","4","2","4","5","4","4","5","4","598907506583928832","刘","443","","","","","","","","","","","","","","","","","","","","","","","","","","","","","","feedback_test","","","","","","","","","",""
"608","","f","psychophysics","117","405510","0.0-7.0-1.0-4.0-0.0-0.5","4","3","3","3","4","3","4","2","4","4","4","5","3","4","4","4","2","5","4","4","2","2","2","2","2","1","1","2","1","1","0","0","1","0","1","0","1","0","1","0","0","0","0","0","5","2","4","2","4","5","4","4","5","4","598907506583928832","刘","443","","","","nonmatch","","","","","","","","","","","","","","key","f","16.674593749999985","758.3333534223067","422.22223340729164","f","true","nonmatch","img/diamond.png","五边","菱形","ALT1","formal_ALT1_2","","","","","","","","","",""
"null","<span style='color:GreenYellow; font-size: 70px;'>正确! </span>","null","html-keyboard-response","118","406019","0.0-7.0-1.0-4.0-0.0-1.5","4","3","3","3","4","3","4","2","4","4","4","5","3","4","4","4","2","5","4","4","2","2","2","2","2","1","1","2","1","1","0","0","1","0","1","0","1","0","1","0","0","0","0","0","5","2","4","2","4","5","4","4","5","4","598907506583928832","刘","443","","","","","","","","","","","","","","","","","","","","","","","","","","","","","","feedback_test","","","","","","","","","",""
"604","","j","psychophysics","119","407626","0.0-7.0-1.0-4.0-0.0-0.6","4","3","3","3","4","3","4","2","4","4","4","5","3","4","4","4","2","5","4","4","2","2","2","2","2","1","1","2","1","1","0","0","1","0","1","0","1","0","1","0","0","0","0","0","5","2","4","2","4","5","4","4","5","4","598907506583928832","刘","443","","","","match","","","","","","","","","","","","","","key","j","16.675114583333198","758.3333534223067","422.22223340729164","j","true","match","img/pentagon.png","五边","五边","ALT1","formal_ALT1_2","","","","","","","","","",""
"null","<span style='color:GreenYellow; font-size: 70px;'>正确! </span>","null","html-keyboard-response","120","408128","0.0-7.0-1.0-4.0-0.0-1.6","4","3","3","3","4","3","4","2","4","4","4","5","3","4","4","4","2","5","4","4","2","2","2","2","2","1","1","2","1","1","0","0","1","0","1","0","1","0","1","0","0","0","0","0","5","2","4","2","4","5","4","4","5","4","598907506583928832","刘","443","","","","","","","","","","","","","","","","","","","","","","","","","","","","","","feedback_test","","","","","","","","","",""
"984","","j","psychophysics","121","410114","0.0-7.0-1.0-4.0-0.0-0.7","4","3","3","3","4","3","4","2","4","4","4","5","3","4","4","4","2","5","4","4","2","2","2","2","2","1","1","2","1","1","0","0","1","0","1","0","1","0","1","0","0","0","0","0","5","2","4","2","4","5","4","4","5","4","598907506583928832","刘","443","","","","match","","","","","","","","","","","","","","key","j","16.676881355931982","758.3333534223067","422.22223340729164","f","false","nonmatch","img/pentagon.png","菱形","五边","ALT1","formal_ALT1_2","","","","","","","","","",""
"null","<span style='color:red; font-size: 70px;'>错误! </span>","null","html-keyboard-response","122","410629","0.0-7.0-1.0-4.0-0.0-1.7","4","3","3","3","4","3","4","2","4","4","4","5","3","4","4","4","2","5","4","4","2","2","2","2","2","1","1","2","1","1","0","0","1","0","1","0","1","0","1","0","0","0","0","0","5","2","4","2","4","5","4","4","5","4","598907506583928832","刘","443","","","","","","","","","","","","","","","","","","","","","","","","","","","","","","feedback_test","","","","","","","","","",""
"684","","f","psychophysics","123","412315","0.0-7.0-1.0-4.0-0.0-0.8","4","3","3","3","4","3","4","2","4","4","4","5","3","4","4","4","2","5","4","4","2","2","2","2","2","1","1","2","1","1","0","0","1","0","1","0","1","0","1","0","0","0","0","0","5","2","4","2","4","5","4","4","5","4","598907506583928832","刘","443","","","","nonmatch","","","","","","","","","","","","","","key","f","16.676390000000247","758.3333534223067","422.22223340729164","f","true","nonmatch","img/pentagon.png","椭圆","五边","ALT1","formal_ALT1_2","","","","","","","","","",""
"null","<span style='color:GreenYellow; font-size: 70px;'>正确! </span>","null","html-keyboard-response","124","412816","0.0-7.0-1.0-4.0-0.0-1.8","4","3","3","3","4","3","4","2","4","4","4","5","3","4","4","4","2","5","4","4","2","2","2","2","2","1","1","2","1","1","0","0","1","0","1","0","1","0","1","0","0","0","0","0","5","2","4","2","4","5","4","4","5","4","598907506583928832","刘","443","","","","","","","","","","","","","","","","","","","","","","","","","","","","","","feedback_test","","","","","","","","","",""
"680","","f","psychophysics","125","414497","0.0-7.0-1.0-4.0-0.0-0.9","4","3","3","3","4","3","4","2","4","4","4","5","3","4","4","4","2","5","4","4","2","2","2","2","2","1","1","2","1","1","0","0","1","0","1","0","1","0","1","0","0","0","0","0","5","2","4","2","4","5","4","4","5","4","598907506583928832","刘","443","","","","nonmatch","","","","","","","","","","","","","","key","f","16.67456999999995","758.3333534223067","422.22223340729164","f","true","nonmatch","img/ellipse.png","方形","椭圆","ALT1","formal_ALT1_2","","","","","","","","","",""
"null","<span style='color:GreenYellow; font-size: 70px;'>正确! </span>","null","html-keyboard-response","126","414999","0.0-7.0-1.0-4.0-0.0-1.9","4","3","3","3","4","3","4","2","4","4","4","5","3","4","4","4","2","5","4","4","2","2","2","2","2","1","1","2","1","1","0","0","1","0","1","0","1","0","1","0","0","0","0","0","5","2","4","2","4","5","4","4","5","4","598907506583928832","刘","443","","","","","","","","","","","","","","","","","","","","","","","","","","","","","","feedback_test","","","","","","","","","",""
"602","","j","psychophysics","127","416602","0.0-7.0-1.0-4.0-0.0-0.10","4","3","3","3","4","3","4","2","4","4","4","5","3","4","4","4","2","5","4","4","2","2","2","2","2","1","1","2","1","1","0","0","1","0","1","0","1","0","1","0","0","0","0","0","5","2","4","2","4","5","4","4","5","4","598907506583928832","刘","443","","","","match","","","","","","","","","","","","","","key","j","16.675673684210665","758.3333534223067","422.22223340729164","j","true","match","img/ellipse.png","椭圆","椭圆","ALT1","formal_ALT1_2","","","","","","","","","",""
"null","<span style='color:GreenYellow; font-size: 70px;'>正确! </span>","null","html-keyboard-response","128","417103","0.0-7.0-1.0-4.0-0.0-1.10","4","3","3","3","4","3","4","2","4","4","4","5","3","4","4","4","2","5","4","4","2","2","2","2","2","1","1","2","1","1","0","0","1","0","1","0","1","0","1","0","0","0","0","0","5","2","4","2","4","5","4","4","5","4","598907506583928832","刘","443","","","","","","","","","","","","","","","","","","","","","","","","","","","","","","feedback_test","","","","","","","","","",""
"636","","f","psychophysics","129","418740","0.0-7.0-1.0-4.0-0.0-0.11","4","3","3","3","4","3","4","2","4","4","4","5","3","4","4","4","2","5","4","4","2","2","2","2","2","1","1","2","1","1","0","0","1","0","1","0","1","0","1","0","0","0","0","0","5","2","4","2","4","5","4","4","5","4","598907506583928832","刘","443","","","","nonmatch","","","","","","","","","","","","","","key","f","16.67514432989692","758.3333534223067","422.22223340729164","f","true","nonmatch","img/diamond.png","椭圆","菱形","ALT1","formal_ALT1_2","","","","","","","","","",""
"null","<span style='color:GreenYellow; font-size: 70px;'>正确! </span>","null","html-keyboard-response","130","419255","0.0-7.0-1.0-4.0-0.0-1.11","4","3","3","3","4","3","4","2","4","4","4","5","3","4","4","4","2","5","4","4","2","2","2","2","2","1","1","2","1","1","0","0","1","0","1","0","1","0","1","0","0","0","0","0","5","2","4","2","4","5","4","4","5","4","598907506583928832","刘","443","","","","","","","","","","","","","","","","","","","","","","","","","","","","","","feedback_test","","","","","","","","","",""
"688","","f","psychophysics","131","420944","0.0-7.0-1.0-4.0-0.0-0.12","4","3","3","3","4","3","4","2","4","4","4","5","3","4","4","4","2","5","4","4","2","2","2","2","2","1","1","2","1","1","0","0","1","0","1","0","1","0","1","0","0","0","0","0","5","2","4","2","4","5","4","4","5","4","598907506583928832","刘","443","","","","nonmatch","","","","","","","","","","","","","","key","f","16.672150000000258","758.3333534223067","422.22223340729164","f","true","nonmatch","img/pentagon.png","方形","五边","ALT1","formal_ALT1_2","","","","","","","","","",""
"null","<span style='color:GreenYellow; font-size: 70px;'>正确! </span>","null","html-keyboard-response","132","421446","0.0-7.0-1.0-4.0-0.0-1.12","4","3","3","3","4","3","4","2","4","4","4","5","3","4","4","4","2","5","4","4","2","2","2","2","2","1","1","2","1","1","0","0","1","0","1","0","1","0","1","0","0","0","0","0","5","2","4","2","4","5","4","4","5","4","598907506583928832","刘","443","","","","","","","","","","","","","","","","","","","","","","","","","","","","","","feedback_test","","","","","","","","","",""
"650","","j","psychophysics","133","423098","0.0-7.0-1.0-4.0-0.0-0.13","4","3","3","3","4","3","4","2","4","4","4","5","3","4","4","4","2","5","4","4","2","2","2","2","2","1","1","2","1","1","0","0","1","0","1","0","1","0","1","0","0","0","0","0","5","2","4","2","4","5","4","4","5","4","598907506583928832","刘","443","","","","match","","","","","","","","","","","","","","key","j","16.674673469387926","758.3333534223067","422.22223340729164","j","true","match","img/ellipse.png","椭圆","椭圆","ALT1","formal_ALT1_2","","","","","","","","","",""
"null","<span style='color:GreenYellow; font-size: 70px;'>正确! </span>","null","html-keyboard-response","134","423601","0.0-7.0-1.0-4.0-0.0-1.13","4","3","3","3","4","3","4","2","4","4","4","5","3","4","4","4","2","5","4","4","2","2","2","2","2","1","1","2","1","1","0","0","1","0","1","0","1","0","1","0","0","0","0","0","5","2","4","2","4","5","4","4","5","4","598907506583928832","刘","443","","","","","","","","","","","","","","","","","","","","","","","","","","","","","","feedback_test","","","","","","","","","",""
"704","","j","psychophysics","135","425307","0.0-7.0-1.0-4.0-0.0-0.14","4","3","3","3","4","3","4","2","4","4","4","5","3","4","4","4","2","5","4","4","2","2","2","2","2","1","1","2","1","1","0","0","1","0","1","0","1","0","1","0","0","0","0","0","5","2","4","2","4","5","4","4","5","4","598907506583928832","刘","443","","","","match","","","","","","","","","","","","","","key","j","16.676693069307124","758.3333534223067","422.22223340729164","j","true","match","img/diamond.png","菱形","菱形","ALT1","formal_ALT1_2","","","","","","","","","",""
"null","<span style='color:GreenYellow; font-size: 70px;'>正确! </span>","null","html-keyboard-response","136","425808","0.0-7.0-1.0-4.0-0.0-1.14","4","3","3","3","4","3","4","2","4","4","4","5","3","4","4","4","2","5","4","4","2","2","2","2","2","1","1","2","1","1","0","0","1","0","1","0","1","0","1","0","0","0","0","0","5","2","4","2","4","5","4","4","5","4","598907506583928832","刘","443","","","","","","","","","","","","","","","","","","","","","","","","","","","","","","feedback_test","","","","","","","","","",""
"775","","j","psychophysics","137","427585","0.0-7.0-1.0-4.0-0.0-0.15","4","3","3","3","4","3","4","2","4","4","4","5","3","4","4","4","2","5","4","4","2","2","2","2","2","1","1","2","1","1","0","0","1","0","1","0","1","0","1","0","0","0","0","0","5","2","4","2","4","5","4","4","5","4","598907506583928832","刘","443","","","","match","","","","","","","","","","","","","","key","j","16.670896226415007","758.3333534223067","422.22223340729164","j","true","match","img/diamond.png","菱形","菱形","ALT1","formal_ALT1_2","","","","","","","","","",""
"null","<span style='color:GreenYellow; font-size: 70px;'>正确! </span>","null","html-keyboard-response","138","428088","0.0-7.0-1.0-4.0-0.0-1.15","4","3","3","3","4","3","4","2","4","4","4","5","3","4","4","4","2","5","4","4","2","2","2","2","2","1","1","2","1","1","0","0","1","0","1","0","1","0","1","0","0","0","0","0","5","2","4","2","4","5","4","4","5","4","598907506583928832","刘","443","","","","","","","","","","","","","","","","","","","","","","","","","","","","","","feedback_test","","","","","","","","","",""
"715","","j","psychophysics","139","429804","0.0-7.0-1.0-4.0-0.0-0.16","4","3","3","3","4","3","4","2","4","4","4","5","3","4","4","4","2","5","4","4","2","2","2","2","2","1","1","2","1","1","0","0","1","0","1","0","1","0","1","0","0","0","0","0","5","2","4","2","4","5","4","4","5","4","598907506583928832","刘","443","","","","match","","","","","","","","","","","","","","key","j","16.676754901960592","758.3333534223067","422.22223340729164","j","true","match","img/diamond.png","菱形","菱形","ALT1","formal_ALT1_2","","","","","","","","","",""
"null","<span style='color:GreenYellow; font-size: 70px;'>正确! </span>","null","html-keyboard-response","140","430306","0.0-7.0-1.0-4.0-0.0-1.16","4","3","3","3","4","3","4","2","4","4","4","5","3","4","4","4","2","5","4","4","2","2","2","2","2","1","1","2","1","1","0","0","1","0","1","0","1","0","1","0","0","0","0","0","5","2","4","2","4","5","4","4","5","4","598907506583928832","刘","443","","","","","","","","","","","","","","","","","","","","","","","","","","","","","","feedback_test","","","","","","","","","",""
"731","","j","psychophysics","141","432039","0.0-7.0-1.0-4.0-0.0-0.17","4","3","3","3","4","3","4","2","4","4","4","5","3","4","4","4","2","5","4","4","2","2","2","2","2","1","1","2","1","1","0","0","1","0","1","0","1","0","1","0","0","0","0","0","5","2","4","2","4","5","4","4","5","4","598907506583928832","刘","443","","","","match","","","","","","","","","","","","","","key","j","16.676864077669943","758.3333534223067","422.22223340729164","j","true","match","img/square.png","方形","方形","ALT1","formal_ALT1_2","","","","","","","","","",""
"null","<span style='color:GreenYellow; font-size: 70px;'>正确! </span>","null","html-keyboard-response","142","432548","0.0-7.0-1.0-4.0-0.0-1.17","4","3","3","3","4","3","4","2","4","4","4","5","3","4","4","4","2","5","4","4","2","2","2","2","2","1","1","2","1","1","0","0","1","0","1","0","1","0","1","0","0","0","0","0","5","2","4","2","4","5","4","4","5","4","598907506583928832","刘","443","","","","","","","","","","","","","","","","","","","","","","","","","","","","","","feedback_test","","","","","","","","","",""
"686","","j","psychophysics","143","434236","0.0-7.0-1.0-4.0-0.0-0.18","4","3","3","3","4","3","4","2","4","4","4","5","3","4","4","4","2","5","4","4","2","2","2","2","2","1","1","2","1","1","0","0","1","0","1","0","1","0","1","0","0","0","0","0","5","2","4","2","4","5","4","4","5","4","598907506583928832","刘","443","","","","match","","","","","","","","","","","","","","key","j","16.675","758.3333534223067","422.22223340729164","j","true","match","img/ellipse.png","椭圆","椭圆","ALT1","formal_ALT1_2","","","","","","","","","",""
"null","<span style='color:GreenYellow; font-size: 70px;'>正确! </span>","null","html-keyboard-response","144","434740","0.0-7.0-1.0-4.0-0.0-1.18","4","3","3","3","4","3","4","2","4","4","4","5","3","4","4","4","2","5","4","4","2","2","2","2","2","1","1","2","1","1","0","0","1","0","1","0","1","0","1","0","0","0","0","0","5","2","4","2","4","5","4","4","5","4","598907506583928832","刘","443","","","","","","","","","","","","","","","","","","","","","","","","","","","","","","feedback_test","","","","","","","","","",""
"838","","j","psychophysics","145","436580","0.0-7.0-1.0-4.0-0.0-0.19","4","3","3","3","4","3","4","2","4","4","4","5","3","4","4","4","2","5","4","4","2","2","2","2","2","1","1","2","1","1","0","0","1","0","1","0","1","0","1","0","0","0","0","0","5","2","4","2","4","5","4","4","5","4","598907506583928832","刘","443","","","","match","","","","","","","","","","","","","","key","j","16.677660550459166","758.3333534223067","422.22223340729164","j","true","match","img/pentagon.png","五边","五边","ALT1","formal_ALT1_2","","","","","","","","","",""
"null","<span style='color:GreenYellow; font-size: 70px;'>正确! </span>","null","html-keyboard-response","146","437081","0.0-7.0-1.0-4.0-0.0-1.19","4","3","3","3","4","3","4","2","4","4","4","5","3","4","4","4","2","5","4","4","2","2","2","2","2","1","1","2","1","1","0","0","1","0","1","0","1","0","1","0","0","0","0","0","5","2","4","2","4","5","4","4","5","4","598907506583928832","刘","443","","","","","","","","","","","","","","","","","","","","","","","","","","","","","","feedback_test","","","","","","","","","",""
"724","","j","psychophysics","147","438806","0.0-7.0-1.0-4.0-0.0-0.20","4","3","3","3","4","3","4","2","4","4","4","5","3","4","4","4","2","5","4","4","2","2","2","2","2","1","1","2","1","1","0","0","1","0","1","0","1","0","1","0","0","0","0","0","5","2","4","2","4","5","4","4","5","4","598907506583928832","刘","443","","","","match","","","","","","","","","","","","","","key","j","16.67711650485453","758.3333534223067","422.22223340729164","j","true","match","img/square.png","方形","方形","ALT1","formal_ALT1_2","","","","","","","","","",""
"null","<span style='color:GreenYellow; font-size: 70px;'>正确! </span>","null","html-keyboard-response","148","439310","0.0-7.0-1.0-4.0-0.0-1.20","4","3","3","3","4","3","4","2","4","4","4","5","3","4","4","4","2","5","4","4","2","2","2","2","2","1","1","2","1","1","0","0","1","0","1","0","1","0","1","0","0","0","0","0","5","2","4","2","4","5","4","4","5","4","598907506583928832","刘","443","","","","","","","","","","","","","","","","","","","","","","","","","","","","","","feedback_test","","","","","","","","","",""
"736","","j","psychophysics","149","441047","0.0-7.0-1.0-4.0-0.0-0.21","4","3","3","3","4","3","4","2","4","4","4","5","3","4","4","4","2","5","4","4","2","2","2","2","2","1","1","2","1","1","0","0","1","0","1","0","1","0","1","0","0","0","0","0","5","2","4","2","4","5","4","4","5","4","598907506583928832","刘","443","","","","match","","","","","","","","","","","","","","key","j","16.67629126213588","758.3333534223067","422.22223340729164","f","false","nonmatch","img/ellipse.png","菱形","椭圆","ALT1","formal_ALT1_2","","","","","","","","","",""
"null","<span style='color:red; font-size: 70px;'>错误! </span>","null","html-keyboard-response","150","441552","0.0-7.0-1.0-4.0-0.0-1.21","4","3","3","3","4","3","4","2","4","4","4","5","3","4","4","4","2","5","4","4","2","2","2","2","2","1","1","2","1","1","0","0","1","0","1","0","1","0","1","0","0","0","0","0","5","2","4","2","4","5","4","4","5","4","598907506583928832","刘","443","","","","","","","","","","","","","","","","","","","","","","","","","","","","","","feedback_test","","","","","","","","","",""
"744","","f","psychophysics","151","443298","0.0-7.0-1.0-4.0-0.0-0.22","4","3","3","3","4","3","4","2","4","4","4","5","3","4","4","4","2","5","4","4","2","2","2","2","2","1","1","2","1","1","0","0","1","0","1","0","1","0","1","0","0","0","0","0","5","2","4","2","4","5","4","4","5","4","598907506583928832","刘","443","","","","nonmatch","","","","","","","","","","","","","","key","f","16.6744134615387","758.3333534223067","422.22223340729164","f","true","nonmatch","img/square.png","五边","方形","ALT1","formal_ALT1_2","","","","","","","","","",""
"null","<span style='color:GreenYellow; font-size: 70px;'>正确! </span>","null","html-keyboard-response","152","443798","0.0-7.0-1.0-4.0-0.0-1.22","4","3","3","3","4","3","4","2","4","4","4","5","3","4","4","4","2","5","4","4","2","2","2","2","2","1","1","2","1","1","0","0","1","0","1","0","1","0","1","0","0","0","0","0","5","2","4","2","4","5","4","4","5","4","598907506583928832","刘","443","","","","","","","","","","","","","","","","","","","","","","","","","","","","","","feedback_test","","","","","","","","","",""
"691","","f","psychophysics","153","445493","0.0-7.0-1.0-4.0-0.0-0.23","4","3","3","3","4","3","4","2","4","4","4","5","3","4","4","4","2","5","4","4","2","2","2","2","2","1","1","2","1","1","0","0","1","0","1","0","1","0","1","0","0","0","0","0","5","2","4","2","4","5","4","4","5","4","598907506583928832","刘","443","","","","nonmatch","","","","","","","","","","","","","","key","f","16.6747227722772","758.3333534223067","422.22223340729164","f","true","nonmatch","img/square.png","椭圆","方形","ALT1","formal_ALT1_2","","","","","","","","","",""
"null","<span style='color:GreenYellow; font-size: 70px;'>正确! </span>","null","html-keyboard-response","154","446004","0.0-7.0-1.0-4.0-0.0-1.23","4","3","3","3","4","3","4","2","4","4","4","5","3","4","4","4","2","5","4","4","2","2","2","2","2","1","1","2","1","1","0","0","1","0","1","0","1","0","1","0","0","0","0","0","5","2","4","2","4","5","4","4","5","4","598907506583928832","刘","443","","","","","","","","","","","","","","","","","","","","","","","","","","","","","","feedback_test","","","","","","","","","",""
"614","","j","psychophysics","155","447621","0.0-7.0-1.0-4.0-0.0-0.24","4","3","3","3","4","3","4","2","4","4","4","5","3","4","4","4","2","5","4","4","2","2","2","2","2","1","1","2","1","1","0","0","1","0","1","0","1","0","1","0","0","0","0","0","5","2","4","2","4","5","4","4","5","4","598907506583928832","刘","443","","","","match","","","","","","","","","","","","","","key","j","16.677979166666166","758.3333534223067","422.22223340729164","j","true","match","img/pentagon.png","五边","五边","ALT1","formal_ALT1_2","","","","","","","","","",""
"null","<span style='color:GreenYellow; font-size: 70px;'>正确! </span>","null","html-keyboard-response","156","448122","0.0-7.0-1.0-4.0-0.0-1.24","4","3","3","3","4","3","4","2","4","4","4","5","3","4","4","4","2","5","4","4","2","2","2","2","2","1","1","2","1","1","0","0","1","0","1","0","1","0","1","0","0","0","0","0","5","2","4","2","4","5","4","4","5","4","598907506583928832","刘","443","","","","","","","","","","","","","","","","","","","","","","","","","","","","","","feedback_test","","","","","","","","","",""
"809","","f","psychophysics","157","449933","0.0-7.0-1.0-4.0-0.0-0.25","4","3","3","3","4","3","4","2","4","4","4","5","3","4","4","4","2","5","4","4","2","2","2","2","2","1","1","2","1","1","0","0","1","0","1","0","1","0","1","0","0","0","0","0","5","2","4","2","4","5","4","4","5","4","598907506583928832","刘","443","","","","nonmatch","","","","","","","","","","","","","","key","f","16.6766388888888","758.3333534223067","422.22223340729164","f","true","nonmatch","img/diamond.png","方形","菱形","ALT1","formal_ALT1_2","","","","","","","","","",""
"null","<span style='color:GreenYellow; font-size: 70px;'>正确! </span>","null","html-keyboard-response","158","450435","0.0-7.0-1.0-4.0-0.0-1.25","4","3","3","3","4","3","4","2","4","4","4","5","3","4","4","4","2","5","4","4","2","2","2","2","2","1","1","2","1","1","0","0","1","0","1","0","1","0","1","0","0","0","0","0","5","2","4","2","4","5","4","4","5","4","598907506583928832","刘","443","","","","","","","","","","","","","","","","","","","","","","","","","","","","","","feedback_test","","","","","","","","","",""
"662","","j","psychophysics","159","452097","0.0-7.0-1.0-4.0-0.0-0.26","4","3","3","3","4","3","4","2","4","4","4","5","3","4","4","4","2","5","4","4","2","2","2","2","2","1","1","2","1","1","0","0","1","0","1","0","1","0","1","0","0","0","0","0","5","2","4","2","4","5","4","4","5","4","598907506583928832","刘","443","","","","match","","","","","","","","","","","","","","key","j","16.675303030302842","758.3333534223067","422.22223340729164","j","true","match","img/diamond.png","菱形","菱形","ALT1","formal_ALT1_2","","","","","","","","","",""
"null","<span style='color:GreenYellow; font-size: 70px;'>正确! </span>","null","html-keyboard-response","160","452600","0.0-7.0-1.0-4.0-0.0-1.26","4","3","3","3","4","3","4","2","4","4","4","5","3","4","4","4","2","5","4","4","2","2","2","2","2","1","1","2","1","1","0","0","1","0","1","0","1","0","1","0","0","0","0","0","5","2","4","2","4","5","4","4","5","4","598907506583928832","刘","443","","","","","","","","","","","","","","","","","","","","","","","","","","","","","","feedback_test","","","","","","","","","",""
"631","","f","psychophysics","161","454232","0.0-7.0-1.0-4.0-0.0-0.27","4","3","3","3","4","3","4","2","4","4","4","5","3","4","4","4","2","5","4","4","2","2","2","2","2","1","1","2","1","1","0","0","1","0","1","0","1","0","1","0","0","0","0","0","5","2","4","2","4","5","4","4","5","4","598907506583928832","刘","443","","","","nonmatch","","","","","","","","","","","","","","key","f","16.674752577319598","758.3333534223067","422.22223340729164","f","true","nonmatch","img/square.png","菱形","方形","ALT1","formal_ALT1_2","","","","","","","","","",""
"null","<span style='color:GreenYellow; font-size: 70px;'>正确! </span>","null","html-keyboard-response","162","454742","0.0-7.0-1.0-4.0-0.0-1.27","4","3","3","3","4","3","4","2","4","4","4","5","3","4","4","4","2","5","4","4","2","2","2","2","2","1","1","2","1","1","0","0","1","0","1","0","1","0","1","0","0","0","0","0","5","2","4","2","4","5","4","4","5","4","598907506583928832","刘","443","","","","","","","","","","","","","","","","","","","","","","","","","","","","","","feedback_test","","","","","","","","","",""
"699","","j","psychophysics","163","456444","0.0-7.0-1.0-4.0-0.0-0.28","4","3","3","3","4","3","4","2","4","4","4","5","3","4","4","4","2","5","4","4","2","2","2","2","2","1","1","2","1","1","0","0","1","0","1","0","1","0","1","0","0","0","0","0","5","2","4","2","4","5","4","4","5","4","598907506583928832","刘","443","","","","match","","","","","","","","","","","","","","key","j","16.67628712871338","758.3333534223067","422.22223340729164","j","true","match","img/square.png","方形","方形","ALT1","formal_ALT1_2","","","","","","","","","",""
"null","<span style='color:GreenYellow; font-size: 70px;'>正确! </span>","null","html-keyboard-response","164","456945","0.0-7.0-1.0-4.0-0.0-1.28","4","3","3","3","4","3","4","2","4","4","4","5","3","4","4","4","2","5","4","4","2","2","2","2","2","1","1","2","1","1","0","0","1","0","1","0","1","0","1","0","0","0","0","0","5","2","4","2","4","5","4","4","5","4","598907506583928832","刘","443","","","","","","","","","","","","","","","","","","","","","","","","","","","","","","feedback_test","","","","","","","","","",""
"639","","j","psychophysics","165","458586","0.0-7.0-1.0-4.0-0.0-0.29","4","3","3","3","4","3","4","2","4","4","4","5","3","4","4","4","2","5","4","4","2","2","2","2","2","1","1","2","1","1","0","0","1","0","1","0","1","0","1","0","0","0","0","0","5","2","4","2","4","5","4","4","5","4","598907506583928832","刘","443","","","","match","","","","","","","","","","","","","","key","j","16.673824742268387","758.3333534223067","422.22223340729164","j","true","match","img/pentagon.png","五边","五边","ALT1","formal_ALT1_2","","","","","","","","","",""
"null","<span style='color:GreenYellow; font-size: 70px;'>正确! </span>","null","html-keyboard-response","166","459087","0.0-7.0-1.0-4.0-0.0-1.29","4","3","3","3","4","3","4","2","4","4","4","5","3","4","4","4","2","5","4","4","2","2","2","2","2","1","1","2","1","1","0","0","1","0","1","0","1","0","1","0","0","0","0","0","5","2","4","2","4","5","4","4","5","4","598907506583928832","刘","443","","","","","","","","","","","","","","","","","","","","","","","","","","","","","","feedback_test","","","","","","","","","",""
"666","","f","psychophysics","167","460755","0.0-7.0-1.0-4.0-0.0-0.30","4","3","3","3","4","3","4","2","4","4","4","5","3","4","4","4","2","5","4","4","2","2","2","2","2","1","1","2","1","1","0","0","1","0","1","0","1","0","1","0","0","0","0","0","5","2","4","2","4","5","4","4","5","4","598907506583928832","刘","443","","","","nonmatch","","","","","","","","","","","","","","key","f","16.67719191919149","758.3333534223067","422.22223340729164","f","true","nonmatch","img/pentagon.png","椭圆","五边","ALT1","formal_ALT1_2","","","","","","","","","",""
"null","<span style='color:GreenYellow; font-size: 70px;'>正确! </span>","null","html-keyboard-response","168","461256","0.0-7.0-1.0-4.0-0.0-1.30","4","3","3","3","4","3","4","2","4","4","4","5","3","4","4","4","2","5","4","4","2","2","2","2","2","1","1","2","1","1","0","0","1","0","1","0","1","0","1","0","0","0","0","0","5","2","4","2","4","5","4","4","5","4","598907506583928832","刘","443","","","","","","","","","","","","","","","","","","","","","","","","","","","","","","feedback_test","","","","","","","","","",""
"720","","j","psychophysics","169","462977","0.0-7.0-1.0-4.0-0.0-0.31","4","3","3","3","4","3","4","2","4","4","4","5","3","4","4","4","2","5","4","4","2","2","2","2","2","1","1","2","1","1","0","0","1","0","1","0","1","0","1","0","0","0","0","0","5","2","4","2","4","5","4","4","5","4","598907506583928832","刘","443","","","","match","","","","","","","","","","","","","","key","j","16.674911764706028","758.3333534223067","422.22223340729164","j","true","match","img/square.png","方形","方形","ALT1","formal_ALT1_2","","","","","","","","","",""
"null","<span style='color:GreenYellow; font-size: 70px;'>正确! </span>","null","html-keyboard-response","170","463480","0.0-7.0-1.0-4.0-0.0-1.31","4","3","3","3","4","3","4","2","4","4","4","5","3","4","4","4","2","5","4","4","2","2","2","2","2","1","1","2","1","1","0","0","1","0","1","0","1","0","1","0","0","0","0","0","5","2","4","2","4","5","4","4","5","4","598907506583928832","刘","443","","","","","","","","","","","","","","","","","","","","","","","","","","","","","","feedback_test","","","","","","","","","",""
"685","","f","psychophysics","171","465167","0.0-7.0-1.0-4.0-0.0-0.32","4","3","3","3","4","3","4","2","4","4","4","5","3","4","4","4","2","5","4","4","2","2","2","2","2","1","1","2","1","1","0","0","1","0","1","0","1","0","1","0","0","0","0","0","5","2","4","2","4","5","4","4","5","4","598907506583928832","刘","443","","","","nonmatch","","","","","","","","","","","","","","key","f","16.67468316831665","758.3333534223067","422.22223340729164","f","true","nonmatch","img/diamond.png","五边","菱形","ALT1","formal_ALT1_2","","","","","","","","","",""
"null","<span style='color:GreenYellow; font-size: 70px;'>正确! </span>","null","html-keyboard-response","172","465672","0.0-7.0-1.0-4.0-0.0-1.32","4","3","3","3","4","3","4","2","4","4","4","5","3","4","4","4","2","5","4","4","2","2","2","2","2","1","1","2","1","1","0","0","1","0","1","0","1","0","1","0","0","0","0","0","5","2","4","2","4","5","4","4","5","4","598907506583928832","刘","443","","","","","","","","","","","","","","","","","","","","","","","","","","","","","","feedback_test","","","","","","","","","",""
"607","","f","psychophysics","173","467280","0.0-7.0-1.0-4.0-0.0-0.33","4","3","3","3","4","3","4","2","4","4","4","5","3","4","4","4","2","5","4","4","2","2","2","2","2","1","1","2","1","1","0","0","1","0","1","0","1","0","1","0","0","0","0","0","5","2","4","2","4","5","4","4","5","4","598907506583928832","刘","443","","","","nonmatch","","","","","","","","","","","","","","key","f","16.675031578947642","758.3333534223067","422.22223340729164","f","true","nonmatch","img/ellipse.png","菱形","椭圆","ALT1","formal_ALT1_2","","","","","","","","","",""
"null","<span style='color:GreenYellow; font-size: 70px;'>正确! </span>","null","html-keyboard-response","174","467785","0.0-7.0-1.0-4.0-0.0-1.33","4","3","3","3","4","3","4","2","4","4","4","5","3","4","4","4","2","5","4","4","2","2","2","2","2","1","1","2","1","1","0","0","1","0","1","0","1","0","1","0","0","0","0","0","5","2","4","2","4","5","4","4","5","4","598907506583928832","刘","443","","","","","","","","","","","","","","","","","","","","","","","","","","","","","","feedback_test","","","","","","","","","",""
"782","","j","psychophysics","175","469569","0.0-7.0-1.0-4.0-0.0-0.34","4","3","3","3","4","3","4","2","4","4","4","5","3","4","4","4","2","5","4","4","2","2","2","2","2","1","1","2","1","1","0","0","1","0","1","0","1","0","1","0","0","0","0","0","5","2","4","2","4","5","4","4","5","4","598907506583928832","刘","443","","","","match","","","","","","","","","","","","","","key","j","16.674094339622346","758.3333534223067","422.22223340729164","j","true","match","img/diamond.png","菱形","菱形","ALT1","formal_ALT1_2","","","","","","","","","",""
"null","<span style='color:GreenYellow; font-size: 70px;'>正确! </span>","null","html-keyboard-response","176","470070","0.0-7.0-1.0-4.0-0.0-1.34","4","3","3","3","4","3","4","2","4","4","4","5","3","4","4","4","2","5","4","4","2","2","2","2","2","1","1","2","1","1","0","0","1","0","1","0","1","0","1","0","0","0","0","0","5","2","4","2","4","5","4","4","5","4","598907506583928832","刘","443","","","","","","","","","","","","","","","","","","","","","","","","","","","","","","feedback_test","","","","","","","","","",""
"862","","f","psychophysics","177","471933","0.0-7.0-1.0-4.0-0.0-0.35","4","3","3","3","4","3","4","2","4","4","4","5","3","4","4","4","2","5","4","4","2","2","2","2","2","1","1","2","1","1","0","0","1","0","1","0","1","0","1","0","0","0","0","0","5","2","4","2","4","5","4","4","5","4","598907506583928832","刘","443","","","","nonmatch","","","","","","","","","","","","","","key","f","16.6743272727276","758.3333534223067","422.22223340729164","f","true","nonmatch","img/pentagon.png","方形","五边","ALT1","formal_ALT1_2","","","","","","","","","",""
"null","<span style='color:GreenYellow; font-size: 70px;'>正确! </span>","null","html-keyboard-response","178","472435","0.0-7.0-1.0-4.0-0.0-1.35","4","3","3","3","4","3","4","2","4","4","4","5","3","4","4","4","2","5","4","4","2","2","2","2","2","1","1","2","1","1","0","0","1","0","1","0","1","0","1","0","0","0","0","0","5","2","4","2","4","5","4","4","5","4","598907506583928832","刘","443","","","","","","","","","","","","","","","","","","","","","","","","","","","","","","feedback_test","","","","","","","","","",""
"872","","f","psychophysics","179","474308","0.0-7.0-1.0-4.0-0.0-0.36","4","3","3","3","4","3","4","2","4","4","4","5","3","4","4","4","2","5","4","4","2","2","2","2","2","1","1","2","1","1","0","0","1","0","1","0","1","0","1","0","0","0","0","0","5","2","4","2","4","5","4","4","5","4","598907506583928832","刘","443","","","","nonmatch","","","","","","","","","","","","","","key","f","16.660063063062996","758.3333534223067","422.22223340729164","f","true","nonmatch","img/square.png","五边","方形","ALT1","formal_ALT1_2","","","","","","","","","",""
"null","<span style='color:GreenYellow; font-size: 70px;'>正确! </span>","null","html-keyboard-response","180","474821","0.0-7.0-1.0-4.0-0.0-1.36","4","3","3","3","4","3","4","2","4","4","4","5","3","4","4","4","2","5","4","4","2","2","2","2","2","1","1","2","1","1","0","0","1","0","1","0","1","0","1","0","0","0","0","0","5","2","4","2","4","5","4","4","5","4","598907506583928832","刘","443","","","","","","","","","","","","","","","","","","","","","","","","","","","","","","feedback_test","","","","","","","","","",""
