"rt","stimulus","response","trial_type","trial_index","time_elapsed","internal_node_id","ses_1","ses_2","ses_3","ses_4","ses_5","ses_6","ses_7","ses_8","ses_9","ses_10","coreself_1","coreself_2","coreself_3","coreself_4","coreself_5","coreself_6","coreself_7","coreself_8","coreself_9","coreself_10","SGPS_1","SGPS_2","SGPS_3","SGPS_4","SGPS_5","SGPS_6","SGPS_7","SGPS_8","SGPS_9","NPI1","NPI2","NPI3","NPI4","NPI5","NPI6","NPI7","NPI8","NPI9","NPI10","NPI11","NPI12","NPI13","NPI14","NPI15","hsns_1","hsns_2","hsns_3","hsns_4","hsns_5","hsns_6","hsns_7","hsns_8","hsns_9","hsns_10","subj_idx","friend_name","ParticipantID","value","success","user_agent","responses","item_order","radio_event_ids","radio_event_times","key_event_times","mouse_event_times","straightlining","zigzagging","honeypot","timeout","failed_images","failed_audio","failed_video","version_attrib2","version_target2","correct","IAT","screen_id","task_id","RT","condition","word","varname","summary","version_attrib","version_target","time_stamp","view_history","response_type","key_press","avg_frame_time","center_x","center_y","correct_response","identity","Image","question_order"
"32178","
   <p><div style = ""color: white;font-size:25px;"">您好，欢迎参加本次实验。</div> </p>
   <p><div style = ""color: white;font-size:25px;"">为充分保障您的权利，请确保您已经知晓并同意《参与实验同意书》以及《数据公开知情同意书》。</div></p>
   <p><div style = ""color: white;font-size:25px;"">如果您未见过上述内容，请咨询实验员。</div></p>
   <p><div style = ""color: white;font-size:25px;"">如果您选择继续实验，则表示您已经清楚两份知情同意书的内容并同意。</div></p>
   <p><div style = ""color: red;font-size:30px;"">请确保您记得day0的实验编号，您将在本次实验输入该编号，若您忘记，请咨询实验员后作答。</div></p>
   <p> <div style = ""color: green;font-size:25px;""><按空格键至下页></div> </p>
   "," ","html-keyboard-response","0","32181","0.0-0.0","3","4","4","4","4","3","4","1","4","4","5","4","5","4","5","5","4","5","4","5","2","1","2","1","1","2","2","1","1","0","0","1","1","0","0","0","1","0","1","1","0","0","1","1","5","1","1","2","4","4","5","5","2","1","718788150628974592","刘","570","","","","","","","","","","","","","","","","","","","","","","","","","","","","","","","","","","","","","","","",""
"","","","call-function","1","32182","0.0-1.0-0.0","3","4","4","4","4","3","4","1","4","4","5","4","5","4","5","5","4","5","4","5","2","1","2","1","1","2","2","1","1","0","0","1","1","0","0","0","1","0","1","1","0","0","1","1","5","1","1","2","4","4","5","5","2","1","718788150628974592","刘","570","","","","","","","","","","","","","","","","","","","","","","","","","","","","","","","","","","","","","","","",""
"11604","","{""friend_name"":""刘"",""ParticipantID"":""570""}","survey-html-form","2","43787","0.0-1.0-1.0","3","4","4","4","4","3","4","1","4","4","5","4","5","4","5","5","4","5","4","5","2","1","2","1","1","2","2","1","1","0","0","1","1","0","0","0","1","0","1","1","0","0","1","1","5","1","1","2","4","4","5","5","2","1","718788150628974592","刘","570","","","","","","","","","","","","","","","","","","","","","","","","","","","","","","","","","","","","","","","",""
"","","","fullscreen","3","45096","0.0-2.0","3","4","4","4","4","3","4","1","4","4","5","4","5","4","5","5","4","5","4","5","2","1","2","1","1","2","2","1","1","0","0","1","1","0","0","0","1","0","1","1","0","0","1","1","5","1","1","2","4","4","5","5","2","1","718788150628974592","刘","570","","true","{}","","","","","","","","","","","","","","","","","","","","","","","","","","","","","","","","","","","","",""
"32681.799999952316","","{""Q01"":""3"",""Q02"":""4"",""Q03"":""4"",""Q04"":""4"",""Q05"":""4"",""Q06"":""3"",""Q07"":""4"",""Q08"":""1"",""Q09"":""4"",""Q10"":""4""}","survey-template","4","77780","0.0-3.0","3","4","4","4","4","3","4","1","4","4","5","4","5","4","5","5","4","5","4","5","2","1","2","1","1","2","2","1","1","0","0","1","1","0","0","0","1","0","1","1","0","0","1","1","5","1","1","2","4","4","5","5","2","1","718788150628974592","刘","570","","","","{""Q01"":""3"",""Q02"":""4"",""Q03"":""4"",""Q04"":""4"",""Q05"":""4"",""Q06"":""3"",""Q07"":""4"",""Q08"":""1"",""Q09"":""4"",""Q10"":""4""}","[0,1,2,3,4,5,6,7,8,9]","[""Q01"",""Q02"",""Q03"",""Q04"",""Q05"",""Q06"",""Q07"",""Q08"",""Q09"",""Q10""]","[5905.200000047684,7385.100000023842,11552.799999952316,12561,14529.100000023842,16616.899999976158,18969.200000047684,20768.899999976158,24160.899999976158,25065.899999976158]","[]","[5905.200000047684,7385.100000023842,8793.200000047684,11552.799999952316,12561,14529.100000023842,16616.899999976158,18969.200000047684,20768.899999976158,24160.899999976158,25065.899999976158,27289.200000047684,32681]","0.4","0.6666666666666666","0","","","","","","","","","","","","","","","","","","","","","","","","","","","",""
"53452","","{""Q01"":""5"",""Q02"":""4"",""Q03"":""5"",""Q04"":""4"",""Q05"":""5"",""Q06"":""5"",""Q07"":""4"",""Q08"":""5"",""Q09"":""4"",""Q10"":""5""}","survey-template","5","131236","0.0-4.0","3","4","4","4","4","3","4","1","4","4","5","4","5","4","5","5","4","5","4","5","2","1","2","1","1","2","2","1","1","0","0","1","1","0","0","0","1","0","1","1","0","0","1","1","5","1","1","2","4","4","5","5","2","1","718788150628974592","刘","570","","","","{""Q01"":""5"",""Q02"":""4"",""Q03"":""5"",""Q04"":""4"",""Q05"":""5"",""Q06"":""5"",""Q07"":""4"",""Q08"":""5"",""Q09"":""4"",""Q10"":""5""}","[0,1,2,3,4,5,6,7,8,9]","[""Q01"",""Q02"",""Q03"",""Q04"",""Q05"",""Q06"",""Q07"",""Q08"",""Q09"",""Q10""]","[1907.1000000238419,3267.2000000476837,4763.100000023842,6306.899999976158,10290.899999976158,11955,13363.100000023842,16082.700000047684,17731.399999976158,32178.600000023842]","[]","[634.7999999523163,1907.1000000238419,3267.2000000476837,4763.100000023842,6306.899999976158,10290.899999976158,11955,13363.100000023842,16082.700000047684,17731.399999976158,18314.899999976158,20499,22227.100000023842,23803,25770.899999976158,28562.799999952316,32178.600000023842,32683,33858.89999997616,36722.89999997616,39242.799999952316,40835,46122.700000047684,47924.39999997616,53451.10000002384]","0.4","0.3333333333333333","0","","","","","","","","","","","","","","","","","","","","","","","","","","","",""
"","","","preload","6","131627","0.0-5.0","3","4","4","4","4","3","4","1","4","4","5","4","5","4","5","5","4","5","4","5","2","1","2","1","1","2","2","1","1","0","0","1","1","0","0","0","1","0","1","1","0","0","1","1","5","1","1","2","4","4","5","5","2","1","718788150628974592","刘","570","","true","","","","","","","","","","","false","[]","[]","[]","","","","","","","","","","","","","","","","","","","","","","","",""
"16967","
    <h3>词语分类任务</h3>
    <p>在接下来的任务中，你需要对一系列词语进行分类。<p/>
    请先熟悉这些词语，这有利于你完成接下来的任务。</p>
    <table align=""center"" border=1 cellpadding=3 cellspacing=0>
    <tr> <th>类别</th> <th>词语</th> </tr>
    <tr> <td>&emsp;积极&emsp;</td> <td>&emsp;高尚、诚信、善良、君子、廉正、正直&emsp;</td> </tr>
    <tr> <td>&emsp;消极&emsp;</td> <td>&emsp;缺德、卑鄙、不孝、不仁、小人、黑心&emsp;</td> </tr>
    <tr> <td>&emsp;自我&emsp;</td> <td>&emsp;我、我的、自己、自己的、本人、本人的&emsp;</td> </tr>
    <tr> <td>&emsp;他人&emsp;</td> <td>&emsp;他、他的、别人、别人的、他人、他人的&emsp;</td> </tr>
    </table><br/>","0","html-button-response","7","148594","0.0-6.0-1.0-0.0","3","4","4","4","4","3","4","1","4","4","5","4","5","4","5","5","4","5","4","5","2","1","2","1","1","2","2","1","1","0","0","1","1","0","0","0","1","0","1","1","0","0","1","1","5","1","1","2","4","4","5","5","2","1","718788150628974592","刘","570","","","","","","","","","","","","","","","","","1","1","","","","","","","","","","","","","","","","","","","","","",""
"7654","
    <div class=""tag-bottom""><p>
    —— 任务1：对“自我”词和“他人”词分类 ——<p/>
    不同词语会出现在屏幕中央，类别标签将始终显示在屏幕上方<p/>   
    <span style=""color:#FFD866""><b>请根据上方标签的提示，尽可能正确并且快速地做出按键反应</b></span><p/>
    当按键错误时屏幕中会出现<span style=""color:red""> X </span>，需要按另一个键纠正才能继续<br/><p/>
    请把双手食指分别放在键盘的“E”键和“I”键上<p/>
    按<空格键>开始
    </p></div>"," ","html-keyboard-response","8","156250","0.0-6.0-1.0-1.0","3","4","4","4","4","3","4","1","4","4","5","4","5","4","5","5","4","5","4","5","2","1","2","1","1","2","2","1","1","0","0","1","1","0","0","0","1","0","1","1","0","0","1","1","5","1","1","2","4","4","5","5","2","1","718788150628974592","刘","570","","","","","","","","","","","","","","","","","","","","","","","","","","","","","","","","","","","","","","","",""
"null","","null","html-keyboard-response","9","156501","0.0-6.0-1.0-2.0-0.0","3","4","4","4","4","3","4","1","4","4","5","4","5","4","5","5","4","5","4","5","2","1","2","1","1","2","2","1","1","0","0","1","1","0","0","0","1","0","1","1","0","0","1","1","5","1","1","2","4","4","5","5","2","1","718788150628974592","刘","570","","","","","","","","","","","","","","","","","","","","","","","","","","","","","","","","","","","","","","","",""
"675","<p style=""color:rgb(150, 250, 100); font-size: 35px;"">自己的</p>","e","categorize-html","10","157178","0.0-6.0-1.0-2.0-1.0","3","4","4","4","4","3","4","1","4","4","5","4","5","4","5","5","4","5","4","5","2","1","2","1","1","2","2","1","1","0","0","1","1","0","0","0","1","0","1","1","0","0","1","1","5","1","1","2","4","4","5","5","2","1","718788150628974592","刘","570","","","","","","","","","","","","","","","","","","","true","11","1","moral","675","self","自己的","","","","","","","","","","","","","","",""
"null","","null","html-keyboard-response","11","157429","0.0-6.0-1.0-2.0-0.1","3","4","4","4","4","3","4","1","4","4","5","4","5","4","5","5","4","5","4","5","2","1","2","1","1","2","2","1","1","0","0","1","1","0","0","0","1","0","1","1","0","0","1","1","5","1","1","2","4","4","5","5","2","1","718788150628974592","刘","570","","","","","","","","","","","","","","","","","","","","","","","","","","","","","","","","","","","","","","","",""
"462","<p style=""color:rgb(150, 250, 100); font-size: 35px;"">本人的</p>","e","categorize-html","12","157891","0.0-6.0-1.0-2.0-1.1","3","4","4","4","4","3","4","1","4","4","5","4","5","4","5","5","4","5","4","5","2","1","2","1","1","2","2","1","1","0","0","1","1","0","0","0","1","0","1","1","0","0","1","1","5","1","1","2","4","4","5","5","2","1","718788150628974592","刘","570","","","","","","","","","","","","","","","","","","","true","11","1","moral","462","self","本人的","","","","","","","","","","","","","","",""
"null","","null","html-keyboard-response","13","158142","0.0-6.0-1.0-2.0-0.2","3","4","4","4","4","3","4","1","4","4","5","4","5","4","5","5","4","5","4","5","2","1","2","1","1","2","2","1","1","0","0","1","1","0","0","0","1","0","1","1","0","0","1","1","5","1","1","2","4","4","5","5","2","1","718788150628974592","刘","570","","","","","","","","","","","","","","","","","","","","","","","","","","","","","","","","","","","","","","","",""
"669","<p style=""color:rgb(150, 250, 100); font-size: 35px;"">他人</p>","i","categorize-html","14","158812","0.0-6.0-1.0-2.0-1.2","3","4","4","4","4","3","4","1","4","4","5","4","5","4","5","5","4","5","4","5","2","1","2","1","1","2","2","1","1","0","0","1","1","0","0","0","1","0","1","1","0","0","1","1","5","1","1","2","4","4","5","5","2","1","718788150628974592","刘","570","","","","","","","","","","","","","","","","","","","true","11","1","moral","669","other","他人","","","","","","","","","","","","","","",""
"null","","null","html-keyboard-response","15","159063","0.0-6.0-1.0-2.0-0.3","3","4","4","4","4","3","4","1","4","4","5","4","5","4","5","5","4","5","4","5","2","1","2","1","1","2","2","1","1","0","0","1","1","0","0","0","1","0","1","1","0","0","1","1","5","1","1","2","4","4","5","5","2","1","718788150628974592","刘","570","","","","","","","","","","","","","","","","","","","","","","","","","","","","","","","","","","","","","","","",""
"531","<p style=""color:rgb(150, 250, 100); font-size: 35px;"">别人</p>","i","categorize-html","16","159594","0.0-6.0-1.0-2.0-1.3","3","4","4","4","4","3","4","1","4","4","5","4","5","4","5","5","4","5","4","5","2","1","2","1","1","2","2","1","1","0","0","1","1","0","0","0","1","0","1","1","0","0","1","1","5","1","1","2","4","4","5","5","2","1","718788150628974592","刘","570","","","","","","","","","","","","","","","","","","","true","11","1","moral","531","other","别人","","","","","","","","","","","","","","",""
"null","","null","html-keyboard-response","17","159845","0.0-6.0-1.0-2.0-0.4","3","4","4","4","4","3","4","1","4","4","5","4","5","4","5","5","4","5","4","5","2","1","2","1","1","2","2","1","1","0","0","1","1","0","0","0","1","0","1","1","0","0","1","1","5","1","1","2","4","4","5","5","2","1","718788150628974592","刘","570","","","","","","","","","","","","","","","","","","","","","","","","","","","","","","","","","","","","","","","",""
"604","<p style=""color:rgb(150, 250, 100); font-size: 35px;"">自己</p>","e","categorize-html","18","160450","0.0-6.0-1.0-2.0-1.4","3","4","4","4","4","3","4","1","4","4","5","4","5","4","5","5","4","5","4","5","2","1","2","1","1","2","2","1","1","0","0","1","1","0","0","0","1","0","1","1","0","0","1","1","5","1","1","2","4","4","5","5","2","1","718788150628974592","刘","570","","","","","","","","","","","","","","","","","","","true","11","1","moral","604","self","自己","","","","","","","","","","","","","","",""
"null","","null","html-keyboard-response","19","160701","0.0-6.0-1.0-2.0-0.5","3","4","4","4","4","3","4","1","4","4","5","4","5","4","5","5","4","5","4","5","2","1","2","1","1","2","2","1","1","0","0","1","1","0","0","0","1","0","1","1","0","0","1","1","5","1","1","2","4","4","5","5","2","1","718788150628974592","刘","570","","","","","","","","","","","","","","","","","","","","","","","","","","","","","","","","","","","","","","","",""
"717","<p style=""color:rgb(150, 250, 100); font-size: 35px;"">他</p>","i","categorize-html","20","161418","0.0-6.0-1.0-2.0-1.5","3","4","4","4","4","3","4","1","4","4","5","4","5","4","5","5","4","5","4","5","2","1","2","1","1","2","2","1","1","0","0","1","1","0","0","0","1","0","1","1","0","0","1","1","5","1","1","2","4","4","5","5","2","1","718788150628974592","刘","570","","","","","","","","","","","","","","","","","","","true","11","1","moral","717","other","他","","","","","","","","","","","","","","",""
"null","","null","html-keyboard-response","21","161670","0.0-6.0-1.0-2.0-0.6","3","4","4","4","4","3","4","1","4","4","5","4","5","4","5","5","4","5","4","5","2","1","2","1","1","2","2","1","1","0","0","1","1","0","0","0","1","0","1","1","0","0","1","1","5","1","1","2","4","4","5","5","2","1","718788150628974592","刘","570","","","","","","","","","","","","","","","","","","","","","","","","","","","","","","","","","","","","","","","",""
"452","<p style=""color:rgb(150, 250, 100); font-size: 35px;"">他的</p>","i","categorize-html","22","162122","0.0-6.0-1.0-2.0-1.6","3","4","4","4","4","3","4","1","4","4","5","4","5","4","5","5","4","5","4","5","2","1","2","1","1","2","2","1","1","0","0","1","1","0","0","0","1","0","1","1","0","0","1","1","5","1","1","2","4","4","5","5","2","1","718788150628974592","刘","570","","","","","","","","","","","","","","","","","","","true","11","1","moral","452","other","他的","","","","","","","","","","","","","","",""
"null","","null","html-keyboard-response","23","162373","0.0-6.0-1.0-2.0-0.7","3","4","4","4","4","3","4","1","4","4","5","4","5","4","5","5","4","5","4","5","2","1","2","1","1","2","2","1","1","0","0","1","1","0","0","0","1","0","1","1","0","0","1","1","5","1","1","2","4","4","5","5","2","1","718788150628974592","刘","570","","","","","","","","","","","","","","","","","","","","","","","","","","","","","","","","","","","","","","","",""
"767","<p style=""color:rgb(150, 250, 100); font-size: 35px;"">我的</p>","e","categorize-html","24","163140","0.0-6.0-1.0-2.0-1.7","3","4","4","4","4","3","4","1","4","4","5","4","5","4","5","5","4","5","4","5","2","1","2","1","1","2","2","1","1","0","0","1","1","0","0","0","1","0","1","1","0","0","1","1","5","1","1","2","4","4","5","5","2","1","718788150628974592","刘","570","","","","","","","","","","","","","","","","","","","true","11","1","moral","767","self","我的","","","","","","","","","","","","","","",""
"null","","null","html-keyboard-response","25","163391","0.0-6.0-1.0-2.0-0.8","3","4","4","4","4","3","4","1","4","4","5","4","5","4","5","5","4","5","4","5","2","1","2","1","1","2","2","1","1","0","0","1","1","0","0","0","1","0","1","1","0","0","1","1","5","1","1","2","4","4","5","5","2","1","718788150628974592","刘","570","","","","","","","","","","","","","","","","","","","","","","","","","","","","","","","","","","","","","","","",""
"827","<p style=""color:rgb(150, 250, 100); font-size: 35px;"">他人的</p>","i","categorize-html","26","164218","0.0-6.0-1.0-2.0-1.8","3","4","4","4","4","3","4","1","4","4","5","4","5","4","5","5","4","5","4","5","2","1","2","1","1","2","2","1","1","0","0","1","1","0","0","0","1","0","1","1","0","0","1","1","5","1","1","2","4","4","5","5","2","1","718788150628974592","刘","570","","","","","","","","","","","","","","","","","","","true","11","1","moral","827","other","他人的","","","","","","","","","","","","","","",""
"null","","null","html-keyboard-response","27","164469","0.0-6.0-1.0-2.0-0.9","3","4","4","4","4","3","4","1","4","4","5","4","5","4","5","5","4","5","4","5","2","1","2","1","1","2","2","1","1","0","0","1","1","0","0","0","1","0","1","1","0","0","1","1","5","1","1","2","4","4","5","5","2","1","718788150628974592","刘","570","","","","","","","","","","","","","","","","","","","","","","","","","","","","","","","","","","","","","","","",""
"2765","<p style=""color:rgb(150, 250, 100); font-size: 35px;"">别人的</p>","i","categorize-html","28","167234","0.0-6.0-1.0-2.0-1.9","3","4","4","4","4","3","4","1","4","4","5","4","5","4","5","5","4","5","4","5","2","1","2","1","1","2","2","1","1","0","0","1","1","0","0","0","1","0","1","1","0","0","1","1","5","1","1","2","4","4","5","5","2","1","718788150628974592","刘","570","","","","","","","","","","","","","","","","","","","true","11","1","moral","2765","other","别人的","","","","","","","","","","","","","","",""
"null","","null","html-keyboard-response","29","167485","0.0-6.0-1.0-2.0-0.10","3","4","4","4","4","3","4","1","4","4","5","4","5","4","5","5","4","5","4","5","2","1","2","1","1","2","2","1","1","0","0","1","1","0","0","0","1","0","1","1","0","0","1","1","5","1","1","2","4","4","5","5","2","1","718788150628974592","刘","570","","","","","","","","","","","","","","","","","","","","","","","","","","","","","","","","","","","","","","","",""
"725","<p style=""color:rgb(150, 250, 100); font-size: 35px;"">本人</p>","e","categorize-html","30","168210","0.0-6.0-1.0-2.0-1.10","3","4","4","4","4","3","4","1","4","4","5","4","5","4","5","5","4","5","4","5","2","1","2","1","1","2","2","1","1","0","0","1","1","0","0","0","1","0","1","1","0","0","1","1","5","1","1","2","4","4","5","5","2","1","718788150628974592","刘","570","","","","","","","","","","","","","","","","","","","true","11","1","moral","725","self","本人","","","","","","","","","","","","","","",""
"null","","null","html-keyboard-response","31","168462","0.0-6.0-1.0-2.0-0.11","3","4","4","4","4","3","4","1","4","4","5","4","5","4","5","5","4","5","4","5","2","1","2","1","1","2","2","1","1","0","0","1","1","0","0","0","1","0","1","1","0","0","1","1","5","1","1","2","4","4","5","5","2","1","718788150628974592","刘","570","","","","","","","","","","","","","","","","","","","","","","","","","","","","","","","","","","","","","","","",""
"412","<p style=""color:rgb(150, 250, 100); font-size: 35px;"">我</p>","e","categorize-html","32","168875","0.0-6.0-1.0-2.0-1.11","3","4","4","4","4","3","4","1","4","4","5","4","5","4","5","5","4","5","4","5","2","1","2","1","1","2","2","1","1","0","0","1","1","0","0","0","1","0","1","1","0","0","1","1","5","1","1","2","4","4","5","5","2","1","718788150628974592","刘","570","","","","","","","","","","","","","","","","","","","true","11","1","moral","412","self","我","","","","","","","","","","","","","","",""
"999","
    <div class=""tag-bottom""><p>
    —— 任务2：对“积极”词和“消极”词分类 ——<p/>   
    <span style=""color:#78DCE8""><b>注意上方，类别标签和需要分类的词语都已经改变</b></span><p/>
    <span style=""color:#FFD866""><b>请根据上方标签的提示，尽可能正确并且快速地做出按键反应</b></span><p/>
    当按键错误时屏幕中会出现<span style=""color:red""> X </span>，需要按另一个键纠正才能继续<br/><p/>
    请把双手食指分别放在键盘的“E”键和“I”键上<p/>
    按<空格键>开始
    </p></div>"," ","html-keyboard-response","33","169874","0.0-6.0-1.0-3.0","3","4","4","4","4","3","4","1","4","4","5","4","5","4","5","5","4","5","4","5","2","1","2","1","1","2","2","1","1","0","0","1","1","0","0","0","1","0","1","1","0","0","1","1","5","1","1","2","4","4","5","5","2","1","718788150628974592","刘","570","","","","","","","","","","","","","","","","","","","","","","","","","","","","","","","","","","","","","","","",""
"null","","null","html-keyboard-response","34","170125","0.0-6.0-1.0-4.0-0.0","3","4","4","4","4","3","4","1","4","4","5","4","5","4","5","5","4","5","4","5","2","1","2","1","1","2","2","1","1","0","0","1","1","0","0","0","1","0","1","1","0","0","1","1","5","1","1","2","4","4","5","5","2","1","718788150628974592","刘","570","","","","","","","","","","","","","","","","","","","","","","","","","","","","","","","","","","","","","","","",""
"1748","<p style=""color:white; font-size: 35px;"">君子</p>","e","categorize-html","35","171874","0.0-6.0-1.0-4.0-1.0","3","4","4","4","4","3","4","1","4","4","5","4","5","4","5","5","4","5","4","5","2","1","2","1","1","2","2","1","1","0","0","1","1","0","0","0","1","0","1","1","0","0","1","1","5","1","1","2","4","4","5","5","2","1","718788150628974592","刘","570","","","","","","","","","","","","","","","","","","","true","12","2","moral","1748","positive","君子","","","","","","","","","","","","","","",""
"null","","null","html-keyboard-response","36","172125","0.0-6.0-1.0-4.0-0.1","3","4","4","4","4","3","4","1","4","4","5","4","5","4","5","5","4","5","4","5","2","1","2","1","1","2","2","1","1","0","0","1","1","0","0","0","1","0","1","1","0","0","1","1","5","1","1","2","4","4","5","5","2","1","718788150628974592","刘","570","","","","","","","","","","","","","","","","","","","","","","","","","","","","","","","","","","","","","","","",""
"556","<p style=""color:white; font-size: 35px;"">正直</p>","e","categorize-html","37","172682","0.0-6.0-1.0-4.0-1.1","3","4","4","4","4","3","4","1","4","4","5","4","5","4","5","5","4","5","4","5","2","1","2","1","1","2","2","1","1","0","0","1","1","0","0","0","1","0","1","1","0","0","1","1","5","1","1","2","4","4","5","5","2","1","718788150628974592","刘","570","","","","","","","","","","","","","","","","","","","true","12","2","moral","556","positive","正直","","","","","","","","","","","","","","",""
"null","","null","html-keyboard-response","38","172933","0.0-6.0-1.0-4.0-0.2","3","4","4","4","4","3","4","1","4","4","5","4","5","4","5","5","4","5","4","5","2","1","2","1","1","2","2","1","1","0","0","1","1","0","0","0","1","0","1","1","0","0","1","1","5","1","1","2","4","4","5","5","2","1","718788150628974592","刘","570","","","","","","","","","","","","","","","","","","","","","","","","","","","","","","","","","","","","","","","",""
"596","<p style=""color:white; font-size: 35px;"">诚信</p>","e","categorize-html","39","173530","0.0-6.0-1.0-4.0-1.2","3","4","4","4","4","3","4","1","4","4","5","4","5","4","5","5","4","5","4","5","2","1","2","1","1","2","2","1","1","0","0","1","1","0","0","0","1","0","1","1","0","0","1","1","5","1","1","2","4","4","5","5","2","1","718788150628974592","刘","570","","","","","","","","","","","","","","","","","","","true","12","2","moral","596","positive","诚信","","","","","","","","","","","","","","",""
"null","","null","html-keyboard-response","40","173780","0.0-6.0-1.0-4.0-0.3","3","4","4","4","4","3","4","1","4","4","5","4","5","4","5","5","4","5","4","5","2","1","2","1","1","2","2","1","1","0","0","1","1","0","0","0","1","0","1","1","0","0","1","1","5","1","1","2","4","4","5","5","2","1","718788150628974592","刘","570","","","","","","","","","","","","","","","","","","","","","","","","","","","","","","","","","","","","","","","",""
"615","<p style=""color:white; font-size: 35px;"">黑心</p>","i","categorize-html","41","174395","0.0-6.0-1.0-4.0-1.3","3","4","4","4","4","3","4","1","4","4","5","4","5","4","5","5","4","5","4","5","2","1","2","1","1","2","2","1","1","0","0","1","1","0","0","0","1","0","1","1","0","0","1","1","5","1","1","2","4","4","5","5","2","1","718788150628974592","刘","570","","","","","","","","","","","","","","","","","","","true","12","2","moral","615","negative","黑心","","","","","","","","","","","","","","",""
"null","","null","html-keyboard-response","42","174646","0.0-6.0-1.0-4.0-0.4","3","4","4","4","4","3","4","1","4","4","5","4","5","4","5","5","4","5","4","5","2","1","2","1","1","2","2","1","1","0","0","1","1","0","0","0","1","0","1","1","0","0","1","1","5","1","1","2","4","4","5","5","2","1","718788150628974592","刘","570","","","","","","","","","","","","","","","","","","","","","","","","","","","","","","","","","","","","","","","",""
"772","<p style=""color:white; font-size: 35px;"">小人</p>","i","categorize-html","43","175418","0.0-6.0-1.0-4.0-1.4","3","4","4","4","4","3","4","1","4","4","5","4","5","4","5","5","4","5","4","5","2","1","2","1","1","2","2","1","1","0","0","1","1","0","0","0","1","0","1","1","0","0","1","1","5","1","1","2","4","4","5","5","2","1","718788150628974592","刘","570","","","","","","","","","","","","","","","","","","","true","12","2","moral","772","negative","小人","","","","","","","","","","","","","","",""
"null","","null","html-keyboard-response","44","175669","0.0-6.0-1.0-4.0-0.5","3","4","4","4","4","3","4","1","4","4","5","4","5","4","5","5","4","5","4","5","2","1","2","1","1","2","2","1","1","0","0","1","1","0","0","0","1","0","1","1","0","0","1","1","5","1","1","2","4","4","5","5","2","1","718788150628974592","刘","570","","","","","","","","","","","","","","","","","","","","","","","","","","","","","","","","","","","","","","","",""
"620","<p style=""color:white; font-size: 35px;"">善良</p>","e","categorize-html","45","176290","0.0-6.0-1.0-4.0-1.5","3","4","4","4","4","3","4","1","4","4","5","4","5","4","5","5","4","5","4","5","2","1","2","1","1","2","2","1","1","0","0","1","1","0","0","0","1","0","1","1","0","0","1","1","5","1","1","2","4","4","5","5","2","1","718788150628974592","刘","570","","","","","","","","","","","","","","","","","","","true","12","2","moral","620","positive","善良","","","","","","","","","","","","","","",""
"null","","null","html-keyboard-response","46","176541","0.0-6.0-1.0-4.0-0.6","3","4","4","4","4","3","4","1","4","4","5","4","5","4","5","5","4","5","4","5","2","1","2","1","1","2","2","1","1","0","0","1","1","0","0","0","1","0","1","1","0","0","1","1","5","1","1","2","4","4","5","5","2","1","718788150628974592","刘","570","","","","","","","","","","","","","","","","","","","","","","","","","","","","","","","","","","","","","","","",""
"780","<p style=""color:white; font-size: 35px;"">不孝</p>","i","categorize-html","47","177322","0.0-6.0-1.0-4.0-1.6","3","4","4","4","4","3","4","1","4","4","5","4","5","4","5","5","4","5","4","5","2","1","2","1","1","2","2","1","1","0","0","1","1","0","0","0","1","0","1","1","0","0","1","1","5","1","1","2","4","4","5","5","2","1","718788150628974592","刘","570","","","","","","","","","","","","","","","","","","","true","12","2","moral","780","negative","不孝","","","","","","","","","","","","","","",""
"null","","null","html-keyboard-response","48","177574","0.0-6.0-1.0-4.0-0.7","3","4","4","4","4","3","4","1","4","4","5","4","5","4","5","5","4","5","4","5","2","1","2","1","1","2","2","1","1","0","0","1","1","0","0","0","1","0","1","1","0","0","1","1","5","1","1","2","4","4","5","5","2","1","718788150628974592","刘","570","","","","","","","","","","","","","","","","","","","","","","","","","","","","","","","","","","","","","","","",""
"740","<p style=""color:white; font-size: 35px;"">廉正</p>","e","categorize-html","49","178314","0.0-6.0-1.0-4.0-1.7","3","4","4","4","4","3","4","1","4","4","5","4","5","4","5","5","4","5","4","5","2","1","2","1","1","2","2","1","1","0","0","1","1","0","0","0","1","0","1","1","0","0","1","1","5","1","1","2","4","4","5","5","2","1","718788150628974592","刘","570","","","","","","","","","","","","","","","","","","","true","12","2","moral","740","positive","廉正","","","","","","","","","","","","","","",""
"null","","null","html-keyboard-response","50","178565","0.0-6.0-1.0-4.0-0.8","3","4","4","4","4","3","4","1","4","4","5","4","5","4","5","5","4","5","4","5","2","1","2","1","1","2","2","1","1","0","0","1","1","0","0","0","1","0","1","1","0","0","1","1","5","1","1","2","4","4","5","5","2","1","718788150628974592","刘","570","","","","","","","","","","","","","","","","","","","","","","","","","","","","","","","","","","","","","","","",""
"805","<p style=""color:white; font-size: 35px;"">缺德</p>","i","categorize-html","51","179371","0.0-6.0-1.0-4.0-1.8","3","4","4","4","4","3","4","1","4","4","5","4","5","4","5","5","4","5","4","5","2","1","2","1","1","2","2","1","1","0","0","1","1","0","0","0","1","0","1","1","0","0","1","1","5","1","1","2","4","4","5","5","2","1","718788150628974592","刘","570","","","","","","","","","","","","","","","","","","","true","12","2","moral","805","negative","缺德","","","","","","","","","","","","","","",""
"null","","null","html-keyboard-response","52","179622","0.0-6.0-1.0-4.0-0.9","3","4","4","4","4","3","4","1","4","4","5","4","5","4","5","5","4","5","4","5","2","1","2","1","1","2","2","1","1","0","0","1","1","0","0","0","1","0","1","1","0","0","1","1","5","1","1","2","4","4","5","5","2","1","718788150628974592","刘","570","","","","","","","","","","","","","","","","","","","","","","","","","","","","","","","","","","","","","","","",""
"603","<p style=""color:white; font-size: 35px;"">不仁</p>","i","categorize-html","53","180226","0.0-6.0-1.0-4.0-1.9","3","4","4","4","4","3","4","1","4","4","5","4","5","4","5","5","4","5","4","5","2","1","2","1","1","2","2","1","1","0","0","1","1","0","0","0","1","0","1","1","0","0","1","1","5","1","1","2","4","4","5","5","2","1","718788150628974592","刘","570","","","","","","","","","","","","","","","","","","","true","12","2","moral","603","negative","不仁","","","","","","","","","","","","","","",""
"null","","null","html-keyboard-response","54","180476","0.0-6.0-1.0-4.0-0.10","3","4","4","4","4","3","4","1","4","4","5","4","5","4","5","5","4","5","4","5","2","1","2","1","1","2","2","1","1","0","0","1","1","0","0","0","1","0","1","1","0","0","1","1","5","1","1","2","4","4","5","5","2","1","718788150628974592","刘","570","","","","","","","","","","","","","","","","","","","","","","","","","","","","","","","","","","","","","","","",""
"565","<p style=""color:white; font-size: 35px;"">卑鄙</p>","i","categorize-html","55","181042","0.0-6.0-1.0-4.0-1.10","3","4","4","4","4","3","4","1","4","4","5","4","5","4","5","5","4","5","4","5","2","1","2","1","1","2","2","1","1","0","0","1","1","0","0","0","1","0","1","1","0","0","1","1","5","1","1","2","4","4","5","5","2","1","718788150628974592","刘","570","","","","","","","","","","","","","","","","","","","true","12","2","moral","565","negative","卑鄙","","","","","","","","","","","","","","",""
"null","","null","html-keyboard-response","56","181293","0.0-6.0-1.0-4.0-0.11","3","4","4","4","4","3","4","1","4","4","5","4","5","4","5","5","4","5","4","5","2","1","2","1","1","2","2","1","1","0","0","1","1","0","0","0","1","0","1","1","0","0","1","1","5","1","1","2","4","4","5","5","2","1","718788150628974592","刘","570","","","","","","","","","","","","","","","","","","","","","","","","","","","","","","","","","","","","","","","",""
"645","<p style=""color:white; font-size: 35px;"">高尚</p>","e","categorize-html","57","181938","0.0-6.0-1.0-4.0-1.11","3","4","4","4","4","3","4","1","4","4","5","4","5","4","5","5","4","5","4","5","2","1","2","1","1","2","2","1","1","0","0","1","1","0","0","0","1","0","1","1","0","0","1","1","5","1","1","2","4","4","5","5","2","1","718788150628974592","刘","570","","","","","","","","","","","","","","","","","","","true","12","2","moral","645","positive","高尚","","","","","","","","","","","","","","",""
"920","
    <div class=""tag-bottom""><p>
    —— 任务3：对“自我/积极”词和“他人/消极”词分类 ——<p/>
    <span style=""color:#78DCE8""><b>注意上方，之前的四类词语将混合在一起交替呈现</b></span><p/>
    <span style=""color:#FFD866""><b>请根据上方标签的提示，尽可能正确并且快速地做出按键反应</b></span><p/>
    当按键错误时屏幕中会出现<span style=""color:red""> X </span>，需要按另一个键纠正才能继续<br/><p/>
    请把双手食指分别放在键盘的“E”键和“I”键上<p/>
    按<空格键>开始
    </p></div>"," ","html-keyboard-response","58","182858","0.0-6.0-1.0-5.0","3","4","4","4","4","3","4","1","4","4","5","4","5","4","5","5","4","5","4","5","2","1","2","1","1","2","2","1","1","0","0","1","1","0","0","0","1","0","1","1","0","0","1","1","5","1","1","2","4","4","5","5","2","1","718788150628974592","刘","570","","","","","","","","","","","","","","","","","","","","","","","","","","","","","","","","","","","","","","","",""
"null","","null","html-keyboard-response","59","183109","0.0-6.0-1.0-6.0-0.0","3","4","4","4","4","3","4","1","4","4","5","4","5","4","5","5","4","5","4","5","2","1","2","1","1","2","2","1","1","0","0","1","1","0","0","0","1","0","1","1","0","0","1","1","5","1","1","2","4","4","5","5","2","1","718788150628974592","刘","570","","","","","","","","","","","","","","","","","","","","","","","","","","","","","","","","","","","","","","","",""
"916","<p style=""color:rgb(150, 250, 100); font-size: 35px;"">他人的</p>","i","categorize-html","60","184026","0.0-6.0-1.0-6.0-1.0","3","4","4","4","4","3","4","1","4","4","5","4","5","4","5","5","4","5","4","5","2","1","2","1","1","2","2","1","1","0","0","1","1","0","0","0","1","0","1","1","0","0","1","1","5","1","1","2","4","4","5","5","2","1","718788150628974592","刘","570","","","","","","","","","","","","","","","","","","","true","13","3","moral","916","other","他人的","","","","","","","","","","","","","","",""
"null","","null","html-keyboard-response","61","184277","0.0-6.0-1.0-6.0-0.1","3","4","4","4","4","3","4","1","4","4","5","4","5","4","5","5","4","5","4","5","2","1","2","1","1","2","2","1","1","0","0","1","1","0","0","0","1","0","1","1","0","0","1","1","5","1","1","2","4","4","5","5","2","1","718788150628974592","刘","570","","","","","","","","","","","","","","","","","","","","","","","","","","","","","","","","","","","","","","","",""
"700","<p style=""color:white; font-size: 35px;"">不孝</p>","i","categorize-html","62","184978","0.0-6.0-1.0-6.0-1.1","3","4","4","4","4","3","4","1","4","4","5","4","5","4","5","5","4","5","4","5","2","1","2","1","1","2","2","1","1","0","0","1","1","0","0","0","1","0","1","1","0","0","1","1","5","1","1","2","4","4","5","5","2","1","718788150628974592","刘","570","","","","","","","","","","","","","","","","","","","true","13","3","moral","700","negative","不孝","","","","","","","","","","","","","","",""
"null","","null","html-keyboard-response","63","185229","0.0-6.0-1.0-6.0-0.2","3","4","4","4","4","3","4","1","4","4","5","4","5","4","5","5","4","5","4","5","2","1","2","1","1","2","2","1","1","0","0","1","1","0","0","0","1","0","1","1","0","0","1","1","5","1","1","2","4","4","5","5","2","1","718788150628974592","刘","570","","","","","","","","","","","","","","","","","","","","","","","","","","","","","","","","","","","","","","","",""
"652","<p style=""color:rgb(150, 250, 100); font-size: 35px;"">我</p>","e","categorize-html","64","185882","0.0-6.0-1.0-6.0-1.2","3","4","4","4","4","3","4","1","4","4","5","4","5","4","5","5","4","5","4","5","2","1","2","1","1","2","2","1","1","0","0","1","1","0","0","0","1","0","1","1","0","0","1","1","5","1","1","2","4","4","5","5","2","1","718788150628974592","刘","570","","","","","","","","","","","","","","","","","","","true","13","3","moral","652","self","我","","","","","","","","","","","","","","",""
"null","","null","html-keyboard-response","65","186133","0.0-6.0-1.0-6.0-0.3","3","4","4","4","4","3","4","1","4","4","5","4","5","4","5","5","4","5","4","5","2","1","2","1","1","2","2","1","1","0","0","1","1","0","0","0","1","0","1","1","0","0","1","1","5","1","1","2","4","4","5","5","2","1","718788150628974592","刘","570","","","","","","","","","","","","","","","","","","","","","","","","","","","","","","","","","","","","","","","",""
"685","<p style=""color:white; font-size: 35px;"">君子</p>","e","categorize-html","66","186819","0.0-6.0-1.0-6.0-1.3","3","4","4","4","4","3","4","1","4","4","5","4","5","4","5","5","4","5","4","5","2","1","2","1","1","2","2","1","1","0","0","1","1","0","0","0","1","0","1","1","0","0","1","1","5","1","1","2","4","4","5","5","2","1","718788150628974592","刘","570","","","","","","","","","","","","","","","","","","","true","13","3","moral","685","positive","君子","","","","","","","","","","","","","","",""
"null","","null","html-keyboard-response","67","187070","0.0-6.0-1.0-6.0-0.4","3","4","4","4","4","3","4","1","4","4","5","4","5","4","5","5","4","5","4","5","2","1","2","1","1","2","2","1","1","0","0","1","1","0","0","0","1","0","1","1","0","0","1","1","5","1","1","2","4","4","5","5","2","1","718788150628974592","刘","570","","","","","","","","","","","","","","","","","","","","","","","","","","","","","","","","","","","","","","","",""
"571","<p style=""color:rgb(150, 250, 100); font-size: 35px;"">自己的</p>","e","categorize-html","68","187642","0.0-6.0-1.0-6.0-1.4","3","4","4","4","4","3","4","1","4","4","5","4","5","4","5","5","4","5","4","5","2","1","2","1","1","2","2","1","1","0","0","1","1","0","0","0","1","0","1","1","0","0","1","1","5","1","1","2","4","4","5","5","2","1","718788150628974592","刘","570","","","","","","","","","","","","","","","","","","","true","13","3","moral","571","self","自己的","","","","","","","","","","","","","","",""
"null","","null","html-keyboard-response","69","187893","0.0-6.0-1.0-6.0-0.5","3","4","4","4","4","3","4","1","4","4","5","4","5","4","5","5","4","5","4","5","2","1","2","1","1","2","2","1","1","0","0","1","1","0","0","0","1","0","1","1","0","0","1","1","5","1","1","2","4","4","5","5","2","1","718788150628974592","刘","570","","","","","","","","","","","","","","","","","","","","","","","","","","","","","","","","","","","","","","","",""
"685","<p style=""color:white; font-size: 35px;"">卑鄙</p>","i","categorize-html","70","188579","0.0-6.0-1.0-6.0-1.5","3","4","4","4","4","3","4","1","4","4","5","4","5","4","5","5","4","5","4","5","2","1","2","1","1","2","2","1","1","0","0","1","1","0","0","0","1","0","1","1","0","0","1","1","5","1","1","2","4","4","5","5","2","1","718788150628974592","刘","570","","","","","","","","","","","","","","","","","","","true","13","3","moral","685","negative","卑鄙","","","","","","","","","","","","","","",""
"null","","null","html-keyboard-response","71","188830","0.0-6.0-1.0-6.0-0.6","3","4","4","4","4","3","4","1","4","4","5","4","5","4","5","5","4","5","4","5","2","1","2","1","1","2","2","1","1","0","0","1","1","0","0","0","1","0","1","1","0","0","1","1","5","1","1","2","4","4","5","5","2","1","718788150628974592","刘","570","","","","","","","","","","","","","","","","","","","","","","","","","","","","","","","","","","","","","","","",""
"614","<p style=""color:rgb(150, 250, 100); font-size: 35px;"">别人的</p>","i","categorize-html","72","189445","0.0-6.0-1.0-6.0-1.6","3","4","4","4","4","3","4","1","4","4","5","4","5","4","5","5","4","5","4","5","2","1","2","1","1","2","2","1","1","0","0","1","1","0","0","0","1","0","1","1","0","0","1","1","5","1","1","2","4","4","5","5","2","1","718788150628974592","刘","570","","","","","","","","","","","","","","","","","","","true","13","3","moral","614","other","别人的","","","","","","","","","","","","","","",""
"null","","null","html-keyboard-response","73","189696","0.0-6.0-1.0-6.0-0.7","3","4","4","4","4","3","4","1","4","4","5","4","5","4","5","5","4","5","4","5","2","1","2","1","1","2","2","1","1","0","0","1","1","0","0","0","1","0","1","1","0","0","1","1","5","1","1","2","4","4","5","5","2","1","718788150628974592","刘","570","","","","","","","","","","","","","","","","","","","","","","","","","","","","","","","","","","","","","","","",""
"626","<p style=""color:white; font-size: 35px;"">正直</p>","e","categorize-html","74","190323","0.0-6.0-1.0-6.0-1.7","3","4","4","4","4","3","4","1","4","4","5","4","5","4","5","5","4","5","4","5","2","1","2","1","1","2","2","1","1","0","0","1","1","0","0","0","1","0","1","1","0","0","1","1","5","1","1","2","4","4","5","5","2","1","718788150628974592","刘","570","","","","","","","","","","","","","","","","","","","true","13","3","moral","626","positive","正直","","","","","","","","","","","","","","",""
"null","","null","html-keyboard-response","75","190574","0.0-6.0-1.0-6.0-0.8","3","4","4","4","4","3","4","1","4","4","5","4","5","4","5","5","4","5","4","5","2","1","2","1","1","2","2","1","1","0","0","1","1","0","0","0","1","0","1","1","0","0","1","1","5","1","1","2","4","4","5","5","2","1","718788150628974592","刘","570","","","","","","","","","","","","","","","","","","","","","","","","","","","","","","","","","","","","","","","",""
"605","<p style=""color:rgb(150, 250, 100); font-size: 35px;"">他人</p>","i","categorize-html","76","191179","0.0-6.0-1.0-6.0-1.8","3","4","4","4","4","3","4","1","4","4","5","4","5","4","5","5","4","5","4","5","2","1","2","1","1","2","2","1","1","0","0","1","1","0","0","0","1","0","1","1","0","0","1","1","5","1","1","2","4","4","5","5","2","1","718788150628974592","刘","570","","","","","","","","","","","","","","","","","","","true","13","3","moral","605","other","他人","","","","","","","","","","","","","","",""
"null","","null","html-keyboard-response","77","191430","0.0-6.0-1.0-6.0-0.9","3","4","4","4","4","3","4","1","4","4","5","4","5","4","5","5","4","5","4","5","2","1","2","1","1","2","2","1","1","0","0","1","1","0","0","0","1","0","1","1","0","0","1","1","5","1","1","2","4","4","5","5","2","1","718788150628974592","刘","570","","","","","","","","","","","","","","","","","","","","","","","","","","","","","","","","","","","","","","","",""
"1371","<p style=""color:white; font-size: 35px;"">廉正</p>","e","categorize-html","78","192802","0.0-6.0-1.0-6.0-1.9","3","4","4","4","4","3","4","1","4","4","5","4","5","4","5","5","4","5","4","5","2","1","2","1","1","2","2","1","1","0","0","1","1","0","0","0","1","0","1","1","0","0","1","1","5","1","1","2","4","4","5","5","2","1","718788150628974592","刘","570","","","","","","","","","","","","","","","","","","","true","13","3","moral","1371","positive","廉正","","","","","","","","","","","","","","",""
"null","","null","html-keyboard-response","79","193052","0.0-6.0-1.0-6.0-0.10","3","4","4","4","4","3","4","1","4","4","5","4","5","4","5","5","4","5","4","5","2","1","2","1","1","2","2","1","1","0","0","1","1","0","0","0","1","0","1","1","0","0","1","1","5","1","1","2","4","4","5","5","2","1","718788150628974592","刘","570","","","","","","","","","","","","","","","","","","","","","","","","","","","","","","","","","","","","","","","",""
"653","<p style=""color:rgb(150, 250, 100); font-size: 35px;"">我的</p>","e","categorize-html","80","193706","0.0-6.0-1.0-6.0-1.10","3","4","4","4","4","3","4","1","4","4","5","4","5","4","5","5","4","5","4","5","2","1","2","1","1","2","2","1","1","0","0","1","1","0","0","0","1","0","1","1","0","0","1","1","5","1","1","2","4","4","5","5","2","1","718788150628974592","刘","570","","","","","","","","","","","","","","","","","","","true","13","3","moral","653","self","我的","","","","","","","","","","","","","","",""
"null","","null","html-keyboard-response","81","193958","0.0-6.0-1.0-6.0-0.11","3","4","4","4","4","3","4","1","4","4","5","4","5","4","5","5","4","5","4","5","2","1","2","1","1","2","2","1","1","0","0","1","1","0","0","0","1","0","1","1","0","0","1","1","5","1","1","2","4","4","5","5","2","1","718788150628974592","刘","570","","","","","","","","","","","","","","","","","","","","","","","","","","","","","","","","","","","","","","","",""
"2020","<p style=""color:white; font-size: 35px;"">小人</p>","i","categorize-html","82","195979","0.0-6.0-1.0-6.0-1.11","3","4","4","4","4","3","4","1","4","4","5","4","5","4","5","5","4","5","4","5","2","1","2","1","1","2","2","1","1","0","0","1","1","0","0","0","1","0","1","1","0","0","1","1","5","1","1","2","4","4","5","5","2","1","718788150628974592","刘","570","","","","","","","","","","","","","","","","","","","true","13","3","moral","2020","negative","小人","","","","","","","","","","","","","","",""
"null","","null","html-keyboard-response","83","196229","0.0-6.0-1.0-6.0-0.12","3","4","4","4","4","3","4","1","4","4","5","4","5","4","5","5","4","5","4","5","2","1","2","1","1","2","2","1","1","0","0","1","1","0","0","0","1","0","1","1","0","0","1","1","5","1","1","2","4","4","5","5","2","1","718788150628974592","刘","570","","","","","","","","","","","","","","","","","","","","","","","","","","","","","","","","","","","","","","","",""
"933","<p style=""color:rgb(150, 250, 100); font-size: 35px;"">本人的</p>","e","categorize-html","84","197163","0.0-6.0-1.0-6.0-1.12","3","4","4","4","4","3","4","1","4","4","5","4","5","4","5","5","4","5","4","5","2","1","2","1","1","2","2","1","1","0","0","1","1","0","0","0","1","0","1","1","0","0","1","1","5","1","1","2","4","4","5","5","2","1","718788150628974592","刘","570","","","","","","","","","","","","","","","","","","","true","13","3","moral","933","self","本人的","","","","","","","","","","","","","","",""
"null","","null","html-keyboard-response","85","197415","0.0-6.0-1.0-6.0-0.13","3","4","4","4","4","3","4","1","4","4","5","4","5","4","5","5","4","5","4","5","2","1","2","1","1","2","2","1","1","0","0","1","1","0","0","0","1","0","1","1","0","0","1","1","5","1","1","2","4","4","5","5","2","1","718788150628974592","刘","570","","","","","","","","","","","","","","","","","","","","","","","","","","","","","","","","","","","","","","","",""
"1731","<p style=""color:white; font-size: 35px;"">高尚</p>","e","categorize-html","86","199146","0.0-6.0-1.0-6.0-1.13","3","4","4","4","4","3","4","1","4","4","5","4","5","4","5","5","4","5","4","5","2","1","2","1","1","2","2","1","1","0","0","1","1","0","0","0","1","0","1","1","0","0","1","1","5","1","1","2","4","4","5","5","2","1","718788150628974592","刘","570","","","","","","","","","","","","","","","","","","","true","13","3","moral","1731","positive","高尚","","","","","","","","","","","","","","",""
"null","","null","html-keyboard-response","87","199397","0.0-6.0-1.0-6.0-0.14","3","4","4","4","4","3","4","1","4","4","5","4","5","4","5","5","4","5","4","5","2","1","2","1","1","2","2","1","1","0","0","1","1","0","0","0","1","0","1","1","0","0","1","1","5","1","1","2","4","4","5","5","2","1","718788150628974592","刘","570","","","","","","","","","","","","","","","","","","","","","","","","","","","","","","","","","","","","","","","",""
"773","<p style=""color:rgb(150, 250, 100); font-size: 35px;"">别人</p>","i","categorize-html","88","200171","0.0-6.0-1.0-6.0-1.14","3","4","4","4","4","3","4","1","4","4","5","4","5","4","5","5","4","5","4","5","2","1","2","1","1","2","2","1","1","0","0","1","1","0","0","0","1","0","1","1","0","0","1","1","5","1","1","2","4","4","5","5","2","1","718788150628974592","刘","570","","","","","","","","","","","","","","","","","","","true","13","3","moral","773","other","别人","","","","","","","","","","","","","","",""
"null","","null","html-keyboard-response","89","200423","0.0-6.0-1.0-6.0-0.15","3","4","4","4","4","3","4","1","4","4","5","4","5","4","5","5","4","5","4","5","2","1","2","1","1","2","2","1","1","0","0","1","1","0","0","0","1","0","1","1","0","0","1","1","5","1","1","2","4","4","5","5","2","1","718788150628974592","刘","570","","","","","","","","","","","","","","","","","","","","","","","","","","","","","","","","","","","","","","","",""
"1043","<p style=""color:white; font-size: 35px;"">黑心</p>","i","categorize-html","90","201467","0.0-6.0-1.0-6.0-1.15","3","4","4","4","4","3","4","1","4","4","5","4","5","4","5","5","4","5","4","5","2","1","2","1","1","2","2","1","1","0","0","1","1","0","0","0","1","0","1","1","0","0","1","1","5","1","1","2","4","4","5","5","2","1","718788150628974592","刘","570","","","","","","","","","","","","","","","","","","","true","13","3","moral","1043","negative","黑心","","","","","","","","","","","","","","",""
"null","","null","html-keyboard-response","91","201718","0.0-6.0-1.0-6.0-0.16","3","4","4","4","4","3","4","1","4","4","5","4","5","4","5","5","4","5","4","5","2","1","2","1","1","2","2","1","1","0","0","1","1","0","0","0","1","0","1","1","0","0","1","1","5","1","1","2","4","4","5","5","2","1","718788150628974592","刘","570","","","","","","","","","","","","","","","","","","","","","","","","","","","","","","","","","","","","","","","",""
"716","<p style=""color:rgb(150, 250, 100); font-size: 35px;"">他</p>","i","categorize-html","92","202435","0.0-6.0-1.0-6.0-1.16","3","4","4","4","4","3","4","1","4","4","5","4","5","4","5","5","4","5","4","5","2","1","2","1","1","2","2","1","1","0","0","1","1","0","0","0","1","0","1","1","0","0","1","1","5","1","1","2","4","4","5","5","2","1","718788150628974592","刘","570","","","","","","","","","","","","","","","","","","","true","13","3","moral","716","other","他","","","","","","","","","","","","","","",""
"null","","null","html-keyboard-response","93","202687","0.0-6.0-1.0-6.0-0.17","3","4","4","4","4","3","4","1","4","4","5","4","5","4","5","5","4","5","4","5","2","1","2","1","1","2","2","1","1","0","0","1","1","0","0","0","1","0","1","1","0","0","1","1","5","1","1","2","4","4","5","5","2","1","718788150628974592","刘","570","","","","","","","","","","","","","","","","","","","","","","","","","","","","","","","","","","","","","","","",""
"987","<p style=""color:white; font-size: 35px;"">不仁</p>","i","categorize-html","94","203674","0.0-6.0-1.0-6.0-1.17","3","4","4","4","4","3","4","1","4","4","5","4","5","4","5","5","4","5","4","5","2","1","2","1","1","2","2","1","1","0","0","1","1","0","0","0","1","0","1","1","0","0","1","1","5","1","1","2","4","4","5","5","2","1","718788150628974592","刘","570","","","","","","","","","","","","","","","","","","","true","13","3","moral","987","negative","不仁","","","","","","","","","","","","","","",""
"null","","null","html-keyboard-response","95","203925","0.0-6.0-1.0-6.0-0.18","3","4","4","4","4","3","4","1","4","4","5","4","5","4","5","5","4","5","4","5","2","1","2","1","1","2","2","1","1","0","0","1","1","0","0","0","1","0","1","1","0","0","1","1","5","1","1","2","4","4","5","5","2","1","718788150628974592","刘","570","","","","","","","","","","","","","","","","","","","","","","","","","","","","","","","","","","","","","","","",""
"653","<p style=""color:rgb(150, 250, 100); font-size: 35px;"">本人</p>","e","categorize-html","96","204579","0.0-6.0-1.0-6.0-1.18","3","4","4","4","4","3","4","1","4","4","5","4","5","4","5","5","4","5","4","5","2","1","2","1","1","2","2","1","1","0","0","1","1","0","0","0","1","0","1","1","0","0","1","1","5","1","1","2","4","4","5","5","2","1","718788150628974592","刘","570","","","","","","","","","","","","","","","","","","","true","13","3","moral","653","self","本人","","","","","","","","","","","","","","",""
"null","","null","html-keyboard-response","97","204830","0.0-6.0-1.0-6.0-0.19","3","4","4","4","4","3","4","1","4","4","5","4","5","4","5","5","4","5","4","5","2","1","2","1","1","2","2","1","1","0","0","1","1","0","0","0","1","0","1","1","0","0","1","1","5","1","1","2","4","4","5","5","2","1","718788150628974592","刘","570","","","","","","","","","","","","","","","","","","","","","","","","","","","","","","","","","","","","","","","",""
"1164","<p style=""color:white; font-size: 35px;"">善良</p>","e","categorize-html","98","205995","0.0-6.0-1.0-6.0-1.19","3","4","4","4","4","3","4","1","4","4","5","4","5","4","5","5","4","5","4","5","2","1","2","1","1","2","2","1","1","0","0","1","1","0","0","0","1","0","1","1","0","0","1","1","5","1","1","2","4","4","5","5","2","1","718788150628974592","刘","570","","","","","","","","","","","","","","","","","","","true","13","3","moral","1164","positive","善良","","","","","","","","","","","","","","",""
"null","","null","html-keyboard-response","99","206246","0.0-6.0-1.0-6.0-0.20","3","4","4","4","4","3","4","1","4","4","5","4","5","4","5","5","4","5","4","5","2","1","2","1","1","2","2","1","1","0","0","1","1","0","0","0","1","0","1","1","0","0","1","1","5","1","1","2","4","4","5","5","2","1","718788150628974592","刘","570","","","","","","","","","","","","","","","","","","","","","","","","","","","","","","","","","","","","","","","",""
"572","<p style=""color:rgb(150, 250, 100); font-size: 35px;"">自己</p>","e","categorize-html","100","206819","0.0-6.0-1.0-6.0-1.20","3","4","4","4","4","3","4","1","4","4","5","4","5","4","5","5","4","5","4","5","2","1","2","1","1","2","2","1","1","0","0","1","1","0","0","0","1","0","1","1","0","0","1","1","5","1","1","2","4","4","5","5","2","1","718788150628974592","刘","570","","","","","","","","","","","","","","","","","","","true","13","3","moral","572","self","自己","","","","","","","","","","","","","","",""
"null","","null","html-keyboard-response","101","207070","0.0-6.0-1.0-6.0-0.21","3","4","4","4","4","3","4","1","4","4","5","4","5","4","5","5","4","5","4","5","2","1","2","1","1","2","2","1","1","0","0","1","1","0","0","0","1","0","1","1","0","0","1","1","5","1","1","2","4","4","5","5","2","1","718788150628974592","刘","570","","","","","","","","","","","","","","","","","","","","","","","","","","","","","","","","","","","","","","","",""
"972","<p style=""color:white; font-size: 35px;"">缺德</p>","e","categorize-html","102","208818","0.0-6.0-1.0-6.0-1.21","3","4","4","4","4","3","4","1","4","4","5","4","5","4","5","5","4","5","4","5","2","1","2","1","1","2","2","1","1","0","0","1","1","0","0","0","1","0","1","1","0","0","1","1","5","1","1","2","4","4","5","5","2","1","718788150628974592","刘","570","","","","","","","","","","","","","","","","","","","false","13","3","moral","1479.695652173913","negative","缺德","","","","","","","","","","","","","","",""
"null","","null","html-keyboard-response","103","209069","0.0-6.0-1.0-6.0-0.22","3","4","4","4","4","3","4","1","4","4","5","4","5","4","5","5","4","5","4","5","2","1","2","1","1","2","2","1","1","0","0","1","1","0","0","0","1","0","1","1","0","0","1","1","5","1","1","2","4","4","5","5","2","1","718788150628974592","刘","570","","","","","","","","","","","","","","","","","","","","","","","","","","","","","","","","","","","","","","","",""
"950","<p style=""color:rgb(150, 250, 100); font-size: 35px;"">他的</p>","i","categorize-html","104","210019","0.0-6.0-1.0-6.0-1.22","3","4","4","4","4","3","4","1","4","4","5","4","5","4","5","5","4","5","4","5","2","1","2","1","1","2","2","1","1","0","0","1","1","0","0","0","1","0","1","1","0","0","1","1","5","1","1","2","4","4","5","5","2","1","718788150628974592","刘","570","","","","","","","","","","","","","","","","","","","true","13","3","moral","950","other","他的","","","","","","","","","","","","","","",""
"null","","null","html-keyboard-response","105","210270","0.0-6.0-1.0-6.0-0.23","3","4","4","4","4","3","4","1","4","4","5","4","5","4","5","5","4","5","4","5","2","1","2","1","1","2","2","1","1","0","0","1","1","0","0","0","1","0","1","1","0","0","1","1","5","1","1","2","4","4","5","5","2","1","718788150628974592","刘","570","","","","","","","","","","","","","","","","","","","","","","","","","","","","","","","","","","","","","","","",""
"613","<p style=""color:white; font-size: 35px;"">诚信</p>","e","categorize-html","106","210883","0.0-6.0-1.0-6.0-1.23","3","4","4","4","4","3","4","1","4","4","5","4","5","4","5","5","4","5","4","5","2","1","2","1","1","2","2","1","1","0","0","1","1","0","0","0","1","0","1","1","0","0","1","1","5","1","1","2","4","4","5","5","2","1","718788150628974592","刘","570","","","","","","","","","","","","","","","","","","","true","13","3","moral","613","positive","诚信","","","","","","","","","","","","","","",""
"839","
    <div class=""tag-bottom""><p>
    —— 任务4：对“自我/积极”词和“他人/消极”词分类 ——<p/>
    <span style=""color:#78DCE8""><b>与刚才的任务完全相同，请再次对这四类词语分类</b></span><p/>
    <span style=""color:#FFD866""><b>请根据上方标签的提示，尽可能正确并且快速地做出按键反应</b></span><p/>
    当按键错误时屏幕中会出现<span style=""color:red""> X </span>，需要按另一个键纠正才能继续<br/><p/>
    请把双手食指分别放在键盘的“E”键和“I”键上<p/>
    按<空格键>开始
    </p></div>"," ","html-keyboard-response","107","211722","0.0-6.0-1.0-7.0","3","4","4","4","4","3","4","1","4","4","5","4","5","4","5","5","4","5","4","5","2","1","2","1","1","2","2","1","1","0","0","1","1","0","0","0","1","0","1","1","0","0","1","1","5","1","1","2","4","4","5","5","2","1","718788150628974592","刘","570","","","","","","","","","","","","","","","","","","","","","","","","","","","","","","","","","","","","","","","",""
"null","","null","html-keyboard-response","108","211973","0.0-6.0-1.0-8.0-0.0","3","4","4","4","4","3","4","1","4","4","5","4","5","4","5","5","4","5","4","5","2","1","2","1","1","2","2","1","1","0","0","1","1","0","0","0","1","0","1","1","0","0","1","1","5","1","1","2","4","4","5","5","2","1","718788150628974592","刘","570","","","","","","","","","","","","","","","","","","","","","","","","","","","","","","","","","","","","","","","",""
"1077","<p style=""color:rgb(150, 250, 100); font-size: 35px;"">本人的</p>","e","categorize-html","109","213051","0.0-6.0-1.0-8.0-1.0","3","4","4","4","4","3","4","1","4","4","5","4","5","4","5","5","4","5","4","5","2","1","2","1","1","2","2","1","1","0","0","1","1","0","0","0","1","0","1","1","0","0","1","1","5","1","1","2","4","4","5","5","2","1","718788150628974592","刘","570","","","","","","","","","","","","","","","","","","","true","14","4","moral","1077","self","本人的","","","","","","","","","","","","","","",""
"null","","null","html-keyboard-response","110","213302","0.0-6.0-1.0-8.0-0.1","3","4","4","4","4","3","4","1","4","4","5","4","5","4","5","5","4","5","4","5","2","1","2","1","1","2","2","1","1","0","0","1","1","0","0","0","1","0","1","1","0","0","1","1","5","1","1","2","4","4","5","5","2","1","718788150628974592","刘","570","","","","","","","","","","","","","","","","","","","","","","","","","","","","","","","","","","","","","","","",""
"588","<p style=""color:white; font-size: 35px;"">黑心</p>","i","categorize-html","111","213890","0.0-6.0-1.0-8.0-1.1","3","4","4","4","4","3","4","1","4","4","5","4","5","4","5","5","4","5","4","5","2","1","2","1","1","2","2","1","1","0","0","1","1","0","0","0","1","0","1","1","0","0","1","1","5","1","1","2","4","4","5","5","2","1","718788150628974592","刘","570","","","","","","","","","","","","","","","","","","","true","14","4","moral","588","negative","黑心","","","","","","","","","","","","","","",""
"null","","null","html-keyboard-response","112","214142","0.0-6.0-1.0-8.0-0.2","3","4","4","4","4","3","4","1","4","4","5","4","5","4","5","5","4","5","4","5","2","1","2","1","1","2","2","1","1","0","0","1","1","0","0","0","1","0","1","1","0","0","1","1","5","1","1","2","4","4","5","5","2","1","718788150628974592","刘","570","","","","","","","","","","","","","","","","","","","","","","","","","","","","","","","","","","","","","","","",""
"645","<p style=""color:rgb(150, 250, 100); font-size: 35px;"">别人</p>","i","categorize-html","113","214787","0.0-6.0-1.0-8.0-1.2","3","4","4","4","4","3","4","1","4","4","5","4","5","4","5","5","4","5","4","5","2","1","2","1","1","2","2","1","1","0","0","1","1","0","0","0","1","0","1","1","0","0","1","1","5","1","1","2","4","4","5","5","2","1","718788150628974592","刘","570","","","","","","","","","","","","","","","","","","","true","14","4","moral","645","other","别人","","","","","","","","","","","","","","",""
"null","","null","html-keyboard-response","114","215039","0.0-6.0-1.0-8.0-0.3","3","4","4","4","4","3","4","1","4","4","5","4","5","4","5","5","4","5","4","5","2","1","2","1","1","2","2","1","1","0","0","1","1","0","0","0","1","0","1","1","0","0","1","1","5","1","1","2","4","4","5","5","2","1","718788150628974592","刘","570","","","","","","","","","","","","","","","","","","","","","","","","","","","","","","","","","","","","","","","",""
"1075","<p style=""color:white; font-size: 35px;"">善良</p>","e","categorize-html","115","216114","0.0-6.0-1.0-8.0-1.3","3","4","4","4","4","3","4","1","4","4","5","4","5","4","5","5","4","5","4","5","2","1","2","1","1","2","2","1","1","0","0","1","1","0","0","0","1","0","1","1","0","0","1","1","5","1","1","2","4","4","5","5","2","1","718788150628974592","刘","570","","","","","","","","","","","","","","","","","","","true","14","4","moral","1075","positive","善良","","","","","","","","","","","","","","",""
"null","","null","html-keyboard-response","116","216365","0.0-6.0-1.0-8.0-0.4","3","4","4","4","4","3","4","1","4","4","5","4","5","4","5","5","4","5","4","5","2","1","2","1","1","2","2","1","1","0","0","1","1","0","0","0","1","0","1","1","0","0","1","1","5","1","1","2","4","4","5","5","2","1","718788150628974592","刘","570","","","","","","","","","","","","","","","","","","","","","","","","","","","","","","","","","","","","","","","",""
"519","<p style=""color:rgb(150, 250, 100); font-size: 35px;"">本人的</p>","e","categorize-html","117","216884","0.0-6.0-1.0-8.0-1.4","3","4","4","4","4","3","4","1","4","4","5","4","5","4","5","5","4","5","4","5","2","1","2","1","1","2","2","1","1","0","0","1","1","0","0","0","1","0","1","1","0","0","1","1","5","1","1","2","4","4","5","5","2","1","718788150628974592","刘","570","","","","","","","","","","","","","","","","","","","true","14","4","moral","519","self","本人的","","","","","","","","","","","","","","",""
"null","","null","html-keyboard-response","118","217135","0.0-6.0-1.0-8.0-0.5","3","4","4","4","4","3","4","1","4","4","5","4","5","4","5","5","4","5","4","5","2","1","2","1","1","2","2","1","1","0","0","1","1","0","0","0","1","0","1","1","0","0","1","1","5","1","1","2","4","4","5","5","2","1","718788150628974592","刘","570","","","","","","","","","","","","","","","","","","","","","","","","","","","","","","","","","","","","","","","",""
"675","<p style=""color:white; font-size: 35px;"">不孝</p>","i","categorize-html","119","217810","0.0-6.0-1.0-8.0-1.5","3","4","4","4","4","3","4","1","4","4","5","4","5","4","5","5","4","5","4","5","2","1","2","1","1","2","2","1","1","0","0","1","1","0","0","0","1","0","1","1","0","0","1","1","5","1","1","2","4","4","5","5","2","1","718788150628974592","刘","570","","","","","","","","","","","","","","","","","","","true","14","4","moral","675","negative","不孝","","","","","","","","","","","","","","",""
"null","","null","html-keyboard-response","120","218061","0.0-6.0-1.0-8.0-0.6","3","4","4","4","4","3","4","1","4","4","5","4","5","4","5","5","4","5","4","5","2","1","2","1","1","2","2","1","1","0","0","1","1","0","0","0","1","0","1","1","0","0","1","1","5","1","1","2","4","4","5","5","2","1","718788150628974592","刘","570","","","","","","","","","","","","","","","","","","","","","","","","","","","","","","","","","","","","","","","",""
"540","<p style=""color:rgb(150, 250, 100); font-size: 35px;"">他的</p>","i","categorize-html","121","218602","0.0-6.0-1.0-8.0-1.6","3","4","4","4","4","3","4","1","4","4","5","4","5","4","5","5","4","5","4","5","2","1","2","1","1","2","2","1","1","0","0","1","1","0","0","0","1","0","1","1","0","0","1","1","5","1","1","2","4","4","5","5","2","1","718788150628974592","刘","570","","","","","","","","","","","","","","","","","","","true","14","4","moral","540","other","他的","","","","","","","","","","","","","","",""
"null","","null","html-keyboard-response","122","218853","0.0-6.0-1.0-8.0-0.7","3","4","4","4","4","3","4","1","4","4","5","4","5","4","5","5","4","5","4","5","2","1","2","1","1","2","2","1","1","0","0","1","1","0","0","0","1","0","1","1","0","0","1","1","5","1","1","2","4","4","5","5","2","1","718788150628974592","刘","570","","","","","","","","","","","","","","","","","","","","","","","","","","","","","","","","","","","","","","","",""
"885","<p style=""color:white; font-size: 35px;"">善良</p>","e","categorize-html","123","219738","0.0-6.0-1.0-8.0-1.7","3","4","4","4","4","3","4","1","4","4","5","4","5","4","5","5","4","5","4","5","2","1","2","1","1","2","2","1","1","0","0","1","1","0","0","0","1","0","1","1","0","0","1","1","5","1","1","2","4","4","5","5","2","1","718788150628974592","刘","570","","","","","","","","","","","","","","","","","","","true","14","4","moral","885","positive","善良","","","","","","","","","","","","","","",""
"null","","null","html-keyboard-response","124","219989","0.0-6.0-1.0-8.0-0.8","3","4","4","4","4","3","4","1","4","4","5","4","5","4","5","5","4","5","4","5","2","1","2","1","1","2","2","1","1","0","0","1","1","0","0","0","1","0","1","1","0","0","1","1","5","1","1","2","4","4","5","5","2","1","718788150628974592","刘","570","","","","","","","","","","","","","","","","","","","","","","","","","","","","","","","","","","","","","","","",""
"677","<p style=""color:rgb(150, 250, 100); font-size: 35px;"">他人的</p>","i","categorize-html","125","220666","0.0-6.0-1.0-8.0-1.8","3","4","4","4","4","3","4","1","4","4","5","4","5","4","5","5","4","5","4","5","2","1","2","1","1","2","2","1","1","0","0","1","1","0","0","0","1","0","1","1","0","0","1","1","5","1","1","2","4","4","5","5","2","1","718788150628974592","刘","570","","","","","","","","","","","","","","","","","","","true","14","4","moral","677","other","他人的","","","","","","","","","","","","","","",""
"null","","null","html-keyboard-response","126","220917","0.0-6.0-1.0-8.0-0.9","3","4","4","4","4","3","4","1","4","4","5","4","5","4","5","5","4","5","4","5","2","1","2","1","1","2","2","1","1","0","0","1","1","0","0","0","1","0","1","1","0","0","1","1","5","1","1","2","4","4","5","5","2","1","718788150628974592","刘","570","","","","","","","","","","","","","","","","","","","","","","","","","","","","","","","","","","","","","","","",""
"1166","<p style=""color:white; font-size: 35px;"">小人</p>","i","categorize-html","127","222084","0.0-6.0-1.0-8.0-1.9","3","4","4","4","4","3","4","1","4","4","5","4","5","4","5","5","4","5","4","5","2","1","2","1","1","2","2","1","1","0","0","1","1","0","0","0","1","0","1","1","0","0","1","1","5","1","1","2","4","4","5","5","2","1","718788150628974592","刘","570","","","","","","","","","","","","","","","","","","","true","14","4","moral","1166","negative","小人","","","","","","","","","","","","","","",""
"null","","null","html-keyboard-response","128","222335","0.0-6.0-1.0-8.0-0.10","3","4","4","4","4","3","4","1","4","4","5","4","5","4","5","5","4","5","4","5","2","1","2","1","1","2","2","1","1","0","0","1","1","0","0","0","1","0","1","1","0","0","1","1","5","1","1","2","4","4","5","5","2","1","718788150628974592","刘","570","","","","","","","","","","","","","","","","","","","","","","","","","","","","","","","","","","","","","","","",""
"659","<p style=""color:rgb(150, 250, 100); font-size: 35px;"">我的</p>","e","categorize-html","129","222995","0.0-6.0-1.0-8.0-1.10","3","4","4","4","4","3","4","1","4","4","5","4","5","4","5","5","4","5","4","5","2","1","2","1","1","2","2","1","1","0","0","1","1","0","0","0","1","0","1","1","0","0","1","1","5","1","1","2","4","4","5","5","2","1","718788150628974592","刘","570","","","","","","","","","","","","","","","","","","","true","14","4","moral","659","self","我的","","","","","","","","","","","","","","",""
"null","","null","html-keyboard-response","130","223245","0.0-6.0-1.0-8.0-0.11","3","4","4","4","4","3","4","1","4","4","5","4","5","4","5","5","4","5","4","5","2","1","2","1","1","2","2","1","1","0","0","1","1","0","0","0","1","0","1","1","0","0","1","1","5","1","1","2","4","4","5","5","2","1","718788150628974592","刘","570","","","","","","","","","","","","","","","","","","","","","","","","","","","","","","","","","","","","","","","",""
"1468","<p style=""color:white; font-size: 35px;"">高尚</p>","e","categorize-html","131","224714","0.0-6.0-1.0-8.0-1.11","3","4","4","4","4","3","4","1","4","4","5","4","5","4","5","5","4","5","4","5","2","1","2","1","1","2","2","1","1","0","0","1","1","0","0","0","1","0","1","1","0","0","1","1","5","1","1","2","4","4","5","5","2","1","718788150628974592","刘","570","","","","","","","","","","","","","","","","","","","true","14","4","moral","1468","positive","高尚","","","","","","","","","","","","","","",""
"null","","null","html-keyboard-response","132","224965","0.0-6.0-1.0-8.0-0.12","3","4","4","4","4","3","4","1","4","4","5","4","5","4","5","5","4","5","4","5","2","1","2","1","1","2","2","1","1","0","0","1","1","0","0","0","1","0","1","1","0","0","1","1","5","1","1","2","4","4","5","5","2","1","718788150628974592","刘","570","","","","","","","","","","","","","","","","","","","","","","","","","","","","","","","","","","","","","","","",""
"605","<p style=""color:rgb(150, 250, 100); font-size: 35px;"">他人</p>","i","categorize-html","133","225571","0.0-6.0-1.0-8.0-1.12","3","4","4","4","4","3","4","1","4","4","5","4","5","4","5","5","4","5","4","5","2","1","2","1","1","2","2","1","1","0","0","1","1","0","0","0","1","0","1","1","0","0","1","1","5","1","1","2","4","4","5","5","2","1","718788150628974592","刘","570","","","","","","","","","","","","","","","","","","","true","14","4","moral","605","other","他人","","","","","","","","","","","","","","",""
"null","","null","html-keyboard-response","134","225822","0.0-6.0-1.0-8.0-0.13","3","4","4","4","4","3","4","1","4","4","5","4","5","4","5","5","4","5","4","5","2","1","2","1","1","2","2","1","1","0","0","1","1","0","0","0","1","0","1","1","0","0","1","1","5","1","1","2","4","4","5","5","2","1","718788150628974592","刘","570","","","","","","","","","","","","","","","","","","","","","","","","","","","","","","","","","","","","","","","",""
"621","<p style=""color:white; font-size: 35px;"">君子</p>","e","categorize-html","135","226443","0.0-6.0-1.0-8.0-1.13","3","4","4","4","4","3","4","1","4","4","5","4","5","4","5","5","4","5","4","5","2","1","2","1","1","2","2","1","1","0","0","1","1","0","0","0","1","0","1","1","0","0","1","1","5","1","1","2","4","4","5","5","2","1","718788150628974592","刘","570","","","","","","","","","","","","","","","","","","","true","14","4","moral","621","positive","君子","","","","","","","","","","","","","","",""
"null","","null","html-keyboard-response","136","226695","0.0-6.0-1.0-8.0-0.14","3","4","4","4","4","3","4","1","4","4","5","4","5","4","5","5","4","5","4","5","2","1","2","1","1","2","2","1","1","0","0","1","1","0","0","0","1","0","1","1","0","0","1","1","5","1","1","2","4","4","5","5","2","1","718788150628974592","刘","570","","","","","","","","","","","","","","","","","","","","","","","","","","","","","","","","","","","","","","","",""
"595","<p style=""color:rgb(150, 250, 100); font-size: 35px;"">本人</p>","e","categorize-html","137","227290","0.0-6.0-1.0-8.0-1.14","3","4","4","4","4","3","4","1","4","4","5","4","5","4","5","5","4","5","4","5","2","1","2","1","1","2","2","1","1","0","0","1","1","0","0","0","1","0","1","1","0","0","1","1","5","1","1","2","4","4","5","5","2","1","718788150628974592","刘","570","","","","","","","","","","","","","","","","","","","true","14","4","moral","595","self","本人","","","","","","","","","","","","","","",""
"null","","null","html-keyboard-response","138","227542","0.0-6.0-1.0-8.0-0.15","3","4","4","4","4","3","4","1","4","4","5","4","5","4","5","5","4","5","4","5","2","1","2","1","1","2","2","1","1","0","0","1","1","0","0","0","1","0","1","1","0","0","1","1","5","1","1","2","4","4","5","5","2","1","718788150628974592","刘","570","","","","","","","","","","","","","","","","","","","","","","","","","","","","","","","","","","","","","","","",""
"1550","<p style=""color:white; font-size: 35px;"">卑鄙</p>","i","categorize-html","139","229092","0.0-6.0-1.0-8.0-1.15","3","4","4","4","4","3","4","1","4","4","5","4","5","4","5","5","4","5","4","5","2","1","2","1","1","2","2","1","1","0","0","1","1","0","0","0","1","0","1","1","0","0","1","1","5","1","1","2","4","4","5","5","2","1","718788150628974592","刘","570","","","","","","","","","","","","","","","","","","","true","14","4","moral","1550","negative","卑鄙","","","","","","","","","","","","","","",""
"null","","null","html-keyboard-response","140","229343","0.0-6.0-1.0-8.0-0.16","3","4","4","4","4","3","4","1","4","4","5","4","5","4","5","5","4","5","4","5","2","1","2","1","1","2","2","1","1","0","0","1","1","0","0","0","1","0","1","1","0","0","1","1","5","1","1","2","4","4","5","5","2","1","718788150628974592","刘","570","","","","","","","","","","","","","","","","","","","","","","","","","","","","","","","","","","","","","","","",""
"660","<p style=""color:rgb(150, 250, 100); font-size: 35px;"">他的</p>","i","categorize-html","141","230003","0.0-6.0-1.0-8.0-1.16","3","4","4","4","4","3","4","1","4","4","5","4","5","4","5","5","4","5","4","5","2","1","2","1","1","2","2","1","1","0","0","1","1","0","0","0","1","0","1","1","0","0","1","1","5","1","1","2","4","4","5","5","2","1","718788150628974592","刘","570","","","","","","","","","","","","","","","","","","","true","14","4","moral","660","other","他的","","","","","","","","","","","","","","",""
"null","","null","html-keyboard-response","142","230254","0.0-6.0-1.0-8.0-0.17","3","4","4","4","4","3","4","1","4","4","5","4","5","4","5","5","4","5","4","5","2","1","2","1","1","2","2","1","1","0","0","1","1","0","0","0","1","0","1","1","0","0","1","1","5","1","1","2","4","4","5","5","2","1","718788150628974592","刘","570","","","","","","","","","","","","","","","","","","","","","","","","","","","","","","","","","","","","","","","",""
"861","<p style=""color:white; font-size: 35px;"">不仁</p>","i","categorize-html","143","231116","0.0-6.0-1.0-8.0-1.17","3","4","4","4","4","3","4","1","4","4","5","4","5","4","5","5","4","5","4","5","2","1","2","1","1","2","2","1","1","0","0","1","1","0","0","0","1","0","1","1","0","0","1","1","5","1","1","2","4","4","5","5","2","1","718788150628974592","刘","570","","","","","","","","","","","","","","","","","","","true","14","4","moral","861","negative","不仁","","","","","","","","","","","","","","",""
"null","","null","html-keyboard-response","144","231367","0.0-6.0-1.0-8.0-0.18","3","4","4","4","4","3","4","1","4","4","5","4","5","4","5","5","4","5","4","5","2","1","2","1","1","2","2","1","1","0","0","1","1","0","0","0","1","0","1","1","0","0","1","1","5","1","1","2","4","4","5","5","2","1","718788150628974592","刘","570","","","","","","","","","","","","","","","","","","","","","","","","","","","","","","","","","","","","","","","",""
"675","<p style=""color:rgb(150, 250, 100); font-size: 35px;"">我的</p>","e","categorize-html","145","232042","0.0-6.0-1.0-8.0-1.18","3","4","4","4","4","3","4","1","4","4","5","4","5","4","5","5","4","5","4","5","2","1","2","1","1","2","2","1","1","0","0","1","1","0","0","0","1","0","1","1","0","0","1","1","5","1","1","2","4","4","5","5","2","1","718788150628974592","刘","570","","","","","","","","","","","","","","","","","","","true","14","4","moral","675","self","我的","","","","","","","","","","","","","","",""
"null","","null","html-keyboard-response","146","232293","0.0-6.0-1.0-8.0-0.19","3","4","4","4","4","3","4","1","4","4","5","4","5","4","5","5","4","5","4","5","2","1","2","1","1","2","2","1","1","0","0","1","1","0","0","0","1","0","1","1","0","0","1","1","5","1","1","2","4","4","5","5","2","1","718788150628974592","刘","570","","","","","","","","","","","","","","","","","","","","","","","","","","","","","","","","","","","","","","","",""
"550","<p style=""color:white; font-size: 35px;"">诚信</p>","e","categorize-html","147","232843","0.0-6.0-1.0-8.0-1.19","3","4","4","4","4","3","4","1","4","4","5","4","5","4","5","5","4","5","4","5","2","1","2","1","1","2","2","1","1","0","0","1","1","0","0","0","1","0","1","1","0","0","1","1","5","1","1","2","4","4","5","5","2","1","718788150628974592","刘","570","","","","","","","","","","","","","","","","","","","true","14","4","moral","550","positive","诚信","","","","","","","","","","","","","","",""
"null","","null","html-keyboard-response","148","233094","0.0-6.0-1.0-8.0-0.20","3","4","4","4","4","3","4","1","4","4","5","4","5","4","5","5","4","5","4","5","2","1","2","1","1","2","2","1","1","0","0","1","1","0","0","0","1","0","1","1","0","0","1","1","5","1","1","2","4","4","5","5","2","1","718788150628974592","刘","570","","","","","","","","","","","","","","","","","","","","","","","","","","","","","","","","","","","","","","","",""
"588","<p style=""color:rgb(150, 250, 100); font-size: 35px;"">他</p>","i","categorize-html","149","233682","0.0-6.0-1.0-8.0-1.20","3","4","4","4","4","3","4","1","4","4","5","4","5","4","5","5","4","5","4","5","2","1","2","1","1","2","2","1","1","0","0","1","1","0","0","0","1","0","1","1","0","0","1","1","5","1","1","2","4","4","5","5","2","1","718788150628974592","刘","570","","","","","","","","","","","","","","","","","","","true","14","4","moral","588","other","他","","","","","","","","","","","","","","",""
"null","","null","html-keyboard-response","150","233933","0.0-6.0-1.0-8.0-0.21","3","4","4","4","4","3","4","1","4","4","5","4","5","4","5","5","4","5","4","5","2","1","2","1","1","2","2","1","1","0","0","1","1","0","0","0","1","0","1","1","0","0","1","1","5","1","1","2","4","4","5","5","2","1","718788150628974592","刘","570","","","","","","","","","","","","","","","","","","","","","","","","","","","","","","","","","","","","","","","",""
"645","<p style=""color:white; font-size: 35px;"">不孝</p>","i","categorize-html","151","234579","0.0-6.0-1.0-8.0-1.21","3","4","4","4","4","3","4","1","4","4","5","4","5","4","5","5","4","5","4","5","2","1","2","1","1","2","2","1","1","0","0","1","1","0","0","0","1","0","1","1","0","0","1","1","5","1","1","2","4","4","5","5","2","1","718788150628974592","刘","570","","","","","","","","","","","","","","","","","","","true","14","4","moral","645","negative","不孝","","","","","","","","","","","","","","",""
"null","","null","html-keyboard-response","152","234831","0.0-6.0-1.0-8.0-0.22","3","4","4","4","4","3","4","1","4","4","5","4","5","4","5","5","4","5","4","5","2","1","2","1","1","2","2","1","1","0","0","1","1","0","0","0","1","0","1","1","0","0","1","1","5","1","1","2","4","4","5","5","2","1","718788150628974592","刘","570","","","","","","","","","","","","","","","","","","","","","","","","","","","","","","","","","","","","","","","",""
"691","<p style=""color:rgb(150, 250, 100); font-size: 35px;"">自己的</p>","e","categorize-html","153","235523","0.0-6.0-1.0-8.0-1.22","3","4","4","4","4","3","4","1","4","4","5","4","5","4","5","5","4","5","4","5","2","1","2","1","1","2","2","1","1","0","0","1","1","0","0","0","1","0","1","1","0","0","1","1","5","1","1","2","4","4","5","5","2","1","718788150628974592","刘","570","","","","","","","","","","","","","","","","","","","true","14","4","moral","691","self","自己的","","","","","","","","","","","","","","",""
"null","","null","html-keyboard-response","154","235774","0.0-6.0-1.0-8.0-0.23","3","4","4","4","4","3","4","1","4","4","5","4","5","4","5","5","4","5","4","5","2","1","2","1","1","2","2","1","1","0","0","1","1","0","0","0","1","0","1","1","0","0","1","1","5","1","1","2","4","4","5","5","2","1","718788150628974592","刘","570","","","","","","","","","","","","","","","","","","","","","","","","","","","","","","","","","","","","","","","",""
"644","<p style=""color:white; font-size: 35px;"">正直</p>","e","categorize-html","155","236418","0.0-6.0-1.0-8.0-1.23","3","4","4","4","4","3","4","1","4","4","5","4","5","4","5","5","4","5","4","5","2","1","2","1","1","2","2","1","1","0","0","1","1","0","0","0","1","0","1","1","0","0","1","1","5","1","1","2","4","4","5","5","2","1","718788150628974592","刘","570","","","","","","","","","","","","","","","","","","","true","14","4","moral","644","positive","正直","","","","","","","","","","","","","","",""
"null","","null","html-keyboard-response","156","236670","0.0-6.0-1.0-8.0-0.24","3","4","4","4","4","3","4","1","4","4","5","4","5","4","5","5","4","5","4","5","2","1","2","1","1","2","2","1","1","0","0","1","1","0","0","0","1","0","1","1","0","0","1","1","5","1","1","2","4","4","5","5","2","1","718788150628974592","刘","570","","","","","","","","","","","","","","","","","","","","","","","","","","","","","","","","","","","","","","","",""
"700","<p style=""color:rgb(150, 250, 100); font-size: 35px;"">我</p>","e","categorize-html","157","237370","0.0-6.0-1.0-8.0-1.24","3","4","4","4","4","3","4","1","4","4","5","4","5","4","5","5","4","5","4","5","2","1","2","1","1","2","2","1","1","0","0","1","1","0","0","0","1","0","1","1","0","0","1","1","5","1","1","2","4","4","5","5","2","1","718788150628974592","刘","570","","","","","","","","","","","","","","","","","","","true","14","4","moral","700","self","我","","","","","","","","","","","","","","",""
"null","","null","html-keyboard-response","158","237621","0.0-6.0-1.0-8.0-0.25","3","4","4","4","4","3","4","1","4","4","5","4","5","4","5","5","4","5","4","5","2","1","2","1","1","2","2","1","1","0","0","1","1","0","0","0","1","0","1","1","0","0","1","1","5","1","1","2","4","4","5","5","2","1","718788150628974592","刘","570","","","","","","","","","","","","","","","","","","","","","","","","","","","","","","","","","","","","","","","",""
"836","<p style=""color:white; font-size: 35px;"">廉正</p>","e","categorize-html","159","238458","0.0-6.0-1.0-8.0-1.25","3","4","4","4","4","3","4","1","4","4","5","4","5","4","5","5","4","5","4","5","2","1","2","1","1","2","2","1","1","0","0","1","1","0","0","0","1","0","1","1","0","0","1","1","5","1","1","2","4","4","5","5","2","1","718788150628974592","刘","570","","","","","","","","","","","","","","","","","","","true","14","4","moral","836","positive","廉正","","","","","","","","","","","","","","",""
"null","","null","html-keyboard-response","160","238709","0.0-6.0-1.0-8.0-0.26","3","4","4","4","4","3","4","1","4","4","5","4","5","4","5","5","4","5","4","5","2","1","2","1","1","2","2","1","1","0","0","1","1","0","0","0","1","0","1","1","0","0","1","1","5","1","1","2","4","4","5","5","2","1","718788150628974592","刘","570","","","","","","","","","","","","","","","","","","","","","","","","","","","","","","","","","","","","","","","",""
"973","<p style=""color:rgb(150, 250, 100); font-size: 35px;"">他人的</p>","i","categorize-html","161","239682","0.0-6.0-1.0-8.0-1.26","3","4","4","4","4","3","4","1","4","4","5","4","5","4","5","5","4","5","4","5","2","1","2","1","1","2","2","1","1","0","0","1","1","0","0","0","1","0","1","1","0","0","1","1","5","1","1","2","4","4","5","5","2","1","718788150628974592","刘","570","","","","","","","","","","","","","","","","","","","true","14","4","moral","973","other","他人的","","","","","","","","","","","","","","",""
"null","","null","html-keyboard-response","162","239933","0.0-6.0-1.0-8.0-0.27","3","4","4","4","4","3","4","1","4","4","5","4","5","4","5","5","4","5","4","5","2","1","2","1","1","2","2","1","1","0","0","1","1","0","0","0","1","0","1","1","0","0","1","1","5","1","1","2","4","4","5","5","2","1","718788150628974592","刘","570","","","","","","","","","","","","","","","","","","","","","","","","","","","","","","","","","","","","","","","",""
"685","<p style=""color:white; font-size: 35px;"">不仁</p>","i","categorize-html","163","240618","0.0-6.0-1.0-8.0-1.27","3","4","4","4","4","3","4","1","4","4","5","4","5","4","5","5","4","5","4","5","2","1","2","1","1","2","2","1","1","0","0","1","1","0","0","0","1","0","1","1","0","0","1","1","5","1","1","2","4","4","5","5","2","1","718788150628974592","刘","570","","","","","","","","","","","","","","","","","","","true","14","4","moral","685","negative","不仁","","","","","","","","","","","","","","",""
"null","","null","html-keyboard-response","164","240869","0.0-6.0-1.0-8.0-0.28","3","4","4","4","4","3","4","1","4","4","5","4","5","4","5","5","4","5","4","5","2","1","2","1","1","2","2","1","1","0","0","1","1","0","0","0","1","0","1","1","0","0","1","1","5","1","1","2","4","4","5","5","2","1","718788150628974592","刘","570","","","","","","","","","","","","","","","","","","","","","","","","","","","","","","","","","","","","","","","",""
"1485","<p style=""color:rgb(150, 250, 100); font-size: 35px;"">本人</p>","e","categorize-html","165","242355","0.0-6.0-1.0-8.0-1.28","3","4","4","4","4","3","4","1","4","4","5","4","5","4","5","5","4","5","4","5","2","1","2","1","1","2","2","1","1","0","0","1","1","0","0","0","1","0","1","1","0","0","1","1","5","1","1","2","4","4","5","5","2","1","718788150628974592","刘","570","","","","","","","","","","","","","","","","","","","true","14","4","moral","1485","self","本人","","","","","","","","","","","","","","",""
"null","","null","html-keyboard-response","166","242605","0.0-6.0-1.0-8.0-0.29","3","4","4","4","4","3","4","1","4","4","5","4","5","4","5","5","4","5","4","5","2","1","2","1","1","2","2","1","1","0","0","1","1","0","0","0","1","0","1","1","0","0","1","1","5","1","1","2","4","4","5","5","2","1","718788150628974592","刘","570","","","","","","","","","","","","","","","","","","","","","","","","","","","","","","","","","","","","","","","",""
"750","<p style=""color:white; font-size: 35px;"">缺德</p>","i","categorize-html","167","243356","0.0-6.0-1.0-8.0-1.29","3","4","4","4","4","3","4","1","4","4","5","4","5","4","5","5","4","5","4","5","2","1","2","1","1","2","2","1","1","0","0","1","1","0","0","0","1","0","1","1","0","0","1","1","5","1","1","2","4","4","5","5","2","1","718788150628974592","刘","570","","","","","","","","","","","","","","","","","","","true","14","4","moral","750","negative","缺德","","","","","","","","","","","","","","",""
"null","","null","html-keyboard-response","168","243606","0.0-6.0-1.0-8.0-0.30","3","4","4","4","4","3","4","1","4","4","5","4","5","4","5","5","4","5","4","5","2","1","2","1","1","2","2","1","1","0","0","1","1","0","0","0","1","0","1","1","0","0","1","1","5","1","1","2","4","4","5","5","2","1","718788150628974592","刘","570","","","","","","","","","","","","","","","","","","","","","","","","","","","","","","","","","","","","","","","",""
"956","<p style=""color:rgb(150, 250, 100); font-size: 35px;"">他人</p>","i","categorize-html","169","244562","0.0-6.0-1.0-8.0-1.30","3","4","4","4","4","3","4","1","4","4","5","4","5","4","5","5","4","5","4","5","2","1","2","1","1","2","2","1","1","0","0","1","1","0","0","0","1","0","1","1","0","0","1","1","5","1","1","2","4","4","5","5","2","1","718788150628974592","刘","570","","","","","","","","","","","","","","","","","","","true","14","4","moral","956","other","他人","","","","","","","","","","","","","","",""
"null","","null","html-keyboard-response","170","244813","0.0-6.0-1.0-8.0-0.31","3","4","4","4","4","3","4","1","4","4","5","4","5","4","5","5","4","5","4","5","2","1","2","1","1","2","2","1","1","0","0","1","1","0","0","0","1","0","1","1","0","0","1","1","5","1","1","2","4","4","5","5","2","1","718788150628974592","刘","570","","","","","","","","","","","","","","","","","","","","","","","","","","","","","","","","","","","","","","","",""
"1070","<p style=""color:white; font-size: 35px;"">正直</p>","e","categorize-html","171","245884","0.0-6.0-1.0-8.0-1.31","3","4","4","4","4","3","4","1","4","4","5","4","5","4","5","5","4","5","4","5","2","1","2","1","1","2","2","1","1","0","0","1","1","0","0","0","1","0","1","1","0","0","1","1","5","1","1","2","4","4","5","5","2","1","718788150628974592","刘","570","","","","","","","","","","","","","","","","","","","true","14","4","moral","1070","positive","正直","","","","","","","","","","","","","","",""
"null","","null","html-keyboard-response","172","246134","0.0-6.0-1.0-8.0-0.32","3","4","4","4","4","3","4","1","4","4","5","4","5","4","5","5","4","5","4","5","2","1","2","1","1","2","2","1","1","0","0","1","1","0","0","0","1","0","1","1","0","0","1","1","5","1","1","2","4","4","5","5","2","1","718788150628974592","刘","570","","","","","","","","","","","","","","","","","","","","","","","","","","","","","","","","","","","","","","","",""
"748","<p style=""color:rgb(150, 250, 100); font-size: 35px;"">别人的</p>","i","categorize-html","173","246883","0.0-6.0-1.0-8.0-1.32","3","4","4","4","4","3","4","1","4","4","5","4","5","4","5","5","4","5","4","5","2","1","2","1","1","2","2","1","1","0","0","1","1","0","0","0","1","0","1","1","0","0","1","1","5","1","1","2","4","4","5","5","2","1","718788150628974592","刘","570","","","","","","","","","","","","","","","","","","","true","14","4","moral","748","other","别人的","","","","","","","","","","","","","","",""
"null","","null","html-keyboard-response","174","247133","0.0-6.0-1.0-8.0-0.33","3","4","4","4","4","3","4","1","4","4","5","4","5","4","5","5","4","5","4","5","2","1","2","1","1","2","2","1","1","0","0","1","1","0","0","0","1","0","1","1","0","0","1","1","5","1","1","2","4","4","5","5","2","1","718788150628974592","刘","570","","","","","","","","","","","","","","","","","","","","","","","","","","","","","","","","","","","","","","","",""
"684","<p style=""color:white; font-size: 35px;"">廉正</p>","e","categorize-html","175","247818","0.0-6.0-1.0-8.0-1.33","3","4","4","4","4","3","4","1","4","4","5","4","5","4","5","5","4","5","4","5","2","1","2","1","1","2","2","1","1","0","0","1","1","0","0","0","1","0","1","1","0","0","1","1","5","1","1","2","4","4","5","5","2","1","718788150628974592","刘","570","","","","","","","","","","","","","","","","","","","true","14","4","moral","684","positive","廉正","","","","","","","","","","","","","","",""
"null","","null","html-keyboard-response","176","248070","0.0-6.0-1.0-8.0-0.34","3","4","4","4","4","3","4","1","4","4","5","4","5","4","5","5","4","5","4","5","2","1","2","1","1","2","2","1","1","0","0","1","1","0","0","0","1","0","1","1","0","0","1","1","5","1","1","2","4","4","5","5","2","1","718788150628974592","刘","570","","","","","","","","","","","","","","","","","","","","","","","","","","","","","","","","","","","","","","","",""
"692","<p style=""color:rgb(150, 250, 100); font-size: 35px;"">自己</p>","e","categorize-html","177","248762","0.0-6.0-1.0-8.0-1.34","3","4","4","4","4","3","4","1","4","4","5","4","5","4","5","5","4","5","4","5","2","1","2","1","1","2","2","1","1","0","0","1","1","0","0","0","1","0","1","1","0","0","1","1","5","1","1","2","4","4","5","5","2","1","718788150628974592","刘","570","","","","","","","","","","","","","","","","","","","true","14","4","moral","692","self","自己","","","","","","","","","","","","","","",""
"null","","null","html-keyboard-response","178","249013","0.0-6.0-1.0-8.0-0.35","3","4","4","4","4","3","4","1","4","4","5","4","5","4","5","5","4","5","4","5","2","1","2","1","1","2","2","1","1","0","0","1","1","0","0","0","1","0","1","1","0","0","1","1","5","1","1","2","4","4","5","5","2","1","718788150628974592","刘","570","","","","","","","","","","","","","","","","","","","","","","","","","","","","","","","","","","","","","","","",""
"717","<p style=""color:white; font-size: 35px;"">黑心</p>","i","categorize-html","179","249730","0.0-6.0-1.0-8.0-1.35","3","4","4","4","4","3","4","1","4","4","5","4","5","4","5","5","4","5","4","5","2","1","2","1","1","2","2","1","1","0","0","1","1","0","0","0","1","0","1","1","0","0","1","1","5","1","1","2","4","4","5","5","2","1","718788150628974592","刘","570","","","","","","","","","","","","","","","","","","","true","14","4","moral","717","negative","黑心","","","","","","","","","","","","","","",""
"null","","null","html-keyboard-response","180","249982","0.0-6.0-1.0-8.0-0.36","3","4","4","4","4","3","4","1","4","4","5","4","5","4","5","5","4","5","4","5","2","1","2","1","1","2","2","1","1","0","0","1","1","0","0","0","1","0","1","1","0","0","1","1","5","1","1","2","4","4","5","5","2","1","718788150628974592","刘","570","","","","","","","","","","","","","","","","","","","","","","","","","","","","","","","","","","","","","","","",""
"572","<p style=""color:rgb(150, 250, 100); font-size: 35px;"">自己的</p>","e","categorize-html","181","250554","0.0-6.0-1.0-8.0-1.36","3","4","4","4","4","3","4","1","4","4","5","4","5","4","5","5","4","5","4","5","2","1","2","1","1","2","2","1","1","0","0","1","1","0","0","0","1","0","1","1","0","0","1","1","5","1","1","2","4","4","5","5","2","1","718788150628974592","刘","570","","","","","","","","","","","","","","","","","","","true","14","4","moral","572","self","自己的","","","","","","","","","","","","","","",""
"null","","null","html-keyboard-response","182","250805","0.0-6.0-1.0-8.0-0.37","3","4","4","4","4","3","4","1","4","4","5","4","5","4","5","5","4","5","4","5","2","1","2","1","1","2","2","1","1","0","0","1","1","0","0","0","1","0","1","1","0","0","1","1","5","1","1","2","4","4","5","5","2","1","718788150628974592","刘","570","","","","","","","","","","","","","","","","","","","","","","","","","","","","","","","","","","","","","","","",""
"695","<p style=""color:white; font-size: 35px;"">小人</p>","i","categorize-html","183","251501","0.0-6.0-1.0-8.0-1.37","3","4","4","4","4","3","4","1","4","4","5","4","5","4","5","5","4","5","4","5","2","1","2","1","1","2","2","1","1","0","0","1","1","0","0","0","1","0","1","1","0","0","1","1","5","1","1","2","4","4","5","5","2","1","718788150628974592","刘","570","","","","","","","","","","","","","","","","","","","true","14","4","moral","695","negative","小人","","","","","","","","","","","","","","",""
"null","","null","html-keyboard-response","184","251751","0.0-6.0-1.0-8.0-0.38","3","4","4","4","4","3","4","1","4","4","5","4","5","4","5","5","4","5","4","5","2","1","2","1","1","2","2","1","1","0","0","1","1","0","0","0","1","0","1","1","0","0","1","1","5","1","1","2","4","4","5","5","2","1","718788150628974592","刘","570","","","","","","","","","","","","","","","","","","","","","","","","","","","","","","","","","","","","","","","",""
"956","<p style=""color:rgb(150, 250, 100); font-size: 35px;"">别人的</p>","e","categorize-html","185","253338","0.0-6.0-1.0-8.0-1.38","3","4","4","4","4","3","4","1","4","4","5","4","5","4","5","5","4","5","4","5","2","1","2","1","1","2","2","1","1","0","0","1","1","0","0","0","1","0","1","1","0","0","1","1","5","1","1","2","4","4","5","5","2","1","718788150628974592","刘","570","","","","","","","","","","","","","","","","","","","false","14","4","moral","1372.276595744681","other","别人的","","","","","","","","","","","","","","",""
"null","","null","html-keyboard-response","186","253588","0.0-6.0-1.0-8.0-0.39","3","4","4","4","4","3","4","1","4","4","5","4","5","4","5","5","4","5","4","5","2","1","2","1","1","2","2","1","1","0","0","1","1","0","0","0","1","0","1","1","0","0","1","1","5","1","1","2","4","4","5","5","2","1","718788150628974592","刘","570","","","","","","","","","","","","","","","","","","","","","","","","","","","","","","","","","","","","","","","",""
"806","<p style=""color:white; font-size: 35px;"">君子</p>","e","categorize-html","187","254395","0.0-6.0-1.0-8.0-1.39","3","4","4","4","4","3","4","1","4","4","5","4","5","4","5","5","4","5","4","5","2","1","2","1","1","2","2","1","1","0","0","1","1","0","0","0","1","0","1","1","0","0","1","1","5","1","1","2","4","4","5","5","2","1","718788150628974592","刘","570","","","","","","","","","","","","","","","","","","","true","14","4","moral","806","positive","君子","","","","","","","","","","","","","","",""
"null","","null","html-keyboard-response","188","254646","0.0-6.0-1.0-8.0-0.40","3","4","4","4","4","3","4","1","4","4","5","4","5","4","5","5","4","5","4","5","2","1","2","1","1","2","2","1","1","0","0","1","1","0","0","0","1","0","1","1","0","0","1","1","5","1","1","2","4","4","5","5","2","1","718788150628974592","刘","570","","","","","","","","","","","","","","","","","","","","","","","","","","","","","","","","","","","","","","","",""
"611","<p style=""color:rgb(150, 250, 100); font-size: 35px;"">他</p>","i","categorize-html","189","255258","0.0-6.0-1.0-8.0-1.40","3","4","4","4","4","3","4","1","4","4","5","4","5","4","5","5","4","5","4","5","2","1","2","1","1","2","2","1","1","0","0","1","1","0","0","0","1","0","1","1","0","0","1","1","5","1","1","2","4","4","5","5","2","1","718788150628974592","刘","570","","","","","","","","","","","","","","","","","","","true","14","4","moral","611","other","他","","","","","","","","","","","","","","",""
"null","","null","html-keyboard-response","190","255509","0.0-6.0-1.0-8.0-0.41","3","4","4","4","4","3","4","1","4","4","5","4","5","4","5","5","4","5","4","5","2","1","2","1","1","2","2","1","1","0","0","1","1","0","0","0","1","0","1","1","0","0","1","1","5","1","1","2","4","4","5","5","2","1","718788150628974592","刘","570","","","","","","","","","","","","","","","","","","","","","","","","","","","","","","","","","","","","","","","",""
"685","<p style=""color:white; font-size: 35px;"">缺德</p>","i","categorize-html","191","256194","0.0-6.0-1.0-8.0-1.41","3","4","4","4","4","3","4","1","4","4","5","4","5","4","5","5","4","5","4","5","2","1","2","1","1","2","2","1","1","0","0","1","1","0","0","0","1","0","1","1","0","0","1","1","5","1","1","2","4","4","5","5","2","1","718788150628974592","刘","570","","","","","","","","","","","","","","","","","","","true","14","4","moral","685","negative","缺德","","","","","","","","","","","","","","",""
"null","","null","html-keyboard-response","192","256446","0.0-6.0-1.0-8.0-0.42","3","4","4","4","4","3","4","1","4","4","5","4","5","4","5","5","4","5","4","5","2","1","2","1","1","2","2","1","1","0","0","1","1","0","0","0","1","0","1","1","0","0","1","1","5","1","1","2","4","4","5","5","2","1","718788150628974592","刘","570","","","","","","","","","","","","","","","","","","","","","","","","","","","","","","","","","","","","","","","",""
"595","<p style=""color:rgb(150, 250, 100); font-size: 35px;"">我</p>","e","categorize-html","193","257042","0.0-6.0-1.0-8.0-1.42","3","4","4","4","4","3","4","1","4","4","5","4","5","4","5","5","4","5","4","5","2","1","2","1","1","2","2","1","1","0","0","1","1","0","0","0","1","0","1","1","0","0","1","1","5","1","1","2","4","4","5","5","2","1","718788150628974592","刘","570","","","","","","","","","","","","","","","","","","","true","14","4","moral","595","self","我","","","","","","","","","","","","","","",""
"null","","null","html-keyboard-response","194","257304","0.0-6.0-1.0-8.0-0.43","3","4","4","4","4","3","4","1","4","4","5","4","5","4","5","5","4","5","4","5","2","1","2","1","1","2","2","1","1","0","0","1","1","0","0","0","1","0","1","1","0","0","1","1","5","1","1","2","4","4","5","5","2","1","718788150628974592","刘","570","","","","","","","","","","","","","","","","","","","","","","","","","","","","","","","","","","","","","","","",""
"811","<p style=""color:white; font-size: 35px;"">高尚</p>","e","categorize-html","195","258115","0.0-6.0-1.0-8.0-1.43","3","4","4","4","4","3","4","1","4","4","5","4","5","4","5","5","4","5","4","5","2","1","2","1","1","2","2","1","1","0","0","1","1","0","0","0","1","0","1","1","0","0","1","1","5","1","1","2","4","4","5","5","2","1","718788150628974592","刘","570","","","","","","","","","","","","","","","","","","","true","14","4","moral","811","positive","高尚","","","","","","","","","","","","","","",""
"null","","null","html-keyboard-response","196","258367","0.0-6.0-1.0-8.0-0.44","3","4","4","4","4","3","4","1","4","4","5","4","5","4","5","5","4","5","4","5","2","1","2","1","1","2","2","1","1","0","0","1","1","0","0","0","1","0","1","1","0","0","1","1","5","1","1","2","4","4","5","5","2","1","718788150628974592","刘","570","","","","","","","","","","","","","","","","","","","","","","","","","","","","","","","","","","","","","","","",""
"587","<p style=""color:rgb(150, 250, 100); font-size: 35px;"">自己</p>","e","categorize-html","197","258954","0.0-6.0-1.0-8.0-1.44","3","4","4","4","4","3","4","1","4","4","5","4","5","4","5","5","4","5","4","5","2","1","2","1","1","2","2","1","1","0","0","1","1","0","0","0","1","0","1","1","0","0","1","1","5","1","1","2","4","4","5","5","2","1","718788150628974592","刘","570","","","","","","","","","","","","","","","","","","","true","14","4","moral","587","self","自己","","","","","","","","","","","","","","",""
