"rt","stimulus","response","trial_type","trial_index","time_elapsed","internal_node_id","ses_1","ses_2","ses_3","ses_4","ses_5","ses_6","ses_7","ses_8","ses_9","ses_10","coreself_1","coreself_2","coreself_3","coreself_4","coreself_5","coreself_6","coreself_7","coreself_8","coreself_9","coreself_10","SGPS_1","SGPS_2","SGPS_3","SGPS_4","SGPS_5","SGPS_6","SGPS_7","SGPS_8","SGPS_9","NPI1","NPI2","NPI3","NPI4","NPI5","NPI6","NPI7","NPI8","NPI9","NPI10","NPI11","NPI12","NPI13","NPI14","NPI15","hsns_1","hsns_2","hsns_3","hsns_4","hsns_5","hsns_6","hsns_7","hsns_8","hsns_9","hsns_10","subj_idx","friend_name","ParticipantID","value","success","user_agent","responses","item_order","radio_event_ids","radio_event_times","key_event_times","mouse_event_times","straightlining","zigzagging","honeypot","timeout","failed_images","failed_audio","failed_video","version_attrib","version_target","correct","IAT","screen_id","task_id","RT","condition","word","varname","summary","version_attrib2","version_target2","time_stamp","view_history","response_type","key_press","avg_frame_time","center_x","center_y","correct_response","identity","Image","question_order"
"1980","
   <p><div style = ""color: white;font-size:25px;"">您好，欢迎参加本次实验。</div> </p>
   <p><div style = ""color: white;font-size:25px;"">为充分保障您的权利，请确保您已经知晓并同意《参与实验同意书》以及《数据公开知情同意书》。</div></p>
   <p><div style = ""color: white;font-size:25px;"">如果您未见过上述内容，请咨询实验员。</div></p>
   <p><div style = ""color: white;font-size:25px;"">如果您选择继续实验，则表示您已经清楚两份知情同意书的内容并同意。</div></p>
   <p><div style = ""color: red;font-size:30px;"">请确保您记得day0的实验编号，您将在本次实验输入该编号，若您忘记，请咨询实验员后作答。</div></p>
   <p> <div style = ""color: green;font-size:25px;""><按空格键至下页></div> </p>
   "," ","html-keyboard-response","0","1981","0.0-0.0","3","4","4","4","4","3","4","4","4","4","4","5","4","5","5","4","5","5","4","5","1","1","2","1","1","2","1","2","1","0","0","0","1","0","0","0","1","1","1","1","0","1","0","1","5","1","1","2","4","4","5","2","1","2","622124635634270208","刘","287","","","","","","","","","","","","","","","","","","","","","","","","","","","","","","","","","","","","","","","",""
"","","","call-function","1","1982","0.0-1.0-0.0","3","4","4","4","4","3","4","4","4","4","4","5","4","5","5","4","5","5","4","5","1","1","2","1","1","2","1","2","1","0","0","0","1","0","0","0","1","1","1","1","0","1","0","1","5","1","1","2","4","4","5","2","1","2","622124635634270208","刘","287","","","","","","","","","","","","","","","","","","","","","","","","","","","","","","","","","","","","","","","",""
"12538","","{""friend_name"":""刘"",""ParticipantID"":""287""}","survey-html-form","2","14547","0.0-1.0-1.0","3","4","4","4","4","3","4","4","4","4","4","5","4","5","5","4","5","5","4","5","1","1","2","1","1","2","1","2","1","0","0","0","1","0","0","0","1","1","1","1","0","1","0","1","5","1","1","2","4","4","5","2","1","2","622124635634270208","刘","287","","","","","","","","","","","","","","","","","","","","","","","","","","","","","","","","","","","","","","","",""
"","","","fullscreen","3","16010","0.0-2.0","3","4","4","4","4","3","4","4","4","4","4","5","4","5","5","4","5","5","4","5","1","1","2","1","1","2","1","2","1","0","0","0","1","0","0","0","1","1","1","1","0","1","0","1","5","1","1","2","4","4","5","2","1","2","622124635634270208","刘","287","","true","{}","","","","","","","","","","","","","","","","","","","","","","","","","","","","","","","","","","","","",""
"28685.299999952316","","{""Q01"":""3"",""Q02"":""4"",""Q03"":""4"",""Q04"":""4"",""Q05"":""4"",""Q06"":""3"",""Q07"":""4"",""Q08"":""4"",""Q09"":""4"",""Q10"":""4""}","survey-template","4","44759","0.0-3.0","3","4","4","4","4","3","4","4","4","4","4","5","4","5","5","4","5","5","4","5","1","1","2","1","1","2","1","2","1","0","0","0","1","0","0","0","1","1","1","1","0","1","0","1","5","1","1","2","4","4","5","2","1","2","622124635634270208","刘","287","","","","{""Q01"":""3"",""Q02"":""4"",""Q03"":""4"",""Q04"":""4"",""Q05"":""4"",""Q06"":""3"",""Q07"":""4"",""Q08"":""4"",""Q09"":""4"",""Q10"":""4""}","[0,1,2,3,4,5,6,7,8,9]","[""Q01"",""Q02"",""Q03"",""Q04"",""Q05"",""Q06"",""Q07"",""Q08"",""Q08"",""Q09"",""Q10""]","[3828,5188.299999952316,7116.299999952316,9252.600000023842,10860.399999976158,12612.100000023842,13780.399999976158,15740.100000023842,22308.399999976158,23580.200000047684,24484.5]","[]","[1228.3999999761581,3828,5188.299999952316,7116.299999952316,9252.600000023842,10860.399999976158,12612.100000023842,13780.399999976158,14972.299999952316,15740.100000023842,22308.399999976158,23580.200000047684,24484.5,28684.299999952316]","0.5","0.6666666666666666","0","","","","","","","","","","","","","","","","","","","","","","","","","","","",""
"53539.699999928474","","{""Q01"":""4"",""Q02"":""5"",""Q03"":""4"",""Q04"":""5"",""Q05"":""5"",""Q06"":""4"",""Q07"":""5"",""Q08"":""5"",""Q09"":""4"",""Q10"":""5""}","survey-template","5","98302","0.0-4.0","3","4","4","4","4","3","4","4","4","4","4","5","4","5","5","4","5","5","4","5","1","1","2","1","1","2","1","2","1","0","0","0","1","0","0","0","1","1","1","1","0","1","0","1","5","1","1","2","4","4","5","2","1","2","622124635634270208","刘","287","","","","{""Q01"":""4"",""Q02"":""5"",""Q03"":""4"",""Q04"":""5"",""Q05"":""5"",""Q06"":""4"",""Q07"":""5"",""Q08"":""5"",""Q09"":""4"",""Q10"":""5""}","[0,1,2,3,4,5,6,7,8,9]","[""Q01"",""Q02"",""Q03"",""Q04"",""Q05"",""Q06"",""Q07"",""Q08"",""Q09"",""Q10""]","[2882.600000023842,12420.5,14738.600000023842,20954.699999928474,22514.5,24210.600000023842,25882.299999952316,27610.699999928474,34218.699999928474,37411.10000002384]","[]","[682.2999999523163,2882.600000023842,4650.699999928474,12420.5,13282.699999928474,14738.600000023842,15810.399999976158,17418.600000023842,20954.699999928474,22514.5,24210.600000023842,25882.299999952316,27610.699999928474,28426.600000023842,30435.699999928474,34218.699999928474,37411.10000002384,38083.89999997616,40674.60000002384,53538.60000002384]","0.5","0.2222222222222222","0","","","","","","","","","","","","","","","","","","","","","","","","","","","",""
"","","","preload","6","98624","0.0-5.0","3","4","4","4","4","3","4","4","4","4","4","5","4","5","5","4","5","5","4","5","1","1","2","1","1","2","1","2","1","0","0","0","1","0","0","0","1","1","1","1","0","1","0","1","5","1","1","2","4","4","5","2","1","2","622124635634270208","刘","287","","true","","","","","","","","","","","false","[]","[]","[]","","","","","","","","","","","","","","","","","","","","","","","",""
"16554","
    <h3>词语分类任务</h3>
    <p>在接下来的任务中，你需要对一系列词语进行分类。</p>
    <p>请先熟悉这些词语，这有利于你完成接下来的任务。</p>
    <table align=""center"" border=1 cellpadding=3 cellspacing=0>
    <tr> <th>类别</th> <th>词语</th> </tr>
    <tr> <td>&emsp;积极&emsp;</td> <td>&emsp;能干、全能、全才、高效、精干、天才&emsp;</td> </tr>
    <tr> <td>&emsp;消极&emsp;</td> <td>&emsp;无能、低能、废物、拙笨、愚钝、蠢笨&emsp;</td> </tr>
    <tr> <td>&emsp;自我&emsp;</td> <td>&emsp;我、我的、自己、自己的、本人、本人的&emsp;</td> </tr>
    <tr> <td>&emsp;他人&emsp;</td> <td>&emsp;他、他的、别人、别人的、他人、他人的&emsp;</td> </tr>
    </table><br/>","0","html-button-response","7","115189","0.0-6.0-0.0-0.0","3","4","4","4","4","3","4","4","4","4","4","5","4","5","5","4","5","5","4","5","1","1","2","1","1","2","1","2","1","0","0","0","1","0","0","0","1","1","1","1","0","1","0","1","5","1","1","2","4","4","5","2","1","2","622124635634270208","刘","287","","","","","","","","","","","","","","","","","1","2","","","","","","","","","","","","","","","","","","","","","",""
"7397","
    <div class=""tag-bottom"">
    <p> —— 任务1：对“他人”词和“自我”词分类 ——<p/>
    不同词语会出现在屏幕中央，类别标签将始终显示在屏幕上方<p/>   
    <span style=""color:#FFD866""><b>请根据上方标签的提示，尽可能正确并且快速地做出按键反应</b></span><p/>
    当按键错误时屏幕中会出现<span style=""color:red""> X </span>，需要按另一个键纠正才能继续<br/><p/>
    请把双手食指分别放在键盘的“E”键和“I”键上<p/>
    按<空格键>开始
    </p></div>"," ","html-keyboard-response","8","122588","0.0-6.0-0.0-1.0","3","4","4","4","4","3","4","4","4","4","4","5","4","5","5","4","5","5","4","5","1","1","2","1","1","2","1","2","1","0","0","0","1","0","0","0","1","1","1","1","0","1","0","1","5","1","1","2","4","4","5","2","1","2","622124635634270208","刘","287","","","","","","","","","","","","","","","","","","","","","","","","","","","","","","","","","","","","","","","",""
"null","","null","html-keyboard-response","9","122840","0.0-6.0-0.0-2.0-0.0","3","4","4","4","4","3","4","4","4","4","4","5","4","5","5","4","5","5","4","5","1","1","2","1","1","2","1","2","1","0","0","0","1","0","0","0","1","1","1","1","0","1","0","1","5","1","1","2","4","4","5","2","1","2","622124635634270208","刘","287","","","","","","","","","","","","","","","","","","","","","","","","","","","","","","","","","","","","","","","",""
"852","<p style=""color:rgb(150, 250, 100); font-size: 35px;"">他人</p>","e","categorize-html","10","123695","0.0-6.0-0.0-2.0-1.0","3","4","4","4","4","3","4","4","4","4","4","5","4","5","5","4","5","5","4","5","1","1","2","1","1","2","1","2","1","0","0","0","1","0","0","0","1","1","1","1","0","1","0","1","5","1","1","2","4","4","5","2","1","2","622124635634270208","刘","287","","","","","","","","","","","","","","","","","","","true","1","1","ability","852","other","他人","","","","","","","","","","","","","","",""
"null","","null","html-keyboard-response","11","123953","0.0-6.0-0.0-2.0-0.1","3","4","4","4","4","3","4","4","4","4","4","5","4","5","5","4","5","5","4","5","1","1","2","1","1","2","1","2","1","0","0","0","1","0","0","0","1","1","1","1","0","1","0","1","5","1","1","2","4","4","5","2","1","2","622124635634270208","刘","287","","","","","","","","","","","","","","","","","","","","","","","","","","","","","","","","","","","","","","","",""
"772","<p style=""color:rgb(150, 250, 100); font-size: 35px;"">自己</p>","i","categorize-html","12","124726","0.0-6.0-0.0-2.0-1.1","3","4","4","4","4","3","4","4","4","4","4","5","4","5","5","4","5","5","4","5","1","1","2","1","1","2","1","2","1","0","0","0","1","0","0","0","1","1","1","1","0","1","0","1","5","1","1","2","4","4","5","2","1","2","622124635634270208","刘","287","","","","","","","","","","","","","","","","","","","true","1","1","ability","772","self","自己","","","","","","","","","","","","","","",""
"null","","null","html-keyboard-response","13","124978","0.0-6.0-0.0-2.0-0.2","3","4","4","4","4","3","4","4","4","4","4","5","4","5","5","4","5","5","4","5","1","1","2","1","1","2","1","2","1","0","0","0","1","0","0","0","1","1","1","1","0","1","0","1","5","1","1","2","4","4","5","2","1","2","622124635634270208","刘","287","","","","","","","","","","","","","","","","","","","","","","","","","","","","","","","","","","","","","","","",""
"618","<p style=""color:rgb(150, 250, 100); font-size: 35px;"">本人</p>","i","categorize-html","14","125597","0.0-6.0-0.0-2.0-1.2","3","4","4","4","4","3","4","4","4","4","4","5","4","5","5","4","5","5","4","5","1","1","2","1","1","2","1","2","1","0","0","0","1","0","0","0","1","1","1","1","0","1","0","1","5","1","1","2","4","4","5","2","1","2","622124635634270208","刘","287","","","","","","","","","","","","","","","","","","","true","1","1","ability","618","self","本人","","","","","","","","","","","","","","",""
"null","","null","html-keyboard-response","15","125847","0.0-6.0-0.0-2.0-0.3","3","4","4","4","4","3","4","4","4","4","4","5","4","5","5","4","5","5","4","5","1","1","2","1","1","2","1","2","1","0","0","0","1","0","0","0","1","1","1","1","0","1","0","1","5","1","1","2","4","4","5","2","1","2","622124635634270208","刘","287","","","","","","","","","","","","","","","","","","","","","","","","","","","","","","","","","","","","","","","",""
"668","<p style=""color:rgb(150, 250, 100); font-size: 35px;"">他的</p>","e","categorize-html","16","126516","0.0-6.0-0.0-2.0-1.3","3","4","4","4","4","3","4","4","4","4","4","5","4","5","5","4","5","5","4","5","1","1","2","1","1","2","1","2","1","0","0","0","1","0","0","0","1","1","1","1","0","1","0","1","5","1","1","2","4","4","5","2","1","2","622124635634270208","刘","287","","","","","","","","","","","","","","","","","","","true","1","1","ability","668","other","他的","","","","","","","","","","","","","","",""
"null","","null","html-keyboard-response","17","126769","0.0-6.0-0.0-2.0-0.4","3","4","4","4","4","3","4","4","4","4","4","5","4","5","5","4","5","5","4","5","1","1","2","1","1","2","1","2","1","0","0","0","1","0","0","0","1","1","1","1","0","1","0","1","5","1","1","2","4","4","5","2","1","2","622124635634270208","刘","287","","","","","","","","","","","","","","","","","","","","","","","","","","","","","","","","","","","","","","","",""
"725","<p style=""color:rgb(150, 250, 100); font-size: 35px;"">他人的</p>","e","categorize-html","18","127494","0.0-6.0-0.0-2.0-1.4","3","4","4","4","4","3","4","4","4","4","4","5","4","5","5","4","5","5","4","5","1","1","2","1","1","2","1","2","1","0","0","0","1","0","0","0","1","1","1","1","0","1","0","1","5","1","1","2","4","4","5","2","1","2","622124635634270208","刘","287","","","","","","","","","","","","","","","","","","","true","1","1","ability","725","other","他人的","","","","","","","","","","","","","","",""
"null","","null","html-keyboard-response","19","127746","0.0-6.0-0.0-2.0-0.5","3","4","4","4","4","3","4","4","4","4","4","5","4","5","5","4","5","5","4","5","1","1","2","1","1","2","1","2","1","0","0","0","1","0","0","0","1","1","1","1","0","1","0","1","5","1","1","2","4","4","5","2","1","2","622124635634270208","刘","287","","","","","","","","","","","","","","","","","","","","","","","","","","","","","","","","","","","","","","","",""
"668","<p style=""color:rgb(150, 250, 100); font-size: 35px;"">我的</p>","i","categorize-html","20","128414","0.0-6.0-0.0-2.0-1.5","3","4","4","4","4","3","4","4","4","4","4","5","4","5","5","4","5","5","4","5","1","1","2","1","1","2","1","2","1","0","0","0","1","0","0","0","1","1","1","1","0","1","0","1","5","1","1","2","4","4","5","2","1","2","622124635634270208","刘","287","","","","","","","","","","","","","","","","","","","true","1","1","ability","668","self","我的","","","","","","","","","","","","","","",""
"null","","null","html-keyboard-response","21","128665","0.0-6.0-0.0-2.0-0.6","3","4","4","4","4","3","4","4","4","4","4","5","4","5","5","4","5","5","4","5","1","1","2","1","1","2","1","2","1","0","0","0","1","0","0","0","1","1","1","1","0","1","0","1","5","1","1","2","4","4","5","2","1","2","622124635634270208","刘","287","","","","","","","","","","","","","","","","","","","","","","","","","","","","","","","","","","","","","","","",""
"677","<p style=""color:rgb(150, 250, 100); font-size: 35px;"">他</p>","e","categorize-html","22","129343","0.0-6.0-0.0-2.0-1.6","3","4","4","4","4","3","4","4","4","4","4","5","4","5","5","4","5","5","4","5","1","1","2","1","1","2","1","2","1","0","0","0","1","0","0","0","1","1","1","1","0","1","0","1","5","1","1","2","4","4","5","2","1","2","622124635634270208","刘","287","","","","","","","","","","","","","","","","","","","true","1","1","ability","677","other","他","","","","","","","","","","","","","","",""
"null","","null","html-keyboard-response","23","129596","0.0-6.0-0.0-2.0-0.7","3","4","4","4","4","3","4","4","4","4","4","5","4","5","5","4","5","5","4","5","1","1","2","1","1","2","1","2","1","0","0","0","1","0","0","0","1","1","1","1","0","1","0","1","5","1","1","2","4","4","5","2","1","2","622124635634270208","刘","287","","","","","","","","","","","","","","","","","","","","","","","","","","","","","","","","","","","","","","","",""
"1761","<p style=""color:rgb(150, 250, 100); font-size: 35px;"">本人的</p>","i","categorize-html","24","131358","0.0-6.0-0.0-2.0-1.7","3","4","4","4","4","3","4","4","4","4","4","5","4","5","5","4","5","5","4","5","1","1","2","1","1","2","1","2","1","0","0","0","1","0","0","0","1","1","1","1","0","1","0","1","5","1","1","2","4","4","5","2","1","2","622124635634270208","刘","287","","","","","","","","","","","","","","","","","","","true","1","1","ability","1761","self","本人的","","","","","","","","","","","","","","",""
"null","","null","html-keyboard-response","25","131609","0.0-6.0-0.0-2.0-0.8","3","4","4","4","4","3","4","4","4","4","4","5","4","5","5","4","5","5","4","5","1","1","2","1","1","2","1","2","1","0","0","0","1","0","0","0","1","1","1","1","0","1","0","1","5","1","1","2","4","4","5","2","1","2","622124635634270208","刘","287","","","","","","","","","","","","","","","","","","","","","","","","","","","","","","","","","","","","","","","",""
"1171","<p style=""color:rgb(150, 250, 100); font-size: 35px;"">我</p>","i","categorize-html","26","132781","0.0-6.0-0.0-2.0-1.8","3","4","4","4","4","3","4","4","4","4","4","5","4","5","5","4","5","5","4","5","1","1","2","1","1","2","1","2","1","0","0","0","1","0","0","0","1","1","1","1","0","1","0","1","5","1","1","2","4","4","5","2","1","2","622124635634270208","刘","287","","","","","","","","","","","","","","","","","","","true","1","1","ability","1171","self","我","","","","","","","","","","","","","","",""
"null","","null","html-keyboard-response","27","133033","0.0-6.0-0.0-2.0-0.9","3","4","4","4","4","3","4","4","4","4","4","5","4","5","5","4","5","5","4","5","1","1","2","1","1","2","1","2","1","0","0","0","1","0","0","0","1","1","1","1","0","1","0","1","5","1","1","2","4","4","5","2","1","2","622124635634270208","刘","287","","","","","","","","","","","","","","","","","","","","","","","","","","","","","","","","","","","","","","","",""
"724","<p style=""color:rgb(150, 250, 100); font-size: 35px;"">别人的</p>","e","categorize-html","28","133759","0.0-6.0-0.0-2.0-1.9","3","4","4","4","4","3","4","4","4","4","4","5","4","5","5","4","5","5","4","5","1","1","2","1","1","2","1","2","1","0","0","0","1","0","0","0","1","1","1","1","0","1","0","1","5","1","1","2","4","4","5","2","1","2","622124635634270208","刘","287","","","","","","","","","","","","","","","","","","","true","1","1","ability","724","other","别人的","","","","","","","","","","","","","","",""
"null","","null","html-keyboard-response","29","134010","0.0-6.0-0.0-2.0-0.10","3","4","4","4","4","3","4","4","4","4","4","5","4","5","5","4","5","5","4","5","1","1","2","1","1","2","1","2","1","0","0","0","1","0","0","0","1","1","1","1","0","1","0","1","5","1","1","2","4","4","5","2","1","2","622124635634270208","刘","287","","","","","","","","","","","","","","","","","","","","","","","","","","","","","","","","","","","","","","","",""
"859","<p style=""color:rgb(150, 250, 100); font-size: 35px;"">自己的</p>","i","categorize-html","30","134871","0.0-6.0-0.0-2.0-1.10","3","4","4","4","4","3","4","4","4","4","4","5","4","5","5","4","5","5","4","5","1","1","2","1","1","2","1","2","1","0","0","0","1","0","0","0","1","1","1","1","0","1","0","1","5","1","1","2","4","4","5","2","1","2","622124635634270208","刘","287","","","","","","","","","","","","","","","","","","","true","1","1","ability","859","self","自己的","","","","","","","","","","","","","","",""
"null","","null","html-keyboard-response","31","135122","0.0-6.0-0.0-2.0-0.11","3","4","4","4","4","3","4","4","4","4","4","5","4","5","5","4","5","5","4","5","1","1","2","1","1","2","1","2","1","0","0","0","1","0","0","0","1","1","1","1","0","1","0","1","5","1","1","2","4","4","5","2","1","2","622124635634270208","刘","287","","","","","","","","","","","","","","","","","","","","","","","","","","","","","","","","","","","","","","","",""
"1154","<p style=""color:rgb(150, 250, 100); font-size: 35px;"">别人</p>","e","categorize-html","32","136277","0.0-6.0-0.0-2.0-1.11","3","4","4","4","4","3","4","4","4","4","4","5","4","5","5","4","5","5","4","5","1","1","2","1","1","2","1","2","1","0","0","0","1","0","0","0","1","1","1","1","0","1","0","1","5","1","1","2","4","4","5","2","1","2","622124635634270208","刘","287","","","","","","","","","","","","","","","","","","","true","1","1","ability","1154","other","别人","","","","","","","","","","","","","","",""
"975","
    <div class=""tag-bottom""><p>
    —— 任务2：对“积极”词和“消极”词分类 ——<p/>   
    <span style=""color:#78DCE8""><b>注意上方，类别标签和需要分类的词语都已经改变</b></span><p/>
    <span style=""color:#FFD866""><b>请根据上方标签的提示，尽可能正确并且快速地做出按键反应</b></span><p/>
    当按键错误时屏幕中会出现<span style=""color:red""> X </span>，需要按另一个键纠正才能继续<br/><p/>
    请把双手食指分别放在键盘的“E”键和“I”键上<p/>
    按<空格键>开始
    </p></div>"," ","html-keyboard-response","33","137253","0.0-6.0-0.0-3.0","3","4","4","4","4","3","4","4","4","4","4","5","4","5","5","4","5","5","4","5","1","1","2","1","1","2","1","2","1","0","0","0","1","0","0","0","1","1","1","1","0","1","0","1","5","1","1","2","4","4","5","2","1","2","622124635634270208","刘","287","","","","","","","","","","","","","","","","","","","","","","","","","","","","","","","","","","","","","","","",""
"null","","null","html-keyboard-response","34","137503","0.0-6.0-0.0-4.0-0.0","3","4","4","4","4","3","4","4","4","4","4","5","4","5","5","4","5","5","4","5","1","1","2","1","1","2","1","2","1","0","0","0","1","0","0","0","1","1","1","1","0","1","0","1","5","1","1","2","4","4","5","2","1","2","622124635634270208","刘","287","","","","","","","","","","","","","","","","","","","","","","","","","","","","","","","","","","","","","","","",""
"1110","<p style=""color:white; font-size: 35px;"">全才</p>","e","categorize-html","35","138615","0.0-6.0-0.0-4.0-1.0","3","4","4","4","4","3","4","4","4","4","4","5","4","5","5","4","5","5","4","5","1","1","2","1","1","2","1","2","1","0","0","0","1","0","0","0","1","1","1","1","0","1","0","1","5","1","1","2","4","4","5","2","1","2","622124635634270208","刘","287","","","","","","","","","","","","","","","","","","","true","2","2","ability","1110","positive","全才","","","","","","","","","","","","","","",""
"null","","null","html-keyboard-response","36","138866","0.0-6.0-0.0-4.0-0.1","3","4","4","4","4","3","4","4","4","4","4","5","4","5","5","4","5","5","4","5","1","1","2","1","1","2","1","2","1","0","0","0","1","0","0","0","1","1","1","1","0","1","0","1","5","1","1","2","4","4","5","2","1","2","622124635634270208","刘","287","","","","","","","","","","","","","","","","","","","","","","","","","","","","","","","","","","","","","","","",""
"706","<p style=""color:white; font-size: 35px;"">蠢笨</p>","i","categorize-html","37","139573","0.0-6.0-0.0-4.0-1.1","3","4","4","4","4","3","4","4","4","4","4","5","4","5","5","4","5","5","4","5","1","1","2","1","1","2","1","2","1","0","0","0","1","0","0","0","1","1","1","1","0","1","0","1","5","1","1","2","4","4","5","2","1","2","622124635634270208","刘","287","","","","","","","","","","","","","","","","","","","true","2","2","ability","706","negative","蠢笨","","","","","","","","","","","","","","",""
"null","","null","html-keyboard-response","38","139824","0.0-6.0-0.0-4.0-0.2","3","4","4","4","4","3","4","4","4","4","4","5","4","5","5","4","5","5","4","5","1","1","2","1","1","2","1","2","1","0","0","0","1","0","0","0","1","1","1","1","0","1","0","1","5","1","1","2","4","4","5","2","1","2","622124635634270208","刘","287","","","","","","","","","","","","","","","","","","","","","","","","","","","","","","","","","","","","","","","",""
"900","<p style=""color:white; font-size: 35px;"">能干</p>","e","categorize-html","39","140725","0.0-6.0-0.0-4.0-1.2","3","4","4","4","4","3","4","4","4","4","4","5","4","5","5","4","5","5","4","5","1","1","2","1","1","2","1","2","1","0","0","0","1","0","0","0","1","1","1","1","0","1","0","1","5","1","1","2","4","4","5","2","1","2","622124635634270208","刘","287","","","","","","","","","","","","","","","","","","","true","2","2","ability","900","positive","能干","","","","","","","","","","","","","","",""
"null","","null","html-keyboard-response","40","140976","0.0-6.0-0.0-4.0-0.3","3","4","4","4","4","3","4","4","4","4","4","5","4","5","5","4","5","5","4","5","1","1","2","1","1","2","1","2","1","0","0","0","1","0","0","0","1","1","1","1","0","1","0","1","5","1","1","2","4","4","5","2","1","2","622124635634270208","刘","287","","","","","","","","","","","","","","","","","","","","","","","","","","","","","","","","","","","","","","","",""
"718","<p style=""color:white; font-size: 35px;"">拙笨</p>","i","categorize-html","41","141694","0.0-6.0-0.0-4.0-1.3","3","4","4","4","4","3","4","4","4","4","4","5","4","5","5","4","5","5","4","5","1","1","2","1","1","2","1","2","1","0","0","0","1","0","0","0","1","1","1","1","0","1","0","1","5","1","1","2","4","4","5","2","1","2","622124635634270208","刘","287","","","","","","","","","","","","","","","","","","","true","2","2","ability","718","negative","拙笨","","","","","","","","","","","","","","",""
"null","","null","html-keyboard-response","42","141945","0.0-6.0-0.0-4.0-0.4","3","4","4","4","4","3","4","4","4","4","4","5","4","5","5","4","5","5","4","5","1","1","2","1","1","2","1","2","1","0","0","0","1","0","0","0","1","1","1","1","0","1","0","1","5","1","1","2","4","4","5","2","1","2","622124635634270208","刘","287","","","","","","","","","","","","","","","","","","","","","","","","","","","","","","","","","","","","","","","",""
"755","<p style=""color:white; font-size: 35px;"">高效</p>","e","categorize-html","43","142701","0.0-6.0-0.0-4.0-1.4","3","4","4","4","4","3","4","4","4","4","4","5","4","5","5","4","5","5","4","5","1","1","2","1","1","2","1","2","1","0","0","0","1","0","0","0","1","1","1","1","0","1","0","1","5","1","1","2","4","4","5","2","1","2","622124635634270208","刘","287","","","","","","","","","","","","","","","","","","","true","2","2","ability","755","positive","高效","","","","","","","","","","","","","","",""
"null","","null","html-keyboard-response","44","142952","0.0-6.0-0.0-4.0-0.5","3","4","4","4","4","3","4","4","4","4","4","5","4","5","5","4","5","5","4","5","1","1","2","1","1","2","1","2","1","0","0","0","1","0","0","0","1","1","1","1","0","1","0","1","5","1","1","2","4","4","5","2","1","2","622124635634270208","刘","287","","","","","","","","","","","","","","","","","","","","","","","","","","","","","","","","","","","","","","","",""
"956","<p style=""color:white; font-size: 35px;"">精干</p>","e","categorize-html","45","143908","0.0-6.0-0.0-4.0-1.5","3","4","4","4","4","3","4","4","4","4","4","5","4","5","5","4","5","5","4","5","1","1","2","1","1","2","1","2","1","0","0","0","1","0","0","0","1","1","1","1","0","1","0","1","5","1","1","2","4","4","5","2","1","2","622124635634270208","刘","287","","","","","","","","","","","","","","","","","","","true","2","2","ability","956","positive","精干","","","","","","","","","","","","","","",""
"null","","null","html-keyboard-response","46","144159","0.0-6.0-0.0-4.0-0.6","3","4","4","4","4","3","4","4","4","4","4","5","4","5","5","4","5","5","4","5","1","1","2","1","1","2","1","2","1","0","0","0","1","0","0","0","1","1","1","1","0","1","0","1","5","1","1","2","4","4","5","2","1","2","622124635634270208","刘","287","","","","","","","","","","","","","","","","","","","","","","","","","","","","","","","","","","","","","","","",""
"3357","<p style=""color:white; font-size: 35px;"">无能</p>","i","categorize-html","47","147517","0.0-6.0-0.0-4.0-1.6","3","4","4","4","4","3","4","4","4","4","4","5","4","5","5","4","5","5","4","5","1","1","2","1","1","2","1","2","1","0","0","0","1","0","0","0","1","1","1","1","0","1","0","1","5","1","1","2","4","4","5","2","1","2","622124635634270208","刘","287","","","","","","","","","","","","","","","","","","","true","2","2","ability","3357","negative","无能","","","","","","","","","","","","","","",""
"null","","null","html-keyboard-response","48","147768","0.0-6.0-0.0-4.0-0.7","3","4","4","4","4","3","4","4","4","4","4","5","4","5","5","4","5","5","4","5","1","1","2","1","1","2","1","2","1","0","0","0","1","0","0","0","1","1","1","1","0","1","0","1","5","1","1","2","4","4","5","2","1","2","622124635634270208","刘","287","","","","","","","","","","","","","","","","","","","","","","","","","","","","","","","","","","","","","","","",""
"1428","<p style=""color:white; font-size: 35px;"">天才</p>","e","categorize-html","49","149196","0.0-6.0-0.0-4.0-1.7","3","4","4","4","4","3","4","4","4","4","4","5","4","5","5","4","5","5","4","5","1","1","2","1","1","2","1","2","1","0","0","0","1","0","0","0","1","1","1","1","0","1","0","1","5","1","1","2","4","4","5","2","1","2","622124635634270208","刘","287","","","","","","","","","","","","","","","","","","","true","2","2","ability","1428","positive","天才","","","","","","","","","","","","","","",""
"null","","null","html-keyboard-response","50","149448","0.0-6.0-0.0-4.0-0.8","3","4","4","4","4","3","4","4","4","4","4","5","4","5","5","4","5","5","4","5","1","1","2","1","1","2","1","2","1","0","0","0","1","0","0","0","1","1","1","1","0","1","0","1","5","1","1","2","4","4","5","2","1","2","622124635634270208","刘","287","","","","","","","","","","","","","","","","","","","","","","","","","","","","","","","","","","","","","","","",""
"596","<p style=""color:white; font-size: 35px;"">废物</p>","i","categorize-html","51","150045","0.0-6.0-0.0-4.0-1.8","3","4","4","4","4","3","4","4","4","4","4","5","4","5","5","4","5","5","4","5","1","1","2","1","1","2","1","2","1","0","0","0","1","0","0","0","1","1","1","1","0","1","0","1","5","1","1","2","4","4","5","2","1","2","622124635634270208","刘","287","","","","","","","","","","","","","","","","","","","true","2","2","ability","596","negative","废物","","","","","","","","","","","","","","",""
"null","","null","html-keyboard-response","52","150296","0.0-6.0-0.0-4.0-0.9","3","4","4","4","4","3","4","4","4","4","4","5","4","5","5","4","5","5","4","5","1","1","2","1","1","2","1","2","1","0","0","0","1","0","0","0","1","1","1","1","0","1","0","1","5","1","1","2","4","4","5","2","1","2","622124635634270208","刘","287","","","","","","","","","","","","","","","","","","","","","","","","","","","","","","","","","","","","","","","",""
"1236","<p style=""color:white; font-size: 35px;"">低能</p>","e","categorize-html","53","152237","0.0-6.0-0.0-4.0-1.9","3","4","4","4","4","3","4","4","4","4","4","5","4","5","5","4","5","5","4","5","1","1","2","1","1","2","1","2","1","0","0","0","1","0","0","0","1","1","1","1","0","1","0","1","5","1","1","2","4","4","5","2","1","2","622124635634270208","刘","287","","","","","","","","","","","","","","","","","","","false","2","2","ability","1236","negative","低能","","","","","","","","","","","","","","",""
"null","","null","html-keyboard-response","54","152488","0.0-6.0-0.0-4.0-0.10","3","4","4","4","4","3","4","4","4","4","4","5","4","5","5","4","5","5","4","5","1","1","2","1","1","2","1","2","1","0","0","0","1","0","0","0","1","1","1","1","0","1","0","1","5","1","1","2","4","4","5","2","1","2","622124635634270208","刘","287","","","","","","","","","","","","","","","","","","","","","","","","","","","","","","","","","","","","","","","",""
"780","<p style=""color:white; font-size: 35px;"">愚钝</p>","i","categorize-html","55","153269","0.0-6.0-0.0-4.0-1.10","3","4","4","4","4","3","4","4","4","4","4","5","4","5","5","4","5","5","4","5","1","1","2","1","1","2","1","2","1","0","0","0","1","0","0","0","1","1","1","1","0","1","0","1","5","1","1","2","4","4","5","2","1","2","622124635634270208","刘","287","","","","","","","","","","","","","","","","","","","true","2","2","ability","780","negative","愚钝","","","","","","","","","","","","","","",""
"null","","null","html-keyboard-response","56","153521","0.0-6.0-0.0-4.0-0.11","3","4","4","4","4","3","4","4","4","4","4","5","4","5","5","4","5","5","4","5","1","1","2","1","1","2","1","2","1","0","0","0","1","0","0","0","1","1","1","1","0","1","0","1","5","1","1","2","4","4","5","2","1","2","622124635634270208","刘","287","","","","","","","","","","","","","","","","","","","","","","","","","","","","","","","","","","","","","","","",""
"819","<p style=""color:white; font-size: 35px;"">全能</p>","e","categorize-html","57","154341","0.0-6.0-0.0-4.0-1.11","3","4","4","4","4","3","4","4","4","4","4","5","4","5","5","4","5","5","4","5","1","1","2","1","1","2","1","2","1","0","0","0","1","0","0","0","1","1","1","1","0","1","0","1","5","1","1","2","4","4","5","2","1","2","622124635634270208","刘","287","","","","","","","","","","","","","","","","","","","true","2","2","ability","819","positive","全能","","","","","","","","","","","","","","",""
"1152","
    <div class=""tag-bottom""><p>
    —— 任务3：对“他人/积极”词和“自我/消极”词分类 ——<p/>
    <span style=""color:#78DCE8""><b>注意上方，之前的四类词语将混合在一起交替呈现</b></span><p/>
    <span style=""color:#FFD866""><b>请根据上方标签的提示，尽可能正确并且快速地做出按键反应</b></span><p/>
    当按键错误时屏幕中会出现<span style=""color:red""> X </span>，需要按另一个键纠正才能继续<br/><p/>
    请把双手食指分别放在键盘的“E”键和“I”键上<p/>
    按<空格键>开始
    </p></div>"," ","html-keyboard-response","58","155493","0.0-6.0-0.0-5.0","3","4","4","4","4","3","4","4","4","4","4","5","4","5","5","4","5","5","4","5","1","1","2","1","1","2","1","2","1","0","0","0","1","0","0","0","1","1","1","1","0","1","0","1","5","1","1","2","4","4","5","2","1","2","622124635634270208","刘","287","","","","","","","","","","","","","","","","","","","","","","","","","","","","","","","","","","","","","","","",""
"null","","null","html-keyboard-response","59","155745","0.0-6.0-0.0-6.0-0.0","3","4","4","4","4","3","4","4","4","4","4","5","4","5","5","4","5","5","4","5","1","1","2","1","1","2","1","2","1","0","0","0","1","0","0","0","1","1","1","1","0","1","0","1","5","1","1","2","4","4","5","2","1","2","622124635634270208","刘","287","","","","","","","","","","","","","","","","","","","","","","","","","","","","","","","","","","","","","","","",""
"690","<p style=""color:rgb(150, 250, 100); font-size: 35px;"">自己</p>","i","categorize-html","60","156436","0.0-6.0-0.0-6.0-1.0","3","4","4","4","4","3","4","4","4","4","4","5","4","5","5","4","5","5","4","5","1","1","2","1","1","2","1","2","1","0","0","0","1","0","0","0","1","1","1","1","0","1","0","1","5","1","1","2","4","4","5","2","1","2","622124635634270208","刘","287","","","","","","","","","","","","","","","","","","","true","3","3","ability","690","self","自己","","","","","","","","","","","","","","",""
"null","","null","html-keyboard-response","61","156687","0.0-6.0-0.0-6.0-0.1","3","4","4","4","4","3","4","4","4","4","4","5","4","5","5","4","5","5","4","5","1","1","2","1","1","2","1","2","1","0","0","0","1","0","0","0","1","1","1","1","0","1","0","1","5","1","1","2","4","4","5","2","1","2","622124635634270208","刘","287","","","","","","","","","","","","","","","","","","","","","","","","","","","","","","","","","","","","","","","",""
"2581","<p style=""color:white; font-size: 35px;"">愚钝</p>","i","categorize-html","62","159269","0.0-6.0-0.0-6.0-1.1","3","4","4","4","4","3","4","4","4","4","4","5","4","5","5","4","5","5","4","5","1","1","2","1","1","2","1","2","1","0","0","0","1","0","0","0","1","1","1","1","0","1","0","1","5","1","1","2","4","4","5","2","1","2","622124635634270208","刘","287","","","","","","","","","","","","","","","","","","","true","3","3","ability","2581","negative","愚钝","","","","","","","","","","","","","","",""
"null","","null","html-keyboard-response","63","159520","0.0-6.0-0.0-6.0-0.2","3","4","4","4","4","3","4","4","4","4","4","5","4","5","5","4","5","5","4","5","1","1","2","1","1","2","1","2","1","0","0","0","1","0","0","0","1","1","1","1","0","1","0","1","5","1","1","2","4","4","5","2","1","2","622124635634270208","刘","287","","","","","","","","","","","","","","","","","","","","","","","","","","","","","","","","","","","","","","","",""
"916","<p style=""color:rgb(150, 250, 100); font-size: 35px;"">别人</p>","e","categorize-html","64","160437","0.0-6.0-0.0-6.0-1.2","3","4","4","4","4","3","4","4","4","4","4","5","4","5","5","4","5","5","4","5","1","1","2","1","1","2","1","2","1","0","0","0","1","0","0","0","1","1","1","1","0","1","0","1","5","1","1","2","4","4","5","2","1","2","622124635634270208","刘","287","","","","","","","","","","","","","","","","","","","true","3","3","ability","916","other","别人","","","","","","","","","","","","","","",""
"null","","null","html-keyboard-response","65","160688","0.0-6.0-0.0-6.0-0.3","3","4","4","4","4","3","4","4","4","4","4","5","4","5","5","4","5","5","4","5","1","1","2","1","1","2","1","2","1","0","0","0","1","0","0","0","1","1","1","1","0","1","0","1","5","1","1","2","4","4","5","2","1","2","622124635634270208","刘","287","","","","","","","","","","","","","","","","","","","","","","","","","","","","","","","","","","","","","","","",""
"941","<p style=""color:white; font-size: 35px;"">能干</p>","e","categorize-html","66","161630","0.0-6.0-0.0-6.0-1.3","3","4","4","4","4","3","4","4","4","4","4","5","4","5","5","4","5","5","4","5","1","1","2","1","1","2","1","2","1","0","0","0","1","0","0","0","1","1","1","1","0","1","0","1","5","1","1","2","4","4","5","2","1","2","622124635634270208","刘","287","","","","","","","","","","","","","","","","","","","true","3","3","ability","941","positive","能干","","","","","","","","","","","","","","",""
"null","","null","html-keyboard-response","67","161882","0.0-6.0-0.0-6.0-0.4","3","4","4","4","4","3","4","4","4","4","4","5","4","5","5","4","5","5","4","5","1","1","2","1","1","2","1","2","1","0","0","0","1","0","0","0","1","1","1","1","0","1","0","1","5","1","1","2","4","4","5","2","1","2","622124635634270208","刘","287","","","","","","","","","","","","","","","","","","","","","","","","","","","","","","","","","","","","","","","",""
"3172","<p style=""color:rgb(150, 250, 100); font-size: 35px;"">别人的</p>","e","categorize-html","68","165054","0.0-6.0-0.0-6.0-1.4","3","4","4","4","4","3","4","4","4","4","4","5","4","5","5","4","5","5","4","5","1","1","2","1","1","2","1","2","1","0","0","0","1","0","0","0","1","1","1","1","0","1","0","1","5","1","1","2","4","4","5","2","1","2","622124635634270208","刘","287","","","","","","","","","","","","","","","","","","","true","3","3","ability","3172","other","别人的","","","","","","","","","","","","","","",""
"null","","null","html-keyboard-response","69","165305","0.0-6.0-0.0-6.0-0.5","3","4","4","4","4","3","4","4","4","4","4","5","4","5","5","4","5","5","4","5","1","1","2","1","1","2","1","2","1","0","0","0","1","0","0","0","1","1","1","1","0","1","0","1","5","1","1","2","4","4","5","2","1","2","622124635634270208","刘","287","","","","","","","","","","","","","","","","","","","","","","","","","","","","","","","","","","","","","","","",""
"3189","<p style=""color:white; font-size: 35px;"">全才</p>","e","categorize-html","70","168494","0.0-6.0-0.0-6.0-1.5","3","4","4","4","4","3","4","4","4","4","4","5","4","5","5","4","5","5","4","5","1","1","2","1","1","2","1","2","1","0","0","0","1","0","0","0","1","1","1","1","0","1","0","1","5","1","1","2","4","4","5","2","1","2","622124635634270208","刘","287","","","","","","","","","","","","","","","","","","","true","3","3","ability","3189","positive","全才","","","","","","","","","","","","","","",""
"null","","null","html-keyboard-response","71","168749","0.0-6.0-0.0-6.0-0.6","3","4","4","4","4","3","4","4","4","4","4","5","4","5","5","4","5","5","4","5","1","1","2","1","1","2","1","2","1","0","0","0","1","0","0","0","1","1","1","1","0","1","0","1","5","1","1","2","4","4","5","2","1","2","622124635634270208","刘","287","","","","","","","","","","","","","","","","","","","","","","","","","","","","","","","","","","","","","","","",""
"783","<p style=""color:rgb(150, 250, 100); font-size: 35px;"">我的</p>","i","categorize-html","72","169532","0.0-6.0-0.0-6.0-1.6","3","4","4","4","4","3","4","4","4","4","4","5","4","5","5","4","5","5","4","5","1","1","2","1","1","2","1","2","1","0","0","0","1","0","0","0","1","1","1","1","0","1","0","1","5","1","1","2","4","4","5","2","1","2","622124635634270208","刘","287","","","","","","","","","","","","","","","","","","","true","3","3","ability","783","self","我的","","","","","","","","","","","","","","",""
"null","","null","html-keyboard-response","73","169783","0.0-6.0-0.0-6.0-0.7","3","4","4","4","4","3","4","4","4","4","4","5","4","5","5","4","5","5","4","5","1","1","2","1","1","2","1","2","1","0","0","0","1","0","0","0","1","1","1","1","0","1","0","1","5","1","1","2","4","4","5","2","1","2","622124635634270208","刘","287","","","","","","","","","","","","","","","","","","","","","","","","","","","","","","","","","","","","","","","",""
"932","<p style=""color:white; font-size: 35px;"">拙笨</p>","i","categorize-html","74","170717","0.0-6.0-0.0-6.0-1.7","3","4","4","4","4","3","4","4","4","4","4","5","4","5","5","4","5","5","4","5","1","1","2","1","1","2","1","2","1","0","0","0","1","0","0","0","1","1","1","1","0","1","0","1","5","1","1","2","4","4","5","2","1","2","622124635634270208","刘","287","","","","","","","","","","","","","","","","","","","true","3","3","ability","932","negative","拙笨","","","","","","","","","","","","","","",""
"null","","null","html-keyboard-response","75","170968","0.0-6.0-0.0-6.0-0.8","3","4","4","4","4","3","4","4","4","4","4","5","4","5","5","4","5","5","4","5","1","1","2","1","1","2","1","2","1","0","0","0","1","0","0","0","1","1","1","1","0","1","0","1","5","1","1","2","4","4","5","2","1","2","622124635634270208","刘","287","","","","","","","","","","","","","","","","","","","","","","","","","","","","","","","","","","","","","","","",""
"716","<p style=""color:rgb(150, 250, 100); font-size: 35px;"">他的</p>","e","categorize-html","76","171685","0.0-6.0-0.0-6.0-1.8","3","4","4","4","4","3","4","4","4","4","4","5","4","5","5","4","5","5","4","5","1","1","2","1","1","2","1","2","1","0","0","0","1","0","0","0","1","1","1","1","0","1","0","1","5","1","1","2","4","4","5","2","1","2","622124635634270208","刘","287","","","","","","","","","","","","","","","","","","","true","3","3","ability","716","other","他的","","","","","","","","","","","","","","",""
"null","","null","html-keyboard-response","77","171943","0.0-6.0-0.0-6.0-0.9","3","4","4","4","4","3","4","4","4","4","4","5","4","5","5","4","5","5","4","5","1","1","2","1","1","2","1","2","1","0","0","0","1","0","0","0","1","1","1","1","0","1","0","1","5","1","1","2","4","4","5","2","1","2","622124635634270208","刘","287","","","","","","","","","","","","","","","","","","","","","","","","","","","","","","","","","","","","","","","",""
"693","<p style=""color:white; font-size: 35px;"">蠢笨</p>","i","categorize-html","78","172636","0.0-6.0-0.0-6.0-1.9","3","4","4","4","4","3","4","4","4","4","4","5","4","5","5","4","5","5","4","5","1","1","2","1","1","2","1","2","1","0","0","0","1","0","0","0","1","1","1","1","0","1","0","1","5","1","1","2","4","4","5","2","1","2","622124635634270208","刘","287","","","","","","","","","","","","","","","","","","","true","3","3","ability","693","negative","蠢笨","","","","","","","","","","","","","","",""
"null","","null","html-keyboard-response","79","172887","0.0-6.0-0.0-6.0-0.10","3","4","4","4","4","3","4","4","4","4","4","5","4","5","5","4","5","5","4","5","1","1","2","1","1","2","1","2","1","0","0","0","1","0","0","0","1","1","1","1","0","1","0","1","5","1","1","2","4","4","5","2","1","2","622124635634270208","刘","287","","","","","","","","","","","","","","","","","","","","","","","","","","","","","","","","","","","","","","","",""
"1780","<p style=""color:rgb(150, 250, 100); font-size: 35px;"">自己的</p>","i","categorize-html","80","174668","0.0-6.0-0.0-6.0-1.10","3","4","4","4","4","3","4","4","4","4","4","5","4","5","5","4","5","5","4","5","1","1","2","1","1","2","1","2","1","0","0","0","1","0","0","0","1","1","1","1","0","1","0","1","5","1","1","2","4","4","5","2","1","2","622124635634270208","刘","287","","","","","","","","","","","","","","","","","","","true","3","3","ability","1780","self","自己的","","","","","","","","","","","","","","",""
"null","","null","html-keyboard-response","81","174919","0.0-6.0-0.0-6.0-0.11","3","4","4","4","4","3","4","4","4","4","4","5","4","5","5","4","5","5","4","5","1","1","2","1","1","2","1","2","1","0","0","0","1","0","0","0","1","1","1","1","0","1","0","1","5","1","1","2","4","4","5","2","1","2","622124635634270208","刘","287","","","","","","","","","","","","","","","","","","","","","","","","","","","","","","","","","","","","","","","",""
"1197","<p style=""color:white; font-size: 35px;"">高效</p>","e","categorize-html","82","176118","0.0-6.0-0.0-6.0-1.11","3","4","4","4","4","3","4","4","4","4","4","5","4","5","5","4","5","5","4","5","1","1","2","1","1","2","1","2","1","0","0","0","1","0","0","0","1","1","1","1","0","1","0","1","5","1","1","2","4","4","5","2","1","2","622124635634270208","刘","287","","","","","","","","","","","","","","","","","","","true","3","3","ability","1197","positive","高效","","","","","","","","","","","","","","",""
"null","","null","html-keyboard-response","83","176369","0.0-6.0-0.0-6.0-0.12","3","4","4","4","4","3","4","4","4","4","4","5","4","5","5","4","5","5","4","5","1","1","2","1","1","2","1","2","1","0","0","0","1","0","0","0","1","1","1","1","0","1","0","1","5","1","1","2","4","4","5","2","1","2","622124635634270208","刘","287","","","","","","","","","","","","","","","","","","","","","","","","","","","","","","","","","","","","","","","",""
"636","<p style=""color:rgb(150, 250, 100); font-size: 35px;"">他人</p>","e","categorize-html","84","177006","0.0-6.0-0.0-6.0-1.12","3","4","4","4","4","3","4","4","4","4","4","5","4","5","5","4","5","5","4","5","1","1","2","1","1","2","1","2","1","0","0","0","1","0","0","0","1","1","1","1","0","1","0","1","5","1","1","2","4","4","5","2","1","2","622124635634270208","刘","287","","","","","","","","","","","","","","","","","","","true","3","3","ability","636","other","他人","","","","","","","","","","","","","","",""
"null","","null","html-keyboard-response","85","177256","0.0-6.0-0.0-6.0-0.13","3","4","4","4","4","3","4","4","4","4","4","5","4","5","5","4","5","5","4","5","1","1","2","1","1","2","1","2","1","0","0","0","1","0","0","0","1","1","1","1","0","1","0","1","5","1","1","2","4","4","5","2","1","2","622124635634270208","刘","287","","","","","","","","","","","","","","","","","","","","","","","","","","","","","","","","","","","","","","","",""
"1253","<p style=""color:white; font-size: 35px;"">天才</p>","e","categorize-html","86","178510","0.0-6.0-0.0-6.0-1.13","3","4","4","4","4","3","4","4","4","4","4","5","4","5","5","4","5","5","4","5","1","1","2","1","1","2","1","2","1","0","0","0","1","0","0","0","1","1","1","1","0","1","0","1","5","1","1","2","4","4","5","2","1","2","622124635634270208","刘","287","","","","","","","","","","","","","","","","","","","true","3","3","ability","1253","positive","天才","","","","","","","","","","","","","","",""
"null","","null","html-keyboard-response","87","178761","0.0-6.0-0.0-6.0-0.14","3","4","4","4","4","3","4","4","4","4","4","5","4","5","5","4","5","5","4","5","1","1","2","1","1","2","1","2","1","0","0","0","1","0","0","0","1","1","1","1","0","1","0","1","5","1","1","2","4","4","5","2","1","2","622124635634270208","刘","287","","","","","","","","","","","","","","","","","","","","","","","","","","","","","","","","","","","","","","","",""
"837","<p style=""color:rgb(150, 250, 100); font-size: 35px;"">我</p>","i","categorize-html","88","179599","0.0-6.0-0.0-6.0-1.14","3","4","4","4","4","3","4","4","4","4","4","5","4","5","5","4","5","5","4","5","1","1","2","1","1","2","1","2","1","0","0","0","1","0","0","0","1","1","1","1","0","1","0","1","5","1","1","2","4","4","5","2","1","2","622124635634270208","刘","287","","","","","","","","","","","","","","","","","","","true","3","3","ability","837","self","我","","","","","","","","","","","","","","",""
"null","","null","html-keyboard-response","89","179850","0.0-6.0-0.0-6.0-0.15","3","4","4","4","4","3","4","4","4","4","4","5","4","5","5","4","5","5","4","5","1","1","2","1","1","2","1","2","1","0","0","0","1","0","0","0","1","1","1","1","0","1","0","1","5","1","1","2","4","4","5","2","1","2","622124635634270208","刘","287","","","","","","","","","","","","","","","","","","","","","","","","","","","","","","","","","","","","","","","",""
"2779","<p style=""color:white; font-size: 35px;"">无能</p>","i","categorize-html","90","182630","0.0-6.0-0.0-6.0-1.15","3","4","4","4","4","3","4","4","4","4","4","5","4","5","5","4","5","5","4","5","1","1","2","1","1","2","1","2","1","0","0","0","1","0","0","0","1","1","1","1","0","1","0","1","5","1","1","2","4","4","5","2","1","2","622124635634270208","刘","287","","","","","","","","","","","","","","","","","","","true","3","3","ability","2779","negative","无能","","","","","","","","","","","","","","",""
"null","","null","html-keyboard-response","91","182881","0.0-6.0-0.0-6.0-0.16","3","4","4","4","4","3","4","4","4","4","4","5","4","5","5","4","5","5","4","5","1","1","2","1","1","2","1","2","1","0","0","0","1","0","0","0","1","1","1","1","0","1","0","1","5","1","1","2","4","4","5","2","1","2","622124635634270208","刘","287","","","","","","","","","","","","","","","","","","","","","","","","","","","","","","","","","","","","","","","",""
"715","<p style=""color:rgb(150, 250, 100); font-size: 35px;"">他人的</p>","e","categorize-html","92","183596","0.0-6.0-0.0-6.0-1.16","3","4","4","4","4","3","4","4","4","4","4","5","4","5","5","4","5","5","4","5","1","1","2","1","1","2","1","2","1","0","0","0","1","0","0","0","1","1","1","1","0","1","0","1","5","1","1","2","4","4","5","2","1","2","622124635634270208","刘","287","","","","","","","","","","","","","","","","","","","true","3","3","ability","715","other","他人的","","","","","","","","","","","","","","",""
"null","","null","html-keyboard-response","93","183847","0.0-6.0-0.0-6.0-0.17","3","4","4","4","4","3","4","4","4","4","4","5","4","5","5","4","5","5","4","5","1","1","2","1","1","2","1","2","1","0","0","0","1","0","0","0","1","1","1","1","0","1","0","1","5","1","1","2","4","4","5","2","1","2","622124635634270208","刘","287","","","","","","","","","","","","","","","","","","","","","","","","","","","","","","","","","","","","","","","",""
"1629","<p style=""color:white; font-size: 35px;"">废物</p>","i","categorize-html","94","185477","0.0-6.0-0.0-6.0-1.17","3","4","4","4","4","3","4","4","4","4","4","5","4","5","5","4","5","5","4","5","1","1","2","1","1","2","1","2","1","0","0","0","1","0","0","0","1","1","1","1","0","1","0","1","5","1","1","2","4","4","5","2","1","2","622124635634270208","刘","287","","","","","","","","","","","","","","","","","","","true","3","3","ability","1629","negative","废物","","","","","","","","","","","","","","",""
"null","","null","html-keyboard-response","95","185728","0.0-6.0-0.0-6.0-0.18","3","4","4","4","4","3","4","4","4","4","4","5","4","5","5","4","5","5","4","5","1","1","2","1","1","2","1","2","1","0","0","0","1","0","0","0","1","1","1","1","0","1","0","1","5","1","1","2","4","4","5","2","1","2","622124635634270208","刘","287","","","","","","","","","","","","","","","","","","","","","","","","","","","","","","","","","","","","","","","",""
"1267","<p style=""color:rgb(150, 250, 100); font-size: 35px;"">本人的</p>","i","categorize-html","96","186996","0.0-6.0-0.0-6.0-1.18","3","4","4","4","4","3","4","4","4","4","4","5","4","5","5","4","5","5","4","5","1","1","2","1","1","2","1","2","1","0","0","0","1","0","0","0","1","1","1","1","0","1","0","1","5","1","1","2","4","4","5","2","1","2","622124635634270208","刘","287","","","","","","","","","","","","","","","","","","","true","3","3","ability","1267","self","本人的","","","","","","","","","","","","","","",""
"null","","null","html-keyboard-response","97","187248","0.0-6.0-0.0-6.0-0.19","3","4","4","4","4","3","4","4","4","4","4","5","4","5","5","4","5","5","4","5","1","1","2","1","1","2","1","2","1","0","0","0","1","0","0","0","1","1","1","1","0","1","0","1","5","1","1","2","4","4","5","2","1","2","622124635634270208","刘","287","","","","","","","","","","","","","","","","","","","","","","","","","","","","","","","","","","","","","","","",""
"1373","<p style=""color:white; font-size: 35px;"">全能</p>","e","categorize-html","98","188623","0.0-6.0-0.0-6.0-1.19","3","4","4","4","4","3","4","4","4","4","4","5","4","5","5","4","5","5","4","5","1","1","2","1","1","2","1","2","1","0","0","0","1","0","0","0","1","1","1","1","0","1","0","1","5","1","1","2","4","4","5","2","1","2","622124635634270208","刘","287","","","","","","","","","","","","","","","","","","","true","3","3","ability","1373","positive","全能","","","","","","","","","","","","","","",""
"null","","null","html-keyboard-response","99","188875","0.0-6.0-0.0-6.0-0.20","3","4","4","4","4","3","4","4","4","4","4","5","4","5","5","4","5","5","4","5","1","1","2","1","1","2","1","2","1","0","0","0","1","0","0","0","1","1","1","1","0","1","0","1","5","1","1","2","4","4","5","2","1","2","622124635634270208","刘","287","","","","","","","","","","","","","","","","","","","","","","","","","","","","","","","","","","","","","","","",""
"1184","<p style=""color:rgb(150, 250, 100); font-size: 35px;"">他</p>","e","categorize-html","100","190060","0.0-6.0-0.0-6.0-1.20","3","4","4","4","4","3","4","4","4","4","4","5","4","5","5","4","5","5","4","5","1","1","2","1","1","2","1","2","1","0","0","0","1","0","0","0","1","1","1","1","0","1","0","1","5","1","1","2","4","4","5","2","1","2","622124635634270208","刘","287","","","","","","","","","","","","","","","","","","","true","3","3","ability","1184","other","他","","","","","","","","","","","","","","",""
"null","","null","html-keyboard-response","101","190312","0.0-6.0-0.0-6.0-0.21","3","4","4","4","4","3","4","4","4","4","4","5","4","5","5","4","5","5","4","5","1","1","2","1","1","2","1","2","1","0","0","0","1","0","0","0","1","1","1","1","0","1","0","1","5","1","1","2","4","4","5","2","1","2","622124635634270208","刘","287","","","","","","","","","","","","","","","","","","","","","","","","","","","","","","","","","","","","","","","",""
"1180","<p style=""color:white; font-size: 35px;"">低能</p>","i","categorize-html","102","191492","0.0-6.0-0.0-6.0-1.21","3","4","4","4","4","3","4","4","4","4","4","5","4","5","5","4","5","5","4","5","1","1","2","1","1","2","1","2","1","0","0","0","1","0","0","0","1","1","1","1","0","1","0","1","5","1","1","2","4","4","5","2","1","2","622124635634270208","刘","287","","","","","","","","","","","","","","","","","","","true","3","3","ability","1180","negative","低能","","","","","","","","","","","","","","",""
"null","","null","html-keyboard-response","103","191743","0.0-6.0-0.0-6.0-0.22","3","4","4","4","4","3","4","4","4","4","4","5","4","5","5","4","5","5","4","5","1","1","2","1","1","2","1","2","1","0","0","0","1","0","0","0","1","1","1","1","0","1","0","1","5","1","1","2","4","4","5","2","1","2","622124635634270208","刘","287","","","","","","","","","","","","","","","","","","","","","","","","","","","","","","","","","","","","","","","",""
"1247","<p style=""color:rgb(150, 250, 100); font-size: 35px;"">本人</p>","e","categorize-html","104","194277","0.0-6.0-0.0-6.0-1.22","3","4","4","4","4","3","4","4","4","4","4","5","4","5","5","4","5","5","4","5","1","1","2","1","1","2","1","2","1","0","0","0","1","0","0","0","1","1","1","1","0","1","0","1","5","1","1","2","4","4","5","2","1","2","622124635634270208","刘","287","","","","","","","","","","","","","","","","","","","false","3","3","ability","1967.5217391304348","self","本人","","","","","","","","","","","","","","",""
"null","","null","html-keyboard-response","105","194529","0.0-6.0-0.0-6.0-0.23","3","4","4","4","4","3","4","4","4","4","4","5","4","5","5","4","5","5","4","5","1","1","2","1","1","2","1","2","1","0","0","0","1","0","0","0","1","1","1","1","0","1","0","1","5","1","1","2","4","4","5","2","1","2","622124635634270208","刘","287","","","","","","","","","","","","","","","","","","","","","","","","","","","","","","","","","","","","","","","",""
"1010","<p style=""color:white; font-size: 35px;"">精干</p>","e","categorize-html","106","195540","0.0-6.0-0.0-6.0-1.23","3","4","4","4","4","3","4","4","4","4","4","5","4","5","5","4","5","5","4","5","1","1","2","1","1","2","1","2","1","0","0","0","1","0","0","0","1","1","1","1","0","1","0","1","5","1","1","2","4","4","5","2","1","2","622124635634270208","刘","287","","","","","","","","","","","","","","","","","","","true","3","3","ability","1010","positive","精干","","","","","","","","","","","","","","",""
"3064","
    <div class=""tag-bottom""><p>
    —— 任务4：对“他人/积极”词和“自我/消极”词分类 ——<p/>
    <span style=""color:#78DCE8""><b>与刚才的任务完全相同，请再次对这四类词语分类</b></span><p/>
    <span style=""color:#FFD866""><b>请根据上方标签的提示，尽可能正确并且快速地做出按键反应</b></span><p/>
    当按键错误时屏幕中会出现<span style=""color:red""> X </span>，需要按另一个键纠正才能继续<br/><p/>
    请把双手食指分别放在键盘的“E”键和“I”键上<p/>
    按<空格键>开始
    </p></div>"," ","html-keyboard-response","107","198604","0.0-6.0-0.0-7.0","3","4","4","4","4","3","4","4","4","4","4","5","4","5","5","4","5","5","4","5","1","1","2","1","1","2","1","2","1","0","0","0","1","0","0","0","1","1","1","1","0","1","0","1","5","1","1","2","4","4","5","2","1","2","622124635634270208","刘","287","","","","","","","","","","","","","","","","","","","","","","","","","","","","","","","","","","","","","","","",""
"null","","null","html-keyboard-response","108","198856","0.0-6.0-0.0-8.0-0.0","3","4","4","4","4","3","4","4","4","4","4","5","4","5","5","4","5","5","4","5","1","1","2","1","1","2","1","2","1","0","0","0","1","0","0","0","1","1","1","1","0","1","0","1","5","1","1","2","4","4","5","2","1","2","622124635634270208","刘","287","","","","","","","","","","","","","","","","","","","","","","","","","","","","","","","","","","","","","","","",""
"901","<p style=""color:rgb(150, 250, 100); font-size: 35px;"">别人</p>","e","categorize-html","109","199758","0.0-6.0-0.0-8.0-1.0","3","4","4","4","4","3","4","4","4","4","4","5","4","5","5","4","5","5","4","5","1","1","2","1","1","2","1","2","1","0","0","0","1","0","0","0","1","1","1","1","0","1","0","1","5","1","1","2","4","4","5","2","1","2","622124635634270208","刘","287","","","","","","","","","","","","","","","","","","","true","4","4","ability","901","other","别人","","","","","","","","","","","","","","",""
"null","","null","html-keyboard-response","110","200009","0.0-6.0-0.0-8.0-0.1","3","4","4","4","4","3","4","4","4","4","4","5","4","5","5","4","5","5","4","5","1","1","2","1","1","2","1","2","1","0","0","0","1","0","0","0","1","1","1","1","0","1","0","1","5","1","1","2","4","4","5","2","1","2","622124635634270208","刘","287","","","","","","","","","","","","","","","","","","","","","","","","","","","","","","","","","","","","","","","",""
"1155","<p style=""color:white; font-size: 35px;"">精干</p>","e","categorize-html","111","201164","0.0-6.0-0.0-8.0-1.1","3","4","4","4","4","3","4","4","4","4","4","5","4","5","5","4","5","5","4","5","1","1","2","1","1","2","1","2","1","0","0","0","1","0","0","0","1","1","1","1","0","1","0","1","5","1","1","2","4","4","5","2","1","2","622124635634270208","刘","287","","","","","","","","","","","","","","","","","","","true","4","4","ability","1155","positive","精干","","","","","","","","","","","","","","",""
"null","","null","html-keyboard-response","112","201416","0.0-6.0-0.0-8.0-0.2","3","4","4","4","4","3","4","4","4","4","4","5","4","5","5","4","5","5","4","5","1","1","2","1","1","2","1","2","1","0","0","0","1","0","0","0","1","1","1","1","0","1","0","1","5","1","1","2","4","4","5","2","1","2","622124635634270208","刘","287","","","","","","","","","","","","","","","","","","","","","","","","","","","","","","","","","","","","","","","",""
"1116","<p style=""color:rgb(150, 250, 100); font-size: 35px;"">我</p>","i","categorize-html","113","202532","0.0-6.0-0.0-8.0-1.2","3","4","4","4","4","3","4","4","4","4","4","5","4","5","5","4","5","5","4","5","1","1","2","1","1","2","1","2","1","0","0","0","1","0","0","0","1","1","1","1","0","1","0","1","5","1","1","2","4","4","5","2","1","2","622124635634270208","刘","287","","","","","","","","","","","","","","","","","","","true","4","4","ability","1116","self","我","","","","","","","","","","","","","","",""
"null","","null","html-keyboard-response","114","202784","0.0-6.0-0.0-8.0-0.3","3","4","4","4","4","3","4","4","4","4","4","5","4","5","5","4","5","5","4","5","1","1","2","1","1","2","1","2","1","0","0","0","1","0","0","0","1","1","1","1","0","1","0","1","5","1","1","2","4","4","5","2","1","2","622124635634270208","刘","287","","","","","","","","","","","","","","","","","","","","","","","","","","","","","","","","","","","","","","","",""
"3724","<p style=""color:white; font-size: 35px;"">拙笨</p>","i","categorize-html","115","206508","0.0-6.0-0.0-8.0-1.3","3","4","4","4","4","3","4","4","4","4","4","5","4","5","5","4","5","5","4","5","1","1","2","1","1","2","1","2","1","0","0","0","1","0","0","0","1","1","1","1","0","1","0","1","5","1","1","2","4","4","5","2","1","2","622124635634270208","刘","287","","","","","","","","","","","","","","","","","","","true","4","4","ability","3724","negative","拙笨","","","","","","","","","","","","","","",""
"null","","null","html-keyboard-response","116","206760","0.0-6.0-0.0-8.0-0.4","3","4","4","4","4","3","4","4","4","4","4","5","4","5","5","4","5","5","4","5","1","1","2","1","1","2","1","2","1","0","0","0","1","0","0","0","1","1","1","1","0","1","0","1","5","1","1","2","4","4","5","2","1","2","622124635634270208","刘","287","","","","","","","","","","","","","","","","","","","","","","","","","","","","","","","","","","","","","","","",""
"788","<p style=""color:rgb(150, 250, 100); font-size: 35px;"">他人</p>","e","categorize-html","117","207548","0.0-6.0-0.0-8.0-1.4","3","4","4","4","4","3","4","4","4","4","4","5","4","5","5","4","5","5","4","5","1","1","2","1","1","2","1","2","1","0","0","0","1","0","0","0","1","1","1","1","0","1","0","1","5","1","1","2","4","4","5","2","1","2","622124635634270208","刘","287","","","","","","","","","","","","","","","","","","","true","4","4","ability","788","other","他人","","","","","","","","","","","","","","",""
"null","","null","html-keyboard-response","118","207800","0.0-6.0-0.0-8.0-0.5","3","4","4","4","4","3","4","4","4","4","4","5","4","5","5","4","5","5","4","5","1","1","2","1","1","2","1","2","1","0","0","0","1","0","0","0","1","1","1","1","0","1","0","1","5","1","1","2","4","4","5","2","1","2","622124635634270208","刘","287","","","","","","","","","","","","","","","","","","","","","","","","","","","","","","","","","","","","","","","",""
"660","<p style=""color:white; font-size: 35px;"">全能</p>","e","categorize-html","119","208462","0.0-6.0-0.0-8.0-1.5","3","4","4","4","4","3","4","4","4","4","4","5","4","5","5","4","5","5","4","5","1","1","2","1","1","2","1","2","1","0","0","0","1","0","0","0","1","1","1","1","0","1","0","1","5","1","1","2","4","4","5","2","1","2","622124635634270208","刘","287","","","","","","","","","","","","","","","","","","","true","4","4","ability","660","positive","全能","","","","","","","","","","","","","","",""
"null","","null","html-keyboard-response","120","208713","0.0-6.0-0.0-8.0-0.6","3","4","4","4","4","3","4","4","4","4","4","5","4","5","5","4","5","5","4","5","1","1","2","1","1","2","1","2","1","0","0","0","1","0","0","0","1","1","1","1","0","1","0","1","5","1","1","2","4","4","5","2","1","2","622124635634270208","刘","287","","","","","","","","","","","","","","","","","","","","","","","","","","","","","","","","","","","","","","","",""
"891","<p style=""color:rgb(150, 250, 100); font-size: 35px;"">本人</p>","e","categorize-html","121","210165","0.0-6.0-0.0-8.0-1.6","3","4","4","4","4","3","4","4","4","4","4","5","4","5","5","4","5","5","4","5","1","1","2","1","1","2","1","2","1","0","0","0","1","0","0","0","1","1","1","1","0","1","0","1","5","1","1","2","4","4","5","2","1","2","622124635634270208","刘","287","","","","","","","","","","","","","","","","","","","false","4","4","ability","1960.1063829787233","self","本人","","","","","","","","","","","","","","",""
"null","","null","html-keyboard-response","122","210417","0.0-6.0-0.0-8.0-0.7","3","4","4","4","4","3","4","4","4","4","4","5","4","5","5","4","5","5","4","5","1","1","2","1","1","2","1","2","1","0","0","0","1","0","0","0","1","1","1","1","0","1","0","1","5","1","1","2","4","4","5","2","1","2","622124635634270208","刘","287","","","","","","","","","","","","","","","","","","","","","","","","","","","","","","","","","","","","","","","",""
"850","<p style=""color:white; font-size: 35px;"">愚钝</p>","i","categorize-html","123","211268","0.0-6.0-0.0-8.0-1.7","3","4","4","4","4","3","4","4","4","4","4","5","4","5","5","4","5","5","4","5","1","1","2","1","1","2","1","2","1","0","0","0","1","0","0","0","1","1","1","1","0","1","0","1","5","1","1","2","4","4","5","2","1","2","622124635634270208","刘","287","","","","","","","","","","","","","","","","","","","true","4","4","ability","850","negative","愚钝","","","","","","","","","","","","","","",""
"null","","null","html-keyboard-response","124","211519","0.0-6.0-0.0-8.0-0.8","3","4","4","4","4","3","4","4","4","4","4","5","4","5","5","4","5","5","4","5","1","1","2","1","1","2","1","2","1","0","0","0","1","0","0","0","1","1","1","1","0","1","0","1","5","1","1","2","4","4","5","2","1","2","622124635634270208","刘","287","","","","","","","","","","","","","","","","","","","","","","","","","","","","","","","","","","","","","","","",""
"613","<p style=""color:rgb(150, 250, 100); font-size: 35px;"">他</p>","e","categorize-html","125","212133","0.0-6.0-0.0-8.0-1.8","3","4","4","4","4","3","4","4","4","4","4","5","4","5","5","4","5","5","4","5","1","1","2","1","1","2","1","2","1","0","0","0","1","0","0","0","1","1","1","1","0","1","0","1","5","1","1","2","4","4","5","2","1","2","622124635634270208","刘","287","","","","","","","","","","","","","","","","","","","true","4","4","ability","613","other","他","","","","","","","","","","","","","","",""
"null","","null","html-keyboard-response","126","212385","0.0-6.0-0.0-8.0-0.9","3","4","4","4","4","3","4","4","4","4","4","5","4","5","5","4","5","5","4","5","1","1","2","1","1","2","1","2","1","0","0","0","1","0","0","0","1","1","1","1","0","1","0","1","5","1","1","2","4","4","5","2","1","2","622124635634270208","刘","287","","","","","","","","","","","","","","","","","","","","","","","","","","","","","","","","","","","","","","","",""
"1019","<p style=""color:white; font-size: 35px;"">高效</p>","e","categorize-html","127","213404","0.0-6.0-0.0-8.0-1.9","3","4","4","4","4","3","4","4","4","4","4","5","4","5","5","4","5","5","4","5","1","1","2","1","1","2","1","2","1","0","0","0","1","0","0","0","1","1","1","1","0","1","0","1","5","1","1","2","4","4","5","2","1","2","622124635634270208","刘","287","","","","","","","","","","","","","","","","","","","true","4","4","ability","1019","positive","高效","","","","","","","","","","","","","","",""
"null","","null","html-keyboard-response","128","213656","0.0-6.0-0.0-8.0-0.10","3","4","4","4","4","3","4","4","4","4","4","5","4","5","5","4","5","5","4","5","1","1","2","1","1","2","1","2","1","0","0","0","1","0","0","0","1","1","1","1","0","1","0","1","5","1","1","2","4","4","5","2","1","2","622124635634270208","刘","287","","","","","","","","","","","","","","","","","","","","","","","","","","","","","","","","","","","","","","","",""
"939","<p style=""color:rgb(150, 250, 100); font-size: 35px;"">本人</p>","i","categorize-html","129","214596","0.0-6.0-0.0-8.0-1.10","3","4","4","4","4","3","4","4","4","4","4","5","4","5","5","4","5","5","4","5","1","1","2","1","1","2","1","2","1","0","0","0","1","0","0","0","1","1","1","1","0","1","0","1","5","1","1","2","4","4","5","2","1","2","622124635634270208","刘","287","","","","","","","","","","","","","","","","","","","true","4","4","ability","939","self","本人","","","","","","","","","","","","","","",""
"null","","null","html-keyboard-response","130","214846","0.0-6.0-0.0-8.0-0.11","3","4","4","4","4","3","4","4","4","4","4","5","4","5","5","4","5","5","4","5","1","1","2","1","1","2","1","2","1","0","0","0","1","0","0","0","1","1","1","1","0","1","0","1","5","1","1","2","4","4","5","2","1","2","622124635634270208","刘","287","","","","","","","","","","","","","","","","","","","","","","","","","","","","","","","","","","","","","","","",""
"717","<p style=""color:white; font-size: 35px;"">蠢笨</p>","i","categorize-html","131","215564","0.0-6.0-0.0-8.0-1.11","3","4","4","4","4","3","4","4","4","4","4","5","4","5","5","4","5","5","4","5","1","1","2","1","1","2","1","2","1","0","0","0","1","0","0","0","1","1","1","1","0","1","0","1","5","1","1","2","4","4","5","2","1","2","622124635634270208","刘","287","","","","","","","","","","","","","","","","","","","true","4","4","ability","717","negative","蠢笨","","","","","","","","","","","","","","",""
"null","","null","html-keyboard-response","132","215817","0.0-6.0-0.0-8.0-0.12","3","4","4","4","4","3","4","4","4","4","4","5","4","5","5","4","5","5","4","5","1","1","2","1","1","2","1","2","1","0","0","0","1","0","0","0","1","1","1","1","0","1","0","1","5","1","1","2","4","4","5","2","1","2","622124635634270208","刘","287","","","","","","","","","","","","","","","","","","","","","","","","","","","","","","","","","","","","","","","",""
"683","<p style=""color:rgb(150, 250, 100); font-size: 35px;"">别人的</p>","e","categorize-html","133","216500","0.0-6.0-0.0-8.0-1.12","3","4","4","4","4","3","4","4","4","4","4","5","4","5","5","4","5","5","4","5","1","1","2","1","1","2","1","2","1","0","0","0","1","0","0","0","1","1","1","1","0","1","0","1","5","1","1","2","4","4","5","2","1","2","622124635634270208","刘","287","","","","","","","","","","","","","","","","","","","true","4","4","ability","683","other","别人的","","","","","","","","","","","","","","",""
"null","","null","html-keyboard-response","134","216752","0.0-6.0-0.0-8.0-0.13","3","4","4","4","4","3","4","4","4","4","4","5","4","5","5","4","5","5","4","5","1","1","2","1","1","2","1","2","1","0","0","0","1","0","0","0","1","1","1","1","0","1","0","1","5","1","1","2","4","4","5","2","1","2","622124635634270208","刘","287","","","","","","","","","","","","","","","","","","","","","","","","","","","","","","","","","","","","","","","",""
"1581","<p style=""color:white; font-size: 35px;"">废物</p>","i","categorize-html","135","218333","0.0-6.0-0.0-8.0-1.13","3","4","4","4","4","3","4","4","4","4","4","5","4","5","5","4","5","5","4","5","1","1","2","1","1","2","1","2","1","0","0","0","1","0","0","0","1","1","1","1","0","1","0","1","5","1","1","2","4","4","5","2","1","2","622124635634270208","刘","287","","","","","","","","","","","","","","","","","","","true","4","4","ability","1581","negative","废物","","","","","","","","","","","","","","",""
"null","","null","html-keyboard-response","136","218585","0.0-6.0-0.0-8.0-0.14","3","4","4","4","4","3","4","4","4","4","4","5","4","5","5","4","5","5","4","5","1","1","2","1","1","2","1","2","1","0","0","0","1","0","0","0","1","1","1","1","0","1","0","1","5","1","1","2","4","4","5","2","1","2","622124635634270208","刘","287","","","","","","","","","","","","","","","","","","","","","","","","","","","","","","","","","","","","","","","",""
"1155","<p style=""color:rgb(150, 250, 100); font-size: 35px;"">自己</p>","i","categorize-html","137","219742","0.0-6.0-0.0-8.0-1.14","3","4","4","4","4","3","4","4","4","4","4","5","4","5","5","4","5","5","4","5","1","1","2","1","1","2","1","2","1","0","0","0","1","0","0","0","1","1","1","1","0","1","0","1","5","1","1","2","4","4","5","2","1","2","622124635634270208","刘","287","","","","","","","","","","","","","","","","","","","true","4","4","ability","1155","self","自己","","","","","","","","","","","","","","",""
"null","","null","html-keyboard-response","138","219993","0.0-6.0-0.0-8.0-0.15","3","4","4","4","4","3","4","4","4","4","4","5","4","5","5","4","5","5","4","5","1","1","2","1","1","2","1","2","1","0","0","0","1","0","0","0","1","1","1","1","0","1","0","1","5","1","1","2","4","4","5","2","1","2","622124635634270208","刘","287","","","","","","","","","","","","","","","","","","","","","","","","","","","","","","","","","","","","","","","",""
"1835","<p style=""color:white; font-size: 35px;"">天才</p>","e","categorize-html","139","221828","0.0-6.0-0.0-8.0-1.15","3","4","4","4","4","3","4","4","4","4","4","5","4","5","5","4","5","5","4","5","1","1","2","1","1","2","1","2","1","0","0","0","1","0","0","0","1","1","1","1","0","1","0","1","5","1","1","2","4","4","5","2","1","2","622124635634270208","刘","287","","","","","","","","","","","","","","","","","","","true","4","4","ability","1835","positive","天才","","","","","","","","","","","","","","",""
"null","","null","html-keyboard-response","140","222079","0.0-6.0-0.0-8.0-0.16","3","4","4","4","4","3","4","4","4","4","4","5","4","5","5","4","5","5","4","5","1","1","2","1","1","2","1","2","1","0","0","0","1","0","0","0","1","1","1","1","0","1","0","1","5","1","1","2","4","4","5","2","1","2","622124635634270208","刘","287","","","","","","","","","","","","","","","","","","","","","","","","","","","","","","","","","","","","","","","",""
"797","<p style=""color:rgb(150, 250, 100); font-size: 35px;"">我的</p>","i","categorize-html","141","222876","0.0-6.0-0.0-8.0-1.16","3","4","4","4","4","3","4","4","4","4","4","5","4","5","5","4","5","5","4","5","1","1","2","1","1","2","1","2","1","0","0","0","1","0","0","0","1","1","1","1","0","1","0","1","5","1","1","2","4","4","5","2","1","2","622124635634270208","刘","287","","","","","","","","","","","","","","","","","","","true","4","4","ability","797","self","我的","","","","","","","","","","","","","","",""
"null","","null","html-keyboard-response","142","223127","0.0-6.0-0.0-8.0-0.17","3","4","4","4","4","3","4","4","4","4","4","5","4","5","5","4","5","5","4","5","1","1","2","1","1","2","1","2","1","0","0","0","1","0","0","0","1","1","1","1","0","1","0","1","5","1","1","2","4","4","5","2","1","2","622124635634270208","刘","287","","","","","","","","","","","","","","","","","","","","","","","","","","","","","","","","","","","","","","","",""
"1733","<p style=""color:white; font-size: 35px;"">蠢笨</p>","i","categorize-html","143","224860","0.0-6.0-0.0-8.0-1.17","3","4","4","4","4","3","4","4","4","4","4","5","4","5","5","4","5","5","4","5","1","1","2","1","1","2","1","2","1","0","0","0","1","0","0","0","1","1","1","1","0","1","0","1","5","1","1","2","4","4","5","2","1","2","622124635634270208","刘","287","","","","","","","","","","","","","","","","","","","true","4","4","ability","1733","negative","蠢笨","","","","","","","","","","","","","","",""
"null","","null","html-keyboard-response","144","225112","0.0-6.0-0.0-8.0-0.18","3","4","4","4","4","3","4","4","4","4","4","5","4","5","5","4","5","5","4","5","1","1","2","1","1","2","1","2","1","0","0","0","1","0","0","0","1","1","1","1","0","1","0","1","5","1","1","2","4","4","5","2","1","2","622124635634270208","刘","287","","","","","","","","","","","","","","","","","","","","","","","","","","","","","","","","","","","","","","","",""
"660","<p style=""color:rgb(150, 250, 100); font-size: 35px;"">他</p>","e","categorize-html","145","225772","0.0-6.0-0.0-8.0-1.18","3","4","4","4","4","3","4","4","4","4","4","5","4","5","5","4","5","5","4","5","1","1","2","1","1","2","1","2","1","0","0","0","1","0","0","0","1","1","1","1","0","1","0","1","5","1","1","2","4","4","5","2","1","2","622124635634270208","刘","287","","","","","","","","","","","","","","","","","","","true","4","4","ability","660","other","他","","","","","","","","","","","","","","",""
"null","","null","html-keyboard-response","146","226024","0.0-6.0-0.0-8.0-0.19","3","4","4","4","4","3","4","4","4","4","4","5","4","5","5","4","5","5","4","5","1","1","2","1","1","2","1","2","1","0","0","0","1","0","0","0","1","1","1","1","0","1","0","1","5","1","1","2","4","4","5","2","1","2","622124635634270208","刘","287","","","","","","","","","","","","","","","","","","","","","","","","","","","","","","","","","","","","","","","",""
"732","<p style=""color:white; font-size: 35px;"">精干</p>","e","categorize-html","147","226757","0.0-6.0-0.0-8.0-1.19","3","4","4","4","4","3","4","4","4","4","4","5","4","5","5","4","5","5","4","5","1","1","2","1","1","2","1","2","1","0","0","0","1","0","0","0","1","1","1","1","0","1","0","1","5","1","1","2","4","4","5","2","1","2","622124635634270208","刘","287","","","","","","","","","","","","","","","","","","","true","4","4","ability","732","positive","精干","","","","","","","","","","","","","","",""
"null","","null","html-keyboard-response","148","227009","0.0-6.0-0.0-8.0-0.20","3","4","4","4","4","3","4","4","4","4","4","5","4","5","5","4","5","5","4","5","1","1","2","1","1","2","1","2","1","0","0","0","1","0","0","0","1","1","1","1","0","1","0","1","5","1","1","2","4","4","5","2","1","2","622124635634270208","刘","287","","","","","","","","","","","","","","","","","","","","","","","","","","","","","","","","","","","","","","","",""
"1971","<p style=""color:rgb(150, 250, 100); font-size: 35px;"">别人的</p>","e","categorize-html","149","228980","0.0-6.0-0.0-8.0-1.20","3","4","4","4","4","3","4","4","4","4","4","5","4","5","5","4","5","5","4","5","1","1","2","1","1","2","1","2","1","0","0","0","1","0","0","0","1","1","1","1","0","1","0","1","5","1","1","2","4","4","5","2","1","2","622124635634270208","刘","287","","","","","","","","","","","","","","","","","","","true","4","4","ability","1971","other","别人的","","","","","","","","","","","","","","",""
"null","","null","html-keyboard-response","150","229231","0.0-6.0-0.0-8.0-0.21","3","4","4","4","4","3","4","4","4","4","4","5","4","5","5","4","5","5","4","5","1","1","2","1","1","2","1","2","1","0","0","0","1","0","0","0","1","1","1","1","0","1","0","1","5","1","1","2","4","4","5","2","1","2","622124635634270208","刘","287","","","","","","","","","","","","","","","","","","","","","","","","","","","","","","","","","","","","","","","",""
"965","<p style=""color:white; font-size: 35px;"">无能</p>","i","categorize-html","151","230198","0.0-6.0-0.0-8.0-1.21","3","4","4","4","4","3","4","4","4","4","4","5","4","5","5","4","5","5","4","5","1","1","2","1","1","2","1","2","1","0","0","0","1","0","0","0","1","1","1","1","0","1","0","1","5","1","1","2","4","4","5","2","1","2","622124635634270208","刘","287","","","","","","","","","","","","","","","","","","","true","4","4","ability","965","negative","无能","","","","","","","","","","","","","","",""
"null","","null","html-keyboard-response","152","230450","0.0-6.0-0.0-8.0-0.22","3","4","4","4","4","3","4","4","4","4","4","5","4","5","5","4","5","5","4","5","1","1","2","1","1","2","1","2","1","0","0","0","1","0","0","0","1","1","1","1","0","1","0","1","5","1","1","2","4","4","5","2","1","2","622124635634270208","刘","287","","","","","","","","","","","","","","","","","","","","","","","","","","","","","","","","","","","","","","","",""
"1283","<p style=""color:rgb(150, 250, 100); font-size: 35px;"">我</p>","i","categorize-html","153","231735","0.0-6.0-0.0-8.0-1.22","3","4","4","4","4","3","4","4","4","4","4","5","4","5","5","4","5","5","4","5","1","1","2","1","1","2","1","2","1","0","0","0","1","0","0","0","1","1","1","1","0","1","0","1","5","1","1","2","4","4","5","2","1","2","622124635634270208","刘","287","","","","","","","","","","","","","","","","","","","true","4","4","ability","1283","self","我","","","","","","","","","","","","","","",""
"null","","null","html-keyboard-response","154","231987","0.0-6.0-0.0-8.0-0.23","3","4","4","4","4","3","4","4","4","4","4","5","4","5","5","4","5","5","4","5","1","1","2","1","1","2","1","2","1","0","0","0","1","0","0","0","1","1","1","1","0","1","0","1","5","1","1","2","4","4","5","2","1","2","622124635634270208","刘","287","","","","","","","","","","","","","","","","","","","","","","","","","","","","","","","","","","","","","","","",""
"3379","<p style=""color:white; font-size: 35px;"">全才</p>","e","categorize-html","155","235366","0.0-6.0-0.0-8.0-1.23","3","4","4","4","4","3","4","4","4","4","4","5","4","5","5","4","5","5","4","5","1","1","2","1","1","2","1","2","1","0","0","0","1","0","0","0","1","1","1","1","0","1","0","1","5","1","1","2","4","4","5","2","1","2","622124635634270208","刘","287","","","","","","","","","","","","","","","","","","","true","4","4","ability","3379","positive","全才","","","","","","","","","","","","","","",""
"null","","null","html-keyboard-response","156","235618","0.0-6.0-0.0-8.0-0.24","3","4","4","4","4","3","4","4","4","4","4","5","4","5","5","4","5","5","4","5","1","1","2","1","1","2","1","2","1","0","0","0","1","0","0","0","1","1","1","1","0","1","0","1","5","1","1","2","4","4","5","2","1","2","622124635634270208","刘","287","","","","","","","","","","","","","","","","","","","","","","","","","","","","","","","","","","","","","","","",""
"786","<p style=""color:rgb(150, 250, 100); font-size: 35px;"">他的</p>","e","categorize-html","157","236404","0.0-6.0-0.0-8.0-1.24","3","4","4","4","4","3","4","4","4","4","4","5","4","5","5","4","5","5","4","5","1","1","2","1","1","2","1","2","1","0","0","0","1","0","0","0","1","1","1","1","0","1","0","1","5","1","1","2","4","4","5","2","1","2","622124635634270208","刘","287","","","","","","","","","","","","","","","","","","","true","4","4","ability","786","other","他的","","","","","","","","","","","","","","",""
"null","","null","html-keyboard-response","158","236661","0.0-6.0-0.0-8.0-0.25","3","4","4","4","4","3","4","4","4","4","4","5","4","5","5","4","5","5","4","5","1","1","2","1","1","2","1","2","1","0","0","0","1","0","0","0","1","1","1","1","0","1","0","1","5","1","1","2","4","4","5","2","1","2","622124635634270208","刘","287","","","","","","","","","","","","","","","","","","","","","","","","","","","","","","","","","","","","","","","",""
"2151","<p style=""color:white; font-size: 35px;"">愚钝</p>","i","categorize-html","159","238812","0.0-6.0-0.0-8.0-1.25","3","4","4","4","4","3","4","4","4","4","4","5","4","5","5","4","5","5","4","5","1","1","2","1","1","2","1","2","1","0","0","0","1","0","0","0","1","1","1","1","0","1","0","1","5","1","1","2","4","4","5","2","1","2","622124635634270208","刘","287","","","","","","","","","","","","","","","","","","","true","4","4","ability","2151","negative","愚钝","","","","","","","","","","","","","","",""
"null","","null","html-keyboard-response","160","239063","0.0-6.0-0.0-8.0-0.26","3","4","4","4","4","3","4","4","4","4","4","5","4","5","5","4","5","5","4","5","1","1","2","1","1","2","1","2","1","0","0","0","1","0","0","0","1","1","1","1","0","1","0","1","5","1","1","2","4","4","5","2","1","2","622124635634270208","刘","287","","","","","","","","","","","","","","","","","","","","","","","","","","","","","","","","","","","","","","","",""
"876","<p style=""color:rgb(150, 250, 100); font-size: 35px;"">我的</p>","i","categorize-html","161","239940","0.0-6.0-0.0-8.0-1.26","3","4","4","4","4","3","4","4","4","4","4","5","4","5","5","4","5","5","4","5","1","1","2","1","1","2","1","2","1","0","0","0","1","0","0","0","1","1","1","1","0","1","0","1","5","1","1","2","4","4","5","2","1","2","622124635634270208","刘","287","","","","","","","","","","","","","","","","","","","true","4","4","ability","876","self","我的","","","","","","","","","","","","","","",""
"null","","null","html-keyboard-response","162","240201","0.0-6.0-0.0-8.0-0.27","3","4","4","4","4","3","4","4","4","4","4","5","4","5","5","4","5","5","4","5","1","1","2","1","1","2","1","2","1","0","0","0","1","0","0","0","1","1","1","1","0","1","0","1","5","1","1","2","4","4","5","2","1","2","622124635634270208","刘","287","","","","","","","","","","","","","","","","","","","","","","","","","","","","","","","","","","","","","","","",""
"1227","<p style=""color:white; font-size: 35px;"">天才</p>","e","categorize-html","163","241428","0.0-6.0-0.0-8.0-1.27","3","4","4","4","4","3","4","4","4","4","4","5","4","5","5","4","5","5","4","5","1","1","2","1","1","2","1","2","1","0","0","0","1","0","0","0","1","1","1","1","0","1","0","1","5","1","1","2","4","4","5","2","1","2","622124635634270208","刘","287","","","","","","","","","","","","","","","","","","","true","4","4","ability","1227","positive","天才","","","","","","","","","","","","","","",""
"null","","null","html-keyboard-response","164","241680","0.0-6.0-0.0-8.0-0.28","3","4","4","4","4","3","4","4","4","4","4","5","4","5","5","4","5","5","4","5","1","1","2","1","1","2","1","2","1","0","0","0","1","0","0","0","1","1","1","1","0","1","0","1","5","1","1","2","4","4","5","2","1","2","622124635634270208","刘","287","","","","","","","","","","","","","","","","","","","","","","","","","","","","","","","","","","","","","","","",""
"1564","<p style=""color:rgb(150, 250, 100); font-size: 35px;"">自己的</p>","i","categorize-html","165","243244","0.0-6.0-0.0-8.0-1.28","3","4","4","4","4","3","4","4","4","4","4","5","4","5","5","4","5","5","4","5","1","1","2","1","1","2","1","2","1","0","0","0","1","0","0","0","1","1","1","1","0","1","0","1","5","1","1","2","4","4","5","2","1","2","622124635634270208","刘","287","","","","","","","","","","","","","","","","","","","true","4","4","ability","1564","self","自己的","","","","","","","","","","","","","","",""
"null","","null","html-keyboard-response","166","243496","0.0-6.0-0.0-8.0-0.29","3","4","4","4","4","3","4","4","4","4","4","5","4","5","5","4","5","5","4","5","1","1","2","1","1","2","1","2","1","0","0","0","1","0","0","0","1","1","1","1","0","1","0","1","5","1","1","2","4","4","5","2","1","2","622124635634270208","刘","287","","","","","","","","","","","","","","","","","","","","","","","","","","","","","","","","","","","","","","","",""
"3788","<p style=""color:white; font-size: 35px;"">能干</p>","e","categorize-html","167","247287","0.0-6.0-0.0-8.0-1.29","3","4","4","4","4","3","4","4","4","4","4","5","4","5","5","4","5","5","4","5","1","1","2","1","1","2","1","2","1","0","0","0","1","0","0","0","1","1","1","1","0","1","0","1","5","1","1","2","4","4","5","2","1","2","622124635634270208","刘","287","","","","","","","","","","","","","","","","","","","true","4","4","ability","3788","positive","能干","","","","","","","","","","","","","","",""
"null","","null","html-keyboard-response","168","247538","0.0-6.0-0.0-8.0-0.30","3","4","4","4","4","3","4","4","4","4","4","5","4","5","5","4","5","5","4","5","1","1","2","1","1","2","1","2","1","0","0","0","1","0","0","0","1","1","1","1","0","1","0","1","5","1","1","2","4","4","5","2","1","2","622124635634270208","刘","287","","","","","","","","","","","","","","","","","","","","","","","","","","","","","","","","","","","","","","","",""
"908","<p style=""color:rgb(150, 250, 100); font-size: 35px;"">他的</p>","e","categorize-html","169","248446","0.0-6.0-0.0-8.0-1.30","3","4","4","4","4","3","4","4","4","4","4","5","4","5","5","4","5","5","4","5","1","1","2","1","1","2","1","2","1","0","0","0","1","0","0","0","1","1","1","1","0","1","0","1","5","1","1","2","4","4","5","2","1","2","622124635634270208","刘","287","","","","","","","","","","","","","","","","","","","true","4","4","ability","908","other","他的","","","","","","","","","","","","","","",""
"null","","null","html-keyboard-response","170","248697","0.0-6.0-0.0-8.0-0.31","3","4","4","4","4","3","4","4","4","4","4","5","4","5","5","4","5","5","4","5","1","1","2","1","1","2","1","2","1","0","0","0","1","0","0","0","1","1","1","1","0","1","0","1","5","1","1","2","4","4","5","2","1","2","622124635634270208","刘","287","","","","","","","","","","","","","","","","","","","","","","","","","","","","","","","","","","","","","","","",""
"2156","<p style=""color:white; font-size: 35px;"">低能</p>","i","categorize-html","171","250855","0.0-6.0-0.0-8.0-1.31","3","4","4","4","4","3","4","4","4","4","4","5","4","5","5","4","5","5","4","5","1","1","2","1","1","2","1","2","1","0","0","0","1","0","0","0","1","1","1","1","0","1","0","1","5","1","1","2","4","4","5","2","1","2","622124635634270208","刘","287","","","","","","","","","","","","","","","","","","","true","4","4","ability","2156","negative","低能","","","","","","","","","","","","","","",""
"null","","null","html-keyboard-response","172","251106","0.0-6.0-0.0-8.0-0.32","3","4","4","4","4","3","4","4","4","4","4","5","4","5","5","4","5","5","4","5","1","1","2","1","1","2","1","2","1","0","0","0","1","0","0","0","1","1","1","1","0","1","0","1","5","1","1","2","4","4","5","2","1","2","622124635634270208","刘","287","","","","","","","","","","","","","","","","","","","","","","","","","","","","","","","","","","","","","","","",""
"1050","<p style=""color:rgb(150, 250, 100); font-size: 35px;"">别人</p>","e","categorize-html","173","252156","0.0-6.0-0.0-8.0-1.32","3","4","4","4","4","3","4","4","4","4","4","5","4","5","5","4","5","5","4","5","1","1","2","1","1","2","1","2","1","0","0","0","1","0","0","0","1","1","1","1","0","1","0","1","5","1","1","2","4","4","5","2","1","2","622124635634270208","刘","287","","","","","","","","","","","","","","","","","","","true","4","4","ability","1050","other","别人","","","","","","","","","","","","","","",""
"null","","null","html-keyboard-response","174","252407","0.0-6.0-0.0-8.0-0.33","3","4","4","4","4","3","4","4","4","4","4","5","4","5","5","4","5","5","4","5","1","1","2","1","1","2","1","2","1","0","0","0","1","0","0","0","1","1","1","1","0","1","0","1","5","1","1","2","4","4","5","2","1","2","622124635634270208","刘","287","","","","","","","","","","","","","","","","","","","","","","","","","","","","","","","","","","","","","","","",""
"1974","<p style=""color:white; font-size: 35px;"">能干</p>","e","categorize-html","175","254383","0.0-6.0-0.0-8.0-1.33","3","4","4","4","4","3","4","4","4","4","4","5","4","5","5","4","5","5","4","5","1","1","2","1","1","2","1","2","1","0","0","0","1","0","0","0","1","1","1","1","0","1","0","1","5","1","1","2","4","4","5","2","1","2","622124635634270208","刘","287","","","","","","","","","","","","","","","","","","","true","4","4","ability","1974","positive","能干","","","","","","","","","","","","","","",""
"null","","null","html-keyboard-response","176","254635","0.0-6.0-0.0-8.0-0.34","3","4","4","4","4","3","4","4","4","4","4","5","4","5","5","4","5","5","4","5","1","1","2","1","1","2","1","2","1","0","0","0","1","0","0","0","1","1","1","1","0","1","0","1","5","1","1","2","4","4","5","2","1","2","622124635634270208","刘","287","","","","","","","","","","","","","","","","","","","","","","","","","","","","","","","","","","","","","","","",""
"1408","<p style=""color:rgb(150, 250, 100); font-size: 35px;"">本人的</p>","i","categorize-html","177","256044","0.0-6.0-0.0-8.0-1.34","3","4","4","4","4","3","4","4","4","4","4","5","4","5","5","4","5","5","4","5","1","1","2","1","1","2","1","2","1","0","0","0","1","0","0","0","1","1","1","1","0","1","0","1","5","1","1","2","4","4","5","2","1","2","622124635634270208","刘","287","","","","","","","","","","","","","","","","","","","true","4","4","ability","1408","self","本人的","","","","","","","","","","","","","","",""
"null","","null","html-keyboard-response","178","256296","0.0-6.0-0.0-8.0-0.35","3","4","4","4","4","3","4","4","4","4","4","5","4","5","5","4","5","5","4","5","1","1","2","1","1","2","1","2","1","0","0","0","1","0","0","0","1","1","1","1","0","1","0","1","5","1","1","2","4","4","5","2","1","2","622124635634270208","刘","287","","","","","","","","","","","","","","","","","","","","","","","","","","","","","","","","","","","","","","","",""
"1589","<p style=""color:white; font-size: 35px;"">低能</p>","i","categorize-html","179","257886","0.0-6.0-0.0-8.0-1.35","3","4","4","4","4","3","4","4","4","4","4","5","4","5","5","4","5","5","4","5","1","1","2","1","1","2","1","2","1","0","0","0","1","0","0","0","1","1","1","1","0","1","0","1","5","1","1","2","4","4","5","2","1","2","622124635634270208","刘","287","","","","","","","","","","","","","","","","","","","true","4","4","ability","1589","negative","低能","","","","","","","","","","","","","","",""
"null","","null","html-keyboard-response","180","258137","0.0-6.0-0.0-8.0-0.36","3","4","4","4","4","3","4","4","4","4","4","5","4","5","5","4","5","5","4","5","1","1","2","1","1","2","1","2","1","0","0","0","1","0","0","0","1","1","1","1","0","1","0","1","5","1","1","2","4","4","5","2","1","2","622124635634270208","刘","287","","","","","","","","","","","","","","","","","","","","","","","","","","","","","","","","","","","","","","","",""
"2451","<p style=""color:rgb(150, 250, 100); font-size: 35px;"">自己</p>","i","categorize-html","181","260589","0.0-6.0-0.0-8.0-1.36","3","4","4","4","4","3","4","4","4","4","4","5","4","5","5","4","5","5","4","5","1","1","2","1","1","2","1","2","1","0","0","0","1","0","0","0","1","1","1","1","0","1","0","1","5","1","1","2","4","4","5","2","1","2","622124635634270208","刘","287","","","","","","","","","","","","","","","","","","","true","4","4","ability","2451","self","自己","","","","","","","","","","","","","","",""
"null","","null","html-keyboard-response","182","260841","0.0-6.0-0.0-8.0-0.37","3","4","4","4","4","3","4","4","4","4","4","5","4","5","5","4","5","5","4","5","1","1","2","1","1","2","1","2","1","0","0","0","1","0","0","0","1","1","1","1","0","1","0","1","5","1","1","2","4","4","5","2","1","2","622124635634270208","刘","287","","","","","","","","","","","","","","","","","","","","","","","","","","","","","","","","","","","","","","","",""
"908","<p style=""color:white; font-size: 35px;"">全能</p>","e","categorize-html","183","261751","0.0-6.0-0.0-8.0-1.37","3","4","4","4","4","3","4","4","4","4","4","5","4","5","5","4","5","5","4","5","1","1","2","1","1","2","1","2","1","0","0","0","1","0","0","0","1","1","1","1","0","1","0","1","5","1","1","2","4","4","5","2","1","2","622124635634270208","刘","287","","","","","","","","","","","","","","","","","","","true","4","4","ability","908","positive","全能","","","","","","","","","","","","","","",""
"null","","null","html-keyboard-response","184","262002","0.0-6.0-0.0-8.0-0.38","3","4","4","4","4","3","4","4","4","4","4","5","4","5","5","4","5","5","4","5","1","1","2","1","1","2","1","2","1","0","0","0","1","0","0","0","1","1","1","1","0","1","0","1","5","1","1","2","4","4","5","2","1","2","622124635634270208","刘","287","","","","","","","","","","","","","","","","","","","","","","","","","","","","","","","","","","","","","","","",""
"755","<p style=""color:rgb(150, 250, 100); font-size: 35px;"">他人的</p>","e","categorize-html","185","262758","0.0-6.0-0.0-8.0-1.38","3","4","4","4","4","3","4","4","4","4","4","5","4","5","5","4","5","5","4","5","1","1","2","1","1","2","1","2","1","0","0","0","1","0","0","0","1","1","1","1","0","1","0","1","5","1","1","2","4","4","5","2","1","2","622124635634270208","刘","287","","","","","","","","","","","","","","","","","","","true","4","4","ability","755","other","他人的","","","","","","","","","","","","","","",""
"null","","null","html-keyboard-response","186","263009","0.0-6.0-0.0-8.0-0.39","3","4","4","4","4","3","4","4","4","4","4","5","4","5","5","4","5","5","4","5","1","1","2","1","1","2","1","2","1","0","0","0","1","0","0","0","1","1","1","1","0","1","0","1","5","1","1","2","4","4","5","2","1","2","622124635634270208","刘","287","","","","","","","","","","","","","","","","","","","","","","","","","","","","","","","","","","","","","","","",""
"931","<p style=""color:white; font-size: 35px;"">废物</p>","i","categorize-html","187","263940","0.0-6.0-0.0-8.0-1.39","3","4","4","4","4","3","4","4","4","4","4","5","4","5","5","4","5","5","4","5","1","1","2","1","1","2","1","2","1","0","0","0","1","0","0","0","1","1","1","1","0","1","0","1","5","1","1","2","4","4","5","2","1","2","622124635634270208","刘","287","","","","","","","","","","","","","","","","","","","true","4","4","ability","931","negative","废物","","","","","","","","","","","","","","",""
"null","","null","html-keyboard-response","188","264192","0.0-6.0-0.0-8.0-0.40","3","4","4","4","4","3","4","4","4","4","4","5","4","5","5","4","5","5","4","5","1","1","2","1","1","2","1","2","1","0","0","0","1","0","0","0","1","1","1","1","0","1","0","1","5","1","1","2","4","4","5","2","1","2","622124635634270208","刘","287","","","","","","","","","","","","","","","","","","","","","","","","","","","","","","","","","","","","","","","",""
"1197","<p style=""color:rgb(150, 250, 100); font-size: 35px;"">本人的</p>","i","categorize-html","189","265391","0.0-6.0-0.0-8.0-1.40","3","4","4","4","4","3","4","4","4","4","4","5","4","5","5","4","5","5","4","5","1","1","2","1","1","2","1","2","1","0","0","0","1","0","0","0","1","1","1","1","0","1","0","1","5","1","1","2","4","4","5","2","1","2","622124635634270208","刘","287","","","","","","","","","","","","","","","","","","","true","4","4","ability","1197","self","本人的","","","","","","","","","","","","","","",""
"null","","null","html-keyboard-response","190","265642","0.0-6.0-0.0-8.0-0.41","3","4","4","4","4","3","4","4","4","4","4","5","4","5","5","4","5","5","4","5","1","1","2","1","1","2","1","2","1","0","0","0","1","0","0","0","1","1","1","1","0","1","0","1","5","1","1","2","4","4","5","2","1","2","622124635634270208","刘","287","","","","","","","","","","","","","","","","","","","","","","","","","","","","","","","","","","","","","","","",""
"2427","<p style=""color:white; font-size: 35px;"">无能</p>","i","categorize-html","191","268070","0.0-6.0-0.0-8.0-1.41","3","4","4","4","4","3","4","4","4","4","4","5","4","5","5","4","5","5","4","5","1","1","2","1","1","2","1","2","1","0","0","0","1","0","0","0","1","1","1","1","0","1","0","1","5","1","1","2","4","4","5","2","1","2","622124635634270208","刘","287","","","","","","","","","","","","","","","","","","","true","4","4","ability","2427","negative","无能","","","","","","","","","","","","","","",""
"null","","null","html-keyboard-response","192","268321","0.0-6.0-0.0-8.0-0.42","3","4","4","4","4","3","4","4","4","4","4","5","4","5","5","4","5","5","4","5","1","1","2","1","1","2","1","2","1","0","0","0","1","0","0","0","1","1","1","1","0","1","0","1","5","1","1","2","4","4","5","2","1","2","622124635634270208","刘","287","","","","","","","","","","","","","","","","","","","","","","","","","","","","","","","","","","","","","","","",""
"771","<p style=""color:rgb(150, 250, 100); font-size: 35px;"">他人的</p>","e","categorize-html","193","269093","0.0-6.0-0.0-8.0-1.42","3","4","4","4","4","3","4","4","4","4","4","5","4","5","5","4","5","5","4","5","1","1","2","1","1","2","1","2","1","0","0","0","1","0","0","0","1","1","1","1","0","1","0","1","5","1","1","2","4","4","5","2","1","2","622124635634270208","刘","287","","","","","","","","","","","","","","","","","","","true","4","4","ability","771","other","他人的","","","","","","","","","","","","","","",""
"null","","null","html-keyboard-response","194","269344","0.0-6.0-0.0-8.0-0.43","3","4","4","4","4","3","4","4","4","4","4","5","4","5","5","4","5","5","4","5","1","1","2","1","1","2","1","2","1","0","0","0","1","0","0","0","1","1","1","1","0","1","0","1","5","1","1","2","4","4","5","2","1","2","622124635634270208","刘","287","","","","","","","","","","","","","","","","","","","","","","","","","","","","","","","","","","","","","","","",""
"1349","<p style=""color:white; font-size: 35px;"">全才</p>","e","categorize-html","195","270695","0.0-6.0-0.0-8.0-1.43","3","4","4","4","4","3","4","4","4","4","4","5","4","5","5","4","5","5","4","5","1","1","2","1","1","2","1","2","1","0","0","0","1","0","0","0","1","1","1","1","0","1","0","1","5","1","1","2","4","4","5","2","1","2","622124635634270208","刘","287","","","","","","","","","","","","","","","","","","","true","4","4","ability","1349","positive","全才","","","","","","","","","","","","","","",""
"null","","null","html-keyboard-response","196","270946","0.0-6.0-0.0-8.0-0.44","3","4","4","4","4","3","4","4","4","4","4","5","4","5","5","4","5","5","4","5","1","1","2","1","1","2","1","2","1","0","0","0","1","0","0","0","1","1","1","1","0","1","0","1","5","1","1","2","4","4","5","2","1","2","622124635634270208","刘","287","","","","","","","","","","","","","","","","","","","","","","","","","","","","","","","","","","","","","","","",""
