"rt","stimulus","response","trial_type","trial_index","time_elapsed","internal_node_id","ses_1","ses_2","ses_3","ses_4","ses_5","ses_6","ses_7","ses_8","ses_9","ses_10","coreself_1","coreself_2","coreself_3","coreself_4","coreself_5","coreself_6","coreself_7","coreself_8","coreself_9","coreself_10","SGPS_1","SGPS_2","SGPS_3","SGPS_4","SGPS_5","SGPS_6","SGPS_7","SGPS_8","SGPS_9","NPI1","NPI2","NPI3","NPI4","NPI5","NPI6","NPI7","NPI8","NPI9","NPI10","NPI11","NPI12","NPI13","NPI14","NPI15","hsns_1","hsns_2","hsns_3","hsns_4","hsns_5","hsns_6","hsns_7","hsns_8","hsns_9","hsns_10","subj_idx","friend_name","ParticipantID","value","success","user_agent","responses","item_order","radio_event_ids","radio_event_times","key_event_times","mouse_event_times","straightlining","zigzagging","honeypot","timeout","failed_images","failed_audio","failed_video","version_attrib","version_target","correct","IAT","screen_id","task_id","RT","condition","word","varname","summary","version_attrib2","version_target2","time_stamp","view_history","response_type","key_press","avg_frame_time","center_x","center_y","correct_response","identity","Image","question_order"
"1934","
   <p><div style = ""color: white;font-size:25px;"">您好，欢迎参加本次实验。</div> </p>
   <p><div style = ""color: white;font-size:25px;"">为充分保障您的权利，请确保您已经知晓并同意《参与实验同意书》以及《数据公开知情同意书》。</div></p>
   <p><div style = ""color: white;font-size:25px;"">如果您未见过上述内容，请咨询实验员。</div></p>
   <p><div style = ""color: white;font-size:25px;"">如果您选择继续实验，则表示您已经清楚两份知情同意书的内容并同意。</div></p>
   <p><div style = ""color: red;font-size:30px;"">请确保您记得day0的实验编号，您将在本次实验输入该编号，若您忘记，请咨询实验员后作答。</div></p>
   <p> <div style = ""color: green;font-size:25px;""><按空格键至下页></div> </p>
   "," ","html-keyboard-response","0","2102","0.0-0.0","4","4","3","3","4","4","3","4","3","4","5","5","5","4","4","5","4","5","4","5","1","1","2","2","1","2","2","2","1","1","0","1","1","0","0","0","1","1","1","1","0","0","0","1","4","1","4","2","1","2","5","4","4","1","634785170985058304","周","355","","","","","","","","","","","","","","","","","","","","","","","","","","","","","","","","","","","","","","","",""
"","","","call-function","1","2103","0.0-1.0-0.0","4","4","3","3","4","4","3","4","3","4","5","5","5","4","4","5","4","5","4","5","1","1","2","2","1","2","2","2","1","1","0","1","1","0","0","0","1","1","1","1","0","0","0","1","4","1","4","2","1","2","5","4","4","1","634785170985058304","周","355","","","","","","","","","","","","","","","","","","","","","","","","","","","","","","","","","","","","","","","",""
"39209","","{""friend_name"":""周"",""ParticipantID"":""355""}","survey-html-form","2","41314","0.0-1.0-1.0","4","4","3","3","4","4","3","4","3","4","5","5","5","4","4","5","4","5","4","5","1","1","2","2","1","2","2","2","1","1","0","1","1","0","0","0","1","1","1","1","0","0","0","1","4","1","4","2","1","2","5","4","4","1","634785170985058304","周","355","","","","","","","","","","","","","","","","","","","","","","","","","","","","","","","","","","","","","","","",""
"","","","fullscreen","3","42651","0.0-2.0","4","4","3","3","4","4","3","4","3","4","5","5","5","4","4","5","4","5","4","5","1","1","2","2","1","2","2","2","1","1","0","1","1","0","0","0","1","1","1","1","0","0","0","1","4","1","4","2","1","2","5","4","4","1","634785170985058304","周","355","","true","{}","","","","","","","","","","","","","","","","","","","","","","","","","","","","","","","","","","","","",""
"67394","","{""Q01"":""4"",""Q02"":""4"",""Q03"":""3"",""Q04"":""3"",""Q05"":""4"",""Q06"":""4"",""Q07"":""3"",""Q08"":""4"",""Q09"":""3"",""Q10"":""4""}","survey-template","4","110052","0.0-3.0","4","4","3","3","4","4","3","4","3","4","5","5","5","4","4","5","4","5","4","5","1","1","2","2","1","2","2","2","1","1","0","1","1","0","0","0","1","1","1","1","0","0","0","1","4","1","4","2","1","2","5","4","4","1","634785170985058304","周","355","","","","{""Q01"":""4"",""Q02"":""4"",""Q03"":""3"",""Q04"":""3"",""Q05"":""4"",""Q06"":""4"",""Q07"":""3"",""Q08"":""4"",""Q09"":""3"",""Q10"":""4""}","[0,1,2,3,4,5,6,7,8,9]","[""Q01"",""Q01"",""Q02"",""Q03"",""Q04"",""Q05"",""Q06"",""Q07"",""Q08"",""Q09"",""Q10""]","[34928.90000009537,38996.800000071526,40147,41782.800000071526,43110.700000047684,44741,47039.200000047684,48442.700000047684,50919,52154.60000002384,53457]","[]","[34928.90000009537,38996.800000071526,40147,41782.800000071526,43110.700000047684,44741,47039.200000047684,48442.700000047684,50919,52154.60000002384,53099.5,53457,67392.80000007153]","0.3","0.5555555555555556","0","","","","","","","","","","","","","","","","","","","","","","","","","","","",""
"124185.79999995232","","{""Q01"":""5"",""Q02"":""5"",""Q03"":""5"",""Q04"":""4"",""Q05"":""4"",""Q06"":""5"",""Q07"":""4"",""Q08"":""5"",""Q09"":""4"",""Q10"":""5""}","survey-template","5","234246","0.0-4.0","4","4","3","3","4","4","3","4","3","4","5","5","5","4","4","5","4","5","4","5","1","1","2","2","1","2","2","2","1","1","0","1","1","0","0","0","1","1","1","1","0","0","0","1","4","1","4","2","1","2","5","4","4","1","634785170985058304","周","355","","","","{""Q01"":""5"",""Q02"":""5"",""Q03"":""5"",""Q04"":""4"",""Q05"":""4"",""Q06"":""5"",""Q07"":""4"",""Q08"":""5"",""Q09"":""4"",""Q10"":""5""}","[0,1,2,3,4,5,6,7,8,9]","[""Q01"",""Q02"",""Q03"",""Q04"",""Q05"",""Q06"",""Q07"",""Q08"",""Q09"",""Q10""]","[30116.799999952316,32735,45284.699999928474,47077.10000002384,48558.799999952316,53101.5,54259.10000002384,57244.699999928474,59073.199999928474,61915.10000002384]","[]","[30116.799999952316,32735,45284.699999928474,47077.10000002384,48558.799999952316,51438.799999952316,52745.60000002384,53101.5,54259.10000002384,56232.799999952316,56910.699999928474,57244.699999928474,59073.199999928474,61404.799999952316,61915.10000002384,123497.10000002384,124184.5]","0.4","0.2222222222222222","0","","","","","","","","","","","","","","","","","","","","","","","","","","","",""
"","","","preload","6","234286","0.0-5.0","4","4","3","3","4","4","3","4","3","4","5","5","5","4","4","5","4","5","4","5","1","1","2","2","1","2","2","2","1","1","0","1","1","0","0","0","1","1","1","1","0","0","0","1","4","1","4","2","1","2","5","4","4","1","634785170985058304","周","355","","true","","","","","","","","","","","false","[]","[]","[]","","","","","","","","","","","","","","","","","","","","","","","",""
"12598","
    <h3>词语分类任务</h3>
    <p>在接下来的任务中，你需要对一系列词语进行分类。</p>
    <p>请先熟悉这些词语，这有利于你完成接下来的任务。</p>
    <table align=""center"" border=1 cellpadding=3 cellspacing=0>
    <tr> <th>类别</th> <th>词语</th> </tr>
    <tr> <td>&emsp;积极&emsp;</td> <td>&emsp;能干、全能、全才、高效、精干、天才&emsp;</td> </tr>
    <tr> <td>&emsp;消极&emsp;</td> <td>&emsp;无能、低能、废物、拙笨、愚钝、蠢笨&emsp;</td> </tr>
    <tr> <td>&emsp;自我&emsp;</td> <td>&emsp;我、我的、自己、自己的、本人、本人的&emsp;</td> </tr>
    <tr> <td>&emsp;他人&emsp;</td> <td>&emsp;他、他的、别人、别人的、他人、他人的&emsp;</td> </tr>
    </table><br/>","0","html-button-response","7","246886","0.0-6.0-0.0-0.0","4","4","3","3","4","4","3","4","3","4","5","5","5","4","4","5","4","5","4","5","1","1","2","2","1","2","2","2","1","1","0","1","1","0","0","0","1","1","1","1","0","0","0","1","4","1","4","2","1","2","5","4","4","1","634785170985058304","周","355","","","","","","","","","","","","","","","","","1","2","","","","","","","","","","","","","","","","","","","","","",""
"2755","
    <div class=""tag-bottom"">
    <p> —— 任务1：对“他人”词和“自我”词分类 ——<p/>
    不同词语会出现在屏幕中央，类别标签将始终显示在屏幕上方<p/>   
    <span style=""color:#FFD866""><b>请根据上方标签的提示，尽可能正确并且快速地做出按键反应</b></span><p/>
    当按键错误时屏幕中会出现<span style=""color:red""> X </span>，需要按另一个键纠正才能继续<br/><p/>
    请把双手食指分别放在键盘的“E”键和“I”键上<p/>
    按<空格键>开始
    </p></div>"," ","html-keyboard-response","8","249645","0.0-6.0-0.0-1.0","4","4","3","3","4","4","3","4","3","4","5","5","5","4","4","5","4","5","4","5","1","1","2","2","1","2","2","2","1","1","0","1","1","0","0","0","1","1","1","1","0","0","0","1","4","1","4","2","1","2","5","4","4","1","634785170985058304","周","355","","","","","","","","","","","","","","","","","","","","","","","","","","","","","","","","","","","","","","","",""
"null","","null","html-keyboard-response","9","249897","0.0-6.0-0.0-2.0-0.0","4","4","3","3","4","4","3","4","3","4","5","5","5","4","4","5","4","5","4","5","1","1","2","2","1","2","2","2","1","1","0","1","1","0","0","0","1","1","1","1","0","0","0","1","4","1","4","2","1","2","5","4","4","1","634785170985058304","周","355","","","","","","","","","","","","","","","","","","","","","","","","","","","","","","","","","","","","","","","",""
"655","<p style=""color:rgb(150, 250, 100); font-size: 35px;"">他人的</p>","e","categorize-html","10","250556","0.0-6.0-0.0-2.0-1.0","4","4","3","3","4","4","3","4","3","4","5","5","5","4","4","5","4","5","4","5","1","1","2","2","1","2","2","2","1","1","0","1","1","0","0","0","1","1","1","1","0","0","0","1","4","1","4","2","1","2","5","4","4","1","634785170985058304","周","355","","","","","","","","","","","","","","","","","","","true","1","1","ability","655","other","他人的","","","","","","","","","","","","","","",""
"null","","null","html-keyboard-response","11","250807","0.0-6.0-0.0-2.0-0.1","4","4","3","3","4","4","3","4","3","4","5","5","5","4","4","5","4","5","4","5","1","1","2","2","1","2","2","2","1","1","0","1","1","0","0","0","1","1","1","1","0","0","0","1","4","1","4","2","1","2","5","4","4","1","634785170985058304","周","355","","","","","","","","","","","","","","","","","","","","","","","","","","","","","","","","","","","","","","","",""
"661","<p style=""color:rgb(150, 250, 100); font-size: 35px;"">自己</p>","i","categorize-html","12","251470","0.0-6.0-0.0-2.0-1.1","4","4","3","3","4","4","3","4","3","4","5","5","5","4","4","5","4","5","4","5","1","1","2","2","1","2","2","2","1","1","0","1","1","0","0","0","1","1","1","1","0","0","0","1","4","1","4","2","1","2","5","4","4","1","634785170985058304","周","355","","","","","","","","","","","","","","","","","","","true","1","1","ability","661","self","自己","","","","","","","","","","","","","","",""
"null","","null","html-keyboard-response","13","251721","0.0-6.0-0.0-2.0-0.2","4","4","3","3","4","4","3","4","3","4","5","5","5","4","4","5","4","5","4","5","1","1","2","2","1","2","2","2","1","1","0","1","1","0","0","0","1","1","1","1","0","0","0","1","4","1","4","2","1","2","5","4","4","1","634785170985058304","周","355","","","","","","","","","","","","","","","","","","","","","","","","","","","","","","","","","","","","","","","",""
"502","<p style=""color:rgb(150, 250, 100); font-size: 35px;"">我</p>","i","categorize-html","14","252225","0.0-6.0-0.0-2.0-1.2","4","4","3","3","4","4","3","4","3","4","5","5","5","4","4","5","4","5","4","5","1","1","2","2","1","2","2","2","1","1","0","1","1","0","0","0","1","1","1","1","0","0","0","1","4","1","4","2","1","2","5","4","4","1","634785170985058304","周","355","","","","","","","","","","","","","","","","","","","true","1","1","ability","502","self","我","","","","","","","","","","","","","","",""
"null","","null","html-keyboard-response","15","252477","0.0-6.0-0.0-2.0-0.3","4","4","3","3","4","4","3","4","3","4","5","5","5","4","4","5","4","5","4","5","1","1","2","2","1","2","2","2","1","1","0","1","1","0","0","0","1","1","1","1","0","0","0","1","4","1","4","2","1","2","5","4","4","1","634785170985058304","周","355","","","","","","","","","","","","","","","","","","","","","","","","","","","","","","","","","","","","","","","",""
"902","<p style=""color:rgb(150, 250, 100); font-size: 35px;"">自己的</p>","i","categorize-html","16","253381","0.0-6.0-0.0-2.0-1.3","4","4","3","3","4","4","3","4","3","4","5","5","5","4","4","5","4","5","4","5","1","1","2","2","1","2","2","2","1","1","0","1","1","0","0","0","1","1","1","1","0","0","0","1","4","1","4","2","1","2","5","4","4","1","634785170985058304","周","355","","","","","","","","","","","","","","","","","","","true","1","1","ability","902","self","自己的","","","","","","","","","","","","","","",""
"null","","null","html-keyboard-response","17","253632","0.0-6.0-0.0-2.0-0.4","4","4","3","3","4","4","3","4","3","4","5","5","5","4","4","5","4","5","4","5","1","1","2","2","1","2","2","2","1","1","0","1","1","0","0","0","1","1","1","1","0","0","0","1","4","1","4","2","1","2","5","4","4","1","634785170985058304","周","355","","","","","","","","","","","","","","","","","","","","","","","","","","","","","","","","","","","","","","","",""
"537","<p style=""color:rgb(150, 250, 100); font-size: 35px;"">我的</p>","i","categorize-html","18","254171","0.0-6.0-0.0-2.0-1.4","4","4","3","3","4","4","3","4","3","4","5","5","5","4","4","5","4","5","4","5","1","1","2","2","1","2","2","2","1","1","0","1","1","0","0","0","1","1","1","1","0","0","0","1","4","1","4","2","1","2","5","4","4","1","634785170985058304","周","355","","","","","","","","","","","","","","","","","","","true","1","1","ability","537","self","我的","","","","","","","","","","","","","","",""
"null","","null","html-keyboard-response","19","254423","0.0-6.0-0.0-2.0-0.5","4","4","3","3","4","4","3","4","3","4","5","5","5","4","4","5","4","5","4","5","1","1","2","2","1","2","2","2","1","1","0","1","1","0","0","0","1","1","1","1","0","0","0","1","4","1","4","2","1","2","5","4","4","1","634785170985058304","周","355","","","","","","","","","","","","","","","","","","","","","","","","","","","","","","","","","","","","","","","",""
"950","<p style=""color:rgb(150, 250, 100); font-size: 35px;"">别人</p>","e","categorize-html","20","255374","0.0-6.0-0.0-2.0-1.5","4","4","3","3","4","4","3","4","3","4","5","5","5","4","4","5","4","5","4","5","1","1","2","2","1","2","2","2","1","1","0","1","1","0","0","0","1","1","1","1","0","0","0","1","4","1","4","2","1","2","5","4","4","1","634785170985058304","周","355","","","","","","","","","","","","","","","","","","","true","1","1","ability","950","other","别人","","","","","","","","","","","","","","",""
"null","","null","html-keyboard-response","21","255626","0.0-6.0-0.0-2.0-0.6","4","4","3","3","4","4","3","4","3","4","5","5","5","4","4","5","4","5","4","5","1","1","2","2","1","2","2","2","1","1","0","1","1","0","0","0","1","1","1","1","0","0","0","1","4","1","4","2","1","2","5","4","4","1","634785170985058304","周","355","","","","","","","","","","","","","","","","","","","","","","","","","","","","","","","","","","","","","","","",""
"621","<p style=""color:rgb(150, 250, 100); font-size: 35px;"">他的</p>","e","categorize-html","22","256249","0.0-6.0-0.0-2.0-1.6","4","4","3","3","4","4","3","4","3","4","5","5","5","4","4","5","4","5","4","5","1","1","2","2","1","2","2","2","1","1","0","1","1","0","0","0","1","1","1","1","0","0","0","1","4","1","4","2","1","2","5","4","4","1","634785170985058304","周","355","","","","","","","","","","","","","","","","","","","true","1","1","ability","621","other","他的","","","","","","","","","","","","","","",""
"null","","null","html-keyboard-response","23","256500","0.0-6.0-0.0-2.0-0.7","4","4","3","3","4","4","3","4","3","4","5","5","5","4","4","5","4","5","4","5","1","1","2","2","1","2","2","2","1","1","0","1","1","0","0","0","1","1","1","1","0","0","0","1","4","1","4","2","1","2","5","4","4","1","634785170985058304","周","355","","","","","","","","","","","","","","","","","","","","","","","","","","","","","","","","","","","","","","","",""
"722","<p style=""color:rgb(150, 250, 100); font-size: 35px;"">本人</p>","i","categorize-html","24","257225","0.0-6.0-0.0-2.0-1.7","4","4","3","3","4","4","3","4","3","4","5","5","5","4","4","5","4","5","4","5","1","1","2","2","1","2","2","2","1","1","0","1","1","0","0","0","1","1","1","1","0","0","0","1","4","1","4","2","1","2","5","4","4","1","634785170985058304","周","355","","","","","","","","","","","","","","","","","","","true","1","1","ability","722","self","本人","","","","","","","","","","","","","","",""
"null","","null","html-keyboard-response","25","257477","0.0-6.0-0.0-2.0-0.8","4","4","3","3","4","4","3","4","3","4","5","5","5","4","4","5","4","5","4","5","1","1","2","2","1","2","2","2","1","1","0","1","1","0","0","0","1","1","1","1","0","0","0","1","4","1","4","2","1","2","5","4","4","1","634785170985058304","周","355","","","","","","","","","","","","","","","","","","","","","","","","","","","","","","","","","","","","","","","",""
"909","<p style=""color:rgb(150, 250, 100); font-size: 35px;"">别人的</p>","e","categorize-html","26","258389","0.0-6.0-0.0-2.0-1.8","4","4","3","3","4","4","3","4","3","4","5","5","5","4","4","5","4","5","4","5","1","1","2","2","1","2","2","2","1","1","0","1","1","0","0","0","1","1","1","1","0","0","0","1","4","1","4","2","1","2","5","4","4","1","634785170985058304","周","355","","","","","","","","","","","","","","","","","","","true","1","1","ability","909","other","别人的","","","","","","","","","","","","","","",""
"null","","null","html-keyboard-response","27","258640","0.0-6.0-0.0-2.0-0.9","4","4","3","3","4","4","3","4","3","4","5","5","5","4","4","5","4","5","4","5","1","1","2","2","1","2","2","2","1","1","0","1","1","0","0","0","1","1","1","1","0","0","0","1","4","1","4","2","1","2","5","4","4","1","634785170985058304","周","355","","","","","","","","","","","","","","","","","","","","","","","","","","","","","","","","","","","","","","","",""
"577","<p style=""color:rgb(150, 250, 100); font-size: 35px;"">他</p>","e","categorize-html","28","259219","0.0-6.0-0.0-2.0-1.9","4","4","3","3","4","4","3","4","3","4","5","5","5","4","4","5","4","5","4","5","1","1","2","2","1","2","2","2","1","1","0","1","1","0","0","0","1","1","1","1","0","0","0","1","4","1","4","2","1","2","5","4","4","1","634785170985058304","周","355","","","","","","","","","","","","","","","","","","","true","1","1","ability","577","other","他","","","","","","","","","","","","","","",""
"null","","null","html-keyboard-response","29","259471","0.0-6.0-0.0-2.0-0.10","4","4","3","3","4","4","3","4","3","4","5","5","5","4","4","5","4","5","4","5","1","1","2","2","1","2","2","2","1","1","0","1","1","0","0","0","1","1","1","1","0","0","0","1","4","1","4","2","1","2","5","4","4","1","634785170985058304","周","355","","","","","","","","","","","","","","","","","","","","","","","","","","","","","","","","","","","","","","","",""
"1251","<p style=""color:rgb(150, 250, 100); font-size: 35px;"">本人的</p>","i","categorize-html","30","260724","0.0-6.0-0.0-2.0-1.10","4","4","3","3","4","4","3","4","3","4","5","5","5","4","4","5","4","5","4","5","1","1","2","2","1","2","2","2","1","1","0","1","1","0","0","0","1","1","1","1","0","0","0","1","4","1","4","2","1","2","5","4","4","1","634785170985058304","周","355","","","","","","","","","","","","","","","","","","","true","1","1","ability","1251","self","本人的","","","","","","","","","","","","","","",""
"null","","null","html-keyboard-response","31","260974","0.0-6.0-0.0-2.0-0.11","4","4","3","3","4","4","3","4","3","4","5","5","5","4","4","5","4","5","4","5","1","1","2","2","1","2","2","2","1","1","0","1","1","0","0","0","1","1","1","1","0","0","0","1","4","1","4","2","1","2","5","4","4","1","634785170985058304","周","355","","","","","","","","","","","","","","","","","","","","","","","","","","","","","","","","","","","","","","","",""
"736","<p style=""color:rgb(150, 250, 100); font-size: 35px;"">他人</p>","e","categorize-html","32","261712","0.0-6.0-0.0-2.0-1.11","4","4","3","3","4","4","3","4","3","4","5","5","5","4","4","5","4","5","4","5","1","1","2","2","1","2","2","2","1","1","0","1","1","0","0","0","1","1","1","1","0","0","0","1","4","1","4","2","1","2","5","4","4","1","634785170985058304","周","355","","","","","","","","","","","","","","","","","","","true","1","1","ability","736","other","他人","","","","","","","","","","","","","","",""
"4224","
    <div class=""tag-bottom""><p>
    —— 任务2：对“积极”词和“消极”词分类 ——<p/>   
    <span style=""color:#78DCE8""><b>注意上方，类别标签和需要分类的词语都已经改变</b></span><p/>
    <span style=""color:#FFD866""><b>请根据上方标签的提示，尽可能正确并且快速地做出按键反应</b></span><p/>
    当按键错误时屏幕中会出现<span style=""color:red""> X </span>，需要按另一个键纠正才能继续<br/><p/>
    请把双手食指分别放在键盘的“E”键和“I”键上<p/>
    按<空格键>开始
    </p></div>"," ","html-keyboard-response","33","265937","0.0-6.0-0.0-3.0","4","4","3","3","4","4","3","4","3","4","5","5","5","4","4","5","4","5","4","5","1","1","2","2","1","2","2","2","1","1","0","1","1","0","0","0","1","1","1","1","0","0","0","1","4","1","4","2","1","2","5","4","4","1","634785170985058304","周","355","","","","","","","","","","","","","","","","","","","","","","","","","","","","","","","","","","","","","","","",""
"null","","null","html-keyboard-response","34","266189","0.0-6.0-0.0-4.0-0.0","4","4","3","3","4","4","3","4","3","4","5","5","5","4","4","5","4","5","4","5","1","1","2","2","1","2","2","2","1","1","0","1","1","0","0","0","1","1","1","1","0","0","0","1","4","1","4","2","1","2","5","4","4","1","634785170985058304","周","355","","","","","","","","","","","","","","","","","","","","","","","","","","","","","","","","","","","","","","","",""
"865","<p style=""color:white; font-size: 35px;"">天才</p>","e","categorize-html","35","267056","0.0-6.0-0.0-4.0-1.0","4","4","3","3","4","4","3","4","3","4","5","5","5","4","4","5","4","5","4","5","1","1","2","2","1","2","2","2","1","1","0","1","1","0","0","0","1","1","1","1","0","0","0","1","4","1","4","2","1","2","5","4","4","1","634785170985058304","周","355","","","","","","","","","","","","","","","","","","","true","2","2","ability","865","positive","天才","","","","","","","","","","","","","","",""
"null","","null","html-keyboard-response","36","267307","0.0-6.0-0.0-4.0-0.1","4","4","3","3","4","4","3","4","3","4","5","5","5","4","4","5","4","5","4","5","1","1","2","2","1","2","2","2","1","1","0","1","1","0","0","0","1","1","1","1","0","0","0","1","4","1","4","2","1","2","5","4","4","1","634785170985058304","周","355","","","","","","","","","","","","","","","","","","","","","","","","","","","","","","","","","","","","","","","",""
"717","<p style=""color:white; font-size: 35px;"">能干</p>","e","categorize-html","37","268025","0.0-6.0-0.0-4.0-1.1","4","4","3","3","4","4","3","4","3","4","5","5","5","4","4","5","4","5","4","5","1","1","2","2","1","2","2","2","1","1","0","1","1","0","0","0","1","1","1","1","0","0","0","1","4","1","4","2","1","2","5","4","4","1","634785170985058304","周","355","","","","","","","","","","","","","","","","","","","true","2","2","ability","717","positive","能干","","","","","","","","","","","","","","",""
"null","","null","html-keyboard-response","38","268276","0.0-6.0-0.0-4.0-0.2","4","4","3","3","4","4","3","4","3","4","5","5","5","4","4","5","4","5","4","5","1","1","2","2","1","2","2","2","1","1","0","1","1","0","0","0","1","1","1","1","0","0","0","1","4","1","4","2","1","2","5","4","4","1","634785170985058304","周","355","","","","","","","","","","","","","","","","","","","","","","","","","","","","","","","","","","","","","","","",""
"663","<p style=""color:white; font-size: 35px;"">精干</p>","e","categorize-html","39","268941","0.0-6.0-0.0-4.0-1.2","4","4","3","3","4","4","3","4","3","4","5","5","5","4","4","5","4","5","4","5","1","1","2","2","1","2","2","2","1","1","0","1","1","0","0","0","1","1","1","1","0","0","0","1","4","1","4","2","1","2","5","4","4","1","634785170985058304","周","355","","","","","","","","","","","","","","","","","","","true","2","2","ability","663","positive","精干","","","","","","","","","","","","","","",""
"null","","null","html-keyboard-response","40","269192","0.0-6.0-0.0-4.0-0.3","4","4","3","3","4","4","3","4","3","4","5","5","5","4","4","5","4","5","4","5","1","1","2","2","1","2","2","2","1","1","0","1","1","0","0","0","1","1","1","1","0","0","0","1","4","1","4","2","1","2","5","4","4","1","634785170985058304","周","355","","","","","","","","","","","","","","","","","","","","","","","","","","","","","","","","","","","","","","","",""
"669","<p style=""color:white; font-size: 35px;"">高效</p>","e","categorize-html","41","269864","0.0-6.0-0.0-4.0-1.3","4","4","3","3","4","4","3","4","3","4","5","5","5","4","4","5","4","5","4","5","1","1","2","2","1","2","2","2","1","1","0","1","1","0","0","0","1","1","1","1","0","0","0","1","4","1","4","2","1","2","5","4","4","1","634785170985058304","周","355","","","","","","","","","","","","","","","","","","","true","2","2","ability","669","positive","高效","","","","","","","","","","","","","","",""
"null","","null","html-keyboard-response","42","270115","0.0-6.0-0.0-4.0-0.4","4","4","3","3","4","4","3","4","3","4","5","5","5","4","4","5","4","5","4","5","1","1","2","2","1","2","2","2","1","1","0","1","1","0","0","0","1","1","1","1","0","0","0","1","4","1","4","2","1","2","5","4","4","1","634785170985058304","周","355","","","","","","","","","","","","","","","","","","","","","","","","","","","","","","","","","","","","","","","",""
"591","<p style=""color:white; font-size: 35px;"">全才</p>","e","categorize-html","43","270708","0.0-6.0-0.0-4.0-1.4","4","4","3","3","4","4","3","4","3","4","5","5","5","4","4","5","4","5","4","5","1","1","2","2","1","2","2","2","1","1","0","1","1","0","0","0","1","1","1","1","0","0","0","1","4","1","4","2","1","2","5","4","4","1","634785170985058304","周","355","","","","","","","","","","","","","","","","","","","true","2","2","ability","591","positive","全才","","","","","","","","","","","","","","",""
"null","","null","html-keyboard-response","44","270959","0.0-6.0-0.0-4.0-0.5","4","4","3","3","4","4","3","4","3","4","5","5","5","4","4","5","4","5","4","5","1","1","2","2","1","2","2","2","1","1","0","1","1","0","0","0","1","1","1","1","0","0","0","1","4","1","4","2","1","2","5","4","4","1","634785170985058304","周","355","","","","","","","","","","","","","","","","","","","","","","","","","","","","","","","","","","","","","","","",""
"703","<p style=""color:white; font-size: 35px;"">低能</p>","i","categorize-html","45","271663","0.0-6.0-0.0-4.0-1.5","4","4","3","3","4","4","3","4","3","4","5","5","5","4","4","5","4","5","4","5","1","1","2","2","1","2","2","2","1","1","0","1","1","0","0","0","1","1","1","1","0","0","0","1","4","1","4","2","1","2","5","4","4","1","634785170985058304","周","355","","","","","","","","","","","","","","","","","","","true","2","2","ability","703","negative","低能","","","","","","","","","","","","","","",""
"null","","null","html-keyboard-response","46","271914","0.0-6.0-0.0-4.0-0.6","4","4","3","3","4","4","3","4","3","4","5","5","5","4","4","5","4","5","4","5","1","1","2","2","1","2","2","2","1","1","0","1","1","0","0","0","1","1","1","1","0","0","0","1","4","1","4","2","1","2","5","4","4","1","634785170985058304","周","355","","","","","","","","","","","","","","","","","","","","","","","","","","","","","","","","","","","","","","","",""
"613","<p style=""color:white; font-size: 35px;"">废物</p>","i","categorize-html","47","272529","0.0-6.0-0.0-4.0-1.6","4","4","3","3","4","4","3","4","3","4","5","5","5","4","4","5","4","5","4","5","1","1","2","2","1","2","2","2","1","1","0","1","1","0","0","0","1","1","1","1","0","0","0","1","4","1","4","2","1","2","5","4","4","1","634785170985058304","周","355","","","","","","","","","","","","","","","","","","","true","2","2","ability","613","negative","废物","","","","","","","","","","","","","","",""
"null","","null","html-keyboard-response","48","272780","0.0-6.0-0.0-4.0-0.7","4","4","3","3","4","4","3","4","3","4","5","5","5","4","4","5","4","5","4","5","1","1","2","2","1","2","2","2","1","1","0","1","1","0","0","0","1","1","1","1","0","0","0","1","4","1","4","2","1","2","5","4","4","1","634785170985058304","周","355","","","","","","","","","","","","","","","","","","","","","","","","","","","","","","","","","","","","","","","",""
"581","<p style=""color:white; font-size: 35px;"">全能</p>","i","categorize-html","49","273843","0.0-6.0-0.0-4.0-1.7","4","4","3","3","4","4","3","4","3","4","5","5","5","4","4","5","4","5","4","5","1","1","2","2","1","2","2","2","1","1","0","1","1","0","0","0","1","1","1","1","0","0","0","1","4","1","4","2","1","2","5","4","4","1","634785170985058304","周","355","","","","","","","","","","","","","","","","","","","false","2","2","ability","581","positive","全能","","","","","","","","","","","","","","",""
"null","","null","html-keyboard-response","50","274094","0.0-6.0-0.0-4.0-0.8","4","4","3","3","4","4","3","4","3","4","5","5","5","4","4","5","4","5","4","5","1","1","2","2","1","2","2","2","1","1","0","1","1","0","0","0","1","1","1","1","0","0","0","1","4","1","4","2","1","2","5","4","4","1","634785170985058304","周","355","","","","","","","","","","","","","","","","","","","","","","","","","","","","","","","","","","","","","","","",""
"1228","<p style=""color:white; font-size: 35px;"">愚钝</p>","i","categorize-html","51","275325","0.0-6.0-0.0-4.0-1.8","4","4","3","3","4","4","3","4","3","4","5","5","5","4","4","5","4","5","4","5","1","1","2","2","1","2","2","2","1","1","0","1","1","0","0","0","1","1","1","1","0","0","0","1","4","1","4","2","1","2","5","4","4","1","634785170985058304","周","355","","","","","","","","","","","","","","","","","","","true","2","2","ability","1228","negative","愚钝","","","","","","","","","","","","","","",""
"null","","null","html-keyboard-response","52","275577","0.0-6.0-0.0-4.0-0.9","4","4","3","3","4","4","3","4","3","4","5","5","5","4","4","5","4","5","4","5","1","1","2","2","1","2","2","2","1","1","0","1","1","0","0","0","1","1","1","1","0","0","0","1","4","1","4","2","1","2","5","4","4","1","634785170985058304","周","355","","","","","","","","","","","","","","","","","","","","","","","","","","","","","","","","","","","","","","","",""
"916","<p style=""color:white; font-size: 35px;"">无能</p>","i","categorize-html","53","276494","0.0-6.0-0.0-4.0-1.9","4","4","3","3","4","4","3","4","3","4","5","5","5","4","4","5","4","5","4","5","1","1","2","2","1","2","2","2","1","1","0","1","1","0","0","0","1","1","1","1","0","0","0","1","4","1","4","2","1","2","5","4","4","1","634785170985058304","周","355","","","","","","","","","","","","","","","","","","","true","2","2","ability","916","negative","无能","","","","","","","","","","","","","","",""
"null","","null","html-keyboard-response","54","276745","0.0-6.0-0.0-4.0-0.10","4","4","3","3","4","4","3","4","3","4","5","5","5","4","4","5","4","5","4","5","1","1","2","2","1","2","2","2","1","1","0","1","1","0","0","0","1","1","1","1","0","0","0","1","4","1","4","2","1","2","5","4","4","1","634785170985058304","周","355","","","","","","","","","","","","","","","","","","","","","","","","","","","","","","","","","","","","","","","",""
"599","<p style=""color:white; font-size: 35px;"">拙笨</p>","i","categorize-html","55","277346","0.0-6.0-0.0-4.0-1.10","4","4","3","3","4","4","3","4","3","4","5","5","5","4","4","5","4","5","4","5","1","1","2","2","1","2","2","2","1","1","0","1","1","0","0","0","1","1","1","1","0","0","0","1","4","1","4","2","1","2","5","4","4","1","634785170985058304","周","355","","","","","","","","","","","","","","","","","","","true","2","2","ability","599","negative","拙笨","","","","","","","","","","","","","","",""
"null","","null","html-keyboard-response","56","277597","0.0-6.0-0.0-4.0-0.11","4","4","3","3","4","4","3","4","3","4","5","5","5","4","4","5","4","5","4","5","1","1","2","2","1","2","2","2","1","1","0","1","1","0","0","0","1","1","1","1","0","0","0","1","4","1","4","2","1","2","5","4","4","1","634785170985058304","周","355","","","","","","","","","","","","","","","","","","","","","","","","","","","","","","","","","","","","","","","",""
"515","<p style=""color:white; font-size: 35px;"">蠢笨</p>","i","categorize-html","57","278113","0.0-6.0-0.0-4.0-1.11","4","4","3","3","4","4","3","4","3","4","5","5","5","4","4","5","4","5","4","5","1","1","2","2","1","2","2","2","1","1","0","1","1","0","0","0","1","1","1","1","0","0","0","1","4","1","4","2","1","2","5","4","4","1","634785170985058304","周","355","","","","","","","","","","","","","","","","","","","true","2","2","ability","515","negative","蠢笨","","","","","","","","","","","","","","",""
"930","
    <div class=""tag-bottom""><p>
    —— 任务3：对“他人/积极”词和“自我/消极”词分类 ——<p/>
    <span style=""color:#78DCE8""><b>注意上方，之前的四类词语将混合在一起交替呈现</b></span><p/>
    <span style=""color:#FFD866""><b>请根据上方标签的提示，尽可能正确并且快速地做出按键反应</b></span><p/>
    当按键错误时屏幕中会出现<span style=""color:red""> X </span>，需要按另一个键纠正才能继续<br/><p/>
    请把双手食指分别放在键盘的“E”键和“I”键上<p/>
    按<空格键>开始
    </p></div>"," ","html-keyboard-response","58","279044","0.0-6.0-0.0-5.0","4","4","3","3","4","4","3","4","3","4","5","5","5","4","4","5","4","5","4","5","1","1","2","2","1","2","2","2","1","1","0","1","1","0","0","0","1","1","1","1","0","0","0","1","4","1","4","2","1","2","5","4","4","1","634785170985058304","周","355","","","","","","","","","","","","","","","","","","","","","","","","","","","","","","","","","","","","","","","",""
"null","","null","html-keyboard-response","59","279295","0.0-6.0-0.0-6.0-0.0","4","4","3","3","4","4","3","4","3","4","5","5","5","4","4","5","4","5","4","5","1","1","2","2","1","2","2","2","1","1","0","1","1","0","0","0","1","1","1","1","0","0","0","1","4","1","4","2","1","2","5","4","4","1","634785170985058304","周","355","","","","","","","","","","","","","","","","","","","","","","","","","","","","","","","","","","","","","","","",""
"1325","<p style=""color:rgb(150, 250, 100); font-size: 35px;"">我</p>","i","categorize-html","60","280623","0.0-6.0-0.0-6.0-1.0","4","4","3","3","4","4","3","4","3","4","5","5","5","4","4","5","4","5","4","5","1","1","2","2","1","2","2","2","1","1","0","1","1","0","0","0","1","1","1","1","0","0","0","1","4","1","4","2","1","2","5","4","4","1","634785170985058304","周","355","","","","","","","","","","","","","","","","","","","true","3","3","ability","1325","self","我","","","","","","","","","","","","","","",""
"null","","null","html-keyboard-response","61","280874","0.0-6.0-0.0-6.0-0.1","4","4","3","3","4","4","3","4","3","4","5","5","5","4","4","5","4","5","4","5","1","1","2","2","1","2","2","2","1","1","0","1","1","0","0","0","1","1","1","1","0","0","0","1","4","1","4","2","1","2","5","4","4","1","634785170985058304","周","355","","","","","","","","","","","","","","","","","","","","","","","","","","","","","","","","","","","","","","","",""
"904","<p style=""color:white; font-size: 35px;"">天才</p>","e","categorize-html","62","281781","0.0-6.0-0.0-6.0-1.1","4","4","3","3","4","4","3","4","3","4","5","5","5","4","4","5","4","5","4","5","1","1","2","2","1","2","2","2","1","1","0","1","1","0","0","0","1","1","1","1","0","0","0","1","4","1","4","2","1","2","5","4","4","1","634785170985058304","周","355","","","","","","","","","","","","","","","","","","","true","3","3","ability","904","positive","天才","","","","","","","","","","","","","","",""
"null","","null","html-keyboard-response","63","282032","0.0-6.0-0.0-6.0-0.2","4","4","3","3","4","4","3","4","3","4","5","5","5","4","4","5","4","5","4","5","1","1","2","2","1","2","2","2","1","1","0","1","1","0","0","0","1","1","1","1","0","0","0","1","4","1","4","2","1","2","5","4","4","1","634785170985058304","周","355","","","","","","","","","","","","","","","","","","","","","","","","","","","","","","","","","","","","","","","",""
"1539","<p style=""color:rgb(150, 250, 100); font-size: 35px;"">他人的</p>","e","categorize-html","64","283573","0.0-6.0-0.0-6.0-1.2","4","4","3","3","4","4","3","4","3","4","5","5","5","4","4","5","4","5","4","5","1","1","2","2","1","2","2","2","1","1","0","1","1","0","0","0","1","1","1","1","0","0","0","1","4","1","4","2","1","2","5","4","4","1","634785170985058304","周","355","","","","","","","","","","","","","","","","","","","true","3","3","ability","1539","other","他人的","","","","","","","","","","","","","","",""
"null","","null","html-keyboard-response","65","283824","0.0-6.0-0.0-6.0-0.3","4","4","3","3","4","4","3","4","3","4","5","5","5","4","4","5","4","5","4","5","1","1","2","2","1","2","2","2","1","1","0","1","1","0","0","0","1","1","1","1","0","0","0","1","4","1","4","2","1","2","5","4","4","1","634785170985058304","周","355","","","","","","","","","","","","","","","","","","","","","","","","","","","","","","","","","","","","","","","",""
"844","<p style=""color:white; font-size: 35px;"">蠢笨</p>","i","categorize-html","66","284671","0.0-6.0-0.0-6.0-1.3","4","4","3","3","4","4","3","4","3","4","5","5","5","4","4","5","4","5","4","5","1","1","2","2","1","2","2","2","1","1","0","1","1","0","0","0","1","1","1","1","0","0","0","1","4","1","4","2","1","2","5","4","4","1","634785170985058304","周","355","","","","","","","","","","","","","","","","","","","true","3","3","ability","844","negative","蠢笨","","","","","","","","","","","","","","",""
"null","","null","html-keyboard-response","67","284923","0.0-6.0-0.0-6.0-0.4","4","4","3","3","4","4","3","4","3","4","5","5","5","4","4","5","4","5","4","5","1","1","2","2","1","2","2","2","1","1","0","1","1","0","0","0","1","1","1","1","0","0","0","1","4","1","4","2","1","2","5","4","4","1","634785170985058304","周","355","","","","","","","","","","","","","","","","","","","","","","","","","","","","","","","","","","","","","","","",""
"1050","<p style=""color:rgb(150, 250, 100); font-size: 35px;"">本人</p>","i","categorize-html","68","285975","0.0-6.0-0.0-6.0-1.4","4","4","3","3","4","4","3","4","3","4","5","5","5","4","4","5","4","5","4","5","1","1","2","2","1","2","2","2","1","1","0","1","1","0","0","0","1","1","1","1","0","0","0","1","4","1","4","2","1","2","5","4","4","1","634785170985058304","周","355","","","","","","","","","","","","","","","","","","","true","3","3","ability","1050","self","本人","","","","","","","","","","","","","","",""
"null","","null","html-keyboard-response","69","286227","0.0-6.0-0.0-6.0-0.5","4","4","3","3","4","4","3","4","3","4","5","5","5","4","4","5","4","5","4","5","1","1","2","2","1","2","2","2","1","1","0","1","1","0","0","0","1","1","1","1","0","0","0","1","4","1","4","2","1","2","5","4","4","1","634785170985058304","周","355","","","","","","","","","","","","","","","","","","","","","","","","","","","","","","","","","","","","","","","",""
"761","<p style=""color:white; font-size: 35px;"">能干</p>","e","categorize-html","70","286989","0.0-6.0-0.0-6.0-1.5","4","4","3","3","4","4","3","4","3","4","5","5","5","4","4","5","4","5","4","5","1","1","2","2","1","2","2","2","1","1","0","1","1","0","0","0","1","1","1","1","0","0","0","1","4","1","4","2","1","2","5","4","4","1","634785170985058304","周","355","","","","","","","","","","","","","","","","","","","true","3","3","ability","761","positive","能干","","","","","","","","","","","","","","",""
"null","","null","html-keyboard-response","71","287241","0.0-6.0-0.0-6.0-0.6","4","4","3","3","4","4","3","4","3","4","5","5","5","4","4","5","4","5","4","5","1","1","2","2","1","2","2","2","1","1","0","1","1","0","0","0","1","1","1","1","0","0","0","1","4","1","4","2","1","2","5","4","4","1","634785170985058304","周","355","","","","","","","","","","","","","","","","","","","","","","","","","","","","","","","","","","","","","","","",""
"1785","<p style=""color:rgb(150, 250, 100); font-size: 35px;"">别人</p>","e","categorize-html","72","289028","0.0-6.0-0.0-6.0-1.6","4","4","3","3","4","4","3","4","3","4","5","5","5","4","4","5","4","5","4","5","1","1","2","2","1","2","2","2","1","1","0","1","1","0","0","0","1","1","1","1","0","0","0","1","4","1","4","2","1","2","5","4","4","1","634785170985058304","周","355","","","","","","","","","","","","","","","","","","","true","3","3","ability","1785","other","别人","","","","","","","","","","","","","","",""
"null","","null","html-keyboard-response","73","289280","0.0-6.0-0.0-6.0-0.7","4","4","3","3","4","4","3","4","3","4","5","5","5","4","4","5","4","5","4","5","1","1","2","2","1","2","2","2","1","1","0","1","1","0","0","0","1","1","1","1","0","0","0","1","4","1","4","2","1","2","5","4","4","1","634785170985058304","周","355","","","","","","","","","","","","","","","","","","","","","","","","","","","","","","","","","","","","","","","",""
"1408","<p style=""color:white; font-size: 35px;"">无能</p>","i","categorize-html","74","290691","0.0-6.0-0.0-6.0-1.7","4","4","3","3","4","4","3","4","3","4","5","5","5","4","4","5","4","5","4","5","1","1","2","2","1","2","2","2","1","1","0","1","1","0","0","0","1","1","1","1","0","0","0","1","4","1","4","2","1","2","5","4","4","1","634785170985058304","周","355","","","","","","","","","","","","","","","","","","","true","3","3","ability","1408","negative","无能","","","","","","","","","","","","","","",""
"null","","null","html-keyboard-response","75","290942","0.0-6.0-0.0-6.0-0.8","4","4","3","3","4","4","3","4","3","4","5","5","5","4","4","5","4","5","4","5","1","1","2","2","1","2","2","2","1","1","0","1","1","0","0","0","1","1","1","1","0","0","0","1","4","1","4","2","1","2","5","4","4","1","634785170985058304","周","355","","","","","","","","","","","","","","","","","","","","","","","","","","","","","","","","","","","","","","","",""
"1172","<p style=""color:rgb(150, 250, 100); font-size: 35px;"">自己的</p>","i","categorize-html","76","292116","0.0-6.0-0.0-6.0-1.8","4","4","3","3","4","4","3","4","3","4","5","5","5","4","4","5","4","5","4","5","1","1","2","2","1","2","2","2","1","1","0","1","1","0","0","0","1","1","1","1","0","0","0","1","4","1","4","2","1","2","5","4","4","1","634785170985058304","周","355","","","","","","","","","","","","","","","","","","","true","3","3","ability","1172","self","自己的","","","","","","","","","","","","","","",""
"null","","null","html-keyboard-response","77","292367","0.0-6.0-0.0-6.0-0.9","4","4","3","3","4","4","3","4","3","4","5","5","5","4","4","5","4","5","4","5","1","1","2","2","1","2","2","2","1","1","0","1","1","0","0","0","1","1","1","1","0","0","0","1","4","1","4","2","1","2","5","4","4","1","634785170985058304","周","355","","","","","","","","","","","","","","","","","","","","","","","","","","","","","","","","","","","","","","","",""
"742","<p style=""color:white; font-size: 35px;"">拙笨</p>","i","categorize-html","78","293111","0.0-6.0-0.0-6.0-1.9","4","4","3","3","4","4","3","4","3","4","5","5","5","4","4","5","4","5","4","5","1","1","2","2","1","2","2","2","1","1","0","1","1","0","0","0","1","1","1","1","0","0","0","1","4","1","4","2","1","2","5","4","4","1","634785170985058304","周","355","","","","","","","","","","","","","","","","","","","true","3","3","ability","742","negative","拙笨","","","","","","","","","","","","","","",""
"null","","null","html-keyboard-response","79","293362","0.0-6.0-0.0-6.0-0.10","4","4","3","3","4","4","3","4","3","4","5","5","5","4","4","5","4","5","4","5","1","1","2","2","1","2","2","2","1","1","0","1","1","0","0","0","1","1","1","1","0","0","0","1","4","1","4","2","1","2","5","4","4","1","634785170985058304","周","355","","","","","","","","","","","","","","","","","","","","","","","","","","","","","","","","","","","","","","","",""
"1430","<p style=""color:rgb(150, 250, 100); font-size: 35px;"">别人的</p>","e","categorize-html","80","294794","0.0-6.0-0.0-6.0-1.10","4","4","3","3","4","4","3","4","3","4","5","5","5","4","4","5","4","5","4","5","1","1","2","2","1","2","2","2","1","1","0","1","1","0","0","0","1","1","1","1","0","0","0","1","4","1","4","2","1","2","5","4","4","1","634785170985058304","周","355","","","","","","","","","","","","","","","","","","","true","3","3","ability","1430","other","别人的","","","","","","","","","","","","","","",""
"null","","null","html-keyboard-response","81","295045","0.0-6.0-0.0-6.0-0.11","4","4","3","3","4","4","3","4","3","4","5","5","5","4","4","5","4","5","4","5","1","1","2","2","1","2","2","2","1","1","0","1","1","0","0","0","1","1","1","1","0","0","0","1","4","1","4","2","1","2","5","4","4","1","634785170985058304","周","355","","","","","","","","","","","","","","","","","","","","","","","","","","","","","","","","","","","","","","","",""
"792","<p style=""color:white; font-size: 35px;"">全才</p>","e","categorize-html","82","295840","0.0-6.0-0.0-6.0-1.11","4","4","3","3","4","4","3","4","3","4","5","5","5","4","4","5","4","5","4","5","1","1","2","2","1","2","2","2","1","1","0","1","1","0","0","0","1","1","1","1","0","0","0","1","4","1","4","2","1","2","5","4","4","1","634785170985058304","周","355","","","","","","","","","","","","","","","","","","","true","3","3","ability","792","positive","全才","","","","","","","","","","","","","","",""
"null","","null","html-keyboard-response","83","296091","0.0-6.0-0.0-6.0-0.12","4","4","3","3","4","4","3","4","3","4","5","5","5","4","4","5","4","5","4","5","1","1","2","2","1","2","2","2","1","1","0","1","1","0","0","0","1","1","1","1","0","0","0","1","4","1","4","2","1","2","5","4","4","1","634785170985058304","周","355","","","","","","","","","","","","","","","","","","","","","","","","","","","","","","","","","","","","","","","",""
"699","<p style=""color:rgb(150, 250, 100); font-size: 35px;"">他的</p>","e","categorize-html","84","296792","0.0-6.0-0.0-6.0-1.12","4","4","3","3","4","4","3","4","3","4","5","5","5","4","4","5","4","5","4","5","1","1","2","2","1","2","2","2","1","1","0","1","1","0","0","0","1","1","1","1","0","0","0","1","4","1","4","2","1","2","5","4","4","1","634785170985058304","周","355","","","","","","","","","","","","","","","","","","","true","3","3","ability","699","other","他的","","","","","","","","","","","","","","",""
"null","","null","html-keyboard-response","85","297042","0.0-6.0-0.0-6.0-0.13","4","4","3","3","4","4","3","4","3","4","5","5","5","4","4","5","4","5","4","5","1","1","2","2","1","2","2","2","1","1","0","1","1","0","0","0","1","1","1","1","0","0","0","1","4","1","4","2","1","2","5","4","4","1","634785170985058304","周","355","","","","","","","","","","","","","","","","","","","","","","","","","","","","","","","","","","","","","","","",""
"1129","<p style=""color:white; font-size: 35px;"">低能</p>","i","categorize-html","86","298174","0.0-6.0-0.0-6.0-1.13","4","4","3","3","4","4","3","4","3","4","5","5","5","4","4","5","4","5","4","5","1","1","2","2","1","2","2","2","1","1","0","1","1","0","0","0","1","1","1","1","0","0","0","1","4","1","4","2","1","2","5","4","4","1","634785170985058304","周","355","","","","","","","","","","","","","","","","","","","true","3","3","ability","1129","negative","低能","","","","","","","","","","","","","","",""
"null","","null","html-keyboard-response","87","298425","0.0-6.0-0.0-6.0-0.14","4","4","3","3","4","4","3","4","3","4","5","5","5","4","4","5","4","5","4","5","1","1","2","2","1","2","2","2","1","1","0","1","1","0","0","0","1","1","1","1","0","0","0","1","4","1","4","2","1","2","5","4","4","1","634785170985058304","周","355","","","","","","","","","","","","","","","","","","","","","","","","","","","","","","","","","","","","","","","",""
"726","<p style=""color:rgb(150, 250, 100); font-size: 35px;"">本人的</p>","i","categorize-html","88","299153","0.0-6.0-0.0-6.0-1.14","4","4","3","3","4","4","3","4","3","4","5","5","5","4","4","5","4","5","4","5","1","1","2","2","1","2","2","2","1","1","0","1","1","0","0","0","1","1","1","1","0","0","0","1","4","1","4","2","1","2","5","4","4","1","634785170985058304","周","355","","","","","","","","","","","","","","","","","","","true","3","3","ability","726","self","本人的","","","","","","","","","","","","","","",""
"null","","null","html-keyboard-response","89","299404","0.0-6.0-0.0-6.0-0.15","4","4","3","3","4","4","3","4","3","4","5","5","5","4","4","5","4","5","4","5","1","1","2","2","1","2","2","2","1","1","0","1","1","0","0","0","1","1","1","1","0","0","0","1","4","1","4","2","1","2","5","4","4","1","634785170985058304","周","355","","","","","","","","","","","","","","","","","","","","","","","","","","","","","","","","","","","","","","","",""
"1135","<p style=""color:white; font-size: 35px;"">精干</p>","e","categorize-html","90","300541","0.0-6.0-0.0-6.0-1.15","4","4","3","3","4","4","3","4","3","4","5","5","5","4","4","5","4","5","4","5","1","1","2","2","1","2","2","2","1","1","0","1","1","0","0","0","1","1","1","1","0","0","0","1","4","1","4","2","1","2","5","4","4","1","634785170985058304","周","355","","","","","","","","","","","","","","","","","","","true","3","3","ability","1135","positive","精干","","","","","","","","","","","","","","",""
"null","","null","html-keyboard-response","91","300794","0.0-6.0-0.0-6.0-0.16","4","4","3","3","4","4","3","4","3","4","5","5","5","4","4","5","4","5","4","5","1","1","2","2","1","2","2","2","1","1","0","1","1","0","0","0","1","1","1","1","0","0","0","1","4","1","4","2","1","2","5","4","4","1","634785170985058304","周","355","","","","","","","","","","","","","","","","","","","","","","","","","","","","","","","","","","","","","","","",""
"558","<p style=""color:rgb(150, 250, 100); font-size: 35px;"">他人</p>","e","categorize-html","92","301353","0.0-6.0-0.0-6.0-1.16","4","4","3","3","4","4","3","4","3","4","5","5","5","4","4","5","4","5","4","5","1","1","2","2","1","2","2","2","1","1","0","1","1","0","0","0","1","1","1","1","0","0","0","1","4","1","4","2","1","2","5","4","4","1","634785170985058304","周","355","","","","","","","","","","","","","","","","","","","true","3","3","ability","558","other","他人","","","","","","","","","","","","","","",""
"null","","null","html-keyboard-response","93","301604","0.0-6.0-0.0-6.0-0.17","4","4","3","3","4","4","3","4","3","4","5","5","5","4","4","5","4","5","4","5","1","1","2","2","1","2","2","2","1","1","0","1","1","0","0","0","1","1","1","1","0","0","0","1","4","1","4","2","1","2","5","4","4","1","634785170985058304","周","355","","","","","","","","","","","","","","","","","","","","","","","","","","","","","","","","","","","","","","","",""
"1075","<p style=""color:white; font-size: 35px;"">高效</p>","e","categorize-html","94","302681","0.0-6.0-0.0-6.0-1.17","4","4","3","3","4","4","3","4","3","4","5","5","5","4","4","5","4","5","4","5","1","1","2","2","1","2","2","2","1","1","0","1","1","0","0","0","1","1","1","1","0","0","0","1","4","1","4","2","1","2","5","4","4","1","634785170985058304","周","355","","","","","","","","","","","","","","","","","","","true","3","3","ability","1075","positive","高效","","","","","","","","","","","","","","",""
"null","","null","html-keyboard-response","95","302932","0.0-6.0-0.0-6.0-0.18","4","4","3","3","4","4","3","4","3","4","5","5","5","4","4","5","4","5","4","5","1","1","2","2","1","2","2","2","1","1","0","1","1","0","0","0","1","1","1","1","0","0","0","1","4","1","4","2","1","2","5","4","4","1","634785170985058304","周","355","","","","","","","","","","","","","","","","","","","","","","","","","","","","","","","","","","","","","","","",""
"579","<p style=""color:rgb(150, 250, 100); font-size: 35px;"">我的</p>","i","categorize-html","96","303512","0.0-6.0-0.0-6.0-1.18","4","4","3","3","4","4","3","4","3","4","5","5","5","4","4","5","4","5","4","5","1","1","2","2","1","2","2","2","1","1","0","1","1","0","0","0","1","1","1","1","0","0","0","1","4","1","4","2","1","2","5","4","4","1","634785170985058304","周","355","","","","","","","","","","","","","","","","","","","true","3","3","ability","579","self","我的","","","","","","","","","","","","","","",""
"null","","null","html-keyboard-response","97","303763","0.0-6.0-0.0-6.0-0.19","4","4","3","3","4","4","3","4","3","4","5","5","5","4","4","5","4","5","4","5","1","1","2","2","1","2","2","2","1","1","0","1","1","0","0","0","1","1","1","1","0","0","0","1","4","1","4","2","1","2","5","4","4","1","634785170985058304","周","355","","","","","","","","","","","","","","","","","","","","","","","","","","","","","","","","","","","","","","","",""
"771","<p style=""color:white; font-size: 35px;"">愚钝</p>","i","categorize-html","98","304537","0.0-6.0-0.0-6.0-1.19","4","4","3","3","4","4","3","4","3","4","5","5","5","4","4","5","4","5","4","5","1","1","2","2","1","2","2","2","1","1","0","1","1","0","0","0","1","1","1","1","0","0","0","1","4","1","4","2","1","2","5","4","4","1","634785170985058304","周","355","","","","","","","","","","","","","","","","","","","true","3","3","ability","771","negative","愚钝","","","","","","","","","","","","","","",""
"null","","null","html-keyboard-response","99","304788","0.0-6.0-0.0-6.0-0.20","4","4","3","3","4","4","3","4","3","4","5","5","5","4","4","5","4","5","4","5","1","1","2","2","1","2","2","2","1","1","0","1","1","0","0","0","1","1","1","1","0","0","0","1","4","1","4","2","1","2","5","4","4","1","634785170985058304","周","355","","","","","","","","","","","","","","","","","","","","","","","","","","","","","","","","","","","","","","","",""
"766","<p style=""color:rgb(150, 250, 100); font-size: 35px;"">自己</p>","i","categorize-html","100","305556","0.0-6.0-0.0-6.0-1.20","4","4","3","3","4","4","3","4","3","4","5","5","5","4","4","5","4","5","4","5","1","1","2","2","1","2","2","2","1","1","0","1","1","0","0","0","1","1","1","1","0","0","0","1","4","1","4","2","1","2","5","4","4","1","634785170985058304","周","355","","","","","","","","","","","","","","","","","","","true","3","3","ability","766","self","自己","","","","","","","","","","","","","","",""
"null","","null","html-keyboard-response","101","305807","0.0-6.0-0.0-6.0-0.21","4","4","3","3","4","4","3","4","3","4","5","5","5","4","4","5","4","5","4","5","1","1","2","2","1","2","2","2","1","1","0","1","1","0","0","0","1","1","1","1","0","0","0","1","4","1","4","2","1","2","5","4","4","1","634785170985058304","周","355","","","","","","","","","","","","","","","","","","","","","","","","","","","","","","","","","","","","","","","",""
"1372","<p style=""color:white; font-size: 35px;"">全能</p>","e","categorize-html","102","307182","0.0-6.0-0.0-6.0-1.21","4","4","3","3","4","4","3","4","3","4","5","5","5","4","4","5","4","5","4","5","1","1","2","2","1","2","2","2","1","1","0","1","1","0","0","0","1","1","1","1","0","0","0","1","4","1","4","2","1","2","5","4","4","1","634785170985058304","周","355","","","","","","","","","","","","","","","","","","","true","3","3","ability","1372","positive","全能","","","","","","","","","","","","","","",""
"null","","null","html-keyboard-response","103","307432","0.0-6.0-0.0-6.0-0.22","4","4","3","3","4","4","3","4","3","4","5","5","5","4","4","5","4","5","4","5","1","1","2","2","1","2","2","2","1","1","0","1","1","0","0","0","1","1","1","1","0","0","0","1","4","1","4","2","1","2","5","4","4","1","634785170985058304","周","355","","","","","","","","","","","","","","","","","","","","","","","","","","","","","","","","","","","","","","","",""
"692","<p style=""color:rgb(150, 250, 100); font-size: 35px;"">他</p>","e","categorize-html","104","308126","0.0-6.0-0.0-6.0-1.22","4","4","3","3","4","4","3","4","3","4","5","5","5","4","4","5","4","5","4","5","1","1","2","2","1","2","2","2","1","1","0","1","1","0","0","0","1","1","1","1","0","0","0","1","4","1","4","2","1","2","5","4","4","1","634785170985058304","周","355","","","","","","","","","","","","","","","","","","","true","3","3","ability","692","other","他","","","","","","","","","","","","","","",""
"null","","null","html-keyboard-response","105","308377","0.0-6.0-0.0-6.0-0.23","4","4","3","3","4","4","3","4","3","4","5","5","5","4","4","5","4","5","4","5","1","1","2","2","1","2","2","2","1","1","0","1","1","0","0","0","1","1","1","1","0","0","0","1","4","1","4","2","1","2","5","4","4","1","634785170985058304","周","355","","","","","","","","","","","","","","","","","","","","","","","","","","","","","","","","","","","","","","","",""
"1483","<p style=""color:white; font-size: 35px;"">废物</p>","i","categorize-html","106","309861","0.0-6.0-0.0-6.0-1.23","4","4","3","3","4","4","3","4","3","4","5","5","5","4","4","5","4","5","4","5","1","1","2","2","1","2","2","2","1","1","0","1","1","0","0","0","1","1","1","1","0","0","0","1","4","1","4","2","1","2","5","4","4","1","634785170985058304","周","355","","","","","","","","","","","","","","","","","","","true","3","3","ability","1483","negative","废物","","","","","","","","","","","","","","",""
"1201","
    <div class=""tag-bottom""><p>
    —— 任务4：对“他人/积极”词和“自我/消极”词分类 ——<p/>
    <span style=""color:#78DCE8""><b>与刚才的任务完全相同，请再次对这四类词语分类</b></span><p/>
    <span style=""color:#FFD866""><b>请根据上方标签的提示，尽可能正确并且快速地做出按键反应</b></span><p/>
    当按键错误时屏幕中会出现<span style=""color:red""> X </span>，需要按另一个键纠正才能继续<br/><p/>
    请把双手食指分别放在键盘的“E”键和“I”键上<p/>
    按<空格键>开始
    </p></div>"," ","html-keyboard-response","107","311063","0.0-6.0-0.0-7.0","4","4","3","3","4","4","3","4","3","4","5","5","5","4","4","5","4","5","4","5","1","1","2","2","1","2","2","2","1","1","0","1","1","0","0","0","1","1","1","1","0","0","0","1","4","1","4","2","1","2","5","4","4","1","634785170985058304","周","355","","","","","","","","","","","","","","","","","","","","","","","","","","","","","","","","","","","","","","","",""
"null","","null","html-keyboard-response","108","311314","0.0-6.0-0.0-8.0-0.0","4","4","3","3","4","4","3","4","3","4","5","5","5","4","4","5","4","5","4","5","1","1","2","2","1","2","2","2","1","1","0","1","1","0","0","0","1","1","1","1","0","0","0","1","4","1","4","2","1","2","5","4","4","1","634785170985058304","周","355","","","","","","","","","","","","","","","","","","","","","","","","","","","","","","","","","","","","","","","",""
"1204","<p style=""color:rgb(150, 250, 100); font-size: 35px;"">自己的</p>","i","categorize-html","109","312520","0.0-6.0-0.0-8.0-1.0","4","4","3","3","4","4","3","4","3","4","5","5","5","4","4","5","4","5","4","5","1","1","2","2","1","2","2","2","1","1","0","1","1","0","0","0","1","1","1","1","0","0","0","1","4","1","4","2","1","2","5","4","4","1","634785170985058304","周","355","","","","","","","","","","","","","","","","","","","true","4","4","ability","1204","self","自己的","","","","","","","","","","","","","","",""
"null","","null","html-keyboard-response","110","312772","0.0-6.0-0.0-8.0-0.1","4","4","3","3","4","4","3","4","3","4","5","5","5","4","4","5","4","5","4","5","1","1","2","2","1","2","2","2","1","1","0","1","1","0","0","0","1","1","1","1","0","0","0","1","4","1","4","2","1","2","5","4","4","1","634785170985058304","周","355","","","","","","","","","","","","","","","","","","","","","","","","","","","","","","","","","","","","","","","",""
"966","<p style=""color:white; font-size: 35px;"">能干</p>","e","categorize-html","111","313741","0.0-6.0-0.0-8.0-1.1","4","4","3","3","4","4","3","4","3","4","5","5","5","4","4","5","4","5","4","5","1","1","2","2","1","2","2","2","1","1","0","1","1","0","0","0","1","1","1","1","0","0","0","1","4","1","4","2","1","2","5","4","4","1","634785170985058304","周","355","","","","","","","","","","","","","","","","","","","true","4","4","ability","966","positive","能干","","","","","","","","","","","","","","",""
"null","","null","html-keyboard-response","112","313991","0.0-6.0-0.0-8.0-0.2","4","4","3","3","4","4","3","4","3","4","5","5","5","4","4","5","4","5","4","5","1","1","2","2","1","2","2","2","1","1","0","1","1","0","0","0","1","1","1","1","0","0","0","1","4","1","4","2","1","2","5","4","4","1","634785170985058304","周","355","","","","","","","","","","","","","","","","","","","","","","","","","","","","","","","","","","","","","","","",""
"724","<p style=""color:rgb(150, 250, 100); font-size: 35px;"">他</p>","e","categorize-html","113","314718","0.0-6.0-0.0-8.0-1.2","4","4","3","3","4","4","3","4","3","4","5","5","5","4","4","5","4","5","4","5","1","1","2","2","1","2","2","2","1","1","0","1","1","0","0","0","1","1","1","1","0","0","0","1","4","1","4","2","1","2","5","4","4","1","634785170985058304","周","355","","","","","","","","","","","","","","","","","","","true","4","4","ability","724","other","他","","","","","","","","","","","","","","",""
"null","","null","html-keyboard-response","114","314969","0.0-6.0-0.0-8.0-0.3","4","4","3","3","4","4","3","4","3","4","5","5","5","4","4","5","4","5","4","5","1","1","2","2","1","2","2","2","1","1","0","1","1","0","0","0","1","1","1","1","0","0","0","1","4","1","4","2","1","2","5","4","4","1","634785170985058304","周","355","","","","","","","","","","","","","","","","","","","","","","","","","","","","","","","","","","","","","","","",""
"1091","<p style=""color:white; font-size: 35px;"">愚钝</p>","i","categorize-html","115","316062","0.0-6.0-0.0-8.0-1.3","4","4","3","3","4","4","3","4","3","4","5","5","5","4","4","5","4","5","4","5","1","1","2","2","1","2","2","2","1","1","0","1","1","0","0","0","1","1","1","1","0","0","0","1","4","1","4","2","1","2","5","4","4","1","634785170985058304","周","355","","","","","","","","","","","","","","","","","","","true","4","4","ability","1091","negative","愚钝","","","","","","","","","","","","","","",""
"null","","null","html-keyboard-response","116","316313","0.0-6.0-0.0-8.0-0.4","4","4","3","3","4","4","3","4","3","4","5","5","5","4","4","5","4","5","4","5","1","1","2","2","1","2","2","2","1","1","0","1","1","0","0","0","1","1","1","1","0","0","0","1","4","1","4","2","1","2","5","4","4","1","634785170985058304","周","355","","","","","","","","","","","","","","","","","","","","","","","","","","","","","","","","","","","","","","","",""
"1483","<p style=""color:rgb(150, 250, 100); font-size: 35px;"">本人的</p>","i","categorize-html","117","317798","0.0-6.0-0.0-8.0-1.4","4","4","3","3","4","4","3","4","3","4","5","5","5","4","4","5","4","5","4","5","1","1","2","2","1","2","2","2","1","1","0","1","1","0","0","0","1","1","1","1","0","0","0","1","4","1","4","2","1","2","5","4","4","1","634785170985058304","周","355","","","","","","","","","","","","","","","","","","","true","4","4","ability","1483","self","本人的","","","","","","","","","","","","","","",""
"null","","null","html-keyboard-response","118","318050","0.0-6.0-0.0-8.0-0.5","4","4","3","3","4","4","3","4","3","4","5","5","5","4","4","5","4","5","4","5","1","1","2","2","1","2","2","2","1","1","0","1","1","0","0","0","1","1","1","1","0","0","0","1","4","1","4","2","1","2","5","4","4","1","634785170985058304","周","355","","","","","","","","","","","","","","","","","","","","","","","","","","","","","","","","","","","","","","","",""
"673","<p style=""color:white; font-size: 35px;"">全才</p>","e","categorize-html","119","318725","0.0-6.0-0.0-8.0-1.5","4","4","3","3","4","4","3","4","3","4","5","5","5","4","4","5","4","5","4","5","1","1","2","2","1","2","2","2","1","1","0","1","1","0","0","0","1","1","1","1","0","0","0","1","4","1","4","2","1","2","5","4","4","1","634785170985058304","周","355","","","","","","","","","","","","","","","","","","","true","4","4","ability","673","positive","全才","","","","","","","","","","","","","","",""
"null","","null","html-keyboard-response","120","318976","0.0-6.0-0.0-8.0-0.6","4","4","3","3","4","4","3","4","3","4","5","5","5","4","4","5","4","5","4","5","1","1","2","2","1","2","2","2","1","1","0","1","1","0","0","0","1","1","1","1","0","0","0","1","4","1","4","2","1","2","5","4","4","1","634785170985058304","周","355","","","","","","","","","","","","","","","","","","","","","","","","","","","","","","","","","","","","","","","",""
"863","<p style=""color:rgb(150, 250, 100); font-size: 35px;"">他人</p>","e","categorize-html","121","319841","0.0-6.0-0.0-8.0-1.6","4","4","3","3","4","4","3","4","3","4","5","5","5","4","4","5","4","5","4","5","1","1","2","2","1","2","2","2","1","1","0","1","1","0","0","0","1","1","1","1","0","0","0","1","4","1","4","2","1","2","5","4","4","1","634785170985058304","周","355","","","","","","","","","","","","","","","","","","","true","4","4","ability","863","other","他人","","","","","","","","","","","","","","",""
"null","","null","html-keyboard-response","122","320093","0.0-6.0-0.0-8.0-0.7","4","4","3","3","4","4","3","4","3","4","5","5","5","4","4","5","4","5","4","5","1","1","2","2","1","2","2","2","1","1","0","1","1","0","0","0","1","1","1","1","0","0","0","1","4","1","4","2","1","2","5","4","4","1","634785170985058304","周","355","","","","","","","","","","","","","","","","","","","","","","","","","","","","","","","","","","","","","","","",""
"772","<p style=""color:white; font-size: 35px;"">拙笨</p>","i","categorize-html","123","320867","0.0-6.0-0.0-8.0-1.7","4","4","3","3","4","4","3","4","3","4","5","5","5","4","4","5","4","5","4","5","1","1","2","2","1","2","2","2","1","1","0","1","1","0","0","0","1","1","1","1","0","0","0","1","4","1","4","2","1","2","5","4","4","1","634785170985058304","周","355","","","","","","","","","","","","","","","","","","","true","4","4","ability","772","negative","拙笨","","","","","","","","","","","","","","",""
"null","","null","html-keyboard-response","124","321119","0.0-6.0-0.0-8.0-0.8","4","4","3","3","4","4","3","4","3","4","5","5","5","4","4","5","4","5","4","5","1","1","2","2","1","2","2","2","1","1","0","1","1","0","0","0","1","1","1","1","0","0","0","1","4","1","4","2","1","2","5","4","4","1","634785170985058304","周","355","","","","","","","","","","","","","","","","","","","","","","","","","","","","","","","","","","","","","","","",""
"652","<p style=""color:rgb(150, 250, 100); font-size: 35px;"">他人的</p>","e","categorize-html","125","321772","0.0-6.0-0.0-8.0-1.8","4","4","3","3","4","4","3","4","3","4","5","5","5","4","4","5","4","5","4","5","1","1","2","2","1","2","2","2","1","1","0","1","1","0","0","0","1","1","1","1","0","0","0","1","4","1","4","2","1","2","5","4","4","1","634785170985058304","周","355","","","","","","","","","","","","","","","","","","","true","4","4","ability","652","other","他人的","","","","","","","","","","","","","","",""
"null","","null","html-keyboard-response","126","322024","0.0-6.0-0.0-8.0-0.9","4","4","3","3","4","4","3","4","3","4","5","5","5","4","4","5","4","5","4","5","1","1","2","2","1","2","2","2","1","1","0","1","1","0","0","0","1","1","1","1","0","0","0","1","4","1","4","2","1","2","5","4","4","1","634785170985058304","周","355","","","","","","","","","","","","","","","","","","","","","","","","","","","","","","","","","","","","","","","",""
"2929","<p style=""color:white; font-size: 35px;"">废物</p>","i","categorize-html","127","324955","0.0-6.0-0.0-8.0-1.9","4","4","3","3","4","4","3","4","3","4","5","5","5","4","4","5","4","5","4","5","1","1","2","2","1","2","2","2","1","1","0","1","1","0","0","0","1","1","1","1","0","0","0","1","4","1","4","2","1","2","5","4","4","1","634785170985058304","周","355","","","","","","","","","","","","","","","","","","","true","4","4","ability","2929","negative","废物","","","","","","","","","","","","","","",""
"null","","null","html-keyboard-response","128","325207","0.0-6.0-0.0-8.0-0.10","4","4","3","3","4","4","3","4","3","4","5","5","5","4","4","5","4","5","4","5","1","1","2","2","1","2","2","2","1","1","0","1","1","0","0","0","1","1","1","1","0","0","0","1","4","1","4","2","1","2","5","4","4","1","634785170985058304","周","355","","","","","","","","","","","","","","","","","","","","","","","","","","","","","","","","","","","","","","","",""
"866","<p style=""color:rgb(150, 250, 100); font-size: 35px;"">自己</p>","i","categorize-html","129","326076","0.0-6.0-0.0-8.0-1.10","4","4","3","3","4","4","3","4","3","4","5","5","5","4","4","5","4","5","4","5","1","1","2","2","1","2","2","2","1","1","0","1","1","0","0","0","1","1","1","1","0","0","0","1","4","1","4","2","1","2","5","4","4","1","634785170985058304","周","355","","","","","","","","","","","","","","","","","","","true","4","4","ability","866","self","自己","","","","","","","","","","","","","","",""
"null","","null","html-keyboard-response","130","326326","0.0-6.0-0.0-8.0-0.11","4","4","3","3","4","4","3","4","3","4","5","5","5","4","4","5","4","5","4","5","1","1","2","2","1","2","2","2","1","1","0","1","1","0","0","0","1","1","1","1","0","0","0","1","4","1","4","2","1","2","5","4","4","1","634785170985058304","周","355","","","","","","","","","","","","","","","","","","","","","","","","","","","","","","","","","","","","","","","",""
"612","<p style=""color:white; font-size: 35px;"">精干</p>","e","categorize-html","131","326940","0.0-6.0-0.0-8.0-1.11","4","4","3","3","4","4","3","4","3","4","5","5","5","4","4","5","4","5","4","5","1","1","2","2","1","2","2","2","1","1","0","1","1","0","0","0","1","1","1","1","0","0","0","1","4","1","4","2","1","2","5","4","4","1","634785170985058304","周","355","","","","","","","","","","","","","","","","","","","true","4","4","ability","612","positive","精干","","","","","","","","","","","","","","",""
"null","","null","html-keyboard-response","132","327191","0.0-6.0-0.0-8.0-0.12","4","4","3","3","4","4","3","4","3","4","5","5","5","4","4","5","4","5","4","5","1","1","2","2","1","2","2","2","1","1","0","1","1","0","0","0","1","1","1","1","0","0","0","1","4","1","4","2","1","2","5","4","4","1","634785170985058304","周","355","","","","","","","","","","","","","","","","","","","","","","","","","","","","","","","","","","","","","","","",""
"896","<p style=""color:rgb(150, 250, 100); font-size: 35px;"">自己的</p>","i","categorize-html","133","328090","0.0-6.0-0.0-8.0-1.12","4","4","3","3","4","4","3","4","3","4","5","5","5","4","4","5","4","5","4","5","1","1","2","2","1","2","2","2","1","1","0","1","1","0","0","0","1","1","1","1","0","0","0","1","4","1","4","2","1","2","5","4","4","1","634785170985058304","周","355","","","","","","","","","","","","","","","","","","","true","4","4","ability","896","self","自己的","","","","","","","","","","","","","","",""
"null","","null","html-keyboard-response","134","328341","0.0-6.0-0.0-8.0-0.13","4","4","3","3","4","4","3","4","3","4","5","5","5","4","4","5","4","5","4","5","1","1","2","2","1","2","2","2","1","1","0","1","1","0","0","0","1","1","1","1","0","0","0","1","4","1","4","2","1","2","5","4","4","1","634785170985058304","周","355","","","","","","","","","","","","","","","","","","","","","","","","","","","","","","","","","","","","","","","",""
"744","<p style=""color:white; font-size: 35px;"">全能</p>","e","categorize-html","135","329087","0.0-6.0-0.0-8.0-1.13","4","4","3","3","4","4","3","4","3","4","5","5","5","4","4","5","4","5","4","5","1","1","2","2","1","2","2","2","1","1","0","1","1","0","0","0","1","1","1","1","0","0","0","1","4","1","4","2","1","2","5","4","4","1","634785170985058304","周","355","","","","","","","","","","","","","","","","","","","true","4","4","ability","744","positive","全能","","","","","","","","","","","","","","",""
"null","","null","html-keyboard-response","136","329338","0.0-6.0-0.0-8.0-0.14","4","4","3","3","4","4","3","4","3","4","5","5","5","4","4","5","4","5","4","5","1","1","2","2","1","2","2","2","1","1","0","1","1","0","0","0","1","1","1","1","0","0","0","1","4","1","4","2","1","2","5","4","4","1","634785170985058304","周","355","","","","","","","","","","","","","","","","","","","","","","","","","","","","","","","","","","","","","","","",""
"562","<p style=""color:rgb(150, 250, 100); font-size: 35px;"">他人</p>","e","categorize-html","137","329902","0.0-6.0-0.0-8.0-1.14","4","4","3","3","4","4","3","4","3","4","5","5","5","4","4","5","4","5","4","5","1","1","2","2","1","2","2","2","1","1","0","1","1","0","0","0","1","1","1","1","0","0","0","1","4","1","4","2","1","2","5","4","4","1","634785170985058304","周","355","","","","","","","","","","","","","","","","","","","true","4","4","ability","562","other","他人","","","","","","","","","","","","","","",""
"null","","null","html-keyboard-response","138","330153","0.0-6.0-0.0-8.0-0.15","4","4","3","3","4","4","3","4","3","4","5","5","5","4","4","5","4","5","4","5","1","1","2","2","1","2","2","2","1","1","0","1","1","0","0","0","1","1","1","1","0","0","0","1","4","1","4","2","1","2","5","4","4","1","634785170985058304","周","355","","","","","","","","","","","","","","","","","","","","","","","","","","","","","","","","","","","","","","","",""
"1232","<p style=""color:white; font-size: 35px;"">低能</p>","i","categorize-html","139","331387","0.0-6.0-0.0-8.0-1.15","4","4","3","3","4","4","3","4","3","4","5","5","5","4","4","5","4","5","4","5","1","1","2","2","1","2","2","2","1","1","0","1","1","0","0","0","1","1","1","1","0","0","0","1","4","1","4","2","1","2","5","4","4","1","634785170985058304","周","355","","","","","","","","","","","","","","","","","","","true","4","4","ability","1232","negative","低能","","","","","","","","","","","","","","",""
"null","","null","html-keyboard-response","140","331639","0.0-6.0-0.0-8.0-0.16","4","4","3","3","4","4","3","4","3","4","5","5","5","4","4","5","4","5","4","5","1","1","2","2","1","2","2","2","1","1","0","1","1","0","0","0","1","1","1","1","0","0","0","1","4","1","4","2","1","2","5","4","4","1","634785170985058304","周","355","","","","","","","","","","","","","","","","","","","","","","","","","","","","","","","","","","","","","","","",""
"700","<p style=""color:rgb(150, 250, 100); font-size: 35px;"">别人</p>","e","categorize-html","141","332341","0.0-6.0-0.0-8.0-1.16","4","4","3","3","4","4","3","4","3","4","5","5","5","4","4","5","4","5","4","5","1","1","2","2","1","2","2","2","1","1","0","1","1","0","0","0","1","1","1","1","0","0","0","1","4","1","4","2","1","2","5","4","4","1","634785170985058304","周","355","","","","","","","","","","","","","","","","","","","true","4","4","ability","700","other","别人","","","","","","","","","","","","","","",""
"null","","null","html-keyboard-response","142","332592","0.0-6.0-0.0-8.0-0.17","4","4","3","3","4","4","3","4","3","4","5","5","5","4","4","5","4","5","4","5","1","1","2","2","1","2","2","2","1","1","0","1","1","0","0","0","1","1","1","1","0","0","0","1","4","1","4","2","1","2","5","4","4","1","634785170985058304","周","355","","","","","","","","","","","","","","","","","","","","","","","","","","","","","","","","","","","","","","","",""
"1024","<p style=""color:white; font-size: 35px;"">废物</p>","i","categorize-html","143","333617","0.0-6.0-0.0-8.0-1.17","4","4","3","3","4","4","3","4","3","4","5","5","5","4","4","5","4","5","4","5","1","1","2","2","1","2","2","2","1","1","0","1","1","0","0","0","1","1","1","1","0","0","0","1","4","1","4","2","1","2","5","4","4","1","634785170985058304","周","355","","","","","","","","","","","","","","","","","","","true","4","4","ability","1024","negative","废物","","","","","","","","","","","","","","",""
"null","","null","html-keyboard-response","144","333868","0.0-6.0-0.0-8.0-0.18","4","4","3","3","4","4","3","4","3","4","5","5","5","4","4","5","4","5","4","5","1","1","2","2","1","2","2","2","1","1","0","1","1","0","0","0","1","1","1","1","0","0","0","1","4","1","4","2","1","2","5","4","4","1","634785170985058304","周","355","","","","","","","","","","","","","","","","","","","","","","","","","","","","","","","","","","","","","","","",""
"667","<p style=""color:rgb(150, 250, 100); font-size: 35px;"">我的</p>","i","categorize-html","145","334536","0.0-6.0-0.0-8.0-1.18","4","4","3","3","4","4","3","4","3","4","5","5","5","4","4","5","4","5","4","5","1","1","2","2","1","2","2","2","1","1","0","1","1","0","0","0","1","1","1","1","0","0","0","1","4","1","4","2","1","2","5","4","4","1","634785170985058304","周","355","","","","","","","","","","","","","","","","","","","true","4","4","ability","667","self","我的","","","","","","","","","","","","","","",""
"null","","null","html-keyboard-response","146","334787","0.0-6.0-0.0-8.0-0.19","4","4","3","3","4","4","3","4","3","4","5","5","5","4","4","5","4","5","4","5","1","1","2","2","1","2","2","2","1","1","0","1","1","0","0","0","1","1","1","1","0","0","0","1","4","1","4","2","1","2","5","4","4","1","634785170985058304","周","355","","","","","","","","","","","","","","","","","","","","","","","","","","","","","","","","","","","","","","","",""
"940","<p style=""color:white; font-size: 35px;"">全才</p>","e","categorize-html","147","335730","0.0-6.0-0.0-8.0-1.19","4","4","3","3","4","4","3","4","3","4","5","5","5","4","4","5","4","5","4","5","1","1","2","2","1","2","2","2","1","1","0","1","1","0","0","0","1","1","1","1","0","0","0","1","4","1","4","2","1","2","5","4","4","1","634785170985058304","周","355","","","","","","","","","","","","","","","","","","","true","4","4","ability","940","positive","全才","","","","","","","","","","","","","","",""
"null","","null","html-keyboard-response","148","335981","0.0-6.0-0.0-8.0-0.20","4","4","3","3","4","4","3","4","3","4","5","5","5","4","4","5","4","5","4","5","1","1","2","2","1","2","2","2","1","1","0","1","1","0","0","0","1","1","1","1","0","0","0","1","4","1","4","2","1","2","5","4","4","1","634785170985058304","周","355","","","","","","","","","","","","","","","","","","","","","","","","","","","","","","","","","","","","","","","",""
"573","<p style=""color:rgb(150, 250, 100); font-size: 35px;"">他的</p>","e","categorize-html","149","336556","0.0-6.0-0.0-8.0-1.20","4","4","3","3","4","4","3","4","3","4","5","5","5","4","4","5","4","5","4","5","1","1","2","2","1","2","2","2","1","1","0","1","1","0","0","0","1","1","1","1","0","0","0","1","4","1","4","2","1","2","5","4","4","1","634785170985058304","周","355","","","","","","","","","","","","","","","","","","","true","4","4","ability","573","other","他的","","","","","","","","","","","","","","",""
"null","","null","html-keyboard-response","150","336807","0.0-6.0-0.0-8.0-0.21","4","4","3","3","4","4","3","4","3","4","5","5","5","4","4","5","4","5","4","5","1","1","2","2","1","2","2","2","1","1","0","1","1","0","0","0","1","1","1","1","0","0","0","1","4","1","4","2","1","2","5","4","4","1","634785170985058304","周","355","","","","","","","","","","","","","","","","","","","","","","","","","","","","","","","","","","","","","","","",""
"1090","<p style=""color:white; font-size: 35px;"">蠢笨</p>","i","categorize-html","151","337899","0.0-6.0-0.0-8.0-1.21","4","4","3","3","4","4","3","4","3","4","5","5","5","4","4","5","4","5","4","5","1","1","2","2","1","2","2","2","1","1","0","1","1","0","0","0","1","1","1","1","0","0","0","1","4","1","4","2","1","2","5","4","4","1","634785170985058304","周","355","","","","","","","","","","","","","","","","","","","true","4","4","ability","1090","negative","蠢笨","","","","","","","","","","","","","","",""
"null","","null","html-keyboard-response","152","338150","0.0-6.0-0.0-8.0-0.22","4","4","3","3","4","4","3","4","3","4","5","5","5","4","4","5","4","5","4","5","1","1","2","2","1","2","2","2","1","1","0","1","1","0","0","0","1","1","1","1","0","0","0","1","4","1","4","2","1","2","5","4","4","1","634785170985058304","周","355","","","","","","","","","","","","","","","","","","","","","","","","","","","","","","","","","","","","","","","",""
"793","<p style=""color:rgb(150, 250, 100); font-size: 35px;"">自己</p>","i","categorize-html","153","338945","0.0-6.0-0.0-8.0-1.22","4","4","3","3","4","4","3","4","3","4","5","5","5","4","4","5","4","5","4","5","1","1","2","2","1","2","2","2","1","1","0","1","1","0","0","0","1","1","1","1","0","0","0","1","4","1","4","2","1","2","5","4","4","1","634785170985058304","周","355","","","","","","","","","","","","","","","","","","","true","4","4","ability","793","self","自己","","","","","","","","","","","","","","",""
"null","","null","html-keyboard-response","154","339196","0.0-6.0-0.0-8.0-0.23","4","4","3","3","4","4","3","4","3","4","5","5","5","4","4","5","4","5","4","5","1","1","2","2","1","2","2","2","1","1","0","1","1","0","0","0","1","1","1","1","0","0","0","1","4","1","4","2","1","2","5","4","4","1","634785170985058304","周","355","","","","","","","","","","","","","","","","","","","","","","","","","","","","","","","","","","","","","","","",""
"579","<p style=""color:white; font-size: 35px;"">天才</p>","e","categorize-html","155","339778","0.0-6.0-0.0-8.0-1.23","4","4","3","3","4","4","3","4","3","4","5","5","5","4","4","5","4","5","4","5","1","1","2","2","1","2","2","2","1","1","0","1","1","0","0","0","1","1","1","1","0","0","0","1","4","1","4","2","1","2","5","4","4","1","634785170985058304","周","355","","","","","","","","","","","","","","","","","","","true","4","4","ability","579","positive","天才","","","","","","","","","","","","","","",""
"null","","null","html-keyboard-response","156","340029","0.0-6.0-0.0-8.0-0.24","4","4","3","3","4","4","3","4","3","4","5","5","5","4","4","5","4","5","4","5","1","1","2","2","1","2","2","2","1","1","0","1","1","0","0","0","1","1","1","1","0","0","0","1","4","1","4","2","1","2","5","4","4","1","634785170985058304","周","355","","","","","","","","","","","","","","","","","","","","","","","","","","","","","","","","","","","","","","","",""
"490","<p style=""color:rgb(150, 250, 100); font-size: 35px;"">他</p>","e","categorize-html","157","340521","0.0-6.0-0.0-8.0-1.24","4","4","3","3","4","4","3","4","3","4","5","5","5","4","4","5","4","5","4","5","1","1","2","2","1","2","2","2","1","1","0","1","1","0","0","0","1","1","1","1","0","0","0","1","4","1","4","2","1","2","5","4","4","1","634785170985058304","周","355","","","","","","","","","","","","","","","","","","","true","4","4","ability","490","other","他","","","","","","","","","","","","","","",""
"null","","null","html-keyboard-response","158","340772","0.0-6.0-0.0-8.0-0.25","4","4","3","3","4","4","3","4","3","4","5","5","5","4","4","5","4","5","4","5","1","1","2","2","1","2","2","2","1","1","0","1","1","0","0","0","1","1","1","1","0","0","0","1","4","1","4","2","1","2","5","4","4","1","634785170985058304","周","355","","","","","","","","","","","","","","","","","","","","","","","","","","","","","","","","","","","","","","","",""
"864","<p style=""color:white; font-size: 35px;"">无能</p>","i","categorize-html","159","341638","0.0-6.0-0.0-8.0-1.25","4","4","3","3","4","4","3","4","3","4","5","5","5","4","4","5","4","5","4","5","1","1","2","2","1","2","2","2","1","1","0","1","1","0","0","0","1","1","1","1","0","0","0","1","4","1","4","2","1","2","5","4","4","1","634785170985058304","周","355","","","","","","","","","","","","","","","","","","","true","4","4","ability","864","negative","无能","","","","","","","","","","","","","","",""
"null","","null","html-keyboard-response","160","341897","0.0-6.0-0.0-8.0-0.26","4","4","3","3","4","4","3","4","3","4","5","5","5","4","4","5","4","5","4","5","1","1","2","2","1","2","2","2","1","1","0","1","1","0","0","0","1","1","1","1","0","0","0","1","4","1","4","2","1","2","5","4","4","1","634785170985058304","周","355","","","","","","","","","","","","","","","","","","","","","","","","","","","","","","","","","","","","","","","",""
"606","<p style=""color:rgb(150, 250, 100); font-size: 35px;"">我</p>","i","categorize-html","161","342506","0.0-6.0-0.0-8.0-1.26","4","4","3","3","4","4","3","4","3","4","5","5","5","4","4","5","4","5","4","5","1","1","2","2","1","2","2","2","1","1","0","1","1","0","0","0","1","1","1","1","0","0","0","1","4","1","4","2","1","2","5","4","4","1","634785170985058304","周","355","","","","","","","","","","","","","","","","","","","true","4","4","ability","606","self","我","","","","","","","","","","","","","","",""
"null","","null","html-keyboard-response","162","342757","0.0-6.0-0.0-8.0-0.27","4","4","3","3","4","4","3","4","3","4","5","5","5","4","4","5","4","5","4","5","1","1","2","2","1","2","2","2","1","1","0","1","1","0","0","0","1","1","1","1","0","0","0","1","4","1","4","2","1","2","5","4","4","1","634785170985058304","周","355","","","","","","","","","","","","","","","","","","","","","","","","","","","","","","","","","","","","","","","",""
"583","<p style=""color:white; font-size: 35px;"">能干</p>","e","categorize-html","163","343341","0.0-6.0-0.0-8.0-1.27","4","4","3","3","4","4","3","4","3","4","5","5","5","4","4","5","4","5","4","5","1","1","2","2","1","2","2","2","1","1","0","1","1","0","0","0","1","1","1","1","0","0","0","1","4","1","4","2","1","2","5","4","4","1","634785170985058304","周","355","","","","","","","","","","","","","","","","","","","true","4","4","ability","583","positive","能干","","","","","","","","","","","","","","",""
"null","","null","html-keyboard-response","164","343594","0.0-6.0-0.0-8.0-0.28","4","4","3","3","4","4","3","4","3","4","5","5","5","4","4","5","4","5","4","5","1","1","2","2","1","2","2","2","1","1","0","1","1","0","0","0","1","1","1","1","0","0","0","1","4","1","4","2","1","2","5","4","4","1","634785170985058304","周","355","","","","","","","","","","","","","","","","","","","","","","","","","","","","","","","","","","","","","","","",""
"722","<p style=""color:rgb(150, 250, 100); font-size: 35px;"">我的</p>","i","categorize-html","165","344317","0.0-6.0-0.0-8.0-1.28","4","4","3","3","4","4","3","4","3","4","5","5","5","4","4","5","4","5","4","5","1","1","2","2","1","2","2","2","1","1","0","1","1","0","0","0","1","1","1","1","0","0","0","1","4","1","4","2","1","2","5","4","4","1","634785170985058304","周","355","","","","","","","","","","","","","","","","","","","true","4","4","ability","722","self","我的","","","","","","","","","","","","","","",""
"null","","null","html-keyboard-response","166","344568","0.0-6.0-0.0-8.0-0.29","4","4","3","3","4","4","3","4","3","4","5","5","5","4","4","5","4","5","4","5","1","1","2","2","1","2","2","2","1","1","0","1","1","0","0","0","1","1","1","1","0","0","0","1","4","1","4","2","1","2","5","4","4","1","634785170985058304","周","355","","","","","","","","","","","","","","","","","","","","","","","","","","","","","","","","","","","","","","","",""
"1066","<p style=""color:white; font-size: 35px;"">全能</p>","e","categorize-html","167","345636","0.0-6.0-0.0-8.0-1.29","4","4","3","3","4","4","3","4","3","4","5","5","5","4","4","5","4","5","4","5","1","1","2","2","1","2","2","2","1","1","0","1","1","0","0","0","1","1","1","1","0","0","0","1","4","1","4","2","1","2","5","4","4","1","634785170985058304","周","355","","","","","","","","","","","","","","","","","","","true","4","4","ability","1066","positive","全能","","","","","","","","","","","","","","",""
"null","","null","html-keyboard-response","168","345887","0.0-6.0-0.0-8.0-0.30","4","4","3","3","4","4","3","4","3","4","5","5","5","4","4","5","4","5","4","5","1","1","2","2","1","2","2","2","1","1","0","1","1","0","0","0","1","1","1","1","0","0","0","1","4","1","4","2","1","2","5","4","4","1","634785170985058304","周","355","","","","","","","","","","","","","","","","","","","","","","","","","","","","","","","","","","","","","","","",""
"1034","<p style=""color:rgb(150, 250, 100); font-size: 35px;"">别人的</p>","e","categorize-html","169","346923","0.0-6.0-0.0-8.0-1.30","4","4","3","3","4","4","3","4","3","4","5","5","5","4","4","5","4","5","4","5","1","1","2","2","1","2","2","2","1","1","0","1","1","0","0","0","1","1","1","1","0","0","0","1","4","1","4","2","1","2","5","4","4","1","634785170985058304","周","355","","","","","","","","","","","","","","","","","","","true","4","4","ability","1034","other","别人的","","","","","","","","","","","","","","",""
"null","","null","html-keyboard-response","170","347175","0.0-6.0-0.0-8.0-0.31","4","4","3","3","4","4","3","4","3","4","5","5","5","4","4","5","4","5","4","5","1","1","2","2","1","2","2","2","1","1","0","1","1","0","0","0","1","1","1","1","0","0","0","1","4","1","4","2","1","2","5","4","4","1","634785170985058304","周","355","","","","","","","","","","","","","","","","","","","","","","","","","","","","","","","","","","","","","","","",""
"929","<p style=""color:white; font-size: 35px;"">拙笨</p>","i","categorize-html","171","348106","0.0-6.0-0.0-8.0-1.31","4","4","3","3","4","4","3","4","3","4","5","5","5","4","4","5","4","5","4","5","1","1","2","2","1","2","2","2","1","1","0","1","1","0","0","0","1","1","1","1","0","0","0","1","4","1","4","2","1","2","5","4","4","1","634785170985058304","周","355","","","","","","","","","","","","","","","","","","","true","4","4","ability","929","negative","拙笨","","","","","","","","","","","","","","",""
"null","","null","html-keyboard-response","172","348358","0.0-6.0-0.0-8.0-0.32","4","4","3","3","4","4","3","4","3","4","5","5","5","4","4","5","4","5","4","5","1","1","2","2","1","2","2","2","1","1","0","1","1","0","0","0","1","1","1","1","0","0","0","1","4","1","4","2","1","2","5","4","4","1","634785170985058304","周","355","","","","","","","","","","","","","","","","","","","","","","","","","","","","","","","","","","","","","","","",""
"1030","<p style=""color:rgb(150, 250, 100); font-size: 35px;"">别人的</p>","e","categorize-html","173","349390","0.0-6.0-0.0-8.0-1.32","4","4","3","3","4","4","3","4","3","4","5","5","5","4","4","5","4","5","4","5","1","1","2","2","1","2","2","2","1","1","0","1","1","0","0","0","1","1","1","1","0","0","0","1","4","1","4","2","1","2","5","4","4","1","634785170985058304","周","355","","","","","","","","","","","","","","","","","","","true","4","4","ability","1030","other","别人的","","","","","","","","","","","","","","",""
"null","","null","html-keyboard-response","174","349641","0.0-6.0-0.0-8.0-0.33","4","4","3","3","4","4","3","4","3","4","5","5","5","4","4","5","4","5","4","5","1","1","2","2","1","2","2","2","1","1","0","1","1","0","0","0","1","1","1","1","0","0","0","1","4","1","4","2","1","2","5","4","4","1","634785170985058304","周","355","","","","","","","","","","","","","","","","","","","","","","","","","","","","","","","","","","","","","","","",""
"895","<p style=""color:white; font-size: 35px;"">高效</p>","e","categorize-html","175","350539","0.0-6.0-0.0-8.0-1.33","4","4","3","3","4","4","3","4","3","4","5","5","5","4","4","5","4","5","4","5","1","1","2","2","1","2","2","2","1","1","0","1","1","0","0","0","1","1","1","1","0","0","0","1","4","1","4","2","1","2","5","4","4","1","634785170985058304","周","355","","","","","","","","","","","","","","","","","","","true","4","4","ability","895","positive","高效","","","","","","","","","","","","","","",""
"null","","null","html-keyboard-response","176","350804","0.0-6.0-0.0-8.0-0.34","4","4","3","3","4","4","3","4","3","4","5","5","5","4","4","5","4","5","4","5","1","1","2","2","1","2","2","2","1","1","0","1","1","0","0","0","1","1","1","1","0","0","0","1","4","1","4","2","1","2","5","4","4","1","634785170985058304","周","355","","","","","","","","","","","","","","","","","","","","","","","","","","","","","","","","","","","","","","","",""
"1160","<p style=""color:rgb(150, 250, 100); font-size: 35px;"">本人</p>","i","categorize-html","177","351965","0.0-6.0-0.0-8.0-1.34","4","4","3","3","4","4","3","4","3","4","5","5","5","4","4","5","4","5","4","5","1","1","2","2","1","2","2","2","1","1","0","1","1","0","0","0","1","1","1","1","0","0","0","1","4","1","4","2","1","2","5","4","4","1","634785170985058304","周","355","","","","","","","","","","","","","","","","","","","true","4","4","ability","1160","self","本人","","","","","","","","","","","","","","",""
"null","","null","html-keyboard-response","178","352217","0.0-6.0-0.0-8.0-0.35","4","4","3","3","4","4","3","4","3","4","5","5","5","4","4","5","4","5","4","5","1","1","2","2","1","2","2","2","1","1","0","1","1","0","0","0","1","1","1","1","0","0","0","1","4","1","4","2","1","2","5","4","4","1","634785170985058304","周","355","","","","","","","","","","","","","","","","","","","","","","","","","","","","","","","","","","","","","","","",""
"676","<p style=""color:white; font-size: 35px;"">蠢笨</p>","i","categorize-html","179","352895","0.0-6.0-0.0-8.0-1.35","4","4","3","3","4","4","3","4","3","4","5","5","5","4","4","5","4","5","4","5","1","1","2","2","1","2","2","2","1","1","0","1","1","0","0","0","1","1","1","1","0","0","0","1","4","1","4","2","1","2","5","4","4","1","634785170985058304","周","355","","","","","","","","","","","","","","","","","","","true","4","4","ability","676","negative","蠢笨","","","","","","","","","","","","","","",""
"null","","null","html-keyboard-response","180","353146","0.0-6.0-0.0-8.0-0.36","4","4","3","3","4","4","3","4","3","4","5","5","5","4","4","5","4","5","4","5","1","1","2","2","1","2","2","2","1","1","0","1","1","0","0","0","1","1","1","1","0","0","0","1","4","1","4","2","1","2","5","4","4","1","634785170985058304","周","355","","","","","","","","","","","","","","","","","","","","","","","","","","","","","","","","","","","","","","","",""
"675","<p style=""color:rgb(150, 250, 100); font-size: 35px;"">我</p>","i","categorize-html","181","353823","0.0-6.0-0.0-8.0-1.36","4","4","3","3","4","4","3","4","3","4","5","5","5","4","4","5","4","5","4","5","1","1","2","2","1","2","2","2","1","1","0","1","1","0","0","0","1","1","1","1","0","0","0","1","4","1","4","2","1","2","5","4","4","1","634785170985058304","周","355","","","","","","","","","","","","","","","","","","","true","4","4","ability","675","self","我","","","","","","","","","","","","","","",""
"null","","null","html-keyboard-response","182","354074","0.0-6.0-0.0-8.0-0.37","4","4","3","3","4","4","3","4","3","4","5","5","5","4","4","5","4","5","4","5","1","1","2","2","1","2","2","2","1","1","0","1","1","0","0","0","1","1","1","1","0","0","0","1","4","1","4","2","1","2","5","4","4","1","634785170985058304","周","355","","","","","","","","","","","","","","","","","","","","","","","","","","","","","","","","","","","","","","","",""
"850","<p style=""color:white; font-size: 35px;"">低能</p>","i","categorize-html","183","354926","0.0-6.0-0.0-8.0-1.37","4","4","3","3","4","4","3","4","3","4","5","5","5","4","4","5","4","5","4","5","1","1","2","2","1","2","2","2","1","1","0","1","1","0","0","0","1","1","1","1","0","0","0","1","4","1","4","2","1","2","5","4","4","1","634785170985058304","周","355","","","","","","","","","","","","","","","","","","","true","4","4","ability","850","negative","低能","","","","","","","","","","","","","","",""
"null","","null","html-keyboard-response","184","355177","0.0-6.0-0.0-8.0-0.38","4","4","3","3","4","4","3","4","3","4","5","5","5","4","4","5","4","5","4","5","1","1","2","2","1","2","2","2","1","1","0","1","1","0","0","0","1","1","1","1","0","0","0","1","4","1","4","2","1","2","5","4","4","1","634785170985058304","周","355","","","","","","","","","","","","","","","","","","","","","","","","","","","","","","","","","","","","","","","",""
"731","<p style=""color:rgb(150, 250, 100); font-size: 35px;"">他的</p>","e","categorize-html","185","355910","0.0-6.0-0.0-8.0-1.38","4","4","3","3","4","4","3","4","3","4","5","5","5","4","4","5","4","5","4","5","1","1","2","2","1","2","2","2","1","1","0","1","1","0","0","0","1","1","1","1","0","0","0","1","4","1","4","2","1","2","5","4","4","1","634785170985058304","周","355","","","","","","","","","","","","","","","","","","","true","4","4","ability","731","other","他的","","","","","","","","","","","","","","",""
"null","","null","html-keyboard-response","186","356161","0.0-6.0-0.0-8.0-0.39","4","4","3","3","4","4","3","4","3","4","5","5","5","4","4","5","4","5","4","5","1","1","2","2","1","2","2","2","1","1","0","1","1","0","0","0","1","1","1","1","0","0","0","1","4","1","4","2","1","2","5","4","4","1","634785170985058304","周","355","","","","","","","","","","","","","","","","","","","","","","","","","","","","","","","","","","","","","","","",""
"1002","<p style=""color:white; font-size: 35px;"">天才</p>","e","categorize-html","187","357165","0.0-6.0-0.0-8.0-1.39","4","4","3","3","4","4","3","4","3","4","5","5","5","4","4","5","4","5","4","5","1","1","2","2","1","2","2","2","1","1","0","1","1","0","0","0","1","1","1","1","0","0","0","1","4","1","4","2","1","2","5","4","4","1","634785170985058304","周","355","","","","","","","","","","","","","","","","","","","true","4","4","ability","1002","positive","天才","","","","","","","","","","","","","","",""
"null","","null","html-keyboard-response","188","357417","0.0-6.0-0.0-8.0-0.40","4","4","3","3","4","4","3","4","3","4","5","5","5","4","4","5","4","5","4","5","1","1","2","2","1","2","2","2","1","1","0","1","1","0","0","0","1","1","1","1","0","0","0","1","4","1","4","2","1","2","5","4","4","1","634785170985058304","周","355","","","","","","","","","","","","","","","","","","","","","","","","","","","","","","","","","","","","","","","",""
"1819","<p style=""color:rgb(150, 250, 100); font-size: 35px;"">别人</p>","e","categorize-html","189","359238","0.0-6.0-0.0-8.0-1.40","4","4","3","3","4","4","3","4","3","4","5","5","5","4","4","5","4","5","4","5","1","1","2","2","1","2","2","2","1","1","0","1","1","0","0","0","1","1","1","1","0","0","0","1","4","1","4","2","1","2","5","4","4","1","634785170985058304","周","355","","","","","","","","","","","","","","","","","","","true","4","4","ability","1819","other","别人","","","","","","","","","","","","","","",""
"null","","null","html-keyboard-response","190","359489","0.0-6.0-0.0-8.0-0.41","4","4","3","3","4","4","3","4","3","4","5","5","5","4","4","5","4","5","4","5","1","1","2","2","1","2","2","2","1","1","0","1","1","0","0","0","1","1","1","1","0","0","0","1","4","1","4","2","1","2","5","4","4","1","634785170985058304","周","355","","","","","","","","","","","","","","","","","","","","","","","","","","","","","","","","","","","","","","","",""
"880","<p style=""color:white; font-size: 35px;"">精干</p>","e","categorize-html","191","360371","0.0-6.0-0.0-8.0-1.41","4","4","3","3","4","4","3","4","3","4","5","5","5","4","4","5","4","5","4","5","1","1","2","2","1","2","2","2","1","1","0","1","1","0","0","0","1","1","1","1","0","0","0","1","4","1","4","2","1","2","5","4","4","1","634785170985058304","周","355","","","","","","","","","","","","","","","","","","","true","4","4","ability","880","positive","精干","","","","","","","","","","","","","","",""
"null","","null","html-keyboard-response","192","360622","0.0-6.0-0.0-8.0-0.42","4","4","3","3","4","4","3","4","3","4","5","5","5","4","4","5","4","5","4","5","1","1","2","2","1","2","2","2","1","1","0","1","1","0","0","0","1","1","1","1","0","0","0","1","4","1","4","2","1","2","5","4","4","1","634785170985058304","周","355","","","","","","","","","","","","","","","","","","","","","","","","","","","","","","","","","","","","","","","",""
"951","<p style=""color:rgb(150, 250, 100); font-size: 35px;"">本人的</p>","e","categorize-html","193","362193","0.0-6.0-0.0-8.0-1.42","4","4","3","3","4","4","3","4","3","4","5","5","5","4","4","5","4","5","4","5","1","1","2","2","1","2","2","2","1","1","0","1","1","0","0","0","1","1","1","1","0","0","0","1","4","1","4","2","1","2","5","4","4","1","634785170985058304","周","355","","","","","","","","","","","","","","","","","","","false","4","4","ability","1513.5","self","本人的","","","","","","","","","","","","","","",""
"null","","null","html-keyboard-response","194","362445","0.0-6.0-0.0-8.0-0.43","4","4","3","3","4","4","3","4","3","4","5","5","5","4","4","5","4","5","4","5","1","1","2","2","1","2","2","2","1","1","0","1","1","0","0","0","1","1","1","1","0","0","0","1","4","1","4","2","1","2","5","4","4","1","634785170985058304","周","355","","","","","","","","","","","","","","","","","","","","","","","","","","","","","","","","","","","","","","","",""
"937","<p style=""color:white; font-size: 35px;"">愚钝</p>","i","categorize-html","195","363384","0.0-6.0-0.0-8.0-1.43","4","4","3","3","4","4","3","4","3","4","5","5","5","4","4","5","4","5","4","5","1","1","2","2","1","2","2","2","1","1","0","1","1","0","0","0","1","1","1","1","0","0","0","1","4","1","4","2","1","2","5","4","4","1","634785170985058304","周","355","","","","","","","","","","","","","","","","","","","true","4","4","ability","937","negative","愚钝","","","","","","","","","","","","","","",""
"null","","null","html-keyboard-response","196","363635","0.0-6.0-0.0-8.0-0.44","4","4","3","3","4","4","3","4","3","4","5","5","5","4","4","5","4","5","4","5","1","1","2","2","1","2","2","2","1","1","0","1","1","0","0","0","1","1","1","1","0","0","0","1","4","1","4","2","1","2","5","4","4","1","634785170985058304","周","355","","","","","","","","","","","","","","","","","","","","","","","","","","","","","","","","","","","","","","","",""
"712","<p style=""color:rgb(150, 250, 100); font-size: 35px;"">他人的</p>","i","categorize-html","197","364822","0.0-6.0-0.0-8.0-1.44","4","4","3","3","4","4","3","4","3","4","5","5","5","4","4","5","4","5","4","5","1","1","2","2","1","2","2","2","1","1","0","1","1","0","0","0","1","1","1","1","0","0","0","1","4","1","4","2","1","2","5","4","4","1","634785170985058304","周","355","","","","","","","","","","","","","","","","","","","false","4","4","ability","1513.5","other","他人的","","","","","","","","","","","","","","",""
