"rt","stimulus","response","trial_type","trial_index","time_elapsed","internal_node_id","ses_1","ses_2","ses_3","ses_4","ses_5","ses_6","ses_7","ses_8","ses_9","ses_10","coreself_1","coreself_2","coreself_3","coreself_4","coreself_5","coreself_6","coreself_7","coreself_8","coreself_9","coreself_10","SGPS_1","SGPS_2","SGPS_3","SGPS_4","SGPS_5","SGPS_6","SGPS_7","SGPS_8","SGPS_9","NPI1","NPI2","NPI3","NPI4","NPI5","NPI6","NPI7","NPI8","NPI9","NPI10","NPI11","NPI12","NPI13","NPI14","NPI15","hsns_1","hsns_2","hsns_3","hsns_4","hsns_5","hsns_6","hsns_7","hsns_8","hsns_9","hsns_10","subj_idx","friend_name","ParticipantID","value","success","user_agent","responses","item_order","radio_event_ids","radio_event_times","key_event_times","mouse_event_times","straightlining","zigzagging","honeypot","timeout","failed_images","failed_audio","failed_video","view_history","response_type","key_press","avg_frame_time","center_x","center_y","correct_response","correct","identity","Image","word","condition","task_id","screen_id","time_stamp","version_attrib2","version_target2","IAT","RT","varname","summary","version_attrib","version_target","question_order"
"6770","
   <p><div style = ""color: white;font-size:25px;"">您好，欢迎参加本次实验。</div> </p>
   <p><div style = ""color: white;font-size:25px;"">为充分保障您的权利，请确保您已经知晓并同意《参与实验同意书》以及《数据公开知情同意书》。</div></p>
   <p><div style = ""color: white;font-size:25px;"">如果您未见过上述内容，请咨询实验员。</div></p>
   <p><div style = ""color: white;font-size:25px;"">如果您选择继续实验，则表示您已经清楚两份知情同意书的内容并同意。</div></p>
   <p><div style = ""color: red;font-size:30px;"">请确保您记得day0的实验编号，您将在本次实验输入该编号，若您忘记，请咨询实验员后作答。</div></p>
   <p> <div style = ""color: green;font-size:25px;""><按空格键至下页></div> </p>
   "," ","html-keyboard-response","0","6775","0.0-0.0","4","4","4","3","3","4","4","3","4","3","4","5","5","4","4","5","5","4","4","4","2","1","1","2","2","1","1","1","2","0","1","0","0","1","1","0","0","1","0","0","1","0","1","0","4","2","5","1","1","4","5","4","5","2","634785034254942208","张","455","","","","","","","","","","","","","","","","","","","","","","","","","","","","","","","","","","","","","","","",""
"","","","call-function","1","6778","0.0-1.0-0.0","4","4","4","3","3","4","4","3","4","3","4","5","5","4","4","5","5","4","4","4","2","1","1","2","2","1","1","1","2","0","1","0","0","1","1","0","0","1","0","0","1","0","1","0","4","2","5","1","1","4","5","4","5","2","634785034254942208","张","455","","","","","","","","","","","","","","","","","","","","","","","","","","","","","","","","","","","","","","","",""
"57916","","{""friend_name"":""张"",""ParticipantID"":""455""}","survey-html-form","2","64697","0.0-1.0-1.0","4","4","4","3","3","4","4","3","4","3","4","5","5","4","4","5","5","4","4","4","2","1","1","2","2","1","1","1","2","0","1","0","0","1","1","0","0","1","0","0","1","0","1","0","4","2","5","1","1","4","5","4","5","2","634785034254942208","张","455","","","","","","","","","","","","","","","","","","","","","","","","","","","","","","","","","","","","","","","",""
"","","","fullscreen","3","66542","0.0-2.0","4","4","4","3","3","4","4","3","4","3","4","5","5","4","4","5","5","4","4","4","2","1","1","2","2","1","1","1","2","0","1","0","0","1","1","0","0","1","0","0","1","0","1","0","4","2","5","1","1","4","5","4","5","2","634785034254942208","张","455","","true","{}","","","","","","","","","","","","","","","","","","","","","","","","","","","","","","","","","","","","",""
"113886.5","","{""Q01"":""4"",""Q02"":""4"",""Q03"":""4"",""Q04"":""3"",""Q05"":""3"",""Q06"":""4"",""Q07"":""4"",""Q08"":""3"",""Q09"":""4"",""Q10"":""3""}","survey-template","4","180435","0.0-3.0","4","4","4","3","3","4","4","3","4","3","4","5","5","4","4","5","5","4","4","4","2","1","1","2","2","1","1","1","2","0","1","0","0","1","1","0","0","1","0","0","1","0","1","0","4","2","5","1","1","4","5","4","5","2","634785034254942208","张","455","","","","{""Q01"":""4"",""Q02"":""4"",""Q03"":""4"",""Q04"":""3"",""Q05"":""3"",""Q06"":""4"",""Q07"":""4"",""Q08"":""3"",""Q09"":""4"",""Q10"":""3""}","[0,1,2,3,4,5,6,7,8,9]","[""Q01"",""Q02"",""Q03"",""Q04"",""Q05"",""Q06"",""Q07"",""Q08"",""Q09"",""Q09"",""Q08"",""Q10""]","[11507.199999928474,12905.100000023842,14909.100000023842,26659.299999952316,28851.5,30735.199999928474,34133.199999928474,36302.89999997616,37799,40223.10000002384,41276.89999997616,43023.699999928474]","[]","[10287.5,11507.199999928474,12905.100000023842,14909.100000023842,26659.299999952316,28851.5,30735.199999928474,33395,34133.199999928474,36302.89999997616,37799,40223.10000002384,41276.89999997616,42458.39999997616,43023.699999928474,113885.10000002384]","0.4","0.4444444444444444","0","","","","","","","","","","","","","","","","","","","","","","","","","","","",""
"292282.7000000477","","{""Q01"":""4"",""Q02"":""5"",""Q03"":""5"",""Q04"":""4"",""Q05"":""4"",""Q06"":""5"",""Q07"":""5"",""Q08"":""4"",""Q09"":""4"",""Q10"":""4""}","survey-template","5","472726","0.0-4.0","4","4","4","3","3","4","4","3","4","3","4","5","5","4","4","5","5","4","4","4","2","1","1","2","2","1","1","1","2","0","1","0","0","1","1","0","0","1","0","0","1","0","1","0","4","2","5","1","1","4","5","4","5","2","634785034254942208","张","455","","","","{""Q01"":""4"",""Q02"":""5"",""Q03"":""5"",""Q04"":""4"",""Q05"":""4"",""Q06"":""5"",""Q07"":""5"",""Q08"":""4"",""Q09"":""4"",""Q10"":""4""}","[0,1,2,3,4,5,6,7,8,9]","[""Q01"",""Q02"",""Q03"",""Q04"",""Q05"",""Q06"",""Q07"",""Q08"",""Q09"",""Q10""]","[121295.89999997616,122511.39999997616,125853.80000007153,126975.5,131337.80000007153,132639.5,134299.60000002384,135667.39999997616,137071.89999997616,189355.70000004768]","[]","[115238,120651.70000004768,121295.89999997616,122511.39999997616,125853.80000007153,126975.5,131337.80000007153,132639.5,134299.60000002384,135667.39999997616,137071.89999997616,138767.70000004768,189355.70000004768,292281.39999997616]","0.3","0.2222222222222222","0","","","","","","","","","","","","","","","","","","","","","","","","","","","",""
"","","","preload","6","473025","0.0-5.0","4","4","4","3","3","4","4","3","4","3","4","5","5","4","4","5","5","4","4","4","2","1","1","2","2","1","1","1","2","0","1","0","0","1","1","0","0","1","0","0","1","0","1","0","4","2","5","1","1","4","5","4","5","2","634785034254942208","张","455","","true","","","","","","","","","","","false","[]","[]","[]","","","","","","","","","","","","","","","","","","","","","","","",""
"9437","","","instructions","7","482464","0.0-6.0","4","4","4","3","3","4","4","3","4","3","4","5","5","4","4","5","5","4","4","4","2","1","1","2","2","1","1","1","2","0","1","0","0","1","1","0","0","1","0","0","1","0","1","0","4","2","5","1","1","4","5","4","5","2","634785034254942208","张","455","","","","","","","","","","","","","","","","","[{""page_index"":0,""viewing_time"":9436}]","","","","","","","","","","","","","","","","","","","","","","",""
"23925","","","instructions","8","506390","0.0-7.0-1.0-0.0","4","4","4","3","3","4","4","3","4","3","4","5","5","4","4","5","5","4","4","4","2","1","1","2","2","1","1","1","2","0","1","0","0","1","1","0","0","1","0","0","1","0","1","0","4","2","5","1","1","4","5","4","5","2","634785034254942208","张","455","","","","","","","","","","","","","","","","","[{""page_index"":0,""viewing_time"":12137},{""page_index"":1,""viewing_time"":5540},{""page_index"":2,""viewing_time"":1654},{""page_index"":1,""viewing_time"":1344},{""page_index"":0,""viewing_time"":1518},{""page_index"":1,""viewing_time"":998},{""page_index"":2,""viewing_time"":735}]","","","","","","","","","","","","","","","","","","","","","","",""
"803","","j","psychophysics","9","508199","0.0-7.0-1.0-1.0-0.0-0.0","4","4","4","3","3","4","4","3","4","3","4","5","5","4","4","5","5","4","4","4","2","1","1","2","2","1","1","1","2","0","1","0","0","1","1","0","0","1","0","0","1","0","1","0","4","2","5","1","1","4","5","4","5","2","634785034254942208","张","455","","","","match","","","","","","","","","","","","","","key","j","16.654074074073666","799.9999682108573","445.8333156175091","j","true","match","img/square.png","方形","方形","ALT1_2","prac_ALT1_2","","","","","","","","","",""
"null","<span style='color:GreenYellow; font-size: 70px;'>正确! </span>","null","html-keyboard-response","10","508701","0.0-7.0-1.0-1.0-0.0-1.0","4","4","4","3","3","4","4","3","4","3","4","5","5","4","4","5","5","4","4","4","2","1","1","2","2","1","1","1","2","0","1","0","0","1","1","0","0","1","0","0","1","0","1","0","4","2","5","1","1","4","5","4","5","2","634785034254942208","张","455","","","","","","","","","","","","","","","","","","","","","","","","","","","","","","feedback_test","","","","","","","","","",""
"683","","f","psychophysics","11","510385","0.0-7.0-1.0-1.0-0.0-0.1","4","4","4","3","3","4","4","3","4","3","4","5","5","4","4","5","5","4","4","4","2","1","1","2","2","1","1","1","2","0","1","0","0","1","1","0","0","1","0","0","1","0","1","0","4","2","5","1","1","4","5","4","5","2","634785034254942208","张","455","","","","nonmatch","","","","","","","","","","","","","","key","f","16.653550000000397","799.9999682108573","445.8333156175091","f","true","nonmatch","img/hexagon.png","方形","六边","ALT1_2","prac_ALT1_2","","","","","","","","","",""
"null","<span style='color:GreenYellow; font-size: 70px;'>正确! </span>","null","html-keyboard-response","12","510887","0.0-7.0-1.0-1.0-0.0-1.1","4","4","4","3","3","4","4","3","4","3","4","5","5","4","4","5","5","4","4","4","2","1","1","2","2","1","1","1","2","0","1","0","0","1","1","0","0","1","0","0","1","0","1","0","4","2","5","1","1","4","5","4","5","2","634785034254942208","张","455","","","","","","","","","","","","","","","","","","","","","","","","","","","","","","feedback_test","","","","","","","","","",""
"687","","f","psychophysics","13","512576","0.0-7.0-1.0-1.0-0.0-0.2","4","4","4","3","3","4","4","3","4","3","4","5","5","4","4","5","5","4","4","4","2","1","1","2","2","1","1","1","2","0","1","0","0","1","1","0","0","1","0","0","1","0","1","0","4","2","5","1","1","4","5","4","5","2","634785034254942208","张","455","","","","nonmatch","","","","","","","","","","","","","","key","f","16.653930693068933","799.9999682108573","445.8333156175091","f","true","nonmatch","img/ellipse.png","方形","椭圆","ALT1_2","prac_ALT1_2","","","","","","","","","",""
"null","<span style='color:GreenYellow; font-size: 70px;'>正确! </span>","null","html-keyboard-response","14","513077","0.0-7.0-1.0-1.0-0.0-1.2","4","4","4","3","3","4","4","3","4","3","4","5","5","4","4","5","5","4","4","4","2","1","1","2","2","1","1","1","2","0","1","0","0","1","1","0","0","1","0","0","1","0","1","0","4","2","5","1","1","4","5","4","5","2","634785034254942208","张","455","","","","","","","","","","","","","","","","","","","","","","","","","","","","","","feedback_test","","","","","","","","","",""
"814","","j","psychophysics","15","514893","0.0-7.0-1.0-1.0-0.0-0.3","4","4","4","3","3","4","4","3","4","3","4","5","5","4","4","5","5","4","4","4","2","1","1","2","2","1","1","1","2","0","1","0","0","1","1","0","0","1","0","0","1","0","1","0","4","2","5","1","1","4","5","4","5","2","634785034254942208","张","455","","","","match","","","","","","","","","","","","","","key","j","16.654148148148025","799.9999682108573","445.8333156175091","j","true","match","img/triangle.png","三角","三角","ALT1_2","prac_ALT1_2","","","","","","","","","",""
"null","<span style='color:GreenYellow; font-size: 70px;'>正确! </span>","null","html-keyboard-response","16","515394","0.0-7.0-1.0-1.0-0.0-1.3","4","4","4","3","3","4","4","3","4","3","4","5","5","4","4","5","5","4","4","4","2","1","1","2","2","1","1","1","2","0","1","0","0","1","1","0","0","1","0","0","1","0","1","0","4","2","5","1","1","4","5","4","5","2","634785034254942208","张","455","","","","","","","","","","","","","","","","","","","","","","","","","","","","","","feedback_test","","","","","","","","","",""
"831","","f","psychophysics","17","517227","0.0-7.0-1.0-1.0-0.0-0.4","4","4","4","3","3","4","4","3","4","3","4","5","5","4","4","5","5","4","4","4","2","1","1","2","2","1","1","1","2","0","1","0","0","1","1","0","0","1","0","0","1","0","1","0","4","2","5","1","1","4","5","4","5","2","634785034254942208","张","455","","","","nonmatch","","","","","","","","","","","","","","key","f","16.64999082568849","799.9999682108573","445.8333156175091","f","true","nonmatch","img/hexagon.png","三角","六边","ALT1_2","prac_ALT1_2","","","","","","","","","",""
"null","<span style='color:GreenYellow; font-size: 70px;'>正确! </span>","null","html-keyboard-response","18","517728","0.0-7.0-1.0-1.0-0.0-1.4","4","4","4","3","3","4","4","3","4","3","4","5","5","4","4","5","5","4","4","4","2","1","1","2","2","1","1","1","2","0","1","0","0","1","1","0","0","1","0","0","1","0","1","0","4","2","5","1","1","4","5","4","5","2","634785034254942208","张","455","","","","","","","","","","","","","","","","","","","","","","","","","","","","","","feedback_test","","","","","","","","","",""
"887","","f","psychophysics","19","519618","0.0-7.0-1.0-1.0-0.0-0.5","4","4","4","3","3","4","4","3","4","3","4","5","5","4","4","5","5","4","4","4","2","1","1","2","2","1","1","1","2","0","1","0","0","1","1","0","0","1","0","0","1","0","1","0","4","2","5","1","1","4","5","4","5","2","634785034254942208","张","455","","","","nonmatch","","","","","","","","","","","","","","key","f","16.653548672566586","799.9999682108573","445.8333156175091","f","true","nonmatch","img/hexagon.png","椭圆","六边","ALT1_2","prac_ALT1_2","","","","","","","","","",""
"null","<span style='color:GreenYellow; font-size: 70px;'>正确! </span>","null","html-keyboard-response","20","520121","0.0-7.0-1.0-1.0-0.0-1.5","4","4","4","3","3","4","4","3","4","3","4","5","5","4","4","5","5","4","4","4","2","1","1","2","2","1","1","1","2","0","1","0","0","1","1","0","0","1","0","0","1","0","1","0","4","2","5","1","1","4","5","4","5","2","634785034254942208","张","455","","","","","","","","","","","","","","","","","","","","","","","","","","","","","","feedback_test","","","","","","","","","",""
"987","","f","psychophysics","21","522110","0.0-7.0-1.0-1.0-0.0-0.6","4","4","4","3","3","4","4","3","4","3","4","5","5","4","4","5","5","4","4","4","2","1","1","2","2","1","1","1","2","0","1","0","0","1","1","0","0","1","0","0","1","0","1","0","4","2","5","1","1","4","5","4","5","2","634785034254942208","张","455","","","","nonmatch","","","","","","","","","","","","","","key","f","16.65376271186416","799.9999682108573","445.8333156175091","f","true","nonmatch","img/square.png","六边","方形","ALT1_2","prac_ALT1_2","","","","","","","","","",""
"null","<span style='color:GreenYellow; font-size: 70px;'>正确! </span>","null","html-keyboard-response","22","522611","0.0-7.0-1.0-1.0-0.0-1.6","4","4","4","3","3","4","4","3","4","3","4","5","5","4","4","5","5","4","4","4","2","1","1","2","2","1","1","1","2","0","1","0","0","1","1","0","0","1","0","0","1","0","1","0","4","2","5","1","1","4","5","4","5","2","634785034254942208","张","455","","","","","","","","","","","","","","","","","","","","","","","","","","","","","","feedback_test","","","","","","","","","",""
"764","","f","psychophysics","23","524377","0.0-7.0-1.0-1.0-0.0-0.7","4","4","4","3","3","4","4","3","4","3","4","5","5","4","4","5","5","4","4","4","2","1","1","2","2","1","1","1","2","0","1","0","0","1","1","0","0","1","0","0","1","0","1","0","4","2","5","1","1","4","5","4","5","2","634785034254942208","张","455","","","","nonmatch","","","","","","","","","","","","","","key","f","16.653152380952434","799.9999682108573","445.8333156175091","f","true","nonmatch","img/square.png","椭圆","方形","ALT1_2","prac_ALT1_2","","","","","","","","","",""
"null","<span style='color:GreenYellow; font-size: 70px;'>正确! </span>","null","html-keyboard-response","24","524879","0.0-7.0-1.0-1.0-0.0-1.7","4","4","4","3","3","4","4","3","4","3","4","5","5","4","4","5","5","4","4","4","2","1","1","2","2","1","1","1","2","0","1","0","0","1","1","0","0","1","0","0","1","0","1","0","4","2","5","1","1","4","5","4","5","2","634785034254942208","张","455","","","","","","","","","","","","","","","","","","","","","","","","","","","","","","feedback_test","","","","","","","","","",""
"805","","j","psychophysics","25","526688","0.0-7.0-1.0-1.0-0.0-0.8","4","4","4","3","3","4","4","3","4","3","4","5","5","4","4","5","5","4","4","4","2","1","1","2","2","1","1","1","2","0","1","0","0","1","1","0","0","1","0","0","1","0","1","0","4","2","5","1","1","4","5","4","5","2","634785034254942208","张","455","","","","match","","","","","","","","","","","","","","key","j","16.65326168224385","799.9999682108573","445.8333156175091","j","true","match","img/ellipse.png","椭圆","椭圆","ALT1_2","prac_ALT1_2","","","","","","","","","",""
"null","<span style='color:GreenYellow; font-size: 70px;'>正确! </span>","null","html-keyboard-response","26","527195","0.0-7.0-1.0-1.0-0.0-1.8","4","4","4","3","3","4","4","3","4","3","4","5","5","4","4","5","5","4","4","4","2","1","1","2","2","1","1","1","2","0","1","0","0","1","1","0","0","1","0","0","1","0","1","0","4","2","5","1","1","4","5","4","5","2","634785034254942208","张","455","","","","","","","","","","","","","","","","","","","","","","","","","","","","","","feedback_test","","","","","","","","","",""
"806","","f","psychophysics","27","529004","0.0-7.0-1.0-1.0-0.0-0.9","4","4","4","3","3","4","4","3","4","3","4","5","5","4","4","5","5","4","4","4","2","1","1","2","2","1","1","1","2","0","1","0","0","1","1","0","0","1","0","0","1","0","1","0","4","2","5","1","1","4","5","4","5","2","634785034254942208","张","455","","","","nonmatch","","","","","","","","","","","","","","key","f","16.653224299065595","799.9999682108573","445.8333156175091","f","true","nonmatch","img/ellipse.png","六边","椭圆","ALT1_2","prac_ALT1_2","","","","","","","","","",""
"null","<span style='color:GreenYellow; font-size: 70px;'>正确! </span>","null","html-keyboard-response","28","529505","0.0-7.0-1.0-1.0-0.0-1.9","4","4","4","3","3","4","4","3","4","3","4","5","5","4","4","5","5","4","4","4","2","1","1","2","2","1","1","1","2","0","1","0","0","1","1","0","0","1","0","0","1","0","1","0","4","2","5","1","1","4","5","4","5","2","634785034254942208","张","455","","","","","","","","","","","","","","","","","","","","","","","","","","","","","","feedback_test","","","","","","","","","",""
"832","","j","psychophysics","29","531337","0.0-7.0-1.0-1.0-0.0-0.10","4","4","4","3","3","4","4","3","4","3","4","5","5","4","4","5","5","4","4","4","2","1","1","2","2","1","1","1","2","0","1","0","0","1","1","0","0","1","0","0","1","0","1","0","4","2","5","1","1","4","5","4","5","2","634785034254942208","张","455","","","","match","","","","","","","","","","","","","","key","j","16.654275229357722","799.9999682108573","445.8333156175091","j","true","match","img/hexagon.png","六边","六边","ALT1_2","prac_ALT1_2","","","","","","","","","",""
"null","<span style='color:GreenYellow; font-size: 70px;'>正确! </span>","null","html-keyboard-response","30","531839","0.0-7.0-1.0-1.0-0.0-1.10","4","4","4","3","3","4","4","3","4","3","4","5","5","4","4","5","5","4","4","4","2","1","1","2","2","1","1","1","2","0","1","0","0","1","1","0","0","1","0","0","1","0","1","0","4","2","5","1","1","4","5","4","5","2","634785034254942208","张","455","","","","","","","","","","","","","","","","","","","","","","","","","","","","","","feedback_test","","","","","","","","","",""
"688","","f","psychophysics","31","533529","0.0-7.0-1.0-1.0-0.0-0.11","4","4","4","3","3","4","4","3","4","3","4","5","5","4","4","5","5","4","4","4","2","1","1","2","2","1","1","1","2","0","1","0","0","1","1","0","0","1","0","0","1","0","1","0","4","2","5","1","1","4","5","4","5","2","634785034254942208","张","455","","","","nonmatch","","","","","","","","","","","","","","key","f","16.653050000000512","799.9999682108573","445.8333156175091","f","true","nonmatch","img/triangle.png","椭圆","三角","ALT1_2","prac_ALT1_2","","","","","","","","","",""
"null","<span style='color:GreenYellow; font-size: 70px;'>正确! </span>","null","html-keyboard-response","32","534031","0.0-7.0-1.0-1.0-0.0-1.11","4","4","4","3","3","4","4","3","4","3","4","5","5","4","4","5","5","4","4","4","2","1","1","2","2","1","1","1","2","0","1","0","0","1","1","0","0","1","0","0","1","0","1","0","4","2","5","1","1","4","5","4","5","2","634785034254942208","张","455","","","","","","","","","","","","","","","","","","","","","","","","","","","","","","feedback_test","","","","","","","","","",""
"672","","j","psychophysics","33","535705","0.0-7.0-1.0-1.0-0.0-0.12","4","4","4","3","3","4","4","3","4","3","4","5","5","4","4","5","5","4","4","4","2","1","1","2","2","1","1","1","2","0","1","0","0","1","1","0","0","1","0","0","1","0","1","0","4","2","5","1","1","4","5","4","5","2","634785034254942208","张","455","","","","match","","","","","","","","","","","","","","key","j","16.65417999999947","799.9999682108573","445.8333156175091","j","true","match","img/square.png","方形","方形","ALT1_2","prac_ALT1_2","","","","","","","","","",""
"null","<span style='color:GreenYellow; font-size: 70px;'>正确! </span>","null","html-keyboard-response","34","536207","0.0-7.0-1.0-1.0-0.0-1.12","4","4","4","3","3","4","4","3","4","3","4","5","5","4","4","5","5","4","4","4","2","1","1","2","2","1","1","1","2","0","1","0","0","1","1","0","0","1","0","0","1","0","1","0","4","2","5","1","1","4","5","4","5","2","634785034254942208","张","455","","","","","","","","","","","","","","","","","","","","","","","","","","","","","","feedback_test","","","","","","","","","",""
"731","","j","psychophysics","35","537939","0.0-7.0-1.0-1.0-0.0-0.13","4","4","4","3","3","4","4","3","4","3","4","5","5","4","4","5","5","4","4","4","2","1","1","2","2","1","1","1","2","0","1","0","0","1","1","0","0","1","0","0","1","0","1","0","4","2","5","1","1","4","5","4","5","2","634785034254942208","张","455","","","","match","","","","","","","","","","","","","","key","j","16.653844660193233","799.9999682108573","445.8333156175091","j","true","match","img/hexagon.png","六边","六边","ALT1_2","prac_ALT1_2","","","","","","","","","",""
"null","<span style='color:GreenYellow; font-size: 70px;'>正确! </span>","null","html-keyboard-response","36","538442","0.0-7.0-1.0-1.0-0.0-1.13","4","4","4","3","3","4","4","3","4","3","4","5","5","4","4","5","5","4","4","4","2","1","1","2","2","1","1","1","2","0","1","0","0","1","1","0","0","1","0","0","1","0","1","0","4","2","5","1","1","4","5","4","5","2","634785034254942208","张","455","","","","","","","","","","","","","","","","","","","","","","","","","","","","","","feedback_test","","","","","","","","","",""
"709","","f","psychophysics","37","540155","0.0-7.0-1.0-1.0-0.0-0.14","4","4","4","3","3","4","4","3","4","3","4","5","5","4","4","5","5","4","4","4","2","1","1","2","2","1","1","1","2","0","1","0","0","1","1","0","0","1","0","0","1","0","1","0","4","2","5","1","1","4","5","4","5","2","634785034254942208","张","455","","","","nonmatch","","","","","","","","","","","","","","key","f","16.64946078431368","799.9999682108573","445.8333156175091","f","true","nonmatch","img/square.png","三角","方形","ALT1_2","prac_ALT1_2","","","","","","","","","",""
"null","<span style='color:GreenYellow; font-size: 70px;'>正确! </span>","null","html-keyboard-response","38","540656","0.0-7.0-1.0-1.0-0.0-1.14","4","4","4","3","3","4","4","3","4","3","4","5","5","4","4","5","5","4","4","4","2","1","1","2","2","1","1","1","2","0","1","0","0","1","1","0","0","1","0","0","1","0","1","0","4","2","5","1","1","4","5","4","5","2","634785034254942208","张","455","","","","","","","","","","","","","","","","","","","","","","","","","","","","","","feedback_test","","","","","","","","","",""
"831","","j","psychophysics","39","542489","0.0-7.0-1.0-1.0-0.0-0.15","4","4","4","3","3","4","4","3","4","3","4","5","5","4","4","5","5","4","4","4","2","1","1","2","2","1","1","1","2","0","1","0","0","1","1","0","0","1","0","0","1","0","1","0","4","2","5","1","1","4","5","4","5","2","634785034254942208","张","455","","","","match","","","","","","","","","","","","","","key","j","16.650541284403534","799.9999682108573","445.8333156175091","j","true","match","img/ellipse.png","椭圆","椭圆","ALT1_2","prac_ALT1_2","","","","","","","","","",""
"null","<span style='color:GreenYellow; font-size: 70px;'>正确! </span>","null","html-keyboard-response","40","542990","0.0-7.0-1.0-1.0-0.0-1.15","4","4","4","3","3","4","4","3","4","3","4","5","5","4","4","5","5","4","4","4","2","1","1","2","2","1","1","1","2","0","1","0","0","1","1","0","0","1","0","0","1","0","1","0","4","2","5","1","1","4","5","4","5","2","634785034254942208","张","455","","","","","","","","","","","","","","","","","","","","","","","","","","","","","","feedback_test","","","","","","","","","",""
"848","","f","psychophysics","41","544839","0.0-7.0-1.0-1.0-0.0-0.16","4","4","4","3","3","4","4","3","4","3","4","5","5","4","4","5","5","4","4","4","2","1","1","2","2","1","1","1","2","0","1","0","0","1","1","0","0","1","0","0","1","0","1","0","4","2","5","1","1","4","5","4","5","2","634785034254942208","张","455","","","","nonmatch","","","","","","","","","","","","","","key","f","16.653554545454046","799.9999682108573","445.8333156175091","f","true","nonmatch","img/triangle.png","方形","三角","ALT1_2","prac_ALT1_2","","","","","","","","","",""
"null","<span style='color:GreenYellow; font-size: 70px;'>正确! </span>","null","html-keyboard-response","42","545341","0.0-7.0-1.0-1.0-0.0-1.16","4","4","4","3","3","4","4","3","4","3","4","5","5","4","4","5","5","4","4","4","2","1","1","2","2","1","1","1","2","0","1","0","0","1","1","0","0","1","0","0","1","0","1","0","4","2","5","1","1","4","5","4","5","2","634785034254942208","张","455","","","","","","","","","","","","","","","","","","","","","","","","","","","","","","feedback_test","","","","","","","","","",""
"null","","null","psychophysics","43","547545","0.0-7.0-1.0-1.0-0.0-0.17","4","4","4","3","3","4","4","3","4","3","4","5","5","4","4","5","5","4","4","4","2","1","1","2","2","1","1","1","2","0","1","0","0","1","1","0","0","1","0","0","1","0","1","0","4","2","5","1","1","4","5","4","5","2","634785034254942208","张","455","","","","null","","","","","","","","","","","","","","key","null","16.653969696969867","799.9999682108573","445.8333156175091","j","false","match","img/triangle.png","三角","三角","ALT1_2","prac_ALT1_2","","","","","","","","","",""
"null","<span class='add_' style='color:yellow; font-size: 70px;'> 太慢! </span>","null","html-keyboard-response","44","548050","0.0-7.0-1.0-1.0-0.0-1.17","4","4","4","3","3","4","4","3","4","3","4","5","5","4","4","5","5","4","4","4","2","1","1","2","2","1","1","1","2","0","1","0","0","1","1","0","0","1","0","0","1","0","1","0","4","2","5","1","1","4","5","4","5","2","634785034254942208","张","455","","","","","","","","","","","","","","","","","","","","","","","","","","","","","","feedback_test","","","","","","","","","",""
"663","","j","psychophysics","45","549714","0.0-7.0-1.0-1.0-0.0-0.18","4","4","4","3","3","4","4","3","4","3","4","5","5","4","4","5","5","4","4","4","2","1","1","2","2","1","1","1","2","0","1","0","0","1","1","0","0","1","0","0","1","0","1","0","4","2","5","1","1","4","5","4","5","2","634785034254942208","张","455","","","","match","","","","","","","","","","","","","","key","j","16.648636363636033","799.9999682108573","445.8333156175091","j","true","match","img/triangle.png","三角","三角","ALT1_2","prac_ALT1_2","","","","","","","","","",""
"null","<span style='color:GreenYellow; font-size: 70px;'>正确! </span>","null","html-keyboard-response","46","550216","0.0-7.0-1.0-1.0-0.0-1.18","4","4","4","3","3","4","4","3","4","3","4","5","5","4","4","5","5","4","4","4","2","1","1","2","2","1","1","1","2","0","1","0","0","1","1","0","0","1","0","0","1","0","1","0","4","2","5","1","1","4","5","4","5","2","634785034254942208","张","455","","","","","","","","","","","","","","","","","","","","","","","","","","","","","","feedback_test","","","","","","","","","",""
"661","","f","psychophysics","47","551879","0.0-7.0-1.0-1.0-0.0-0.19","4","4","4","3","3","4","4","3","4","3","4","5","5","4","4","5","5","4","4","4","2","1","1","2","2","1","1","1","2","0","1","0","0","1","1","0","0","1","0","0","1","0","1","0","4","2","5","1","1","4","5","4","5","2","634785034254942208","张","455","","","","nonmatch","","","","","","","","","","","","","","key","f","16.648525252525527","799.9999682108573","445.8333156175091","f","true","nonmatch","img/triangle.png","六边","三角","ALT1_2","prac_ALT1_2","","","","","","","","","",""
"null","<span style='color:GreenYellow; font-size: 70px;'>正确! </span>","null","html-keyboard-response","48","552379","0.0-7.0-1.0-1.0-0.0-1.19","4","4","4","3","3","4","4","3","4","3","4","5","5","4","4","5","5","4","4","4","2","1","1","2","2","1","1","1","2","0","1","0","0","1","1","0","0","1","0","0","1","0","1","0","4","2","5","1","1","4","5","4","5","2","634785034254942208","张","455","","","","","","","","","","","","","","","","","","","","","","","","","","","","","","feedback_test","","","","","","","","","",""
"685","","f","psychophysics","49","554066","0.0-7.0-1.0-1.0-0.0-0.20","4","4","4","3","3","4","4","3","4","3","4","5","5","4","4","5","5","4","4","4","2","1","1","2","2","1","1","1","2","0","1","0","0","1","1","0","0","1","0","0","1","0","1","0","4","2","5","1","1","4","5","4","5","2","634785034254942208","张","455","","","","nonmatch","","","","","","","","","","","","","","key","f","16.65353000000003","799.9999682108573","445.8333156175091","f","true","nonmatch","img/ellipse.png","三角","椭圆","ALT1_2","prac_ALT1_2","","","","","","","","","",""
"null","<span style='color:GreenYellow; font-size: 70px;'>正确! </span>","null","html-keyboard-response","50","554567","0.0-7.0-1.0-1.0-0.0-1.20","4","4","4","3","3","4","4","3","4","3","4","5","5","4","4","5","5","4","4","4","2","1","1","2","2","1","1","1","2","0","1","0","0","1","1","0","0","1","0","0","1","0","1","0","4","2","5","1","1","4","5","4","5","2","634785034254942208","张","455","","","","","","","","","","","","","","","","","","","","","","","","","","","","","","feedback_test","","","","","","","","","",""
"645","","j","psychophysics","51","556213","0.0-7.0-1.0-1.0-0.0-0.21","4","4","4","3","3","4","4","3","4","3","4","5","5","4","4","5","5","4","4","4","2","1","1","2","2","1","1","1","2","0","1","0","0","1","1","0","0","1","0","0","1","0","1","0","4","2","5","1","1","4","5","4","5","2","634785034254942208","张","455","","","","match","","","","","","","","","","","","","","key","j","16.65332653061297","799.9999682108573","445.8333156175091","j","true","match","img/square.png","方形","方形","ALT1_2","prac_ALT1_2","","","","","","","","","",""
"null","<span style='color:GreenYellow; font-size: 70px;'>正确! </span>","null","html-keyboard-response","52","556715","0.0-7.0-1.0-1.0-0.0-1.21","4","4","4","3","3","4","4","3","4","3","4","5","5","4","4","5","5","4","4","4","2","1","1","2","2","1","1","1","2","0","1","0","0","1","1","0","0","1","0","0","1","0","1","0","4","2","5","1","1","4","5","4","5","2","634785034254942208","张","455","","","","","","","","","","","","","","","","","","","","","","","","","","","","","","feedback_test","","","","","","","","","",""
"867","","f","psychophysics","53","558586","0.0-7.0-1.0-1.0-0.0-0.22","4","4","4","3","3","4","4","3","4","3","4","5","5","4","4","5","5","4","4","4","2","1","1","2","2","1","1","1","2","0","1","0","0","1","1","0","0","1","0","0","1","0","1","0","4","2","5","1","1","4","5","4","5","2","634785034254942208","张","455","","","","nonmatch","","","","","","","","","","","","","","key","f","16.65353571428568","799.9999682108573","445.8333156175091","j","false","match","img/hexagon.png","六边","六边","ALT1_2","prac_ALT1_2","","","","","","","","","",""
"null","<span style='color:red; font-size: 70px;'>错误! </span>","null","html-keyboard-response","54","559092","0.0-7.0-1.0-1.0-0.0-1.22","4","4","4","3","3","4","4","3","4","3","4","5","5","4","4","5","5","4","4","4","2","1","1","2","2","1","1","1","2","0","1","0","0","1","1","0","0","1","0","0","1","0","1","0","4","2","5","1","1","4","5","4","5","2","634785034254942208","张","455","","","","","","","","","","","","","","","","","","","","","","","","","","","","","","feedback_test","","","","","","","","","",""
"683","","j","psychophysics","55","560777","0.0-7.0-1.0-1.0-0.0-0.23","4","4","4","3","3","4","4","3","4","3","4","5","5","4","4","5","5","4","4","4","2","1","1","2","2","1","1","1","2","0","1","0","0","1","1","0","0","1","0","0","1","0","1","0","4","2","5","1","1","4","5","4","5","2","634785034254942208","张","455","","","","match","","","","","","","","","","","","","","key","j","16.649239999999992","799.9999682108573","445.8333156175091","j","true","match","img/ellipse.png","椭圆","椭圆","ALT1_2","prac_ALT1_2","","","","","","","","","",""
"null","<span style='color:GreenYellow; font-size: 70px;'>正确! </span>","null","html-keyboard-response","56","561279","0.0-7.0-1.0-1.0-0.0-1.23","4","4","4","3","3","4","4","3","4","3","4","5","5","4","4","5","5","4","4","4","2","1","1","2","2","1","1","1","2","0","1","0","0","1","1","0","0","1","0","0","1","0","1","0","4","2","5","1","1","4","5","4","5","2","634785034254942208","张","455","","","","","","","","","","","","","","","","","","","","","","","","","","","","","","feedback_test","","","","","","","","","",""
"675","","j","psychophysics","57","562956","0.0-7.0-1.0-1.0-0.0-0.24","4","4","4","3","3","4","4","3","4","3","4","5","5","4","4","5","5","4","4","4","2","1","1","2","2","1","1","1","2","0","1","0","0","1","1","0","0","1","0","0","1","0","1","0","4","2","5","1","1","4","5","4","5","2","634785034254942208","张","455","","","","match","","","","","","","","","","","","","","key","j","16.654199999999253","799.9999682108573","445.8333156175091","j","true","match","img/square.png","方形","方形","ALT1_2","prac_ALT1_2","","","","","","","","","",""
"null","<span style='color:GreenYellow; font-size: 70px;'>正确! </span>","null","html-keyboard-response","58","563457","0.0-7.0-1.0-1.0-0.0-1.24","4","4","4","3","3","4","4","3","4","3","4","5","5","4","4","5","5","4","4","4","2","1","1","2","2","1","1","1","2","0","1","0","0","1","1","0","0","1","0","0","1","0","1","0","4","2","5","1","1","4","5","4","5","2","634785034254942208","张","455","","","","","","","","","","","","","","","","","","","","","","","","","","","","","","feedback_test","","","","","","","","","",""
"684","","j","psychophysics","59","565143","0.0-7.0-1.0-1.0-0.0-0.25","4","4","4","3","3","4","4","3","4","3","4","5","5","4","4","5","5","4","4","4","2","1","1","2","2","1","1","1","2","0","1","0","0","1","1","0","0","1","0","0","1","0","1","0","4","2","5","1","1","4","5","4","5","2","634785034254942208","张","455","","","","match","","","","","","","","","","","","","","key","j","16.654560000000057","799.9999682108573","445.8333156175091","j","true","match","img/hexagon.png","六边","六边","ALT1_2","prac_ALT1_2","","","","","","","","","",""
"null","<span style='color:GreenYellow; font-size: 70px;'>正确! </span>","null","html-keyboard-response","60","565644","0.0-7.0-1.0-1.0-0.0-1.25","4","4","4","3","3","4","4","3","4","3","4","5","5","4","4","5","5","4","4","4","2","1","1","2","2","1","1","1","2","0","1","0","0","1","1","0","0","1","0","0","1","0","1","0","4","2","5","1","1","4","5","4","5","2","634785034254942208","张","455","","","","","","","","","","","","","","","","","","","","","","","","","","","","","","feedback_test","","","","","","","","","",""
"692","","j","psychophysics","61","567337","0.0-7.0-1.0-1.0-0.0-0.26","4","4","4","3","3","4","4","3","4","3","4","5","5","4","4","5","5","4","4","4","2","1","1","2","2","1","1","1","2","0","1","0","0","1","1","0","0","1","0","0","1","0","1","0","4","2","5","1","1","4","5","4","5","2","634785034254942208","张","455","","","","match","","","","","","","","","","","","","","key","j","16.652930000000634","799.9999682108573","445.8333156175091","j","true","match","img/ellipse.png","椭圆","椭圆","ALT1_2","prac_ALT1_2","","","","","","","","","",""
"null","<span style='color:GreenYellow; font-size: 70px;'>正确! </span>","null","html-keyboard-response","62","567838","0.0-7.0-1.0-1.0-0.0-1.26","4","4","4","3","3","4","4","3","4","3","4","5","5","4","4","5","5","4","4","4","2","1","1","2","2","1","1","1","2","0","1","0","0","1","1","0","0","1","0","0","1","0","1","0","4","2","5","1","1","4","5","4","5","2","634785034254942208","张","455","","","","","","","","","","","","","","","","","","","","","","","","","","","","","","feedback_test","","","","","","","","","",""
"765","","f","psychophysics","63","569605","0.0-7.0-1.0-1.0-0.0-0.27","4","4","4","3","3","4","4","3","4","3","4","5","5","4","4","5","5","4","4","4","2","1","1","2","2","1","1","1","2","0","1","0","0","1","1","0","0","1","0","0","1","0","1","0","4","2","5","1","1","4","5","4","5","2","634785034254942208","张","455","","","","nonmatch","","","","","","","","","","","","","","key","f","16.652942857142936","799.9999682108573","445.8333156175091","f","true","nonmatch","img/square.png","椭圆","方形","ALT1_2","prac_ALT1_2","","","","","","","","","",""
"null","<span style='color:GreenYellow; font-size: 70px;'>正确! </span>","null","html-keyboard-response","64","570116","0.0-7.0-1.0-1.0-0.0-1.27","4","4","4","3","3","4","4","3","4","3","4","5","5","4","4","5","5","4","4","4","2","1","1","2","2","1","1","1","2","0","1","0","0","1","1","0","0","1","0","0","1","0","1","0","4","2","5","1","1","4","5","4","5","2","634785034254942208","张","455","","","","","","","","","","","","","","","","","","","","","","","","","","","","","","feedback_test","","","","","","","","","",""
"712","","f","psychophysics","65","571829","0.0-7.0-1.0-1.0-0.0-0.28","4","4","4","3","3","4","4","3","4","3","4","5","5","4","4","5","5","4","4","4","2","1","1","2","2","1","1","1","2","0","1","0","0","1","1","0","0","1","0","0","1","0","1","0","4","2","5","1","1","4","5","4","5","2","634785034254942208","张","455","","","","nonmatch","","","","","","","","","","","","","","key","f","16.64998039215753","799.9999682108573","445.8333156175091","f","true","nonmatch","img/ellipse.png","方形","椭圆","ALT1_2","prac_ALT1_2","","","","","","","","","",""
"null","<span style='color:GreenYellow; font-size: 70px;'>正确! </span>","null","html-keyboard-response","66","572337","0.0-7.0-1.0-1.0-0.0-1.28","4","4","4","3","3","4","4","3","4","3","4","5","5","4","4","5","5","4","4","4","2","1","1","2","2","1","1","1","2","0","1","0","0","1","1","0","0","1","0","0","1","0","1","0","4","2","5","1","1","4","5","4","5","2","634785034254942208","张","455","","","","","","","","","","","","","","","","","","","","","","","","","","","","","","feedback_test","","","","","","","","","",""
"645","","f","psychophysics","67","573983","0.0-7.0-1.0-1.0-0.0-0.29","4","4","4","3","3","4","4","3","4","3","4","5","5","4","4","5","5","4","4","4","2","1","1","2","2","1","1","1","2","0","1","0","0","1","1","0","0","1","0","0","1","0","1","0","4","2","5","1","1","4","5","4","5","2","634785034254942208","张","455","","","","nonmatch","","","","","","","","","","","","","","key","f","16.653775510204746","799.9999682108573","445.8333156175091","f","true","nonmatch","img/triangle.png","椭圆","三角","ALT1_2","prac_ALT1_2","","","","","","","","","",""
"null","<span style='color:GreenYellow; font-size: 70px;'>正确! </span>","null","html-keyboard-response","68","574493","0.0-7.0-1.0-1.0-0.0-1.29","4","4","4","3","3","4","4","3","4","3","4","5","5","4","4","5","5","4","4","4","2","1","1","2","2","1","1","1","2","0","1","0","0","1","1","0","0","1","0","0","1","0","1","0","4","2","5","1","1","4","5","4","5","2","634785034254942208","张","455","","","","","","","","","","","","","","","","","","","","","","","","","","","","","","feedback_test","","","","","","","","","",""
"752","","j","psychophysics","69","576247","0.0-7.0-1.0-1.0-0.0-0.30","4","4","4","3","3","4","4","3","4","3","4","5","5","4","4","5","5","4","4","4","2","1","1","2","2","1","1","1","2","0","1","0","0","1","1","0","0","1","0","0","1","0","1","0","4","2","5","1","1","4","5","4","5","2","634785034254942208","张","455","","","","match","","","","","","","","","","","","","","key","j","16.653230769230642","799.9999682108573","445.8333156175091","j","true","match","img/triangle.png","三角","三角","ALT1_2","prac_ALT1_2","","","","","","","","","",""
"null","<span style='color:GreenYellow; font-size: 70px;'>正确! </span>","null","html-keyboard-response","70","576748","0.0-7.0-1.0-1.0-0.0-1.30","4","4","4","3","3","4","4","3","4","3","4","5","5","4","4","5","5","4","4","4","2","1","1","2","2","1","1","1","2","0","1","0","0","1","1","0","0","1","0","0","1","0","1","0","4","2","5","1","1","4","5","4","5","2","634785034254942208","张","455","","","","","","","","","","","","","","","","","","","","","","","","","","","","","","feedback_test","","","","","","","","","",""
"728","","f","psychophysics","71","578479","0.0-7.0-1.0-1.0-0.0-0.31","4","4","4","3","3","4","4","3","4","3","4","5","5","4","4","5","5","4","4","4","2","1","1","2","2","1","1","1","2","0","1","0","0","1","1","0","0","1","0","0","1","0","1","0","4","2","5","1","1","4","5","4","5","2","634785034254942208","张","455","","","","nonmatch","","","","","","","","","","","","","","key","f","16.653349514562382","799.9999682108573","445.8333156175091","f","true","nonmatch","img/triangle.png","方形","三角","ALT1_2","prac_ALT1_2","","","","","","","","","",""
"null","<span style='color:GreenYellow; font-size: 70px;'>正确! </span>","null","html-keyboard-response","72","578980","0.0-7.0-1.0-1.0-0.0-1.31","4","4","4","3","3","4","4","3","4","3","4","5","5","4","4","5","5","4","4","4","2","1","1","2","2","1","1","1","2","0","1","0","0","1","1","0","0","1","0","0","1","0","1","0","4","2","5","1","1","4","5","4","5","2","634785034254942208","张","455","","","","","","","","","","","","","","","","","","","","","","","","","","","","","","feedback_test","","","","","","","","","",""
"815","","j","psychophysics","73","580797","0.0-7.0-1.0-1.0-0.0-0.32","4","4","4","3","3","4","4","3","4","3","4","5","5","4","4","5","5","4","4","4","2","1","1","2","2","1","1","1","2","0","1","0","0","1","1","0","0","1","0","0","1","0","1","0","4","2","5","1","1","4","5","4","5","2","634785034254942208","张","455","","","","match","","","","","","","","","","","","","","key","j","16.653314814814454","799.9999682108573","445.8333156175091","j","true","match","img/triangle.png","三角","三角","ALT1_2","prac_ALT1_2","","","","","","","","","",""
"null","<span style='color:GreenYellow; font-size: 70px;'>正确! </span>","null","html-keyboard-response","74","581299","0.0-7.0-1.0-1.0-0.0-1.32","4","4","4","3","3","4","4","3","4","3","4","5","5","4","4","5","5","4","4","4","2","1","1","2","2","1","1","1","2","0","1","0","0","1","1","0","0","1","0","0","1","0","1","0","4","2","5","1","1","4","5","4","5","2","634785034254942208","张","455","","","","","","","","","","","","","","","","","","","","","","","","","","","","","","feedback_test","","","","","","","","","",""
"null","","null","psychophysics","75","583503","0.0-7.0-1.0-1.0-0.0-0.33","4","4","4","3","3","4","4","3","4","3","4","5","5","4","4","5","5","4","4","4","2","1","1","2","2","1","1","1","2","0","1","0","0","1","1","0","0","1","0","0","1","0","1","0","4","2","5","1","1","4","5","4","5","2","634785034254942208","张","455","","","","null","","","","","","","","","","","","","","key","null","16.65329007633592","799.9999682108573","445.8333156175091","f","false","nonmatch","img/triangle.png","六边","三角","ALT1_2","prac_ALT1_2","","","","","","","","","",""
"null","<span class='add_' style='color:yellow; font-size: 70px;'> 太慢! </span>","null","html-keyboard-response","76","584004","0.0-7.0-1.0-1.0-0.0-1.33","4","4","4","3","3","4","4","3","4","3","4","5","5","4","4","5","5","4","4","4","2","1","1","2","2","1","1","1","2","0","1","0","0","1","1","0","0","1","0","0","1","0","1","0","4","2","5","1","1","4","5","4","5","2","634785034254942208","张","455","","","","","","","","","","","","","","","","","","","","","","","","","","","","","","feedback_test","","","","","","","","","",""
"784","","j","psychophysics","77","585790","0.0-7.0-1.0-1.0-0.0-0.34","4","4","4","3","3","4","4","3","4","3","4","5","5","4","4","5","5","4","4","4","2","1","1","2","2","1","1","1","2","0","1","0","0","1","1","0","0","1","0","0","1","0","1","0","4","2","5","1","1","4","5","4","5","2","634785034254942208","张","455","","","","match","","","","","","","","","","","","","","key","j","16.653443396226546","799.9999682108573","445.8333156175091","j","true","match","img/hexagon.png","六边","六边","ALT1_2","prac_ALT1_2","","","","","","","","","",""
"null","<span style='color:GreenYellow; font-size: 70px;'>正确! </span>","null","html-keyboard-response","78","586290","0.0-7.0-1.0-1.0-0.0-1.34","4","4","4","3","3","4","4","3","4","3","4","5","5","4","4","5","5","4","4","4","2","1","1","2","2","1","1","1","2","0","1","0","0","1","1","0","0","1","0","0","1","0","1","0","4","2","5","1","1","4","5","4","5","2","634785034254942208","张","455","","","","","","","","","","","","","","","","","","","","","","","","","","","","","","feedback_test","","","","","","","","","",""
"790","","j","psychophysics","79","588082","0.0-7.0-1.0-1.0-0.0-0.35","4","4","4","3","3","4","4","3","4","3","4","5","5","4","4","5","5","4","4","4","2","1","1","2","2","1","1","1","2","0","1","0","0","1","1","0","0","1","0","0","1","0","1","0","4","2","5","1","1","4","5","4","5","2","634785034254942208","张","455","","","","match","","","","","","","","","","","","","","key","j","16.653196261683263","799.9999682108573","445.8333156175091","f","false","nonmatch","img/hexagon.png","方形","六边","ALT1_2","prac_ALT1_2","","","","","","","","","",""
"null","<span style='color:red; font-size: 70px;'>错误! </span>","null","html-keyboard-response","80","588584","0.0-7.0-1.0-1.0-0.0-1.35","4","4","4","3","3","4","4","3","4","3","4","5","5","4","4","5","5","4","4","4","2","1","1","2","2","1","1","1","2","0","1","0","0","1","1","0","0","1","0","0","1","0","1","0","4","2","5","1","1","4","5","4","5","2","634785034254942208","张","455","","","","","","","","","","","","","","","","","","","","","","","","","","","","","","feedback_test","","","","","","","","","",""
"674","","j","psychophysics","81","590261","0.0-7.0-1.0-1.0-0.0-0.36","4","4","4","3","3","4","4","3","4","3","4","5","5","4","4","5","5","4","4","4","2","1","1","2","2","1","1","1","2","0","1","0","0","1","1","0","0","1","0","0","1","0","1","0","4","2","5","1","1","4","5","4","5","2","634785034254942208","张","455","","","","match","","","","","","","","","","","","","","key","j","16.654370000000345","799.9999682108573","445.8333156175091","j","true","match","img/hexagon.png","六边","六边","ALT1_2","prac_ALT1_2","","","","","","","","","",""
"null","<span style='color:GreenYellow; font-size: 70px;'>正确! </span>","null","html-keyboard-response","82","590764","0.0-7.0-1.0-1.0-0.0-1.36","4","4","4","3","3","4","4","3","4","3","4","5","5","4","4","5","5","4","4","4","2","1","1","2","2","1","1","1","2","0","1","0","0","1","1","0","0","1","0","0","1","0","1","0","4","2","5","1","1","4","5","4","5","2","634785034254942208","张","455","","","","","","","","","","","","","","","","","","","","","","","","","","","","","","feedback_test","","","","","","","","","",""
"788","","f","psychophysics","83","592554","0.0-7.0-1.0-1.0-0.0-0.37","4","4","4","3","3","4","4","3","4","3","4","5","5","4","4","5","5","4","4","4","2","1","1","2","2","1","1","1","2","0","1","0","0","1","1","0","0","1","0","0","1","0","1","0","4","2","5","1","1","4","5","4","5","2","634785034254942208","张","455","","","","nonmatch","","","","","","","","","","","","","","key","f","16.654415094339782","799.9999682108573","445.8333156175091","f","true","nonmatch","img/ellipse.png","六边","椭圆","ALT1_2","prac_ALT1_2","","","","","","","","","",""
"null","<span style='color:GreenYellow; font-size: 70px;'>正确! </span>","null","html-keyboard-response","84","593055","0.0-7.0-1.0-1.0-0.0-1.37","4","4","4","3","3","4","4","3","4","3","4","5","5","4","4","5","5","4","4","4","2","1","1","2","2","1","1","1","2","0","1","0","0","1","1","0","0","1","0","0","1","0","1","0","4","2","5","1","1","4","5","4","5","2","634785034254942208","张","455","","","","","","","","","","","","","","","","","","","","","","","","","","","","","","feedback_test","","","","","","","","","",""
"478","","f","psychophysics","85","594535","0.0-7.0-1.0-1.0-0.0-0.38","4","4","4","3","3","4","4","3","4","3","4","5","5","4","4","5","5","4","4","4","2","1","1","2","2","1","1","1","2","0","1","0","0","1","1","0","0","1","0","0","1","0","1","0","4","2","5","1","1","4","5","4","5","2","634785034254942208","张","455","","","","nonmatch","","","","","","","","","","","","","","key","f","16.654011494252597","799.9999682108573","445.8333156175091","j","false","match","img/ellipse.png","椭圆","椭圆","ALT1_2","prac_ALT1_2","","","","","","","","","",""
"null","<span style='color:red; font-size: 70px;'>错误! </span>","null","html-keyboard-response","86","595036","0.0-7.0-1.0-1.0-0.0-1.38","4","4","4","3","3","4","4","3","4","3","4","5","5","4","4","5","5","4","4","4","2","1","1","2","2","1","1","1","2","0","1","0","0","1","1","0","0","1","0","0","1","0","1","0","4","2","5","1","1","4","5","4","5","2","634785034254942208","张","455","","","","","","","","","","","","","","","","","","","","","","","","","","","","","","feedback_test","","","","","","","","","",""
"null","","null","psychophysics","87","597241","0.0-7.0-1.0-1.0-0.0-0.39","4","4","4","3","3","4","4","3","4","3","4","5","5","4","4","5","5","4","4","4","2","1","1","2","2","1","1","1","2","0","1","0","0","1","1","0","0","1","0","0","1","0","1","0","4","2","5","1","1","4","5","4","5","2","634785034254942208","张","455","","","","null","","","","","","","","","","","","","","key","null","16.649931297710392","799.9999682108573","445.8333156175091","j","false","match","img/triangle.png","三角","三角","ALT1_2","prac_ALT1_2","","","","","","","","","",""
"null","<span class='add_' style='color:yellow; font-size: 70px;'> 太慢! </span>","null","html-keyboard-response","88","597743","0.0-7.0-1.0-1.0-0.0-1.39","4","4","4","3","3","4","4","3","4","3","4","5","5","4","4","5","5","4","4","4","2","1","1","2","2","1","1","1","2","0","1","0","0","1","1","0","0","1","0","0","1","0","1","0","4","2","5","1","1","4","5","4","5","2","634785034254942208","张","455","","","","","","","","","","","","","","","","","","","","","","","","","","","","","","feedback_test","","","","","","","","","",""
"650","","j","psychophysics","89","599395","0.0-7.0-1.0-1.0-0.0-0.40","4","4","4","3","3","4","4","3","4","3","4","5","5","4","4","5","5","4","4","4","2","1","1","2","2","1","1","1","2","0","1","0","0","1","1","0","0","1","0","0","1","0","1","0","4","2","5","1","1","4","5","4","5","2","634785034254942208","张","455","","","","match","","","","","","","","","","","","","","key","j","16.653234693877476","799.9999682108573","445.8333156175091","j","true","match","img/ellipse.png","椭圆","椭圆","ALT1_2","prac_ALT1_2","","","","","","","","","",""
"null","<span style='color:GreenYellow; font-size: 70px;'>正确! </span>","null","html-keyboard-response","90","599895","0.0-7.0-1.0-1.0-0.0-1.40","4","4","4","3","3","4","4","3","4","3","4","5","5","4","4","5","5","4","4","4","2","1","1","2","2","1","1","1","2","0","1","0","0","1","1","0","0","1","0","0","1","0","1","0","4","2","5","1","1","4","5","4","5","2","634785034254942208","张","455","","","","","","","","","","","","","","","","","","","","","","","","","","","","","","feedback_test","","","","","","","","","",""
"677","","j","psychophysics","91","601574","0.0-7.0-1.0-1.0-0.0-0.41","4","4","4","3","3","4","4","3","4","3","4","5","5","4","4","5","5","4","4","4","2","1","1","2","2","1","1","1","2","0","1","0","0","1","1","0","0","1","0","0","1","0","1","0","4","2","5","1","1","4","5","4","5","2","634785034254942208","张","455","","","","match","","","","","","","","","","","","","","key","j","16.65435999999987","799.9999682108573","445.8333156175091","j","true","match","img/square.png","方形","方形","ALT1_2","prac_ALT1_2","","","","","","","","","",""
"null","<span style='color:GreenYellow; font-size: 70px;'>正确! </span>","null","html-keyboard-response","92","602075","0.0-7.0-1.0-1.0-0.0-1.41","4","4","4","3","3","4","4","3","4","3","4","5","5","4","4","5","5","4","4","4","2","1","1","2","2","1","1","1","2","0","1","0","0","1","1","0","0","1","0","0","1","0","1","0","4","2","5","1","1","4","5","4","5","2","634785034254942208","张","455","","","","","","","","","","","","","","","","","","","","","","","","","","","","","","feedback_test","","","","","","","","","",""
"842","","f","psychophysics","93","603919","0.0-7.0-1.0-1.0-0.0-0.42","4","4","4","3","3","4","4","3","4","3","4","5","5","4","4","5","5","4","4","4","2","1","1","2","2","1","1","1","2","0","1","0","0","1","1","0","0","1","0","0","1","0","1","0","4","2","5","1","1","4","5","4","5","2","634785034254942208","张","455","","","","nonmatch","","","","","","","","","","","","","","key","f","16.65458181818143","799.9999682108573","445.8333156175091","f","true","nonmatch","img/square.png","六边","方形","ALT1_2","prac_ALT1_2","","","","","","","","","",""
"null","<span style='color:GreenYellow; font-size: 70px;'>正确! </span>","null","html-keyboard-response","94","604420","0.0-7.0-1.0-1.0-0.0-1.42","4","4","4","3","3","4","4","3","4","3","4","5","5","4","4","5","5","4","4","4","2","1","1","2","2","1","1","1","2","0","1","0","0","1","1","0","0","1","0","0","1","0","1","0","4","2","5","1","1","4","5","4","5","2","634785034254942208","张","455","","","","","","","","","","","","","","","","","","","","","","","","","","","","","","feedback_test","","","","","","","","","",""
"798","","j","psychophysics","95","606220","0.0-7.0-1.0-1.0-0.0-0.43","4","4","4","3","3","4","4","3","4","3","4","5","5","4","4","5","5","4","4","4","2","1","1","2","2","1","1","1","2","0","1","0","0","1","1","0","0","1","0","0","1","0","1","0","4","2","5","1","1","4","5","4","5","2","634785034254942208","张","455","","","","match","","","","","","","","","","","","","","key","j","16.650579439252006","799.9999682108573","445.8333156175091","j","true","match","img/square.png","方形","方形","ALT1_2","prac_ALT1_2","","","","","","","","","",""
"null","<span style='color:GreenYellow; font-size: 70px;'>正确! </span>","null","html-keyboard-response","96","606722","0.0-7.0-1.0-1.0-0.0-1.43","4","4","4","3","3","4","4","3","4","3","4","5","5","4","4","5","5","4","4","4","2","1","1","2","2","1","1","1","2","0","1","0","0","1","1","0","0","1","0","0","1","0","1","0","4","2","5","1","1","4","5","4","5","2","634785034254942208","张","455","","","","","","","","","","","","","","","","","","","","","","","","","","","","","","feedback_test","","","","","","","","","",""
"832","","f","psychophysics","97","608556","0.0-7.0-1.0-1.0-0.0-0.44","4","4","4","3","3","4","4","3","4","3","4","5","5","4","4","5","5","4","4","4","2","1","1","2","2","1","1","1","2","0","1","0","0","1","1","0","0","1","0","0","1","0","1","0","4","2","5","1","1","4","5","4","5","2","634785034254942208","张","455","","","","nonmatch","","","","","","","","","","","","","","key","f","16.653587155963653","799.9999682108573","445.8333156175091","f","true","nonmatch","img/hexagon.png","三角","六边","ALT1_2","prac_ALT1_2","","","","","","","","","",""
"null","<span style='color:GreenYellow; font-size: 70px;'>正确! </span>","null","html-keyboard-response","98","609058","0.0-7.0-1.0-1.0-0.0-1.44","4","4","4","3","3","4","4","3","4","3","4","5","5","4","4","5","5","4","4","4","2","1","1","2","2","1","1","1","2","0","1","0","0","1","1","0","0","1","0","0","1","0","1","0","4","2","5","1","1","4","5","4","5","2","634785034254942208","张","455","","","","","","","","","","","","","","","","","","","","","","","","","","","","","","feedback_test","","","","","","","","","",""
"694","","f","psychophysics","99","610754","0.0-7.0-1.0-1.0-0.0-0.45","4","4","4","3","3","4","4","3","4","3","4","5","5","4","4","5","5","4","4","4","2","1","1","2","2","1","1","1","2","0","1","0","0","1","1","0","0","1","0","0","1","0","1","0","4","2","5","1","1","4","5","4","5","2","634785034254942208","张","455","","","","nonmatch","","","","","","","","","","","","","","key","f","16.654319999999135","799.9999682108573","445.8333156175091","f","true","nonmatch","img/square.png","三角","方形","ALT1_2","prac_ALT1_2","","","","","","","","","",""
"null","<span style='color:GreenYellow; font-size: 70px;'>正确! </span>","null","html-keyboard-response","100","611255","0.0-7.0-1.0-1.0-0.0-1.45","4","4","4","3","3","4","4","3","4","3","4","5","5","4","4","5","5","4","4","4","2","1","1","2","2","1","1","1","2","0","1","0","0","1","1","0","0","1","0","0","1","0","1","0","4","2","5","1","1","4","5","4","5","2","634785034254942208","张","455","","","","","","","","","","","","","","","","","","","","","","","","","","","","","","feedback_test","","","","","","","","","",""
"564","","f","psychophysics","101","612820","0.0-7.0-1.0-1.0-0.0-0.46","4","4","4","3","3","4","4","3","4","3","4","5","5","4","4","5","5","4","4","4","2","1","1","2","2","1","1","1","2","0","1","0","0","1","1","0","0","1","0","0","1","0","1","0","4","2","5","1","1","4","5","4","5","2","634785034254942208","张","455","","","","nonmatch","","","","","","","","","","","","","","key","f","16.653623655912845","799.9999682108573","445.8333156175091","f","true","nonmatch","img/hexagon.png","椭圆","六边","ALT1_2","prac_ALT1_2","","","","","","","","","",""
"null","<span style='color:GreenYellow; font-size: 70px;'>正确! </span>","null","html-keyboard-response","102","613322","0.0-7.0-1.0-1.0-0.0-1.46","4","4","4","3","3","4","4","3","4","3","4","5","5","4","4","5","5","4","4","4","2","1","1","2","2","1","1","1","2","0","1","0","0","1","1","0","0","1","0","0","1","0","1","0","4","2","5","1","1","4","5","4","5","2","634785034254942208","张","455","","","","","","","","","","","","","","","","","","","","","","","","","","","","","","feedback_test","","","","","","","","","",""
"770","","f","psychophysics","103","615093","0.0-7.0-1.0-1.0-0.0-0.47","4","4","4","3","3","4","4","3","4","3","4","5","5","4","4","5","5","4","4","4","2","1","1","2","2","1","1","1","2","0","1","0","0","1","1","0","0","1","0","0","1","0","1","0","4","2","5","1","1","4","5","4","5","2","634785034254942208","张","455","","","","nonmatch","","","","","","","","","","","","","","key","f","16.65384761904854","799.9999682108573","445.8333156175091","f","true","nonmatch","img/ellipse.png","三角","椭圆","ALT1_2","prac_ALT1_2","","","","","","","","","",""
"null","<span style='color:GreenYellow; font-size: 70px;'>正确! </span>","null","html-keyboard-response","104","615595","0.0-7.0-1.0-1.0-0.0-1.47","4","4","4","3","3","4","4","3","4","3","4","5","5","4","4","5","5","4","4","4","2","1","1","2","2","1","1","1","2","0","1","0","0","1","1","0","0","1","0","0","1","0","1","0","4","2","5","1","1","4","5","4","5","2","634785034254942208","张","455","","","","","","","","","","","","","","","","","","","","","","","","","","","","","","feedback_test","","","","","","","","","",""
"14924","<style>.context{color:white; font-size: 35px; line-height:40px}</style>                          <div><p class='context'>您正确回答了88% 的试次。</p><p class='context'>您的平均反应时为744毫秒。</p><p class='context'>恭喜您完成练习。按空格键进入正式实验。</p><p class='footer' style='font-size: 35px; line-height:40px;'>请在进入正式实验实验之前将您的<span style='color: lightgreen;'>食指</span>放在电脑键盘的相应键位上进行按键。</p>"," ","html-keyboard-response","105","630521","0.0-7.0-1.0-2.0","4","4","4","3","3","4","4","3","4","3","4","5","5","4","4","5","5","4","4","4","2","1","1","2","2","1","1","1","2","0","1","0","0","1","1","0","0","1","0","0","1","0","1","0","4","2","5","1","1","4","5","4","5","2","634785034254942208","张","455","","","","","","","","","","","","","","","","","","","","","","","","","","","","","","","","","","","","","","","",""
"876","
  <p style='color: white; font-size: 22px'>请您将手指放在按键上，准备进入正式的匹配任务。</p>
  <p> <div style = ""color: green""><按空格键进入下一阶段的匹配任务></div></p>
  "," ","html-keyboard-response","106","631403","0.0-7.0-1.0-3.0","4","4","4","3","3","4","4","3","4","3","4","5","5","4","4","5","5","4","4","4","2","1","1","2","2","1","1","1","2","0","1","0","0","1","1","0","0","1","0","0","1","0","1","0","4","2","5","1","1","4","5","4","5","2","634785034254942208","张","455","","","","","","","","","","","","","","","","","","","","","","","","","","","","","","","","","","","","","","","",""
"681","","f","psychophysics","107","633085","0.0-7.0-1.0-4.0-0.0-0.0","4","4","4","3","3","4","4","3","4","3","4","5","5","4","4","5","5","4","4","4","2","1","1","2","2","1","1","1","2","0","1","0","0","1","1","0","0","1","0","0","1","0","1","0","4","2","5","1","1","4","5","4","5","2","634785034254942208","张","455","","","","nonmatch","","","","","","","","","","","","","","key","f","16.6528600000008","799.9999682108573","445.8333156175091","f","true","nonmatch","img/square.png","六边","方形","ALT1","formal_ALT1_2","","","","","","","","","",""
"null","<span style='color:GreenYellow; font-size: 70px;'>正确! </span>","null","html-keyboard-response","108","633586","0.0-7.0-1.0-4.0-0.0-1.0","4","4","4","3","3","4","4","3","4","3","4","5","5","4","4","5","5","4","4","4","2","1","1","2","2","1","1","1","2","0","1","0","0","1","1","0","0","1","0","0","1","0","1","0","4","2","5","1","1","4","5","4","5","2","634785034254942208","张","455","","","","","","","","","","","","","","","","","","","","","","","","","","","","","","feedback_test","","","","","","","","","",""
"807","","j","psychophysics","109","635393","0.0-7.0-1.0-4.0-0.0-0.1","4","4","4","3","3","4","4","3","4","3","4","5","5","4","4","5","5","4","4","4","2","1","1","2","2","1","1","1","2","0","1","0","0","1","1","0","0","1","0","0","1","0","1","0","4","2","5","1","1","4","5","4","5","2","634785034254942208","张","455","","","","match","","","","","","","","","","","","","","key","j","16.653601851852187","799.9999682108573","445.8333156175091","j","true","match","img/hexagon.png","六边","六边","ALT1","formal_ALT1_2","","","","","","","","","",""
"null","<span style='color:GreenYellow; font-size: 70px;'>正确! </span>","null","html-keyboard-response","110","635894","0.0-7.0-1.0-4.0-0.0-1.1","4","4","4","3","3","4","4","3","4","3","4","5","5","4","4","5","5","4","4","4","2","1","1","2","2","1","1","1","2","0","1","0","0","1","1","0","0","1","0","0","1","0","1","0","4","2","5","1","1","4","5","4","5","2","634785034254942208","张","455","","","","","","","","","","","","","","","","","","","","","","","","","","","","","","feedback_test","","","","","","","","","",""
"632","","f","psychophysics","111","637528","0.0-7.0-1.0-4.0-0.0-0.2","4","4","4","3","3","4","4","3","4","3","4","5","5","4","4","5","5","4","4","4","2","1","1","2","2","1","1","1","2","0","1","0","0","1","1","0","0","1","0","0","1","0","1","0","4","2","5","1","1","4","5","4","5","2","634785034254942208","张","455","","","","nonmatch","","","","","","","","","","","","","","key","f","16.65162886597922","799.9999682108573","445.8333156175091","f","true","nonmatch","img/square.png","椭圆","方形","ALT1","formal_ALT1_2","","","","","","","","","",""
"null","<span style='color:GreenYellow; font-size: 70px;'>正确! </span>","null","html-keyboard-response","112","638029","0.0-7.0-1.0-4.0-0.0-1.2","4","4","4","3","3","4","4","3","4","3","4","5","5","4","4","5","5","4","4","4","2","1","1","2","2","1","1","1","2","0","1","0","0","1","1","0","0","1","0","0","1","0","1","0","4","2","5","1","1","4","5","4","5","2","634785034254942208","张","455","","","","","","","","","","","","","","","","","","","","","","","","","","","","","","feedback_test","","","","","","","","","",""
"682","","f","psychophysics","113","639713","0.0-7.0-1.0-4.0-0.0-0.3","4","4","4","3","3","4","4","3","4","3","4","5","5","4","4","5","5","4","4","4","2","1","1","2","2","1","1","1","2","0","1","0","0","1","1","0","0","1","0","0","1","0","1","0","4","2","5","1","1","4","5","4","5","2","634785034254942208","张","455","","","","nonmatch","","","","","","","","","","","","","","key","f","16.648850000000092","799.9999682108573","445.8333156175091","f","true","nonmatch","img/hexagon.png","三角","六边","ALT1","formal_ALT1_2","","","","","","","","","",""
"null","<span style='color:GreenYellow; font-size: 70px;'>正确! </span>","null","html-keyboard-response","114","640214","0.0-7.0-1.0-4.0-0.0-1.3","4","4","4","3","3","4","4","3","4","3","4","5","5","4","4","5","5","4","4","4","2","1","1","2","2","1","1","1","2","0","1","0","0","1","1","0","0","1","0","0","1","0","1","0","4","2","5","1","1","4","5","4","5","2","634785034254942208","张","455","","","","","","","","","","","","","","","","","","","","","","","","","","","","","","feedback_test","","","","","","","","","",""
"673","","j","psychophysics","115","641889","0.0-7.0-1.0-4.0-0.0-0.4","4","4","4","3","3","4","4","3","4","3","4","5","5","4","4","5","5","4","4","4","2","1","1","2","2","1","1","1","2","0","1","0","0","1","1","0","0","1","0","0","1","0","1","0","4","2","5","1","1","4","5","4","5","2","634785034254942208","张","455","","","","match","","","","","","","","","","","","","","key","j","16.654309999999825","799.9999682108573","445.8333156175091","j","true","match","img/triangle.png","三角","三角","ALT1","formal_ALT1_2","","","","","","","","","",""
"null","<span style='color:GreenYellow; font-size: 70px;'>正确! </span>","null","html-keyboard-response","116","642390","0.0-7.0-1.0-4.0-0.0-1.4","4","4","4","3","3","4","4","3","4","3","4","5","5","4","4","5","5","4","4","4","2","1","1","2","2","1","1","1","2","0","1","0","0","1","1","0","0","1","0","0","1","0","1","0","4","2","5","1","1","4","5","4","5","2","634785034254942208","张","455","","","","","","","","","","","","","","","","","","","","","","","","","","","","","","feedback_test","","","","","","","","","",""
"921","","j","psychophysics","117","644313","0.0-7.0-1.0-4.0-0.0-0.5","4","4","4","3","3","4","4","3","4","3","4","5","5","4","4","5","5","4","4","4","2","1","1","2","2","1","1","1","2","0","1","0","0","1","1","0","0","1","0","0","1","0","1","0","4","2","5","1","1","4","5","4","5","2","634785034254942208","张","455","","","","match","","","","","","","","","","","","","","key","j","16.65261403508709","799.9999682108573","445.8333156175091","j","true","match","img/square.png","方形","方形","ALT1","formal_ALT1_2","","","","","","","","","",""
"null","<span style='color:GreenYellow; font-size: 70px;'>正确! </span>","null","html-keyboard-response","118","644815","0.0-7.0-1.0-4.0-0.0-1.5","4","4","4","3","3","4","4","3","4","3","4","5","5","4","4","5","5","4","4","4","2","1","1","2","2","1","1","1","2","0","1","0","0","1","1","0","0","1","0","0","1","0","1","0","4","2","5","1","1","4","5","4","5","2","634785034254942208","张","455","","","","","","","","","","","","","","","","","","","","","","","","","","","","","","feedback_test","","","","","","","","","",""
"684","","f","psychophysics","119","646501","0.0-7.0-1.0-4.0-0.0-0.6","4","4","4","3","3","4","4","3","4","3","4","5","5","4","4","5","5","4","4","4","2","1","1","2","2","1","1","1","2","0","1","0","0","1","1","0","0","1","0","0","1","0","1","0","4","2","5","1","1","4","5","4","5","2","634785034254942208","张","455","","","","nonmatch","","","","","","","","","","","","","","key","f","16.65402999999933","799.9999682108573","445.8333156175091","f","true","nonmatch","img/triangle.png","椭圆","三角","ALT1","formal_ALT1_2","","","","","","","","","",""
"null","<span style='color:GreenYellow; font-size: 70px;'>正确! </span>","null","html-keyboard-response","120","647002","0.0-7.0-1.0-4.0-0.0-1.6","4","4","4","3","3","4","4","3","4","3","4","5","5","4","4","5","5","4","4","4","2","1","1","2","2","1","1","1","2","0","1","0","0","1","1","0","0","1","0","0","1","0","1","0","4","2","5","1","1","4","5","4","5","2","634785034254942208","张","455","","","","","","","","","","","","","","","","","","","","","","","","","","","","","","feedback_test","","","","","","","","","",""
"621","","j","psychophysics","121","648625","0.0-7.0-1.0-4.0-0.0-0.7","4","4","4","3","3","4","4","3","4","3","4","5","5","4","4","5","5","4","4","4","2","1","1","2","2","1","1","1","2","0","1","0","0","1","1","0","0","1","0","0","1","0","1","0","4","2","5","1","1","4","5","4","5","2","634785034254942208","张","455","","","","match","","","","","","","","","","","","","","key","j","16.653447916666966","799.9999682108573","445.8333156175091","j","true","match","img/ellipse.png","椭圆","椭圆","ALT1","formal_ALT1_2","","","","","","","","","",""
"null","<span style='color:GreenYellow; font-size: 70px;'>正确! </span>","null","html-keyboard-response","122","649126","0.0-7.0-1.0-4.0-0.0-1.7","4","4","4","3","3","4","4","3","4","3","4","5","5","4","4","5","5","4","4","4","2","1","1","2","2","1","1","1","2","0","1","0","0","1","1","0","0","1","0","0","1","0","1","0","4","2","5","1","1","4","5","4","5","2","634785034254942208","张","455","","","","","","","","","","","","","","","","","","","","","","","","","","","","","","feedback_test","","","","","","","","","",""
"720","","f","psychophysics","123","650848","0.0-7.0-1.0-4.0-0.0-0.8","4","4","4","3","3","4","4","3","4","3","4","5","5","4","4","5","5","4","4","4","2","1","1","2","2","1","1","1","2","0","1","0","0","1","1","0","0","1","0","0","1","0","1","0","4","2","5","1","1","4","5","4","5","2","634785034254942208","张","455","","","","nonmatch","","","","","","","","","","","","","","key","f","16.6541960784314","799.9999682108573","445.8333156175091","f","true","nonmatch","img/triangle.png","六边","三角","ALT1","formal_ALT1_2","","","","","","","","","",""
"null","<span style='color:GreenYellow; font-size: 70px;'>正确! </span>","null","html-keyboard-response","124","651351","0.0-7.0-1.0-4.0-0.0-1.8","4","4","4","3","3","4","4","3","4","3","4","5","5","4","4","5","5","4","4","4","2","1","1","2","2","1","1","1","2","0","1","0","0","1","1","0","0","1","0","0","1","0","1","0","4","2","5","1","1","4","5","4","5","2","634785034254942208","张","455","","","","","","","","","","","","","","","","","","","","","","","","","","","","","","feedback_test","","","","","","","","","",""
"652","","f","psychophysics","125","653005","0.0-7.0-1.0-4.0-0.0-0.9","4","4","4","3","3","4","4","3","4","3","4","5","5","4","4","5","5","4","4","4","2","1","1","2","2","1","1","1","2","0","1","0","0","1","1","0","0","1","0","0","1","0","1","0","4","2","5","1","1","4","5","4","5","2","634785034254942208","张","455","","","","nonmatch","","","","","","","","","","","","","","key","f","16.648499999999554","799.9999682108573","445.8333156175091","f","true","nonmatch","img/ellipse.png","三角","椭圆","ALT1","formal_ALT1_2","","","","","","","","","",""
"null","<span style='color:GreenYellow; font-size: 70px;'>正确! </span>","null","html-keyboard-response","126","653507","0.0-7.0-1.0-4.0-0.0-1.9","4","4","4","3","3","4","4","3","4","3","4","5","5","4","4","5","5","4","4","4","2","1","1","2","2","1","1","1","2","0","1","0","0","1","1","0","0","1","0","0","1","0","1","0","4","2","5","1","1","4","5","4","5","2","634785034254942208","张","455","","","","","","","","","","","","","","","","","","","","","","","","","","","","","","feedback_test","","","","","","","","","",""
"780","","f","psychophysics","127","655291","0.0-7.0-1.0-4.0-0.0-0.10","4","4","4","3","3","4","4","3","4","3","4","5","5","4","4","5","5","4","4","4","2","1","1","2","2","1","1","1","2","0","1","0","0","1","1","0","0","1","0","0","1","0","1","0","4","2","5","1","1","4","5","4","5","2","634785034254942208","张","455","","","","nonmatch","","","","","","","","","","","","","","key","f","16.65393396226452","799.9999682108573","445.8333156175091","f","true","nonmatch","img/triangle.png","方形","三角","ALT1","formal_ALT1_2","","","","","","","","","",""
"null","<span style='color:GreenYellow; font-size: 70px;'>正确! </span>","null","html-keyboard-response","128","655794","0.0-7.0-1.0-4.0-0.0-1.10","4","4","4","3","3","4","4","3","4","3","4","5","5","4","4","5","5","4","4","4","2","1","1","2","2","1","1","1","2","0","1","0","0","1","1","0","0","1","0","0","1","0","1","0","4","2","5","1","1","4","5","4","5","2","634785034254942208","张","455","","","","","","","","","","","","","","","","","","","","","","","","","","","","","","feedback_test","","","","","","","","","",""
"715","","j","psychophysics","129","657510","0.0-7.0-1.0-4.0-0.0-0.11","4","4","4","3","3","4","4","3","4","3","4","5","5","4","4","5","5","4","4","4","2","1","1","2","2","1","1","1","2","0","1","0","0","1","1","0","0","1","0","0","1","0","1","0","4","2","5","1","1","4","5","4","5","2","634785034254942208","张","455","","","","match","","","","","","","","","","","","","","key","j","16.653607843136733","799.9999682108573","445.8333156175091","j","true","match","img/ellipse.png","椭圆","椭圆","ALT1","formal_ALT1_2","","","","","","","","","",""
"null","<span style='color:GreenYellow; font-size: 70px;'>正确! </span>","null","html-keyboard-response","130","658011","0.0-7.0-1.0-4.0-0.0-1.11","4","4","4","3","3","4","4","3","4","3","4","5","5","4","4","5","5","4","4","4","2","1","1","2","2","1","1","1","2","0","1","0","0","1","1","0","0","1","0","0","1","0","1","0","4","2","5","1","1","4","5","4","5","2","634785034254942208","张","455","","","","","","","","","","","","","","","","","","","","","","","","","","","","","","feedback_test","","","","","","","","","",""
"661","","f","psychophysics","131","659674","0.0-7.0-1.0-4.0-0.0-0.12","4","4","4","3","3","4","4","3","4","3","4","5","5","4","4","5","5","4","4","4","2","1","1","2","2","1","1","1","2","0","1","0","0","1","1","0","0","1","0","0","1","0","1","0","4","2","5","1","1","4","5","4","5","2","634785034254942208","张","455","","","","nonmatch","","","","","","","","","","","","","","key","f","16.650060606060897","799.9999682108573","445.8333156175091","f","true","nonmatch","img/ellipse.png","方形","椭圆","ALT1","formal_ALT1_2","","","","","","","","","",""
"null","<span style='color:GreenYellow; font-size: 70px;'>正确! </span>","null","html-keyboard-response","132","660174","0.0-7.0-1.0-4.0-0.0-1.12","4","4","4","3","3","4","4","3","4","3","4","5","5","4","4","5","5","4","4","4","2","1","1","2","2","1","1","1","2","0","1","0","0","1","1","0","0","1","0","0","1","0","1","0","4","2","5","1","1","4","5","4","5","2","634785034254942208","张","455","","","","","","","","","","","","","","","","","","","","","","","","","","","","","","feedback_test","","","","","","","","","",""
"879","","j","psychophysics","133","662055","0.0-7.0-1.0-4.0-0.0-0.13","4","4","4","3","3","4","4","3","4","3","4","5","5","4","4","5","5","4","4","4","2","1","1","2","2","1","1","1","2","0","1","0","0","1","1","0","0","1","0","0","1","0","1","0","4","2","5","1","1","4","5","4","5","2","634785034254942208","张","455","","","","match","","","","","","","","","","","","","","key","j","16.652464285714295","799.9999682108573","445.8333156175091","j","true","match","img/hexagon.png","六边","六边","ALT1","formal_ALT1_2","","","","","","","","","",""
"null","<span style='color:GreenYellow; font-size: 70px;'>正确! </span>","null","html-keyboard-response","134","662557","0.0-7.0-1.0-4.0-0.0-1.13","4","4","4","3","3","4","4","3","4","3","4","5","5","4","4","5","5","4","4","4","2","1","1","2","2","1","1","1","2","0","1","0","0","1","1","0","0","1","0","0","1","0","1","0","4","2","5","1","1","4","5","4","5","2","634785034254942208","张","455","","","","","","","","","","","","","","","","","","","","","","","","","","","","","","feedback_test","","","","","","","","","",""
"796","","f","psychophysics","135","664354","0.0-7.0-1.0-4.0-0.0-0.14","4","4","4","3","3","4","4","3","4","3","4","5","5","4","4","5","5","4","4","4","2","1","1","2","2","1","1","1","2","0","1","0","0","1","1","0","0","1","0","0","1","0","1","0","4","2","5","1","1","4","5","4","5","2","634785034254942208","张","455","","","","nonmatch","","","","","","","","","","","","","","key","f","16.65201869158827","799.9999682108573","445.8333156175091","f","true","nonmatch","img/hexagon.png","椭圆","六边","ALT1","formal_ALT1_2","","","","","","","","","",""
"null","<span style='color:GreenYellow; font-size: 70px;'>正确! </span>","null","html-keyboard-response","136","664855","0.0-7.0-1.0-4.0-0.0-1.14","4","4","4","3","3","4","4","3","4","3","4","5","5","4","4","5","5","4","4","4","2","1","1","2","2","1","1","1","2","0","1","0","0","1","1","0","0","1","0","0","1","0","1","0","4","2","5","1","1","4","5","4","5","2","634785034254942208","张","455","","","","","","","","","","","","","","","","","","","","","","","","","","","","","","feedback_test","","","","","","","","","",""
"629","","f","psychophysics","137","666486","0.0-7.0-1.0-4.0-0.0-0.15","4","4","4","3","3","4","4","3","4","3","4","5","5","4","4","5","5","4","4","4","2","1","1","2","2","1","1","1","2","0","1","0","0","1","1","0","0","1","0","0","1","0","1","0","4","2","5","1","1","4","5","4","5","2","634785034254942208","张","455","","","","nonmatch","","","","","","","","","","","","","","key","f","16.65005154639108","799.9999682108573","445.8333156175091","f","true","nonmatch","img/ellipse.png","六边","椭圆","ALT1","formal_ALT1_2","","","","","","","","","",""
"null","<span style='color:GreenYellow; font-size: 70px;'>正确! </span>","null","html-keyboard-response","138","666987","0.0-7.0-1.0-4.0-0.0-1.15","4","4","4","3","3","4","4","3","4","3","4","5","5","4","4","5","5","4","4","4","2","1","1","2","2","1","1","1","2","0","1","0","0","1","1","0","0","1","0","0","1","0","1","0","4","2","5","1","1","4","5","4","5","2","634785034254942208","张","455","","","","","","","","","","","","","","","","","","","","","","","","","","","","","","feedback_test","","","","","","","","","",""
"637","","j","psychophysics","139","668626","0.0-7.0-1.0-4.0-0.0-0.16","4","4","4","3","3","4","4","3","4","3","4","5","5","4","4","5","5","4","4","4","2","1","1","2","2","1","1","1","2","0","1","0","0","1","1","0","0","1","0","0","1","0","1","0","4","2","5","1","1","4","5","4","5","2","634785034254942208","张","455","","","","match","","","","","","","","","","","","","","key","j","16.652195876289024","799.9999682108573","445.8333156175091","j","true","match","img/ellipse.png","椭圆","椭圆","ALT1","formal_ALT1_2","","","","","","","","","",""
"null","<span style='color:GreenYellow; font-size: 70px;'>正确! </span>","null","html-keyboard-response","140","669127","0.0-7.0-1.0-4.0-0.0-1.16","4","4","4","3","3","4","4","3","4","3","4","5","5","4","4","5","5","4","4","4","2","1","1","2","2","1","1","1","2","0","1","0","0","1","1","0","0","1","0","0","1","0","1","0","4","2","5","1","1","4","5","4","5","2","634785034254942208","张","455","","","","","","","","","","","","","","","","","","","","","","","","","","","","","","feedback_test","","","","","","","","","",""
"674","","j","psychophysics","141","670802","0.0-7.0-1.0-4.0-0.0-0.17","4","4","4","3","3","4","4","3","4","3","4","5","5","4","4","5","5","4","4","4","2","1","1","2","2","1","1","1","2","0","1","0","0","1","1","0","0","1","0","0","1","0","1","0","4","2","5","1","1","4","5","4","5","2","634785034254942208","张","455","","","","match","","","","","","","","","","","","","","key","j","16.654181818182657","799.9999682108573","445.8333156175091","j","true","match","img/triangle.png","三角","三角","ALT1","formal_ALT1_2","","","","","","","","","",""
"null","<span style='color:GreenYellow; font-size: 70px;'>正确! </span>","null","html-keyboard-response","142","671303","0.0-7.0-1.0-4.0-0.0-1.17","4","4","4","3","3","4","4","3","4","3","4","5","5","4","4","5","5","4","4","4","2","1","1","2","2","1","1","1","2","0","1","0","0","1","1","0","0","1","0","0","1","0","1","0","4","2","5","1","1","4","5","4","5","2","634785034254942208","张","455","","","","","","","","","","","","","","","","","","","","","","","","","","","","","","feedback_test","","","","","","","","","",""
"601","","j","psychophysics","143","672906","0.0-7.0-1.0-4.0-0.0-0.18","4","4","4","3","3","4","4","3","4","3","4","5","5","4","4","5","5","4","4","4","2","1","1","2","2","1","1","1","2","0","1","0","0","1","1","0","0","1","0","0","1","0","1","0","4","2","5","1","1","4","5","4","5","2","634785034254942208","张","455","","","","match","","","","","","","","","","","","","","key","j","16.654315789474026","799.9999682108573","445.8333156175091","j","true","match","img/triangle.png","三角","三角","ALT1","formal_ALT1_2","","","","","","","","","",""
"null","<span style='color:GreenYellow; font-size: 70px;'>正确! </span>","null","html-keyboard-response","144","673407","0.0-7.0-1.0-4.0-0.0-1.18","4","4","4","3","3","4","4","3","4","3","4","5","5","4","4","5","5","4","4","4","2","1","1","2","2","1","1","1","2","0","1","0","0","1","1","0","0","1","0","0","1","0","1","0","4","2","5","1","1","4","5","4","5","2","634785034254942208","张","455","","","","","","","","","","","","","","","","","","","","","","","","","","","","","","feedback_test","","","","","","","","","",""
"620","","j","psychophysics","145","675029","0.0-7.0-1.0-4.0-0.0-0.19","4","4","4","3","3","4","4","3","4","3","4","5","5","4","4","5","5","4","4","4","2","1","1","2","2","1","1","1","2","0","1","0","0","1","1","0","0","1","0","0","1","0","1","0","4","2","5","1","1","4","5","4","5","2","634785034254942208","张","455","","","","match","","","","","","","","","","","","","","key","j","16.65385416666686","799.9999682108573","445.8333156175091","j","true","match","img/square.png","方形","方形","ALT1","formal_ALT1_2","","","","","","","","","",""
"null","<span style='color:GreenYellow; font-size: 70px;'>正确! </span>","null","html-keyboard-response","146","675530","0.0-7.0-1.0-4.0-0.0-1.19","4","4","4","3","3","4","4","3","4","3","4","5","5","4","4","5","5","4","4","4","2","1","1","2","2","1","1","1","2","0","1","0","0","1","1","0","0","1","0","0","1","0","1","0","4","2","5","1","1","4","5","4","5","2","634785034254942208","张","455","","","","","","","","","","","","","","","","","","","","","","","","","","","","","","feedback_test","","","","","","","","","",""
"657","","j","psychophysics","147","677194","0.0-7.0-1.0-4.0-0.0-0.20","4","4","4","3","3","4","4","3","4","3","4","5","5","4","4","5","5","4","4","4","2","1","1","2","2","1","1","1","2","0","1","0","0","1","1","0","0","1","0","0","1","0","1","0","4","2","5","1","1","4","5","4","5","2","634785034254942208","张","455","","","","match","","","","","","","","","","","","","","key","j","16.651808080807882","799.9999682108573","445.8333156175091","j","true","match","img/hexagon.png","六边","六边","ALT1","formal_ALT1_2","","","","","","","","","",""
"null","<span style='color:GreenYellow; font-size: 70px;'>正确! </span>","null","html-keyboard-response","148","677697","0.0-7.0-1.0-4.0-0.0-1.20","4","4","4","3","3","4","4","3","4","3","4","5","5","4","4","5","5","4","4","4","2","1","1","2","2","1","1","1","2","0","1","0","0","1","1","0","0","1","0","0","1","0","1","0","4","2","5","1","1","4","5","4","5","2","634785034254942208","张","455","","","","","","","","","","","","","","","","","","","","","","","","","","","","","","feedback_test","","","","","","","","","",""
"647","","f","psychophysics","149","679344","0.0-7.0-1.0-4.0-0.0-0.21","4","4","4","3","3","4","4","3","4","3","4","5","5","4","4","5","5","4","4","4","2","1","1","2","2","1","1","1","2","0","1","0","0","1","1","0","0","1","0","0","1","0","1","0","4","2","5","1","1","4","5","4","5","2","634785034254942208","张","455","","","","nonmatch","","","","","","","","","","","","","","key","f","16.653489795918528","799.9999682108573","445.8333156175091","f","true","nonmatch","img/square.png","三角","方形","ALT1","formal_ALT1_2","","","","","","","","","",""
"null","<span style='color:GreenYellow; font-size: 70px;'>正确! </span>","null","html-keyboard-response","150","679846","0.0-7.0-1.0-4.0-0.0-1.21","4","4","4","3","3","4","4","3","4","3","4","5","5","4","4","5","5","4","4","4","2","1","1","2","2","1","1","1","2","0","1","0","0","1","1","0","0","1","0","0","1","0","1","0","4","2","5","1","1","4","5","4","5","2","634785034254942208","张","455","","","","","","","","","","","","","","","","","","","","","","","","","","","","","","feedback_test","","","","","","","","","",""
"653","","j","psychophysics","151","681500","0.0-7.0-1.0-4.0-0.0-0.22","4","4","4","3","3","4","4","3","4","3","4","5","5","4","4","5","5","4","4","4","2","1","1","2","2","1","1","1","2","0","1","0","0","1","1","0","0","1","0","0","1","0","1","0","4","2","5","1","1","4","5","4","5","2","634785034254942208","张","455","","","","match","","","","","","","","","","","","","","key","j","16.65462244897891","799.9999682108573","445.8333156175091","j","true","match","img/square.png","方形","方形","ALT1","formal_ALT1_2","","","","","","","","","",""
"null","<span style='color:GreenYellow; font-size: 70px;'>正确! </span>","null","html-keyboard-response","152","682002","0.0-7.0-1.0-4.0-0.0-1.22","4","4","4","3","3","4","4","3","4","3","4","5","5","4","4","5","5","4","4","4","2","1","1","2","2","1","1","1","2","0","1","0","0","1","1","0","0","1","0","0","1","0","1","0","4","2","5","1","1","4","5","4","5","2","634785034254942208","张","455","","","","","","","","","","","","","","","","","","","","","","","","","","","","","","feedback_test","","","","","","","","","",""
"678","","f","psychophysics","153","683683","0.0-7.0-1.0-4.0-0.0-0.23","4","4","4","3","3","4","4","3","4","3","4","5","5","4","4","5","5","4","4","4","2","1","1","2","2","1","1","1","2","0","1","0","0","1","1","0","0","1","0","0","1","0","1","0","4","2","5","1","1","4","5","4","5","2","634785034254942208","张","455","","","","nonmatch","","","","","","","","","","","","","","key","f","16.653510000000242","799.9999682108573","445.8333156175091","f","true","nonmatch","img/hexagon.png","方形","六边","ALT1","formal_ALT1_2","","","","","","","","","",""
"null","<span style='color:GreenYellow; font-size: 70px;'>正确! </span>","null","html-keyboard-response","154","684185","0.0-7.0-1.0-4.0-0.0-1.23","4","4","4","3","3","4","4","3","4","3","4","5","5","4","4","5","5","4","4","4","2","1","1","2","2","1","1","1","2","0","1","0","0","1","1","0","0","1","0","0","1","0","1","0","4","2","5","1","1","4","5","4","5","2","634785034254942208","张","455","","","","","","","","","","","","","","","","","","","","","","","","","","","","","","feedback_test","","","","","","","","","",""
"664","","f","psychophysics","155","685854","0.0-7.0-1.0-4.0-0.0-0.24","4","4","4","3","3","4","4","3","4","3","4","5","5","4","4","5","5","4","4","4","2","1","1","2","2","1","1","1","2","0","1","0","0","1","1","0","0","1","0","0","1","0","1","0","4","2","5","1","1","4","5","4","5","2","634785034254942208","张","455","","","","nonmatch","","","","","","","","","","","","","","key","f","16.6535151515149","799.9999682108573","445.8333156175091","f","true","nonmatch","img/hexagon.png","方形","六边","ALT1","formal_ALT1_2","","","","","","","","","",""
"null","<span style='color:GreenYellow; font-size: 70px;'>正确! </span>","null","html-keyboard-response","156","686355","0.0-7.0-1.0-4.0-0.0-1.24","4","4","4","3","3","4","4","3","4","3","4","5","5","4","4","5","5","4","4","4","2","1","1","2","2","1","1","1","2","0","1","0","0","1","1","0","0","1","0","0","1","0","1","0","4","2","5","1","1","4","5","4","5","2","634785034254942208","张","455","","","","","","","","","","","","","","","","","","","","","","","","","","","","","","feedback_test","","","","","","","","","",""
"655","","f","psychophysics","157","688012","0.0-7.0-1.0-4.0-0.0-0.25","4","4","4","3","3","4","4","3","4","3","4","5","5","4","4","5","5","4","4","4","2","1","1","2","2","1","1","1","2","0","1","0","0","1","1","0","0","1","0","0","1","0","1","0","4","2","5","1","1","4","5","4","5","2","634785034254942208","张","455","","","","nonmatch","","","","","","","","","","","","","","key","f","16.648525252525527","799.9999682108573","445.8333156175091","f","true","nonmatch","img/ellipse.png","三角","椭圆","ALT1","formal_ALT1_2","","","","","","","","","",""
"null","<span style='color:GreenYellow; font-size: 70px;'>正确! </span>","null","html-keyboard-response","158","688514","0.0-7.0-1.0-4.0-0.0-1.25","4","4","4","3","3","4","4","3","4","3","4","5","5","4","4","5","5","4","4","4","2","1","1","2","2","1","1","1","2","0","1","0","0","1","1","0","0","1","0","0","1","0","1","0","4","2","5","1","1","4","5","4","5","2","634785034254942208","张","455","","","","","","","","","","","","","","","","","","","","","","","","","","","","","","feedback_test","","","","","","","","","",""
"653","","j","psychophysics","159","690169","0.0-7.0-1.0-4.0-0.0-0.26","4","4","4","3","3","4","4","3","4","3","4","5","5","4","4","5","5","4","4","4","2","1","1","2","2","1","1","1","2","0","1","0","0","1","1","0","0","1","0","0","1","0","1","0","4","2","5","1","1","4","5","4","5","2","634785034254942208","张","455","","","","match","","","","","","","","","","","","","","key","j","16.653795918367795","799.9999682108573","445.8333156175091","j","true","match","img/square.png","方形","方形","ALT1","formal_ALT1_2","","","","","","","","","",""
"null","<span style='color:GreenYellow; font-size: 70px;'>正确! </span>","null","html-keyboard-response","160","690670","0.0-7.0-1.0-4.0-0.0-1.26","4","4","4","3","3","4","4","3","4","3","4","5","5","4","4","5","5","4","4","4","2","1","1","2","2","1","1","1","2","0","1","0","0","1","1","0","0","1","0","0","1","0","1","0","4","2","5","1","1","4","5","4","5","2","634785034254942208","张","455","","","","","","","","","","","","","","","","","","","","","","","","","","","","","","feedback_test","","","","","","","","","",""
"733","","f","psychophysics","161","692405","0.0-7.0-1.0-4.0-0.0-0.27","4","4","4","3","3","4","4","3","4","3","4","5","5","4","4","5","5","4","4","4","2","1","1","2","2","1","1","1","2","0","1","0","0","1","1","0","0","1","0","0","1","0","1","0","4","2","5","1","1","4","5","4","5","2","634785034254942208","张","455","","","","nonmatch","","","","","","","","","","","","","","key","f","16.65332038834967","799.9999682108573","445.8333156175091","f","true","nonmatch","img/hexagon.png","椭圆","六边","ALT1","formal_ALT1_2","","","","","","","","","",""
"null","<span style='color:GreenYellow; font-size: 70px;'>正确! </span>","null","html-keyboard-response","162","692907","0.0-7.0-1.0-4.0-0.0-1.27","4","4","4","3","3","4","4","3","4","3","4","5","5","4","4","5","5","4","4","4","2","1","1","2","2","1","1","1","2","0","1","0","0","1","1","0","0","1","0","0","1","0","1","0","4","2","5","1","1","4","5","4","5","2","634785034254942208","张","455","","","","","","","","","","","","","","","","","","","","","","","","","","","","","","feedback_test","","","","","","","","","",""
"725","","f","psychophysics","163","694633","0.0-7.0-1.0-4.0-0.0-0.28","4","4","4","3","3","4","4","3","4","3","4","5","5","4","4","5","5","4","4","4","2","1","1","2","2","1","1","1","2","0","1","0","0","1","1","0","0","1","0","0","1","0","1","0","4","2","5","1","1","4","5","4","5","2","634785034254942208","张","455","","","","nonmatch","","","","","","","","","","","","","","key","f","16.653950980391954","799.9999682108573","445.8333156175091","f","true","nonmatch","img/triangle.png","六边","三角","ALT1","formal_ALT1_2","","","","","","","","","",""
"null","<span style='color:GreenYellow; font-size: 70px;'>正确! </span>","null","html-keyboard-response","164","695134","0.0-7.0-1.0-4.0-0.0-1.28","4","4","4","3","3","4","4","3","4","3","4","5","5","4","4","5","5","4","4","4","2","1","1","2","2","1","1","1","2","0","1","0","0","1","1","0","0","1","0","0","1","0","1","0","4","2","5","1","1","4","5","4","5","2","634785034254942208","张","455","","","","","","","","","","","","","","","","","","","","","","","","","","","","","","feedback_test","","","","","","","","","",""
"615","","j","psychophysics","165","696751","0.0-7.0-1.0-4.0-0.0-0.29","4","4","4","3","3","4","4","3","4","3","4","5","5","4","4","5","5","4","4","4","2","1","1","2","2","1","1","1","2","0","1","0","0","1","1","0","0","1","0","0","1","0","1","0","4","2","5","1","1","4","5","4","5","2","634785034254942208","张","455","","","","match","","","","","","","","","","","","","","key","j","16.65446875000028","799.9999682108573","445.8333156175091","j","true","match","img/square.png","方形","方形","ALT1","formal_ALT1_2","","","","","","","","","",""
"null","<span style='color:GreenYellow; font-size: 70px;'>正确! </span>","null","html-keyboard-response","166","697252","0.0-7.0-1.0-4.0-0.0-1.29","4","4","4","3","3","4","4","3","4","3","4","5","5","4","4","5","5","4","4","4","2","1","1","2","2","1","1","1","2","0","1","0","0","1","1","0","0","1","0","0","1","0","1","0","4","2","5","1","1","4","5","4","5","2","634785034254942208","张","455","","","","","","","","","","","","","","","","","","","","","","","","","","","","","","feedback_test","","","","","","","","","",""
"692","","j","psychophysics","167","698946","0.0-7.0-1.0-4.0-0.0-0.30","4","4","4","3","3","4","4","3","4","3","4","5","5","4","4","5","5","4","4","4","2","1","1","2","2","1","1","1","2","0","1","0","0","1","1","0","0","1","0","0","1","0","1","0","4","2","5","1","1","4","5","4","5","2","634785034254942208","张","455","","","","match","","","","","","","","","","","","","","key","j","16.64872999999905","799.9999682108573","445.8333156175091","j","true","match","img/triangle.png","三角","三角","ALT1","formal_ALT1_2","","","","","","","","","",""
"null","<span style='color:GreenYellow; font-size: 70px;'>正确! </span>","null","html-keyboard-response","168","699446","0.0-7.0-1.0-4.0-0.0-1.30","4","4","4","3","3","4","4","3","4","3","4","5","5","4","4","5","5","4","4","4","2","1","1","2","2","1","1","1","2","0","1","0","0","1","1","0","0","1","0","0","1","0","1","0","4","2","5","1","1","4","5","4","5","2","634785034254942208","张","455","","","","","","","","","","","","","","","","","","","","","","","","","","","","","","feedback_test","","","","","","","","","",""
"711","","j","psychophysics","169","701159","0.0-7.0-1.0-4.0-0.0-0.31","4","4","4","3","3","4","4","3","4","3","4","5","5","4","4","5","5","4","4","4","2","1","1","2","2","1","1","1","2","0","1","0","0","1","1","0","0","1","0","0","1","0","1","0","4","2","5","1","1","4","5","4","5","2","634785034254942208","张","455","","","","match","","","","","","","","","","","","","","key","j","16.654156862745545","799.9999682108573","445.8333156175091","j","true","match","img/hexagon.png","六边","六边","ALT1","formal_ALT1_2","","","","","","","","","",""
"null","<span style='color:GreenYellow; font-size: 70px;'>正确! </span>","null","html-keyboard-response","170","701661","0.0-7.0-1.0-4.0-0.0-1.31","4","4","4","3","3","4","4","3","4","3","4","5","5","4","4","5","5","4","4","4","2","1","1","2","2","1","1","1","2","0","1","0","0","1","1","0","0","1","0","0","1","0","1","0","4","2","5","1","1","4","5","4","5","2","634785034254942208","张","455","","","","","","","","","","","","","","","","","","","","","","","","","","","","","","feedback_test","","","","","","","","","",""
"841","","j","psychophysics","171","703503","0.0-7.0-1.0-4.0-0.0-0.32","4","4","4","3","3","4","4","3","4","3","4","5","5","4","4","5","5","4","4","4","2","1","1","2","2","1","1","1","2","0","1","0","0","1","1","0","0","1","0","0","1","0","1","0","4","2","5","1","1","4","5","4","5","2","634785034254942208","张","455","","","","match","","","","","","","","","","","","","","key","j","16.654081818180963","799.9999682108573","445.8333156175091","j","true","match","img/ellipse.png","椭圆","椭圆","ALT1","formal_ALT1_2","","","","","","","","","",""
"null","<span style='color:GreenYellow; font-size: 70px;'>正确! </span>","null","html-keyboard-response","172","704004","0.0-7.0-1.0-4.0-0.0-1.32","4","4","4","3","3","4","4","3","4","3","4","5","5","4","4","5","5","4","4","4","2","1","1","2","2","1","1","1","2","0","1","0","0","1","1","0","0","1","0","0","1","0","1","0","4","2","5","1","1","4","5","4","5","2","634785034254942208","张","455","","","","","","","","","","","","","","","","","","","","","","","","","","","","","","feedback_test","","","","","","","","","",""
"640","","j","psychophysics","173","705645","0.0-7.0-1.0-4.0-0.0-0.33","4","4","4","3","3","4","4","3","4","3","4","5","5","4","4","5","5","4","4","4","2","1","1","2","2","1","1","1","2","0","1","0","0","1","1","0","0","1","0","0","1","0","1","0","4","2","5","1","1","4","5","4","5","2","634785034254942208","张","455","","","","match","","","","","","","","","","","","","","key","j","16.65350515463932","799.9999682108573","445.8333156175091","j","true","match","img/triangle.png","三角","三角","ALT1","formal_ALT1_2","","","","","","","","","",""
"null","<span style='color:GreenYellow; font-size: 70px;'>正确! </span>","null","html-keyboard-response","174","706146","0.0-7.0-1.0-4.0-0.0-1.33","4","4","4","3","3","4","4","3","4","3","4","5","5","4","4","5","5","4","4","4","2","1","1","2","2","1","1","1","2","0","1","0","0","1","1","0","0","1","0","0","1","0","1","0","4","2","5","1","1","4","5","4","5","2","634785034254942208","张","455","","","","","","","","","","","","","","","","","","","","","","","","","","","","","","feedback_test","","","","","","","","","",""
"563","","f","psychophysics","175","707710","0.0-7.0-1.0-4.0-0.0-0.34","4","4","4","3","3","4","4","3","4","3","4","5","5","4","4","5","5","4","4","4","2","1","1","2","2","1","1","1","2","0","1","0","0","1","1","0","0","1","0","0","1","0","1","0","4","2","5","1","1","4","5","4","5","2","634785034254942208","张","455","","","","nonmatch","","","","","","","","","","","","","","key","f","16.652043478261","799.9999682108573","445.8333156175091","f","true","nonmatch","img/ellipse.png","六边","椭圆","ALT1","formal_ALT1_2","","","","","","","","","",""
"null","<span style='color:GreenYellow; font-size: 70px;'>正确! </span>","null","html-keyboard-response","176","708212","0.0-7.0-1.0-4.0-0.0-1.34","4","4","4","3","3","4","4","3","4","3","4","5","5","4","4","5","5","4","4","4","2","1","1","2","2","1","1","1","2","0","1","0","0","1","1","0","0","1","0","0","1","0","1","0","4","2","5","1","1","4","5","4","5","2","634785034254942208","张","455","","","","","","","","","","","","","","","","","","","","","","","","","","","","","","feedback_test","","","","","","","","","",""
"675","","f","psychophysics","177","709890","0.0-7.0-1.0-4.0-0.0-0.35","4","4","4","3","3","4","4","3","4","3","4","5","5","4","4","5","5","4","4","4","2","1","1","2","2","1","1","1","2","0","1","0","0","1","1","0","0","1","0","0","1","0","1","0","4","2","5","1","1","4","5","4","5","2","634785034254942208","张","455","","","","nonmatch","","","","","","","","","","","","","","key","f","16.651606060606852","799.9999682108573","445.8333156175091","f","true","nonmatch","img/square.png","三角","方形","ALT1","formal_ALT1_2","","","","","","","","","",""
"null","<span style='color:GreenYellow; font-size: 70px;'>正确! </span>","null","html-keyboard-response","178","710393","0.0-7.0-1.0-4.0-0.0-1.35","4","4","4","3","3","4","4","3","4","3","4","5","5","4","4","5","5","4","4","4","2","1","1","2","2","1","1","1","2","0","1","0","0","1","1","0","0","1","0","0","1","0","1","0","4","2","5","1","1","4","5","4","5","2","634785034254942208","张","455","","","","","","","","","","","","","","","","","","","","","","","","","","","","","","feedback_test","","","","","","","","","",""
"602","","j","psychophysics","179","711997","0.0-7.0-1.0-4.0-0.0-0.36","4","4","4","3","3","4","4","3","4","3","4","5","5","4","4","5","5","4","4","4","2","1","1","2","2","1","1","1","2","0","1","0","0","1","1","0","0","1","0","0","1","0","1","0","4","2","5","1","1","4","5","4","5","2","634785034254942208","张","455","","","","match","","","","","","","","","","","","","","key","j","16.65423157894739","799.9999682108573","445.8333156175091","j","true","match","img/hexagon.png","六边","六边","ALT1","formal_ALT1_2","","","","","","","","","",""
