"rt","stimulus","response","trial_type","trial_index","time_elapsed","internal_node_id","ses_1","ses_2","ses_3","ses_4","ses_5","ses_6","ses_7","ses_8","ses_9","ses_10","coreself_1","coreself_2","coreself_3","coreself_4","coreself_5","coreself_6","coreself_7","coreself_8","coreself_9","coreself_10","SGPS_1","SGPS_2","SGPS_3","SGPS_4","SGPS_5","SGPS_6","SGPS_7","SGPS_8","SGPS_9","NPI1","NPI2","NPI3","NPI4","NPI5","NPI6","NPI7","NPI8","NPI9","NPI10","NPI11","NPI12","NPI13","NPI14","NPI15","hsns_1","hsns_2","hsns_3","hsns_4","hsns_5","hsns_6","hsns_7","hsns_8","hsns_9","hsns_10","subj_idx","friend_name","ParticipantID","value","success","user_agent","responses","item_order","radio_event_ids","radio_event_times","key_event_times","mouse_event_times","straightlining","zigzagging","honeypot","timeout","failed_images","failed_audio","failed_video","version_attrib","version_target","correct","IAT","screen_id","task_id","RT","condition","word","varname","summary","version_attrib2","version_target2","time_stamp","view_history","response_type","key_press","avg_frame_time","center_x","center_y","correct_response","identity","Image","question_order"
"42742","
   <p><div style = ""color: white;font-size:25px;"">您好，欢迎参加本次实验。</div> </p>
   <p><div style = ""color: white;font-size:25px;"">为充分保障您的权利，请确保您已经知晓并同意《参与实验同意书》以及《数据公开知情同意书》。</div></p>
   <p><div style = ""color: white;font-size:25px;"">如果您未见过上述内容，请咨询实验员。</div></p>
   <p><div style = ""color: white;font-size:25px;"">如果您选择继续实验，则表示您已经清楚两份知情同意书的内容并同意。</div></p>
   <p><div style = ""color: red;font-size:30px;"">请确保您记得day0的实验编号，您将在本次实验输入该编号，若您忘记，请咨询实验员后作答。</div></p>
   <p> <div style = ""color: green;font-size:25px;""><按空格键至下页></div> </p>
   "," ","html-keyboard-response","0","42744","0.0-0.0","3","4","4","3","3","4","3","3","4","4","4","5","4","5","5","4","4","5","5","5","3","1","1","2","2","2","1","2","1","0","0","1","1","0","0","0","1","0","1","1","0","1","0","1","5","4","1","1","2","2","4","5","1","4","609032333906935808","刘","670","","","","","","","","","","","","","","","","","","","","","","","","","","","","","","","","","","","","","","","",""
"","","","call-function","1","42745","0.0-1.0-0.0","3","4","4","3","3","4","3","3","4","4","4","5","4","5","5","4","4","5","5","5","3","1","1","2","2","2","1","2","1","0","0","1","1","0","0","0","1","0","1","1","0","1","0","1","5","4","1","1","2","2","4","5","1","4","609032333906935808","刘","670","","","","","","","","","","","","","","","","","","","","","","","","","","","","","","","","","","","","","","","",""
"46164","","{""friend_name"":""刘"",""ParticipantID"":""670""}","survey-html-form","2","88910","0.0-1.0-1.0","3","4","4","3","3","4","3","3","4","4","4","5","4","5","5","4","4","5","5","5","3","1","1","2","2","2","1","2","1","0","0","1","1","0","0","0","1","0","1","1","0","1","0","1","5","4","1","1","2","2","4","5","1","4","609032333906935808","刘","670","","","","","","","","","","","","","","","","","","","","","","","","","","","","","","","","","","","","","","","",""
"","","","fullscreen","3","107908","0.0-2.0","3","4","4","3","3","4","3","3","4","4","4","5","4","5","5","4","4","5","5","5","3","1","1","2","2","2","1","2","1","0","0","1","1","0","0","0","1","0","1","1","0","1","0","1","5","4","1","1","2","2","4","5","1","4","609032333906935808","刘","670","","true","{}","","","","","","","","","","","","","","","","","","","","","","","","","","","","","","","","","","","","",""
"63097.89999997616","","{""Q01"":""3"",""Q02"":""4"",""Q03"":""4"",""Q04"":""3"",""Q05"":""3"",""Q06"":""4"",""Q07"":""3"",""Q08"":""3"",""Q09"":""4"",""Q10"":""4""}","survey-template","4","171009","0.0-3.0","3","4","4","3","3","4","3","3","4","4","4","5","4","5","5","4","4","5","5","5","3","1","1","2","2","2","1","2","1","0","0","1","1","0","0","0","1","0","1","1","0","1","0","1","5","4","1","1","2","2","4","5","1","4","609032333906935808","刘","670","","","","{""Q01"":""3"",""Q02"":""4"",""Q03"":""4"",""Q04"":""3"",""Q05"":""3"",""Q06"":""4"",""Q07"":""3"",""Q08"":""3"",""Q09"":""4"",""Q10"":""4""}","[0,1,2,3,4,5,6,7,8,9]","[""Q01"",""Q02"",""Q03"",""Q04"",""Q05"",""Q06"",""Q05"",""Q07"",""Q08"",""Q09"",""Q10"",""Q08""]","[5808.700000047684,9954.100000023842,12056.899999976158,13732.800000071526,17128.800000071526,18424.800000071526,19304.899999976158,27985.100000023842,29680.899999976158,30632.600000023842,41192.700000047684,48425]","[]","[1938.3000000715256,3640.5,5808.700000047684,9954.100000023842,12056.899999976158,13732.800000071526,17128.800000071526,18424.800000071526,19304.899999976158,27985.100000023842,29680.899999976158,30632.600000023842,31960.800000071526,33352.800000071526,35456.700000047684,41192.700000047684,41968.700000047684,48425,49360.800000071526,63097]","0.3","0.6666666666666666","0","","","","","","","","","","","","","","","","","","","","","","","","","","","",""
"30139.699999928474","","{""Q01"":""4"",""Q02"":""5"",""Q03"":""4"",""Q04"":""5"",""Q05"":""5"",""Q06"":""4"",""Q07"":""4"",""Q08"":""5"",""Q09"":""5"",""Q10"":""5""}","survey-template","5","201152","0.0-4.0","3","4","4","3","3","4","3","3","4","4","4","5","4","5","5","4","4","5","5","5","3","1","1","2","2","2","1","2","1","0","0","1","1","0","0","0","1","0","1","1","0","1","0","1","5","4","1","1","2","2","4","5","1","4","609032333906935808","刘","670","","","","{""Q01"":""4"",""Q02"":""5"",""Q03"":""4"",""Q04"":""5"",""Q05"":""5"",""Q06"":""4"",""Q07"":""4"",""Q08"":""5"",""Q09"":""5"",""Q10"":""5""}","[0,1,2,3,4,5,6,7,8,9]","[""Q01"",""Q02"",""Q03"",""Q04"",""Q05"",""Q06"",""Q07"",""Q08"",""Q09"",""Q10""]","[2530.6999999284744,5290.5,9738.399999976158,11090.600000023842,14244.5,15938.5,17882.399999976158,20290.399999976158,22650.699999928474,28330.600000023842]","[]","[682.3999999761581,2530.6999999284744,5290.5,6826.699999928474,9738.399999976158,11090.600000023842,14244.5,15938.5,17882.399999976158,20290.399999976158,22650.699999928474,23738.399999976158,25954.299999952316,28330.600000023842,29394.600000023842,30138.600000023842]","0.4","0.5555555555555556","0","","","","","","","","","","","","","","","","","","","","","","","","","","","",""
"","","","preload","6","201436","0.0-5.0","3","4","4","3","3","4","3","3","4","4","4","5","4","5","5","4","4","5","5","5","3","1","1","2","2","2","1","2","1","0","0","1","1","0","0","0","1","0","1","1","0","1","0","1","5","4","1","1","2","2","4","5","1","4","609032333906935808","刘","670","","true","","","","","","","","","","","false","[]","[]","[]","","","","","","","","","","","","","","","","","","","","","","","",""
"24986","
    <h3>词语分类任务</h3>
    <p>在接下来的任务中，你需要对一系列词语进行分类。</p>
    <p>请先熟悉这些词语，这有利于你完成接下来的任务。</p>
    <table align=""center"" border=1 cellpadding=3 cellspacing=0>
    <tr> <th>类别</th> <th>词语</th> </tr>
    <tr> <td>&emsp;积极&emsp;</td> <td>&emsp;能干、全能、全才、高效、精干、天才&emsp;</td> </tr>
    <tr> <td>&emsp;消极&emsp;</td> <td>&emsp;无能、低能、废物、拙笨、愚钝、蠢笨&emsp;</td> </tr>
    <tr> <td>&emsp;自我&emsp;</td> <td>&emsp;我、我的、自己、自己的、本人、本人的&emsp;</td> </tr>
    <tr> <td>&emsp;他人&emsp;</td> <td>&emsp;他、他的、别人、别人的、他人、他人的&emsp;</td> </tr>
    </table><br/>","0","html-button-response","7","226423","0.0-6.0-0.0-0.0","3","4","4","3","3","4","3","3","4","4","4","5","4","5","5","4","4","5","5","5","3","1","1","2","2","2","1","2","1","0","0","1","1","0","0","0","1","0","1","1","0","1","0","1","5","4","1","1","2","2","4","5","1","4","609032333906935808","刘","670","","","","","","","","","","","","","","","","","1","1","","","","","","","","","","","","","","","","","","","","","",""
"13494","
    <div class=""tag-bottom"">
    <p> —— 任务1：对“自我”词和“他人”词分类 ——<p/>
    不同词语会出现在屏幕中央，类别标签将始终显示在屏幕上方<p/>   
    <span style=""color:#FFD866""><b>请根据上方标签的提示，尽可能正确并且快速地做出按键反应</b></span><p/>
    当按键错误时屏幕中会出现<span style=""color:red""> X </span>，需要按另一个键纠正才能继续<br/><p/>
    请把双手食指分别放在键盘的“E”键和“I”键上<p/>
    按<空格键>开始
    </p></div>"," ","html-keyboard-response","8","239918","0.0-6.0-0.0-1.0","3","4","4","3","3","4","3","3","4","4","4","5","4","5","5","4","4","5","5","5","3","1","1","2","2","2","1","2","1","0","0","1","1","0","0","0","1","0","1","1","0","1","0","1","5","4","1","1","2","2","4","5","1","4","609032333906935808","刘","670","","","","","","","","","","","","","","","","","","","","","","","","","","","","","","","","","","","","","","","",""
"null","","null","html-keyboard-response","9","240170","0.0-6.0-0.0-2.0-0.0","3","4","4","3","3","4","3","3","4","4","4","5","4","5","5","4","4","5","5","5","3","1","1","2","2","2","1","2","1","0","0","1","1","0","0","0","1","0","1","1","0","1","0","1","5","4","1","1","2","2","4","5","1","4","609032333906935808","刘","670","","","","","","","","","","","","","","","","","","","","","","","","","","","","","","","","","","","","","","","",""
"739","<p style=""color:rgb(150, 250, 100); font-size: 35px;"">自己的</p>","e","categorize-html","10","240911","0.0-6.0-0.0-2.0-1.0","3","4","4","3","3","4","3","3","4","4","4","5","4","5","5","4","4","5","5","5","3","1","1","2","2","2","1","2","1","0","0","1","1","0","0","0","1","0","1","1","0","1","0","1","5","4","1","1","2","2","4","5","1","4","609032333906935808","刘","670","","","","","","","","","","","","","","","","","","","true","1","1","ability","739","self","自己的","","","","","","","","","","","","","","",""
"null","","null","html-keyboard-response","11","241162","0.0-6.0-0.0-2.0-0.1","3","4","4","3","3","4","3","3","4","4","4","5","4","5","5","4","4","5","5","5","3","1","1","2","2","2","1","2","1","0","0","1","1","0","0","0","1","0","1","1","0","1","0","1","5","4","1","1","2","2","4","5","1","4","609032333906935808","刘","670","","","","","","","","","","","","","","","","","","","","","","","","","","","","","","","","","","","","","","","",""
"756","<p style=""color:rgb(150, 250, 100); font-size: 35px;"">我的</p>","e","categorize-html","12","241919","0.0-6.0-0.0-2.0-1.1","3","4","4","3","3","4","3","3","4","4","4","5","4","5","5","4","4","5","5","5","3","1","1","2","2","2","1","2","1","0","0","1","1","0","0","0","1","0","1","1","0","1","0","1","5","4","1","1","2","2","4","5","1","4","609032333906935808","刘","670","","","","","","","","","","","","","","","","","","","true","1","1","ability","756","self","我的","","","","","","","","","","","","","","",""
"null","","null","html-keyboard-response","13","242169","0.0-6.0-0.0-2.0-0.2","3","4","4","3","3","4","3","3","4","4","4","5","4","5","5","4","4","5","5","5","3","1","1","2","2","2","1","2","1","0","0","1","1","0","0","0","1","0","1","1","0","1","0","1","5","4","1","1","2","2","4","5","1","4","609032333906935808","刘","670","","","","","","","","","","","","","","","","","","","","","","","","","","","","","","","","","","","","","","","",""
"556","<p style=""color:rgb(150, 250, 100); font-size: 35px;"">他</p>","i","categorize-html","14","242726","0.0-6.0-0.0-2.0-1.2","3","4","4","3","3","4","3","3","4","4","4","5","4","5","5","4","4","5","5","5","3","1","1","2","2","2","1","2","1","0","0","1","1","0","0","0","1","0","1","1","0","1","0","1","5","4","1","1","2","2","4","5","1","4","609032333906935808","刘","670","","","","","","","","","","","","","","","","","","","true","1","1","ability","556","other","他","","","","","","","","","","","","","","",""
"null","","null","html-keyboard-response","15","242978","0.0-6.0-0.0-2.0-0.3","3","4","4","3","3","4","3","3","4","4","4","5","4","5","5","4","4","5","5","5","3","1","1","2","2","2","1","2","1","0","0","1","1","0","0","0","1","0","1","1","0","1","0","1","5","4","1","1","2","2","4","5","1","4","609032333906935808","刘","670","","","","","","","","","","","","","","","","","","","","","","","","","","","","","","","","","","","","","","","",""
"444","<p style=""color:rgb(150, 250, 100); font-size: 35px;"">他人</p>","i","categorize-html","16","243422","0.0-6.0-0.0-2.0-1.3","3","4","4","3","3","4","3","3","4","4","4","5","4","5","5","4","4","5","5","5","3","1","1","2","2","2","1","2","1","0","0","1","1","0","0","0","1","0","1","1","0","1","0","1","5","4","1","1","2","2","4","5","1","4","609032333906935808","刘","670","","","","","","","","","","","","","","","","","","","true","1","1","ability","444","other","他人","","","","","","","","","","","","","","",""
"null","","null","html-keyboard-response","17","243682","0.0-6.0-0.0-2.0-0.4","3","4","4","3","3","4","3","3","4","4","4","5","4","5","5","4","4","5","5","5","3","1","1","2","2","2","1","2","1","0","0","1","1","0","0","0","1","0","1","1","0","1","0","1","5","4","1","1","2","2","4","5","1","4","609032333906935808","刘","670","","","","","","","","","","","","","","","","","","","","","","","","","","","","","","","","","","","","","","","",""
"412","<p style=""color:rgb(150, 250, 100); font-size: 35px;"">我</p>","i","categorize-html","18","244502","0.0-6.0-0.0-2.0-1.4","3","4","4","3","3","4","3","3","4","4","4","5","4","5","5","4","4","5","5","5","3","1","1","2","2","2","1","2","1","0","0","1","1","0","0","0","1","0","1","1","0","1","0","1","5","4","1","1","2","2","4","5","1","4","609032333906935808","刘","670","","","","","","","","","","","","","","","","","","","false","1","1","ability","412","self","我","","","","","","","","","","","","","","",""
"null","","null","html-keyboard-response","19","244756","0.0-6.0-0.0-2.0-0.5","3","4","4","3","3","4","3","3","4","4","4","5","4","5","5","4","4","5","5","5","3","1","1","2","2","2","1","2","1","0","0","1","1","0","0","0","1","0","1","1","0","1","0","1","5","4","1","1","2","2","4","5","1","4","609032333906935808","刘","670","","","","","","","","","","","","","","","","","","","","","","","","","","","","","","","","","","","","","","","",""
"642","<p style=""color:rgb(150, 250, 100); font-size: 35px;"">别人</p>","i","categorize-html","20","245398","0.0-6.0-0.0-2.0-1.5","3","4","4","3","3","4","3","3","4","4","4","5","4","5","5","4","4","5","5","5","3","1","1","2","2","2","1","2","1","0","0","1","1","0","0","0","1","0","1","1","0","1","0","1","5","4","1","1","2","2","4","5","1","4","609032333906935808","刘","670","","","","","","","","","","","","","","","","","","","true","1","1","ability","642","other","别人","","","","","","","","","","","","","","",""
"null","","null","html-keyboard-response","21","245650","0.0-6.0-0.0-2.0-0.6","3","4","4","3","3","4","3","3","4","4","4","5","4","5","5","4","4","5","5","5","3","1","1","2","2","2","1","2","1","0","0","1","1","0","0","0","1","0","1","1","0","1","0","1","5","4","1","1","2","2","4","5","1","4","609032333906935808","刘","670","","","","","","","","","","","","","","","","","","","","","","","","","","","","","","","","","","","","","","","",""
"684","<p style=""color:rgb(150, 250, 100); font-size: 35px;"">他人的</p>","e","categorize-html","22","246767","0.0-6.0-0.0-2.0-1.6","3","4","4","3","3","4","3","3","4","4","4","5","4","5","5","4","4","5","5","5","3","1","1","2","2","2","1","2","1","0","0","1","1","0","0","0","1","0","1","1","0","1","0","1","5","4","1","1","2","2","4","5","1","4","609032333906935808","刘","670","","","","","","","","","","","","","","","","","","","false","1","1","ability","684","other","他人的","","","","","","","","","","","","","","",""
"null","","null","html-keyboard-response","23","247018","0.0-6.0-0.0-2.0-0.7","3","4","4","3","3","4","3","3","4","4","4","5","4","5","5","4","4","5","5","5","3","1","1","2","2","2","1","2","1","0","0","1","1","0","0","0","1","0","1","1","0","1","0","1","5","4","1","1","2","2","4","5","1","4","609032333906935808","刘","670","","","","","","","","","","","","","","","","","","","","","","","","","","","","","","","","","","","","","","","",""
"2051","<p style=""color:rgb(150, 250, 100); font-size: 35px;"">本人</p>","e","categorize-html","24","249070","0.0-6.0-0.0-2.0-1.7","3","4","4","3","3","4","3","3","4","4","4","5","4","5","5","4","4","5","5","5","3","1","1","2","2","2","1","2","1","0","0","1","1","0","0","0","1","0","1","1","0","1","0","1","5","4","1","1","2","2","4","5","1","4","609032333906935808","刘","670","","","","","","","","","","","","","","","","","","","true","1","1","ability","2051","self","本人","","","","","","","","","","","","","","",""
"null","","null","html-keyboard-response","25","249322","0.0-6.0-0.0-2.0-0.8","3","4","4","3","3","4","3","3","4","4","4","5","4","5","5","4","4","5","5","5","3","1","1","2","2","2","1","2","1","0","0","1","1","0","0","0","1","0","1","1","0","1","0","1","5","4","1","1","2","2","4","5","1","4","609032333906935808","刘","670","","","","","","","","","","","","","","","","","","","","","","","","","","","","","","","","","","","","","","","",""
"692","<p style=""color:rgb(150, 250, 100); font-size: 35px;"">他的</p>","i","categorize-html","26","250015","0.0-6.0-0.0-2.0-1.8","3","4","4","3","3","4","3","3","4","4","4","5","4","5","5","4","4","5","5","5","3","1","1","2","2","2","1","2","1","0","0","1","1","0","0","0","1","0","1","1","0","1","0","1","5","4","1","1","2","2","4","5","1","4","609032333906935808","刘","670","","","","","","","","","","","","","","","","","","","true","1","1","ability","692","other","他的","","","","","","","","","","","","","","",""
"null","","null","html-keyboard-response","27","250267","0.0-6.0-0.0-2.0-0.9","3","4","4","3","3","4","3","3","4","4","4","5","4","5","5","4","4","5","5","5","3","1","1","2","2","2","1","2","1","0","0","1","1","0","0","0","1","0","1","1","0","1","0","1","5","4","1","1","2","2","4","5","1","4","609032333906935808","刘","670","","","","","","","","","","","","","","","","","","","","","","","","","","","","","","","","","","","","","","","",""
"979","<p style=""color:rgb(150, 250, 100); font-size: 35px;"">本人的</p>","e","categorize-html","28","251247","0.0-6.0-0.0-2.0-1.9","3","4","4","3","3","4","3","3","4","4","4","5","4","5","5","4","4","5","5","5","3","1","1","2","2","2","1","2","1","0","0","1","1","0","0","0","1","0","1","1","0","1","0","1","5","4","1","1","2","2","4","5","1","4","609032333906935808","刘","670","","","","","","","","","","","","","","","","","","","true","1","1","ability","979","self","本人的","","","","","","","","","","","","","","",""
"null","","null","html-keyboard-response","29","251499","0.0-6.0-0.0-2.0-0.10","3","4","4","3","3","4","3","3","4","4","4","5","4","5","5","4","4","5","5","5","3","1","1","2","2","2","1","2","1","0","0","1","1","0","0","0","1","0","1","1","0","1","0","1","5","4","1","1","2","2","4","5","1","4","609032333906935808","刘","670","","","","","","","","","","","","","","","","","","","","","","","","","","","","","","","","","","","","","","","",""
"651","<p style=""color:rgb(150, 250, 100); font-size: 35px;"">别人的</p>","i","categorize-html","30","252150","0.0-6.0-0.0-2.0-1.10","3","4","4","3","3","4","3","3","4","4","4","5","4","5","5","4","4","5","5","5","3","1","1","2","2","2","1","2","1","0","0","1","1","0","0","0","1","0","1","1","0","1","0","1","5","4","1","1","2","2","4","5","1","4","609032333906935808","刘","670","","","","","","","","","","","","","","","","","","","true","1","1","ability","651","other","别人的","","","","","","","","","","","","","","",""
"null","","null","html-keyboard-response","31","252402","0.0-6.0-0.0-2.0-0.11","3","4","4","3","3","4","3","3","4","4","4","5","4","5","5","4","4","5","5","5","3","1","1","2","2","2","1","2","1","0","0","1","1","0","0","0","1","0","1","1","0","1","0","1","5","4","1","1","2","2","4","5","1","4","609032333906935808","刘","670","","","","","","","","","","","","","","","","","","","","","","","","","","","","","","","","","","","","","","","",""
"660","<p style=""color:rgb(150, 250, 100); font-size: 35px;"">自己</p>","e","categorize-html","32","253062","0.0-6.0-0.0-2.0-1.11","3","4","4","3","3","4","3","3","4","4","4","5","4","5","5","4","4","5","5","5","3","1","1","2","2","2","1","2","1","0","0","1","1","0","0","0","1","0","1","1","0","1","0","1","5","4","1","1","2","2","4","5","1","4","609032333906935808","刘","670","","","","","","","","","","","","","","","","","","","true","1","1","ability","660","self","自己","","","","","","","","","","","","","","",""
"3847","
    <div class=""tag-bottom""><p>
    —— 任务2：对“积极”词和“消极”词分类 ——<p/>   
    <span style=""color:#78DCE8""><b>注意上方，类别标签和需要分类的词语都已经改变</b></span><p/>
    <span style=""color:#FFD866""><b>请根据上方标签的提示，尽可能正确并且快速地做出按键反应</b></span><p/>
    当按键错误时屏幕中会出现<span style=""color:red""> X </span>，需要按另一个键纠正才能继续<br/><p/>
    请把双手食指分别放在键盘的“E”键和“I”键上<p/>
    按<空格键>开始
    </p></div>"," ","html-keyboard-response","33","256910","0.0-6.0-0.0-3.0","3","4","4","3","3","4","3","3","4","4","4","5","4","5","5","4","4","5","5","5","3","1","1","2","2","2","1","2","1","0","0","1","1","0","0","0","1","0","1","1","0","1","0","1","5","4","1","1","2","2","4","5","1","4","609032333906935808","刘","670","","","","","","","","","","","","","","","","","","","","","","","","","","","","","","","","","","","","","","","",""
"null","","null","html-keyboard-response","34","257161","0.0-6.0-0.0-4.0-0.0","3","4","4","3","3","4","3","3","4","4","4","5","4","5","5","4","4","5","5","5","3","1","1","2","2","2","1","2","1","0","0","1","1","0","0","0","1","0","1","1","0","1","0","1","5","4","1","1","2","2","4","5","1","4","609032333906935808","刘","670","","","","","","","","","","","","","","","","","","","","","","","","","","","","","","","","","","","","","","","",""
"1221","<p style=""color:white; font-size: 35px;"">愚钝</p>","i","categorize-html","35","258382","0.0-6.0-0.0-4.0-1.0","3","4","4","3","3","4","3","3","4","4","4","5","4","5","5","4","4","5","5","5","3","1","1","2","2","2","1","2","1","0","0","1","1","0","0","0","1","0","1","1","0","1","0","1","5","4","1","1","2","2","4","5","1","4","609032333906935808","刘","670","","","","","","","","","","","","","","","","","","","true","2","2","ability","1221","negative","愚钝","","","","","","","","","","","","","","",""
"null","","null","html-keyboard-response","36","258634","0.0-6.0-0.0-4.0-0.1","3","4","4","3","3","4","3","3","4","4","4","5","4","5","5","4","4","5","5","5","3","1","1","2","2","2","1","2","1","0","0","1","1","0","0","0","1","0","1","1","0","1","0","1","5","4","1","1","2","2","4","5","1","4","609032333906935808","刘","670","","","","","","","","","","","","","","","","","","","","","","","","","","","","","","","","","","","","","","","",""
"523","<p style=""color:white; font-size: 35px;"">拙笨</p>","i","categorize-html","37","259159","0.0-6.0-0.0-4.0-1.1","3","4","4","3","3","4","3","3","4","4","4","5","4","5","5","4","4","5","5","5","3","1","1","2","2","2","1","2","1","0","0","1","1","0","0","0","1","0","1","1","0","1","0","1","5","4","1","1","2","2","4","5","1","4","609032333906935808","刘","670","","","","","","","","","","","","","","","","","","","true","2","2","ability","523","negative","拙笨","","","","","","","","","","","","","","",""
"null","","null","html-keyboard-response","38","259410","0.0-6.0-0.0-4.0-0.2","3","4","4","3","3","4","3","3","4","4","4","5","4","5","5","4","4","5","5","5","3","1","1","2","2","2","1","2","1","0","0","1","1","0","0","0","1","0","1","1","0","1","0","1","5","4","1","1","2","2","4","5","1","4","609032333906935808","刘","670","","","","","","","","","","","","","","","","","","","","","","","","","","","","","","","","","","","","","","","",""
"628","<p style=""color:white; font-size: 35px;"">低能</p>","i","categorize-html","39","260038","0.0-6.0-0.0-4.0-1.2","3","4","4","3","3","4","3","3","4","4","4","5","4","5","5","4","4","5","5","5","3","1","1","2","2","2","1","2","1","0","0","1","1","0","0","0","1","0","1","1","0","1","0","1","5","4","1","1","2","2","4","5","1","4","609032333906935808","刘","670","","","","","","","","","","","","","","","","","","","true","2","2","ability","628","negative","低能","","","","","","","","","","","","","","",""
"null","","null","html-keyboard-response","40","260290","0.0-6.0-0.0-4.0-0.3","3","4","4","3","3","4","3","3","4","4","4","5","4","5","5","4","4","5","5","5","3","1","1","2","2","2","1","2","1","0","0","1","1","0","0","0","1","0","1","1","0","1","0","1","5","4","1","1","2","2","4","5","1","4","609032333906935808","刘","670","","","","","","","","","","","","","","","","","","","","","","","","","","","","","","","","","","","","","","","",""
"508","<p style=""color:white; font-size: 35px;"">蠢笨</p>","i","categorize-html","41","260798","0.0-6.0-0.0-4.0-1.3","3","4","4","3","3","4","3","3","4","4","4","5","4","5","5","4","4","5","5","5","3","1","1","2","2","2","1","2","1","0","0","1","1","0","0","0","1","0","1","1","0","1","0","1","5","4","1","1","2","2","4","5","1","4","609032333906935808","刘","670","","","","","","","","","","","","","","","","","","","true","2","2","ability","508","negative","蠢笨","","","","","","","","","","","","","","",""
"null","","null","html-keyboard-response","42","261051","0.0-6.0-0.0-4.0-0.4","3","4","4","3","3","4","3","3","4","4","4","5","4","5","5","4","4","5","5","5","3","1","1","2","2","2","1","2","1","0","0","1","1","0","0","0","1","0","1","1","0","1","0","1","5","4","1","1","2","2","4","5","1","4","609032333906935808","刘","670","","","","","","","","","","","","","","","","","","","","","","","","","","","","","","","","","","","","","","","",""
"475","<p style=""color:white; font-size: 35px;"">废物</p>","i","categorize-html","43","261526","0.0-6.0-0.0-4.0-1.4","3","4","4","3","3","4","3","3","4","4","4","5","4","5","5","4","4","5","5","5","3","1","1","2","2","2","1","2","1","0","0","1","1","0","0","0","1","0","1","1","0","1","0","1","5","4","1","1","2","2","4","5","1","4","609032333906935808","刘","670","","","","","","","","","","","","","","","","","","","true","2","2","ability","475","negative","废物","","","","","","","","","","","","","","",""
"null","","null","html-keyboard-response","44","261791","0.0-6.0-0.0-4.0-0.5","3","4","4","3","3","4","3","3","4","4","4","5","4","5","5","4","4","5","5","5","3","1","1","2","2","2","1","2","1","0","0","1","1","0","0","0","1","0","1","1","0","1","0","1","5","4","1","1","2","2","4","5","1","4","609032333906935808","刘","670","","","","","","","","","","","","","","","","","","","","","","","","","","","","","","","","","","","","","","","",""
"535","<p style=""color:white; font-size: 35px;"">全才</p>","e","categorize-html","45","262326","0.0-6.0-0.0-4.0-1.5","3","4","4","3","3","4","3","3","4","4","4","5","4","5","5","4","4","5","5","5","3","1","1","2","2","2","1","2","1","0","0","1","1","0","0","0","1","0","1","1","0","1","0","1","5","4","1","1","2","2","4","5","1","4","609032333906935808","刘","670","","","","","","","","","","","","","","","","","","","true","2","2","ability","535","positive","全才","","","","","","","","","","","","","","",""
"null","","null","html-keyboard-response","46","262578","0.0-6.0-0.0-4.0-0.6","3","4","4","3","3","4","3","3","4","4","4","5","4","5","5","4","4","5","5","5","3","1","1","2","2","2","1","2","1","0","0","1","1","0","0","0","1","0","1","1","0","1","0","1","5","4","1","1","2","2","4","5","1","4","609032333906935808","刘","670","","","","","","","","","","","","","","","","","","","","","","","","","","","","","","","","","","","","","","","",""
"460","<p style=""color:white; font-size: 35px;"">高效</p>","e","categorize-html","47","263039","0.0-6.0-0.0-4.0-1.6","3","4","4","3","3","4","3","3","4","4","4","5","4","5","5","4","4","5","5","5","3","1","1","2","2","2","1","2","1","0","0","1","1","0","0","0","1","0","1","1","0","1","0","1","5","4","1","1","2","2","4","5","1","4","609032333906935808","刘","670","","","","","","","","","","","","","","","","","","","true","2","2","ability","460","positive","高效","","","","","","","","","","","","","","",""
"null","","null","html-keyboard-response","48","263291","0.0-6.0-0.0-4.0-0.7","3","4","4","3","3","4","3","3","4","4","4","5","4","5","5","4","4","5","5","5","3","1","1","2","2","2","1","2","1","0","0","1","1","0","0","0","1","0","1","1","0","1","0","1","5","4","1","1","2","2","4","5","1","4","609032333906935808","刘","670","","","","","","","","","","","","","","","","","","","","","","","","","","","","","","","","","","","","","","","",""
"691","<p style=""color:white; font-size: 35px;"">能干</p>","e","categorize-html","49","263982","0.0-6.0-0.0-4.0-1.7","3","4","4","3","3","4","3","3","4","4","4","5","4","5","5","4","4","5","5","5","3","1","1","2","2","2","1","2","1","0","0","1","1","0","0","0","1","0","1","1","0","1","0","1","5","4","1","1","2","2","4","5","1","4","609032333906935808","刘","670","","","","","","","","","","","","","","","","","","","true","2","2","ability","691","positive","能干","","","","","","","","","","","","","","",""
"null","","null","html-keyboard-response","50","264233","0.0-6.0-0.0-4.0-0.8","3","4","4","3","3","4","3","3","4","4","4","5","4","5","5","4","4","5","5","5","3","1","1","2","2","2","1","2","1","0","0","1","1","0","0","0","1","0","1","1","0","1","0","1","5","4","1","1","2","2","4","5","1","4","609032333906935808","刘","670","","","","","","","","","","","","","","","","","","","","","","","","","","","","","","","","","","","","","","","",""
"740","<p style=""color:white; font-size: 35px;"">精干</p>","e","categorize-html","51","264975","0.0-6.0-0.0-4.0-1.8","3","4","4","3","3","4","3","3","4","4","4","5","4","5","5","4","4","5","5","5","3","1","1","2","2","2","1","2","1","0","0","1","1","0","0","0","1","0","1","1","0","1","0","1","5","4","1","1","2","2","4","5","1","4","609032333906935808","刘","670","","","","","","","","","","","","","","","","","","","true","2","2","ability","740","positive","精干","","","","","","","","","","","","","","",""
"null","","null","html-keyboard-response","52","265226","0.0-6.0-0.0-4.0-0.9","3","4","4","3","3","4","3","3","4","4","4","5","4","5","5","4","4","5","5","5","3","1","1","2","2","2","1","2","1","0","0","1","1","0","0","0","1","0","1","1","0","1","0","1","5","4","1","1","2","2","4","5","1","4","609032333906935808","刘","670","","","","","","","","","","","","","","","","","","","","","","","","","","","","","","","","","","","","","","","",""
"684","<p style=""color:white; font-size: 35px;"">全能</p>","e","categorize-html","53","265911","0.0-6.0-0.0-4.0-1.9","3","4","4","3","3","4","3","3","4","4","4","5","4","5","5","4","4","5","5","5","3","1","1","2","2","2","1","2","1","0","0","1","1","0","0","0","1","0","1","1","0","1","0","1","5","4","1","1","2","2","4","5","1","4","609032333906935808","刘","670","","","","","","","","","","","","","","","","","","","true","2","2","ability","684","positive","全能","","","","","","","","","","","","","","",""
"null","","null","html-keyboard-response","54","266161","0.0-6.0-0.0-4.0-0.10","3","4","4","3","3","4","3","3","4","4","4","5","4","5","5","4","4","5","5","5","3","1","1","2","2","2","1","2","1","0","0","1","1","0","0","0","1","0","1","1","0","1","0","1","5","4","1","1","2","2","4","5","1","4","609032333906935808","刘","670","","","","","","","","","","","","","","","","","","","","","","","","","","","","","","","","","","","","","","","",""
"652","<p style=""color:white; font-size: 35px;"">无能</p>","i","categorize-html","55","266814","0.0-6.0-0.0-4.0-1.10","3","4","4","3","3","4","3","3","4","4","4","5","4","5","5","4","4","5","5","5","3","1","1","2","2","2","1","2","1","0","0","1","1","0","0","0","1","0","1","1","0","1","0","1","5","4","1","1","2","2","4","5","1","4","609032333906935808","刘","670","","","","","","","","","","","","","","","","","","","true","2","2","ability","652","negative","无能","","","","","","","","","","","","","","",""
"null","","null","html-keyboard-response","56","267066","0.0-6.0-0.0-4.0-0.11","3","4","4","3","3","4","3","3","4","4","4","5","4","5","5","4","4","5","5","5","3","1","1","2","2","2","1","2","1","0","0","1","1","0","0","0","1","0","1","1","0","1","0","1","5","4","1","1","2","2","4","5","1","4","609032333906935808","刘","670","","","","","","","","","","","","","","","","","","","","","","","","","","","","","","","","","","","","","","","",""
"588","<p style=""color:white; font-size: 35px;"">天才</p>","e","categorize-html","57","267655","0.0-6.0-0.0-4.0-1.11","3","4","4","3","3","4","3","3","4","4","4","5","4","5","5","4","4","5","5","5","3","1","1","2","2","2","1","2","1","0","0","1","1","0","0","0","1","0","1","1","0","1","0","1","5","4","1","1","2","2","4","5","1","4","609032333906935808","刘","670","","","","","","","","","","","","","","","","","","","true","2","2","ability","588","positive","天才","","","","","","","","","","","","","","",""
"1960","
    <div class=""tag-bottom""><p>
    —— 任务3：对“自我/积极”词和“他人/消极”词分类 ——<p/>
    <span style=""color:#78DCE8""><b>注意上方，之前的四类词语将混合在一起交替呈现</b></span><p/>
    <span style=""color:#FFD866""><b>请根据上方标签的提示，尽可能正确并且快速地做出按键反应</b></span><p/>
    当按键错误时屏幕中会出现<span style=""color:red""> X </span>，需要按另一个键纠正才能继续<br/><p/>
    请把双手食指分别放在键盘的“E”键和“I”键上<p/>
    按<空格键>开始
    </p></div>"," ","html-keyboard-response","58","269615","0.0-6.0-0.0-5.0","3","4","4","3","3","4","3","3","4","4","4","5","4","5","5","4","4","5","5","5","3","1","1","2","2","2","1","2","1","0","0","1","1","0","0","0","1","0","1","1","0","1","0","1","5","4","1","1","2","2","4","5","1","4","609032333906935808","刘","670","","","","","","","","","","","","","","","","","","","","","","","","","","","","","","","","","","","","","","","",""
"null","","null","html-keyboard-response","59","269878","0.0-6.0-0.0-6.0-0.0","3","4","4","3","3","4","3","3","4","4","4","5","4","5","5","4","4","5","5","5","3","1","1","2","2","2","1","2","1","0","0","1","1","0","0","0","1","0","1","1","0","1","0","1","5","4","1","1","2","2","4","5","1","4","609032333906935808","刘","670","","","","","","","","","","","","","","","","","","","","","","","","","","","","","","","","","","","","","","","",""
"608","<p style=""color:rgb(150, 250, 100); font-size: 35px;"">自己的</p>","e","categorize-html","60","270489","0.0-6.0-0.0-6.0-1.0","3","4","4","3","3","4","3","3","4","4","4","5","4","5","5","4","4","5","5","5","3","1","1","2","2","2","1","2","1","0","0","1","1","0","0","0","1","0","1","1","0","1","0","1","5","4","1","1","2","2","4","5","1","4","609032333906935808","刘","670","","","","","","","","","","","","","","","","","","","true","3","3","ability","608","self","自己的","","","","","","","","","","","","","","",""
"null","","null","html-keyboard-response","61","270742","0.0-6.0-0.0-6.0-0.1","3","4","4","3","3","4","3","3","4","4","4","5","4","5","5","4","4","5","5","5","3","1","1","2","2","2","1","2","1","0","0","1","1","0","0","0","1","0","1","1","0","1","0","1","5","4","1","1","2","2","4","5","1","4","609032333906935808","刘","670","","","","","","","","","","","","","","","","","","","","","","","","","","","","","","","","","","","","","","","",""
"833","<p style=""color:white; font-size: 35px;"">蠢笨</p>","i","categorize-html","62","271575","0.0-6.0-0.0-6.0-1.1","3","4","4","3","3","4","3","3","4","4","4","5","4","5","5","4","4","5","5","5","3","1","1","2","2","2","1","2","1","0","0","1","1","0","0","0","1","0","1","1","0","1","0","1","5","4","1","1","2","2","4","5","1","4","609032333906935808","刘","670","","","","","","","","","","","","","","","","","","","true","3","3","ability","833","negative","蠢笨","","","","","","","","","","","","","","",""
"null","","null","html-keyboard-response","63","271827","0.0-6.0-0.0-6.0-0.2","3","4","4","3","3","4","3","3","4","4","4","5","4","5","5","4","4","5","5","5","3","1","1","2","2","2","1","2","1","0","0","1","1","0","0","0","1","0","1","1","0","1","0","1","5","4","1","1","2","2","4","5","1","4","609032333906935808","刘","670","","","","","","","","","","","","","","","","","","","","","","","","","","","","","","","","","","","","","","","",""
"771","<p style=""color:rgb(150, 250, 100); font-size: 35px;"">别人的</p>","i","categorize-html","64","272600","0.0-6.0-0.0-6.0-1.2","3","4","4","3","3","4","3","3","4","4","4","5","4","5","5","4","4","5","5","5","3","1","1","2","2","2","1","2","1","0","0","1","1","0","0","0","1","0","1","1","0","1","0","1","5","4","1","1","2","2","4","5","1","4","609032333906935808","刘","670","","","","","","","","","","","","","","","","","","","true","3","3","ability","771","other","别人的","","","","","","","","","","","","","","",""
"null","","null","html-keyboard-response","65","272851","0.0-6.0-0.0-6.0-0.3","3","4","4","3","3","4","3","3","4","4","4","5","4","5","5","4","4","5","5","5","3","1","1","2","2","2","1","2","1","0","0","1","1","0","0","0","1","0","1","1","0","1","0","1","5","4","1","1","2","2","4","5","1","4","609032333906935808","刘","670","","","","","","","","","","","","","","","","","","","","","","","","","","","","","","","","","","","","","","","",""
"1437","<p style=""color:white; font-size: 35px;"">能干</p>","e","categorize-html","66","274288","0.0-6.0-0.0-6.0-1.3","3","4","4","3","3","4","3","3","4","4","4","5","4","5","5","4","4","5","5","5","3","1","1","2","2","2","1","2","1","0","0","1","1","0","0","0","1","0","1","1","0","1","0","1","5","4","1","1","2","2","4","5","1","4","609032333906935808","刘","670","","","","","","","","","","","","","","","","","","","true","3","3","ability","1437","positive","能干","","","","","","","","","","","","","","",""
"null","","null","html-keyboard-response","67","274540","0.0-6.0-0.0-6.0-0.4","3","4","4","3","3","4","3","3","4","4","4","5","4","5","5","4","4","5","5","5","3","1","1","2","2","2","1","2","1","0","0","1","1","0","0","0","1","0","1","1","0","1","0","1","5","4","1","1","2","2","4","5","1","4","609032333906935808","刘","670","","","","","","","","","","","","","","","","","","","","","","","","","","","","","","","","","","","","","","","",""
"763","<p style=""color:rgb(150, 250, 100); font-size: 35px;"">别人</p>","i","categorize-html","68","275303","0.0-6.0-0.0-6.0-1.4","3","4","4","3","3","4","3","3","4","4","4","5","4","5","5","4","4","5","5","5","3","1","1","2","2","2","1","2","1","0","0","1","1","0","0","0","1","0","1","1","0","1","0","1","5","4","1","1","2","2","4","5","1","4","609032333906935808","刘","670","","","","","","","","","","","","","","","","","","","true","3","3","ability","763","other","别人","","","","","","","","","","","","","","",""
"null","","null","html-keyboard-response","69","275554","0.0-6.0-0.0-6.0-0.5","3","4","4","3","3","4","3","3","4","4","4","5","4","5","5","4","4","5","5","5","3","1","1","2","2","2","1","2","1","0","0","1","1","0","0","0","1","0","1","1","0","1","0","1","5","4","1","1","2","2","4","5","1","4","609032333906935808","刘","670","","","","","","","","","","","","","","","","","","","","","","","","","","","","","","","","","","","","","","","",""
"884","<p style=""color:white; font-size: 35px;"">愚钝</p>","i","categorize-html","70","276440","0.0-6.0-0.0-6.0-1.5","3","4","4","3","3","4","3","3","4","4","4","5","4","5","5","4","4","5","5","5","3","1","1","2","2","2","1","2","1","0","0","1","1","0","0","0","1","0","1","1","0","1","0","1","5","4","1","1","2","2","4","5","1","4","609032333906935808","刘","670","","","","","","","","","","","","","","","","","","","true","3","3","ability","884","negative","愚钝","","","","","","","","","","","","","","",""
"null","","null","html-keyboard-response","71","276699","0.0-6.0-0.0-6.0-0.6","3","4","4","3","3","4","3","3","4","4","4","5","4","5","5","4","4","5","5","5","3","1","1","2","2","2","1","2","1","0","0","1","1","0","0","0","1","0","1","1","0","1","0","1","5","4","1","1","2","2","4","5","1","4","609032333906935808","刘","670","","","","","","","","","","","","","","","","","","","","","","","","","","","","","","","","","","","","","","","",""
"667","<p style=""color:rgb(150, 250, 100); font-size: 35px;"">本人的</p>","e","categorize-html","72","277368","0.0-6.0-0.0-6.0-1.6","3","4","4","3","3","4","3","3","4","4","4","5","4","5","5","4","4","5","5","5","3","1","1","2","2","2","1","2","1","0","0","1","1","0","0","0","1","0","1","1","0","1","0","1","5","4","1","1","2","2","4","5","1","4","609032333906935808","刘","670","","","","","","","","","","","","","","","","","","","true","3","3","ability","667","self","本人的","","","","","","","","","","","","","","",""
"null","","null","html-keyboard-response","73","277618","0.0-6.0-0.0-6.0-0.7","3","4","4","3","3","4","3","3","4","4","4","5","4","5","5","4","4","5","5","5","3","1","1","2","2","2","1","2","1","0","0","1","1","0","0","0","1","0","1","1","0","1","0","1","5","4","1","1","2","2","4","5","1","4","609032333906935808","刘","670","","","","","","","","","","","","","","","","","","","","","","","","","","","","","","","","","","","","","","","",""
"732","<p style=""color:white; font-size: 35px;"">全能</p>","e","categorize-html","74","278351","0.0-6.0-0.0-6.0-1.7","3","4","4","3","3","4","3","3","4","4","4","5","4","5","5","4","4","5","5","5","3","1","1","2","2","2","1","2","1","0","0","1","1","0","0","0","1","0","1","1","0","1","0","1","5","4","1","1","2","2","4","5","1","4","609032333906935808","刘","670","","","","","","","","","","","","","","","","","","","true","3","3","ability","732","positive","全能","","","","","","","","","","","","","","",""
"null","","null","html-keyboard-response","75","278601","0.0-6.0-0.0-6.0-0.8","3","4","4","3","3","4","3","3","4","4","4","5","4","5","5","4","4","5","5","5","3","1","1","2","2","2","1","2","1","0","0","1","1","0","0","0","1","0","1","1","0","1","0","1","5","4","1","1","2","2","4","5","1","4","609032333906935808","刘","670","","","","","","","","","","","","","","","","","","","","","","","","","","","","","","","","","","","","","","","",""
"1237","<p style=""color:rgb(150, 250, 100); font-size: 35px;"">他人的</p>","i","categorize-html","76","279839","0.0-6.0-0.0-6.0-1.8","3","4","4","3","3","4","3","3","4","4","4","5","4","5","5","4","4","5","5","5","3","1","1","2","2","2","1","2","1","0","0","1","1","0","0","0","1","0","1","1","0","1","0","1","5","4","1","1","2","2","4","5","1","4","609032333906935808","刘","670","","","","","","","","","","","","","","","","","","","true","3","3","ability","1237","other","他人的","","","","","","","","","","","","","","",""
"null","","null","html-keyboard-response","77","280102","0.0-6.0-0.0-6.0-0.9","3","4","4","3","3","4","3","3","4","4","4","5","4","5","5","4","4","5","5","5","3","1","1","2","2","2","1","2","1","0","0","1","1","0","0","0","1","0","1","1","0","1","0","1","5","4","1","1","2","2","4","5","1","4","609032333906935808","刘","670","","","","","","","","","","","","","","","","","","","","","","","","","","","","","","","","","","","","","","","",""
"673","<p style=""color:white; font-size: 35px;"">拙笨</p>","i","categorize-html","78","280775","0.0-6.0-0.0-6.0-1.9","3","4","4","3","3","4","3","3","4","4","4","5","4","5","5","4","4","5","5","5","3","1","1","2","2","2","1","2","1","0","0","1","1","0","0","0","1","0","1","1","0","1","0","1","5","4","1","1","2","2","4","5","1","4","609032333906935808","刘","670","","","","","","","","","","","","","","","","","","","true","3","3","ability","673","negative","拙笨","","","","","","","","","","","","","","",""
"null","","null","html-keyboard-response","79","281026","0.0-6.0-0.0-6.0-0.10","3","4","4","3","3","4","3","3","4","4","4","5","4","5","5","4","4","5","5","5","3","1","1","2","2","2","1","2","1","0","0","1","1","0","0","0","1","0","1","1","0","1","0","1","5","4","1","1","2","2","4","5","1","4","609032333906935808","刘","670","","","","","","","","","","","","","","","","","","","","","","","","","","","","","","","","","","","","","","","",""
"590","<p style=""color:rgb(150, 250, 100); font-size: 35px;"">我</p>","e","categorize-html","80","281618","0.0-6.0-0.0-6.0-1.10","3","4","4","3","3","4","3","3","4","4","4","5","4","5","5","4","4","5","5","5","3","1","1","2","2","2","1","2","1","0","0","1","1","0","0","0","1","0","1","1","0","1","0","1","5","4","1","1","2","2","4","5","1","4","609032333906935808","刘","670","","","","","","","","","","","","","","","","","","","true","3","3","ability","590","self","我","","","","","","","","","","","","","","",""
"null","","null","html-keyboard-response","81","281869","0.0-6.0-0.0-6.0-0.11","3","4","4","3","3","4","3","3","4","4","4","5","4","5","5","4","4","5","5","5","3","1","1","2","2","2","1","2","1","0","0","1","1","0","0","0","1","0","1","1","0","1","0","1","5","4","1","1","2","2","4","5","1","4","609032333906935808","刘","670","","","","","","","","","","","","","","","","","","","","","","","","","","","","","","","","","","","","","","","",""
"753","<p style=""color:white; font-size: 35px;"">高效</p>","e","categorize-html","82","282623","0.0-6.0-0.0-6.0-1.11","3","4","4","3","3","4","3","3","4","4","4","5","4","5","5","4","4","5","5","5","3","1","1","2","2","2","1","2","1","0","0","1","1","0","0","0","1","0","1","1","0","1","0","1","5","4","1","1","2","2","4","5","1","4","609032333906935808","刘","670","","","","","","","","","","","","","","","","","","","true","3","3","ability","753","positive","高效","","","","","","","","","","","","","","",""
"null","","null","html-keyboard-response","83","282875","0.0-6.0-0.0-6.0-0.12","3","4","4","3","3","4","3","3","4","4","4","5","4","5","5","4","4","5","5","5","3","1","1","2","2","2","1","2","1","0","0","1","1","0","0","0","1","0","1","1","0","1","0","1","5","4","1","1","2","2","4","5","1","4","609032333906935808","刘","670","","","","","","","","","","","","","","","","","","","","","","","","","","","","","","","","","","","","","","","",""
"755","<p style=""color:rgb(150, 250, 100); font-size: 35px;"">他人</p>","i","categorize-html","84","283631","0.0-6.0-0.0-6.0-1.12","3","4","4","3","3","4","3","3","4","4","4","5","4","5","5","4","4","5","5","5","3","1","1","2","2","2","1","2","1","0","0","1","1","0","0","0","1","0","1","1","0","1","0","1","5","4","1","1","2","2","4","5","1","4","609032333906935808","刘","670","","","","","","","","","","","","","","","","","","","true","3","3","ability","755","other","他人","","","","","","","","","","","","","","",""
"null","","null","html-keyboard-response","85","283882","0.0-6.0-0.0-6.0-0.13","3","4","4","3","3","4","3","3","4","4","4","5","4","5","5","4","4","5","5","5","3","1","1","2","2","2","1","2","1","0","0","1","1","0","0","0","1","0","1","1","0","1","0","1","5","4","1","1","2","2","4","5","1","4","609032333906935808","刘","670","","","","","","","","","","","","","","","","","","","","","","","","","","","","","","","","","","","","","","","",""
"1084","<p style=""color:white; font-size: 35px;"">无能</p>","i","categorize-html","86","284967","0.0-6.0-0.0-6.0-1.13","3","4","4","3","3","4","3","3","4","4","4","5","4","5","5","4","4","5","5","5","3","1","1","2","2","2","1","2","1","0","0","1","1","0","0","0","1","0","1","1","0","1","0","1","5","4","1","1","2","2","4","5","1","4","609032333906935808","刘","670","","","","","","","","","","","","","","","","","","","true","3","3","ability","1084","negative","无能","","","","","","","","","","","","","","",""
"null","","null","html-keyboard-response","87","285218","0.0-6.0-0.0-6.0-0.14","3","4","4","3","3","4","3","3","4","4","4","5","4","5","5","4","4","5","5","5","3","1","1","2","2","2","1","2","1","0","0","1","1","0","0","0","1","0","1","1","0","1","0","1","5","4","1","1","2","2","4","5","1","4","609032333906935808","刘","670","","","","","","","","","","","","","","","","","","","","","","","","","","","","","","","","","","","","","","","",""
"700","<p style=""color:rgb(150, 250, 100); font-size: 35px;"">自己</p>","e","categorize-html","88","285919","0.0-6.0-0.0-6.0-1.14","3","4","4","3","3","4","3","3","4","4","4","5","4","5","5","4","4","5","5","5","3","1","1","2","2","2","1","2","1","0","0","1","1","0","0","0","1","0","1","1","0","1","0","1","5","4","1","1","2","2","4","5","1","4","609032333906935808","刘","670","","","","","","","","","","","","","","","","","","","true","3","3","ability","700","self","自己","","","","","","","","","","","","","","",""
"null","","null","html-keyboard-response","89","286171","0.0-6.0-0.0-6.0-0.15","3","4","4","3","3","4","3","3","4","4","4","5","4","5","5","4","4","5","5","5","3","1","1","2","2","2","1","2","1","0","0","1","1","0","0","0","1","0","1","1","0","1","0","1","5","4","1","1","2","2","4","5","1","4","609032333906935808","刘","670","","","","","","","","","","","","","","","","","","","","","","","","","","","","","","","","","","","","","","","",""
"604","<p style=""color:white; font-size: 35px;"">精干</p>","e","categorize-html","90","286775","0.0-6.0-0.0-6.0-1.15","3","4","4","3","3","4","3","3","4","4","4","5","4","5","5","4","4","5","5","5","3","1","1","2","2","2","1","2","1","0","0","1","1","0","0","0","1","0","1","1","0","1","0","1","5","4","1","1","2","2","4","5","1","4","609032333906935808","刘","670","","","","","","","","","","","","","","","","","","","true","3","3","ability","604","positive","精干","","","","","","","","","","","","","","",""
"null","","null","html-keyboard-response","91","287026","0.0-6.0-0.0-6.0-0.16","3","4","4","3","3","4","3","3","4","4","4","5","4","5","5","4","4","5","5","5","3","1","1","2","2","2","1","2","1","0","0","1","1","0","0","0","1","0","1","1","0","1","0","1","5","4","1","1","2","2","4","5","1","4","609032333906935808","刘","670","","","","","","","","","","","","","","","","","","","","","","","","","","","","","","","","","","","","","","","",""
"452","<p style=""color:rgb(150, 250, 100); font-size: 35px;"">我的</p>","e","categorize-html","92","287479","0.0-6.0-0.0-6.0-1.16","3","4","4","3","3","4","3","3","4","4","4","5","4","5","5","4","4","5","5","5","3","1","1","2","2","2","1","2","1","0","0","1","1","0","0","0","1","0","1","1","0","1","0","1","5","4","1","1","2","2","4","5","1","4","609032333906935808","刘","670","","","","","","","","","","","","","","","","","","","true","3","3","ability","452","self","我的","","","","","","","","","","","","","","",""
"null","","null","html-keyboard-response","93","287730","0.0-6.0-0.0-6.0-0.17","3","4","4","3","3","4","3","3","4","4","4","5","4","5","5","4","4","5","5","5","3","1","1","2","2","2","1","2","1","0","0","1","1","0","0","0","1","0","1","1","0","1","0","1","5","4","1","1","2","2","4","5","1","4","609032333906935808","刘","670","","","","","","","","","","","","","","","","","","","","","","","","","","","","","","","","","","","","","","","",""
"709","<p style=""color:white; font-size: 35px;"">低能</p>","i","categorize-html","94","288440","0.0-6.0-0.0-6.0-1.17","3","4","4","3","3","4","3","3","4","4","4","5","4","5","5","4","4","5","5","5","3","1","1","2","2","2","1","2","1","0","0","1","1","0","0","0","1","0","1","1","0","1","0","1","5","4","1","1","2","2","4","5","1","4","609032333906935808","刘","670","","","","","","","","","","","","","","","","","","","true","3","3","ability","709","negative","低能","","","","","","","","","","","","","","",""
"null","","null","html-keyboard-response","95","288700","0.0-6.0-0.0-6.0-0.18","3","4","4","3","3","4","3","3","4","4","4","5","4","5","5","4","4","5","5","5","3","1","1","2","2","2","1","2","1","0","0","1","1","0","0","0","1","0","1","1","0","1","0","1","5","4","1","1","2","2","4","5","1","4","609032333906935808","刘","670","","","","","","","","","","","","","","","","","","","","","","","","","","","","","","","","","","","","","","","",""
"618","<p style=""color:rgb(150, 250, 100); font-size: 35px;"">他的</p>","i","categorize-html","96","289319","0.0-6.0-0.0-6.0-1.18","3","4","4","3","3","4","3","3","4","4","4","5","4","5","5","4","4","5","5","5","3","1","1","2","2","2","1","2","1","0","0","1","1","0","0","0","1","0","1","1","0","1","0","1","5","4","1","1","2","2","4","5","1","4","609032333906935808","刘","670","","","","","","","","","","","","","","","","","","","true","3","3","ability","618","other","他的","","","","","","","","","","","","","","",""
"null","","null","html-keyboard-response","97","289570","0.0-6.0-0.0-6.0-0.19","3","4","4","3","3","4","3","3","4","4","4","5","4","5","5","4","4","5","5","5","3","1","1","2","2","2","1","2","1","0","0","1","1","0","0","0","1","0","1","1","0","1","0","1","5","4","1","1","2","2","4","5","1","4","609032333906935808","刘","670","","","","","","","","","","","","","","","","","","","","","","","","","","","","","","","","","","","","","","","",""
"980","<p style=""color:white; font-size: 35px;"">天才</p>","e","categorize-html","98","290551","0.0-6.0-0.0-6.0-1.19","3","4","4","3","3","4","3","3","4","4","4","5","4","5","5","4","4","5","5","5","3","1","1","2","2","2","1","2","1","0","0","1","1","0","0","0","1","0","1","1","0","1","0","1","5","4","1","1","2","2","4","5","1","4","609032333906935808","刘","670","","","","","","","","","","","","","","","","","","","true","3","3","ability","980","positive","天才","","","","","","","","","","","","","","",""
"null","","null","html-keyboard-response","99","290810","0.0-6.0-0.0-6.0-0.20","3","4","4","3","3","4","3","3","4","4","4","5","4","5","5","4","4","5","5","5","3","1","1","2","2","2","1","2","1","0","0","1","1","0","0","0","1","0","1","1","0","1","0","1","5","4","1","1","2","2","4","5","1","4","609032333906935808","刘","670","","","","","","","","","","","","","","","","","","","","","","","","","","","","","","","","","","","","","","","",""
"1365","<p style=""color:rgb(150, 250, 100); font-size: 35px;"">本人</p>","e","categorize-html","100","292176","0.0-6.0-0.0-6.0-1.20","3","4","4","3","3","4","3","3","4","4","4","5","4","5","5","4","4","5","5","5","3","1","1","2","2","2","1","2","1","0","0","1","1","0","0","0","1","0","1","1","0","1","0","1","5","4","1","1","2","2","4","5","1","4","609032333906935808","刘","670","","","","","","","","","","","","","","","","","","","true","3","3","ability","1365","self","本人","","","","","","","","","","","","","","",""
"null","","null","html-keyboard-response","101","292427","0.0-6.0-0.0-6.0-0.21","3","4","4","3","3","4","3","3","4","4","4","5","4","5","5","4","4","5","5","5","3","1","1","2","2","2","1","2","1","0","0","1","1","0","0","0","1","0","1","1","0","1","0","1","5","4","1","1","2","2","4","5","1","4","609032333906935808","刘","670","","","","","","","","","","","","","","","","","","","","","","","","","","","","","","","","","","","","","","","",""
"1140","<p style=""color:white; font-size: 35px;"">废物</p>","i","categorize-html","102","293567","0.0-6.0-0.0-6.0-1.21","3","4","4","3","3","4","3","3","4","4","4","5","4","5","5","4","4","5","5","5","3","1","1","2","2","2","1","2","1","0","0","1","1","0","0","0","1","0","1","1","0","1","0","1","5","4","1","1","2","2","4","5","1","4","609032333906935808","刘","670","","","","","","","","","","","","","","","","","","","true","3","3","ability","1140","negative","废物","","","","","","","","","","","","","","",""
"null","","null","html-keyboard-response","103","293818","0.0-6.0-0.0-6.0-0.22","3","4","4","3","3","4","3","3","4","4","4","5","4","5","5","4","4","5","5","5","3","1","1","2","2","2","1","2","1","0","0","1","1","0","0","0","1","0","1","1","0","1","0","1","5","4","1","1","2","2","4","5","1","4","609032333906935808","刘","670","","","","","","","","","","","","","","","","","","","","","","","","","","","","","","","","","","","","","","","",""
"773","<p style=""color:rgb(150, 250, 100); font-size: 35px;"">他</p>","i","categorize-html","104","294591","0.0-6.0-0.0-6.0-1.22","3","4","4","3","3","4","3","3","4","4","4","5","4","5","5","4","4","5","5","5","3","1","1","2","2","2","1","2","1","0","0","1","1","0","0","0","1","0","1","1","0","1","0","1","5","4","1","1","2","2","4","5","1","4","609032333906935808","刘","670","","","","","","","","","","","","","","","","","","","true","3","3","ability","773","other","他","","","","","","","","","","","","","","",""
"null","","null","html-keyboard-response","105","294842","0.0-6.0-0.0-6.0-0.23","3","4","4","3","3","4","3","3","4","4","4","5","4","5","5","4","4","5","5","5","3","1","1","2","2","2","1","2","1","0","0","1","1","0","0","0","1","0","1","1","0","1","0","1","5","4","1","1","2","2","4","5","1","4","609032333906935808","刘","670","","","","","","","","","","","","","","","","","","","","","","","","","","","","","","","","","","","","","","","",""
"660","<p style=""color:white; font-size: 35px;"">全才</p>","e","categorize-html","106","295503","0.0-6.0-0.0-6.0-1.23","3","4","4","3","3","4","3","3","4","4","4","5","4","5","5","4","4","5","5","5","3","1","1","2","2","2","1","2","1","0","0","1","1","0","0","0","1","0","1","1","0","1","0","1","5","4","1","1","2","2","4","5","1","4","609032333906935808","刘","670","","","","","","","","","","","","","","","","","","","true","3","3","ability","660","positive","全才","","","","","","","","","","","","","","",""
"1551","
    <div class=""tag-bottom""><p>
    —— 任务4：对“自我/积极”词和“他人/消极”词分类 ——<p/>
    <span style=""color:#78DCE8""><b>与刚才的任务完全相同，请再次对这四类词语分类</b></span><p/>
    <span style=""color:#FFD866""><b>请根据上方标签的提示，尽可能正确并且快速地做出按键反应</b></span><p/>
    当按键错误时屏幕中会出现<span style=""color:red""> X </span>，需要按另一个键纠正才能继续<br/><p/>
    请把双手食指分别放在键盘的“E”键和“I”键上<p/>
    按<空格键>开始
    </p></div>"," ","html-keyboard-response","107","297055","0.0-6.0-0.0-7.0","3","4","4","3","3","4","3","3","4","4","4","5","4","5","5","4","4","5","5","5","3","1","1","2","2","2","1","2","1","0","0","1","1","0","0","0","1","0","1","1","0","1","0","1","5","4","1","1","2","2","4","5","1","4","609032333906935808","刘","670","","","","","","","","","","","","","","","","","","","","","","","","","","","","","","","","","","","","","","","",""
"null","","null","html-keyboard-response","108","297306","0.0-6.0-0.0-8.0-0.0","3","4","4","3","3","4","3","3","4","4","4","5","4","5","5","4","4","5","5","5","3","1","1","2","2","2","1","2","1","0","0","1","1","0","0","0","1","0","1","1","0","1","0","1","5","4","1","1","2","2","4","5","1","4","609032333906935808","刘","670","","","","","","","","","","","","","","","","","","","","","","","","","","","","","","","","","","","","","","","",""
"781","<p style=""color:rgb(150, 250, 100); font-size: 35px;"">他人的</p>","i","categorize-html","109","298088","0.0-6.0-0.0-8.0-1.0","3","4","4","3","3","4","3","3","4","4","4","5","4","5","5","4","4","5","5","5","3","1","1","2","2","2","1","2","1","0","0","1","1","0","0","0","1","0","1","1","0","1","0","1","5","4","1","1","2","2","4","5","1","4","609032333906935808","刘","670","","","","","","","","","","","","","","","","","","","true","4","4","ability","781","other","他人的","","","","","","","","","","","","","","",""
"null","","null","html-keyboard-response","110","298339","0.0-6.0-0.0-8.0-0.1","3","4","4","3","3","4","3","3","4","4","4","5","4","5","5","4","4","5","5","5","3","1","1","2","2","2","1","2","1","0","0","1","1","0","0","0","1","0","1","1","0","1","0","1","5","4","1","1","2","2","4","5","1","4","609032333906935808","刘","670","","","","","","","","","","","","","","","","","","","","","","","","","","","","","","","","","","","","","","","",""
"1483","<p style=""color:white; font-size: 35px;"">拙笨</p>","i","categorize-html","111","299823","0.0-6.0-0.0-8.0-1.1","3","4","4","3","3","4","3","3","4","4","4","5","4","5","5","4","4","5","5","5","3","1","1","2","2","2","1","2","1","0","0","1","1","0","0","0","1","0","1","1","0","1","0","1","5","4","1","1","2","2","4","5","1","4","609032333906935808","刘","670","","","","","","","","","","","","","","","","","","","true","4","4","ability","1483","negative","拙笨","","","","","","","","","","","","","","",""
"null","","null","html-keyboard-response","112","300075","0.0-6.0-0.0-8.0-0.2","3","4","4","3","3","4","3","3","4","4","4","5","4","5","5","4","4","5","5","5","3","1","1","2","2","2","1","2","1","0","0","1","1","0","0","0","1","0","1","1","0","1","0","1","5","4","1","1","2","2","4","5","1","4","609032333906935808","刘","670","","","","","","","","","","","","","","","","","","","","","","","","","","","","","","","","","","","","","","","",""
"1539","<p style=""color:rgb(150, 250, 100); font-size: 35px;"">本人</p>","e","categorize-html","113","301615","0.0-6.0-0.0-8.0-1.2","3","4","4","3","3","4","3","3","4","4","4","5","4","5","5","4","4","5","5","5","3","1","1","2","2","2","1","2","1","0","0","1","1","0","0","0","1","0","1","1","0","1","0","1","5","4","1","1","2","2","4","5","1","4","609032333906935808","刘","670","","","","","","","","","","","","","","","","","","","true","4","4","ability","1539","self","本人","","","","","","","","","","","","","","",""
"null","","null","html-keyboard-response","114","301866","0.0-6.0-0.0-8.0-0.3","3","4","4","3","3","4","3","3","4","4","4","5","4","5","5","4","4","5","5","5","3","1","1","2","2","2","1","2","1","0","0","1","1","0","0","0","1","0","1","1","0","1","0","1","5","4","1","1","2","2","4","5","1","4","609032333906935808","刘","670","","","","","","","","","","","","","","","","","","","","","","","","","","","","","","","","","","","","","","","",""
"1021","<p style=""color:white; font-size: 35px;"">天才</p>","e","categorize-html","115","302888","0.0-6.0-0.0-8.0-1.3","3","4","4","3","3","4","3","3","4","4","4","5","4","5","5","4","4","5","5","5","3","1","1","2","2","2","1","2","1","0","0","1","1","0","0","0","1","0","1","1","0","1","0","1","5","4","1","1","2","2","4","5","1","4","609032333906935808","刘","670","","","","","","","","","","","","","","","","","","","true","4","4","ability","1021","positive","天才","","","","","","","","","","","","","","",""
"null","","null","html-keyboard-response","116","303139","0.0-6.0-0.0-8.0-0.4","3","4","4","3","3","4","3","3","4","4","4","5","4","5","5","4","4","5","5","5","3","1","1","2","2","2","1","2","1","0","0","1","1","0","0","0","1","0","1","1","0","1","0","1","5","4","1","1","2","2","4","5","1","4","609032333906935808","刘","670","","","","","","","","","","","","","","","","","","","","","","","","","","","","","","","","","","","","","","","",""
"563","<p style=""color:rgb(150, 250, 100); font-size: 35px;"">别人的</p>","i","categorize-html","117","303703","0.0-6.0-0.0-8.0-1.4","3","4","4","3","3","4","3","3","4","4","4","5","4","5","5","4","4","5","5","5","3","1","1","2","2","2","1","2","1","0","0","1","1","0","0","0","1","0","1","1","0","1","0","1","5","4","1","1","2","2","4","5","1","4","609032333906935808","刘","670","","","","","","","","","","","","","","","","","","","true","4","4","ability","563","other","别人的","","","","","","","","","","","","","","",""
"null","","null","html-keyboard-response","118","303954","0.0-6.0-0.0-8.0-0.5","3","4","4","3","3","4","3","3","4","4","4","5","4","5","5","4","4","5","5","5","3","1","1","2","2","2","1","2","1","0","0","1","1","0","0","0","1","0","1","1","0","1","0","1","5","4","1","1","2","2","4","5","1","4","609032333906935808","刘","670","","","","","","","","","","","","","","","","","","","","","","","","","","","","","","","","","","","","","","","",""
"1341","<p style=""color:white; font-size: 35px;"">拙笨</p>","i","categorize-html","119","305296","0.0-6.0-0.0-8.0-1.5","3","4","4","3","3","4","3","3","4","4","4","5","4","5","5","4","4","5","5","5","3","1","1","2","2","2","1","2","1","0","0","1","1","0","0","0","1","0","1","1","0","1","0","1","5","4","1","1","2","2","4","5","1","4","609032333906935808","刘","670","","","","","","","","","","","","","","","","","","","true","4","4","ability","1341","negative","拙笨","","","","","","","","","","","","","","",""
"null","","null","html-keyboard-response","120","305547","0.0-6.0-0.0-8.0-0.6","3","4","4","3","3","4","3","3","4","4","4","5","4","5","5","4","4","5","5","5","3","1","1","2","2","2","1","2","1","0","0","1","1","0","0","0","1","0","1","1","0","1","0","1","5","4","1","1","2","2","4","5","1","4","609032333906935808","刘","670","","","","","","","","","","","","","","","","","","","","","","","","","","","","","","","","","","","","","","","",""
"595","<p style=""color:rgb(150, 250, 100); font-size: 35px;"">自己</p>","e","categorize-html","121","306143","0.0-6.0-0.0-8.0-1.6","3","4","4","3","3","4","3","3","4","4","4","5","4","5","5","4","4","5","5","5","3","1","1","2","2","2","1","2","1","0","0","1","1","0","0","0","1","0","1","1","0","1","0","1","5","4","1","1","2","2","4","5","1","4","609032333906935808","刘","670","","","","","","","","","","","","","","","","","","","true","4","4","ability","595","self","自己","","","","","","","","","","","","","","",""
"null","","null","html-keyboard-response","122","306395","0.0-6.0-0.0-8.0-0.7","3","4","4","3","3","4","3","3","4","4","4","5","4","5","5","4","4","5","5","5","3","1","1","2","2","2","1","2","1","0","0","1","1","0","0","0","1","0","1","1","0","1","0","1","5","4","1","1","2","2","4","5","1","4","609032333906935808","刘","670","","","","","","","","","","","","","","","","","","","","","","","","","","","","","","","","","","","","","","","",""
"1731","<p style=""color:white; font-size: 35px;"">能干</p>","e","categorize-html","123","308127","0.0-6.0-0.0-8.0-1.7","3","4","4","3","3","4","3","3","4","4","4","5","4","5","5","4","4","5","5","5","3","1","1","2","2","2","1","2","1","0","0","1","1","0","0","0","1","0","1","1","0","1","0","1","5","4","1","1","2","2","4","5","1","4","609032333906935808","刘","670","","","","","","","","","","","","","","","","","","","true","4","4","ability","1731","positive","能干","","","","","","","","","","","","","","",""
"null","","null","html-keyboard-response","124","308378","0.0-6.0-0.0-8.0-0.8","3","4","4","3","3","4","3","3","4","4","4","5","4","5","5","4","4","5","5","5","3","1","1","2","2","2","1","2","1","0","0","1","1","0","0","0","1","0","1","1","0","1","0","1","5","4","1","1","2","2","4","5","1","4","609032333906935808","刘","670","","","","","","","","","","","","","","","","","","","","","","","","","","","","","","","","","","","","","","","",""
"508","<p style=""color:rgb(150, 250, 100); font-size: 35px;"">我</p>","e","categorize-html","125","308886","0.0-6.0-0.0-8.0-1.8","3","4","4","3","3","4","3","3","4","4","4","5","4","5","5","4","4","5","5","5","3","1","1","2","2","2","1","2","1","0","0","1","1","0","0","0","1","0","1","1","0","1","0","1","5","4","1","1","2","2","4","5","1","4","609032333906935808","刘","670","","","","","","","","","","","","","","","","","","","true","4","4","ability","508","self","我","","","","","","","","","","","","","","",""
"null","","null","html-keyboard-response","126","309138","0.0-6.0-0.0-8.0-0.9","3","4","4","3","3","4","3","3","4","4","4","5","4","5","5","4","4","5","5","5","3","1","1","2","2","2","1","2","1","0","0","1","1","0","0","0","1","0","1","1","0","1","0","1","5","4","1","1","2","2","4","5","1","4","609032333906935808","刘","670","","","","","","","","","","","","","","","","","","","","","","","","","","","","","","","","","","","","","","","",""
"1188","<p style=""color:white; font-size: 35px;"">全才</p>","e","categorize-html","127","310327","0.0-6.0-0.0-8.0-1.9","3","4","4","3","3","4","3","3","4","4","4","5","4","5","5","4","4","5","5","5","3","1","1","2","2","2","1","2","1","0","0","1","1","0","0","0","1","0","1","1","0","1","0","1","5","4","1","1","2","2","4","5","1","4","609032333906935808","刘","670","","","","","","","","","","","","","","","","","","","true","4","4","ability","1188","positive","全才","","","","","","","","","","","","","","",""
"null","","null","html-keyboard-response","128","310578","0.0-6.0-0.0-8.0-0.10","3","4","4","3","3","4","3","3","4","4","4","5","4","5","5","4","4","5","5","5","3","1","1","2","2","2","1","2","1","0","0","1","1","0","0","0","1","0","1","1","0","1","0","1","5","4","1","1","2","2","4","5","1","4","609032333906935808","刘","670","","","","","","","","","","","","","","","","","","","","","","","","","","","","","","","","","","","","","","","",""
"3652","<p style=""color:rgb(150, 250, 100); font-size: 35px;"">别人</p>","i","categorize-html","129","314231","0.0-6.0-0.0-8.0-1.10","3","4","4","3","3","4","3","3","4","4","4","5","4","5","5","4","4","5","5","5","3","1","1","2","2","2","1","2","1","0","0","1","1","0","0","0","1","0","1","1","0","1","0","1","5","4","1","1","2","2","4","5","1","4","609032333906935808","刘","670","","","","","","","","","","","","","","","","","","","true","4","4","ability","3652","other","别人","","","","","","","","","","","","","","",""
"null","","null","html-keyboard-response","130","314483","0.0-6.0-0.0-8.0-0.11","3","4","4","3","3","4","3","3","4","4","4","5","4","5","5","4","4","5","5","5","3","1","1","2","2","2","1","2","1","0","0","1","1","0","0","0","1","0","1","1","0","1","0","1","5","4","1","1","2","2","4","5","1","4","609032333906935808","刘","670","","","","","","","","","","","","","","","","","","","","","","","","","","","","","","","","","","","","","","","",""
"667","<p style=""color:white; font-size: 35px;"">无能</p>","i","categorize-html","131","315151","0.0-6.0-0.0-8.0-1.11","3","4","4","3","3","4","3","3","4","4","4","5","4","5","5","4","4","5","5","5","3","1","1","2","2","2","1","2","1","0","0","1","1","0","0","0","1","0","1","1","0","1","0","1","5","4","1","1","2","2","4","5","1","4","609032333906935808","刘","670","","","","","","","","","","","","","","","","","","","true","4","4","ability","667","negative","无能","","","","","","","","","","","","","","",""
"null","","null","html-keyboard-response","132","315402","0.0-6.0-0.0-8.0-0.12","3","4","4","3","3","4","3","3","4","4","4","5","4","5","5","4","4","5","5","5","3","1","1","2","2","2","1","2","1","0","0","1","1","0","0","0","1","0","1","1","0","1","0","1","5","4","1","1","2","2","4","5","1","4","609032333906935808","刘","670","","","","","","","","","","","","","","","","","","","","","","","","","","","","","","","","","","","","","","","",""
"804","<p style=""color:rgb(150, 250, 100); font-size: 35px;"">我的</p>","e","categorize-html","133","316207","0.0-6.0-0.0-8.0-1.12","3","4","4","3","3","4","3","3","4","4","4","5","4","5","5","4","4","5","5","5","3","1","1","2","2","2","1","2","1","0","0","1","1","0","0","0","1","0","1","1","0","1","0","1","5","4","1","1","2","2","4","5","1","4","609032333906935808","刘","670","","","","","","","","","","","","","","","","","","","true","4","4","ability","804","self","我的","","","","","","","","","","","","","","",""
"null","","null","html-keyboard-response","134","316459","0.0-6.0-0.0-8.0-0.13","3","4","4","3","3","4","3","3","4","4","4","5","4","5","5","4","4","5","5","5","3","1","1","2","2","2","1","2","1","0","0","1","1","0","0","0","1","0","1","1","0","1","0","1","5","4","1","1","2","2","4","5","1","4","609032333906935808","刘","670","","","","","","","","","","","","","","","","","","","","","","","","","","","","","","","","","","","","","","","",""
"2683","<p style=""color:white; font-size: 35px;"">无能</p>","i","categorize-html","135","319143","0.0-6.0-0.0-8.0-1.13","3","4","4","3","3","4","3","3","4","4","4","5","4","5","5","4","4","5","5","5","3","1","1","2","2","2","1","2","1","0","0","1","1","0","0","0","1","0","1","1","0","1","0","1","5","4","1","1","2","2","4","5","1","4","609032333906935808","刘","670","","","","","","","","","","","","","","","","","","","true","4","4","ability","2683","negative","无能","","","","","","","","","","","","","","",""
"null","","null","html-keyboard-response","136","319404","0.0-6.0-0.0-8.0-0.14","3","4","4","3","3","4","3","3","4","4","4","5","4","5","5","4","4","5","5","5","3","1","1","2","2","2","1","2","1","0","0","1","1","0","0","0","1","0","1","1","0","1","0","1","5","4","1","1","2","2","4","5","1","4","609032333906935808","刘","670","","","","","","","","","","","","","","","","","","","","","","","","","","","","","","","","","","","","","","","",""
"626","<p style=""color:rgb(150, 250, 100); font-size: 35px;"">他人的</p>","i","categorize-html","137","320031","0.0-6.0-0.0-8.0-1.14","3","4","4","3","3","4","3","3","4","4","4","5","4","5","5","4","4","5","5","5","3","1","1","2","2","2","1","2","1","0","0","1","1","0","0","0","1","0","1","1","0","1","0","1","5","4","1","1","2","2","4","5","1","4","609032333906935808","刘","670","","","","","","","","","","","","","","","","","","","true","4","4","ability","626","other","他人的","","","","","","","","","","","","","","",""
"null","","null","html-keyboard-response","138","320282","0.0-6.0-0.0-8.0-0.15","3","4","4","3","3","4","3","3","4","4","4","5","4","5","5","4","4","5","5","5","3","1","1","2","2","2","1","2","1","0","0","1","1","0","0","0","1","0","1","1","0","1","0","1","5","4","1","1","2","2","4","5","1","4","609032333906935808","刘","670","","","","","","","","","","","","","","","","","","","","","","","","","","","","","","","","","","","","","","","",""
"796","<p style=""color:white; font-size: 35px;"">精干</p>","e","categorize-html","139","321079","0.0-6.0-0.0-8.0-1.15","3","4","4","3","3","4","3","3","4","4","4","5","4","5","5","4","4","5","5","5","3","1","1","2","2","2","1","2","1","0","0","1","1","0","0","0","1","0","1","1","0","1","0","1","5","4","1","1","2","2","4","5","1","4","609032333906935808","刘","670","","","","","","","","","","","","","","","","","","","true","4","4","ability","796","positive","精干","","","","","","","","","","","","","","",""
"null","","null","html-keyboard-response","140","321330","0.0-6.0-0.0-8.0-0.16","3","4","4","3","3","4","3","3","4","4","4","5","4","5","5","4","4","5","5","5","3","1","1","2","2","2","1","2","1","0","0","1","1","0","0","0","1","0","1","1","0","1","0","1","5","4","1","1","2","2","4","5","1","4","609032333906935808","刘","670","","","","","","","","","","","","","","","","","","","","","","","","","","","","","","","","","","","","","","","",""
"516","<p style=""color:rgb(150, 250, 100); font-size: 35px;"">他人</p>","i","categorize-html","141","321847","0.0-6.0-0.0-8.0-1.16","3","4","4","3","3","4","3","3","4","4","4","5","4","5","5","4","4","5","5","5","3","1","1","2","2","2","1","2","1","0","0","1","1","0","0","0","1","0","1","1","0","1","0","1","5","4","1","1","2","2","4","5","1","4","609032333906935808","刘","670","","","","","","","","","","","","","","","","","","","true","4","4","ability","516","other","他人","","","","","","","","","","","","","","",""
"null","","null","html-keyboard-response","142","322097","0.0-6.0-0.0-8.0-0.17","3","4","4","3","3","4","3","3","4","4","4","5","4","5","5","4","4","5","5","5","3","1","1","2","2","2","1","2","1","0","0","1","1","0","0","0","1","0","1","1","0","1","0","1","5","4","1","1","2","2","4","5","1","4","609032333906935808","刘","670","","","","","","","","","","","","","","","","","","","","","","","","","","","","","","","","","","","","","","","",""
"773","<p style=""color:white; font-size: 35px;"">精干</p>","i","categorize-html","143","323343","0.0-6.0-0.0-8.0-1.17","3","4","4","3","3","4","3","3","4","4","4","5","4","5","5","4","4","5","5","5","3","1","1","2","2","2","1","2","1","0","0","1","1","0","0","0","1","0","1","1","0","1","0","1","5","4","1","1","2","2","4","5","1","4","609032333906935808","刘","670","","","","","","","","","","","","","","","","","","","false","4","4","ability","1531.4255319148938","positive","精干","","","","","","","","","","","","","","",""
"null","","null","html-keyboard-response","144","323594","0.0-6.0-0.0-8.0-0.18","3","4","4","3","3","4","3","3","4","4","4","5","4","5","5","4","4","5","5","5","3","1","1","2","2","2","1","2","1","0","0","1","1","0","0","0","1","0","1","1","0","1","0","1","5","4","1","1","2","2","4","5","1","4","609032333906935808","刘","670","","","","","","","","","","","","","","","","","","","","","","","","","","","","","","","","","","","","","","","",""
"532","<p style=""color:rgb(150, 250, 100); font-size: 35px;"">我</p>","e","categorize-html","145","324127","0.0-6.0-0.0-8.0-1.18","3","4","4","3","3","4","3","3","4","4","4","5","4","5","5","4","4","5","5","5","3","1","1","2","2","2","1","2","1","0","0","1","1","0","0","0","1","0","1","1","0","1","0","1","5","4","1","1","2","2","4","5","1","4","609032333906935808","刘","670","","","","","","","","","","","","","","","","","","","true","4","4","ability","532","self","我","","","","","","","","","","","","","","",""
"null","","null","html-keyboard-response","146","324378","0.0-6.0-0.0-8.0-0.19","3","4","4","3","3","4","3","3","4","4","4","5","4","5","5","4","4","5","5","5","3","1","1","2","2","2","1","2","1","0","0","1","1","0","0","0","1","0","1","1","0","1","0","1","5","4","1","1","2","2","4","5","1","4","609032333906935808","刘","670","","","","","","","","","","","","","","","","","","","","","","","","","","","","","","","","","","","","","","","",""
"580","<p style=""color:white; font-size: 35px;"">废物</p>","i","categorize-html","147","324959","0.0-6.0-0.0-8.0-1.19","3","4","4","3","3","4","3","3","4","4","4","5","4","5","5","4","4","5","5","5","3","1","1","2","2","2","1","2","1","0","0","1","1","0","0","0","1","0","1","1","0","1","0","1","5","4","1","1","2","2","4","5","1","4","609032333906935808","刘","670","","","","","","","","","","","","","","","","","","","true","4","4","ability","580","negative","废物","","","","","","","","","","","","","","",""
"null","","null","html-keyboard-response","148","325209","0.0-6.0-0.0-8.0-0.20","3","4","4","3","3","4","3","3","4","4","4","5","4","5","5","4","4","5","5","5","3","1","1","2","2","2","1","2","1","0","0","1","1","0","0","0","1","0","1","1","0","1","0","1","5","4","1","1","2","2","4","5","1","4","609032333906935808","刘","670","","","","","","","","","","","","","","","","","","","","","","","","","","","","","","","","","","","","","","","",""
"830","<p style=""color:rgb(150, 250, 100); font-size: 35px;"">他的</p>","i","categorize-html","149","326040","0.0-6.0-0.0-8.0-1.20","3","4","4","3","3","4","3","3","4","4","4","5","4","5","5","4","4","5","5","5","3","1","1","2","2","2","1","2","1","0","0","1","1","0","0","0","1","0","1","1","0","1","0","1","5","4","1","1","2","2","4","5","1","4","609032333906935808","刘","670","","","","","","","","","","","","","","","","","","","true","4","4","ability","830","other","他的","","","","","","","","","","","","","","",""
"null","","null","html-keyboard-response","150","326291","0.0-6.0-0.0-8.0-0.21","3","4","4","3","3","4","3","3","4","4","4","5","4","5","5","4","4","5","5","5","3","1","1","2","2","2","1","2","1","0","0","1","1","0","0","0","1","0","1","1","0","1","0","1","5","4","1","1","2","2","4","5","1","4","609032333906935808","刘","670","","","","","","","","","","","","","","","","","","","","","","","","","","","","","","","","","","","","","","","",""
"627","<p style=""color:white; font-size: 35px;"">废物</p>","i","categorize-html","151","326919","0.0-6.0-0.0-8.0-1.21","3","4","4","3","3","4","3","3","4","4","4","5","4","5","5","4","4","5","5","5","3","1","1","2","2","2","1","2","1","0","0","1","1","0","0","0","1","0","1","1","0","1","0","1","5","4","1","1","2","2","4","5","1","4","609032333906935808","刘","670","","","","","","","","","","","","","","","","","","","true","4","4","ability","627","negative","废物","","","","","","","","","","","","","","",""
"null","","null","html-keyboard-response","152","327171","0.0-6.0-0.0-8.0-0.22","3","4","4","3","3","4","3","3","4","4","4","5","4","5","5","4","4","5","5","5","3","1","1","2","2","2","1","2","1","0","0","1","1","0","0","0","1","0","1","1","0","1","0","1","5","4","1","1","2","2","4","5","1","4","609032333906935808","刘","670","","","","","","","","","","","","","","","","","","","","","","","","","","","","","","","","","","","","","","","",""
"588","<p style=""color:rgb(150, 250, 100); font-size: 35px;"">本人的</p>","e","categorize-html","153","327759","0.0-6.0-0.0-8.0-1.22","3","4","4","3","3","4","3","3","4","4","4","5","4","5","5","4","4","5","5","5","3","1","1","2","2","2","1","2","1","0","0","1","1","0","0","0","1","0","1","1","0","1","0","1","5","4","1","1","2","2","4","5","1","4","609032333906935808","刘","670","","","","","","","","","","","","","","","","","","","true","4","4","ability","588","self","本人的","","","","","","","","","","","","","","",""
"null","","null","html-keyboard-response","154","328010","0.0-6.0-0.0-8.0-0.23","3","4","4","3","3","4","3","3","4","4","4","5","4","5","5","4","4","5","5","5","3","1","1","2","2","2","1","2","1","0","0","1","1","0","0","0","1","0","1","1","0","1","0","1","5","4","1","1","2","2","4","5","1","4","609032333906935808","刘","670","","","","","","","","","","","","","","","","","","","","","","","","","","","","","","","","","","","","","","","",""
"588","<p style=""color:white; font-size: 35px;"">全才</p>","e","categorize-html","155","328599","0.0-6.0-0.0-8.0-1.23","3","4","4","3","3","4","3","3","4","4","4","5","4","5","5","4","4","5","5","5","3","1","1","2","2","2","1","2","1","0","0","1","1","0","0","0","1","0","1","1","0","1","0","1","5","4","1","1","2","2","4","5","1","4","609032333906935808","刘","670","","","","","","","","","","","","","","","","","","","true","4","4","ability","588","positive","全才","","","","","","","","","","","","","","",""
"null","","null","html-keyboard-response","156","328850","0.0-6.0-0.0-8.0-0.24","3","4","4","3","3","4","3","3","4","4","4","5","4","5","5","4","4","5","5","5","3","1","1","2","2","2","1","2","1","0","0","1","1","0","0","0","1","0","1","1","0","1","0","1","5","4","1","1","2","2","4","5","1","4","609032333906935808","刘","670","","","","","","","","","","","","","","","","","","","","","","","","","","","","","","","","","","","","","","","",""
"676","<p style=""color:rgb(150, 250, 100); font-size: 35px;"">他</p>","i","categorize-html","157","329527","0.0-6.0-0.0-8.0-1.24","3","4","4","3","3","4","3","3","4","4","4","5","4","5","5","4","4","5","5","5","3","1","1","2","2","2","1","2","1","0","0","1","1","0","0","0","1","0","1","1","0","1","0","1","5","4","1","1","2","2","4","5","1","4","609032333906935808","刘","670","","","","","","","","","","","","","","","","","","","true","4","4","ability","676","other","他","","","","","","","","","","","","","","",""
"null","","null","html-keyboard-response","158","329778","0.0-6.0-0.0-8.0-0.25","3","4","4","3","3","4","3","3","4","4","4","5","4","5","5","4","4","5","5","5","3","1","1","2","2","2","1","2","1","0","0","1","1","0","0","0","1","0","1","1","0","1","0","1","5","4","1","1","2","2","4","5","1","4","609032333906935808","刘","670","","","","","","","","","","","","","","","","","","","","","","","","","","","","","","","","","","","","","","","",""
"668","<p style=""color:white; font-size: 35px;"">全能</p>","e","categorize-html","159","330447","0.0-6.0-0.0-8.0-1.25","3","4","4","3","3","4","3","3","4","4","4","5","4","5","5","4","4","5","5","5","3","1","1","2","2","2","1","2","1","0","0","1","1","0","0","0","1","0","1","1","0","1","0","1","5","4","1","1","2","2","4","5","1","4","609032333906935808","刘","670","","","","","","","","","","","","","","","","","","","true","4","4","ability","668","positive","全能","","","","","","","","","","","","","","",""
"null","","null","html-keyboard-response","160","330706","0.0-6.0-0.0-8.0-0.26","3","4","4","3","3","4","3","3","4","4","4","5","4","5","5","4","4","5","5","5","3","1","1","2","2","2","1","2","1","0","0","1","1","0","0","0","1","0","1","1","0","1","0","1","5","4","1","1","2","2","4","5","1","4","609032333906935808","刘","670","","","","","","","","","","","","","","","","","","","","","","","","","","","","","","","","","","","","","","","",""
"980","<p style=""color:rgb(150, 250, 100); font-size: 35px;"">本人</p>","e","categorize-html","161","331686","0.0-6.0-0.0-8.0-1.26","3","4","4","3","3","4","3","3","4","4","4","5","4","5","5","4","4","5","5","5","3","1","1","2","2","2","1","2","1","0","0","1","1","0","0","0","1","0","1","1","0","1","0","1","5","4","1","1","2","2","4","5","1","4","609032333906935808","刘","670","","","","","","","","","","","","","","","","","","","true","4","4","ability","980","self","本人","","","","","","","","","","","","","","",""
"null","","null","html-keyboard-response","162","331938","0.0-6.0-0.0-8.0-0.27","3","4","4","3","3","4","3","3","4","4","4","5","4","5","5","4","4","5","5","5","3","1","1","2","2","2","1","2","1","0","0","1","1","0","0","0","1","0","1","1","0","1","0","1","5","4","1","1","2","2","4","5","1","4","609032333906935808","刘","670","","","","","","","","","","","","","","","","","","","","","","","","","","","","","","","","","","","","","","","",""
"804","<p style=""color:white; font-size: 35px;"">蠢笨</p>","i","categorize-html","163","332743","0.0-6.0-0.0-8.0-1.27","3","4","4","3","3","4","3","3","4","4","4","5","4","5","5","4","4","5","5","5","3","1","1","2","2","2","1","2","1","0","0","1","1","0","0","0","1","0","1","1","0","1","0","1","5","4","1","1","2","2","4","5","1","4","609032333906935808","刘","670","","","","","","","","","","","","","","","","","","","true","4","4","ability","804","negative","蠢笨","","","","","","","","","","","","","","",""
"null","","null","html-keyboard-response","164","332995","0.0-6.0-0.0-8.0-0.28","3","4","4","3","3","4","3","3","4","4","4","5","4","5","5","4","4","5","5","5","3","1","1","2","2","2","1","2","1","0","0","1","1","0","0","0","1","0","1","1","0","1","0","1","5","4","1","1","2","2","4","5","1","4","609032333906935808","刘","670","","","","","","","","","","","","","","","","","","","","","","","","","","","","","","","","","","","","","","","",""
"1227","<p style=""color:rgb(150, 250, 100); font-size: 35px;"">别人的</p>","i","categorize-html","165","334222","0.0-6.0-0.0-8.0-1.28","3","4","4","3","3","4","3","3","4","4","4","5","4","5","5","4","4","5","5","5","3","1","1","2","2","2","1","2","1","0","0","1","1","0","0","0","1","0","1","1","0","1","0","1","5","4","1","1","2","2","4","5","1","4","609032333906935808","刘","670","","","","","","","","","","","","","","","","","","","true","4","4","ability","1227","other","别人的","","","","","","","","","","","","","","",""
"null","","null","html-keyboard-response","166","334474","0.0-6.0-0.0-8.0-0.29","3","4","4","3","3","4","3","3","4","4","4","5","4","5","5","4","4","5","5","5","3","1","1","2","2","2","1","2","1","0","0","1","1","0","0","0","1","0","1","1","0","1","0","1","5","4","1","1","2","2","4","5","1","4","609032333906935808","刘","670","","","","","","","","","","","","","","","","","","","","","","","","","","","","","","","","","","","","","","","",""
"701","<p style=""color:white; font-size: 35px;"">能干</p>","e","categorize-html","167","335175","0.0-6.0-0.0-8.0-1.29","3","4","4","3","3","4","3","3","4","4","4","5","4","5","5","4","4","5","5","5","3","1","1","2","2","2","1","2","1","0","0","1","1","0","0","0","1","0","1","1","0","1","0","1","5","4","1","1","2","2","4","5","1","4","609032333906935808","刘","670","","","","","","","","","","","","","","","","","","","true","4","4","ability","701","positive","能干","","","","","","","","","","","","","","",""
"null","","null","html-keyboard-response","168","335427","0.0-6.0-0.0-8.0-0.30","3","4","4","3","3","4","3","3","4","4","4","5","4","5","5","4","4","5","5","5","3","1","1","2","2","2","1","2","1","0","0","1","1","0","0","0","1","0","1","1","0","1","0","1","5","4","1","1","2","2","4","5","1","4","609032333906935808","刘","670","","","","","","","","","","","","","","","","","","","","","","","","","","","","","","","","","","","","","","","",""
"708","<p style=""color:rgb(150, 250, 100); font-size: 35px;"">我的</p>","e","categorize-html","169","336135","0.0-6.0-0.0-8.0-1.30","3","4","4","3","3","4","3","3","4","4","4","5","4","5","5","4","4","5","5","5","3","1","1","2","2","2","1","2","1","0","0","1","1","0","0","0","1","0","1","1","0","1","0","1","5","4","1","1","2","2","4","5","1","4","609032333906935808","刘","670","","","","","","","","","","","","","","","","","","","true","4","4","ability","708","self","我的","","","","","","","","","","","","","","",""
"null","","null","html-keyboard-response","170","336386","0.0-6.0-0.0-8.0-0.31","3","4","4","3","3","4","3","3","4","4","4","5","4","5","5","4","4","5","5","5","3","1","1","2","2","2","1","2","1","0","0","1","1","0","0","0","1","0","1","1","0","1","0","1","5","4","1","1","2","2","4","5","1","4","609032333906935808","刘","670","","","","","","","","","","","","","","","","","","","","","","","","","","","","","","","","","","","","","","","",""
"588","<p style=""color:white; font-size: 35px;"">愚钝</p>","i","categorize-html","171","336975","0.0-6.0-0.0-8.0-1.31","3","4","4","3","3","4","3","3","4","4","4","5","4","5","5","4","4","5","5","5","3","1","1","2","2","2","1","2","1","0","0","1","1","0","0","0","1","0","1","1","0","1","0","1","5","4","1","1","2","2","4","5","1","4","609032333906935808","刘","670","","","","","","","","","","","","","","","","","","","true","4","4","ability","588","negative","愚钝","","","","","","","","","","","","","","",""
"null","","null","html-keyboard-response","172","337233","0.0-6.0-0.0-8.0-0.32","3","4","4","3","3","4","3","3","4","4","4","5","4","5","5","4","4","5","5","5","3","1","1","2","2","2","1","2","1","0","0","1","1","0","0","0","1","0","1","1","0","1","0","1","5","4","1","1","2","2","4","5","1","4","609032333906935808","刘","670","","","","","","","","","","","","","","","","","","","","","","","","","","","","","","","","","","","","","","","",""
"557","<p style=""color:rgb(150, 250, 100); font-size: 35px;"">别人</p>","i","categorize-html","173","337791","0.0-6.0-0.0-8.0-1.32","3","4","4","3","3","4","3","3","4","4","4","5","4","5","5","4","4","5","5","5","3","1","1","2","2","2","1","2","1","0","0","1","1","0","0","0","1","0","1","1","0","1","0","1","5","4","1","1","2","2","4","5","1","4","609032333906935808","刘","670","","","","","","","","","","","","","","","","","","","true","4","4","ability","557","other","别人","","","","","","","","","","","","","","",""
"null","","null","html-keyboard-response","174","338043","0.0-6.0-0.0-8.0-0.33","3","4","4","3","3","4","3","3","4","4","4","5","4","5","5","4","4","5","5","5","3","1","1","2","2","2","1","2","1","0","0","1","1","0","0","0","1","0","1","1","0","1","0","1","5","4","1","1","2","2","4","5","1","4","609032333906935808","刘","670","","","","","","","","","","","","","","","","","","","","","","","","","","","","","","","","","","","","","","","",""
"627","<p style=""color:white; font-size: 35px;"">低能</p>","i","categorize-html","175","338671","0.0-6.0-0.0-8.0-1.33","3","4","4","3","3","4","3","3","4","4","4","5","4","5","5","4","4","5","5","5","3","1","1","2","2","2","1","2","1","0","0","1","1","0","0","0","1","0","1","1","0","1","0","1","5","4","1","1","2","2","4","5","1","4","609032333906935808","刘","670","","","","","","","","","","","","","","","","","","","true","4","4","ability","627","negative","低能","","","","","","","","","","","","","","",""
"null","","null","html-keyboard-response","176","338923","0.0-6.0-0.0-8.0-0.34","3","4","4","3","3","4","3","3","4","4","4","5","4","5","5","4","4","5","5","5","3","1","1","2","2","2","1","2","1","0","0","1","1","0","0","0","1","0","1","1","0","1","0","1","5","4","1","1","2","2","4","5","1","4","609032333906935808","刘","670","","","","","","","","","","","","","","","","","","","","","","","","","","","","","","","","","","","","","","","",""
"923","<p style=""color:rgb(150, 250, 100); font-size: 35px;"">本人的</p>","e","categorize-html","177","339847","0.0-6.0-0.0-8.0-1.34","3","4","4","3","3","4","3","3","4","4","4","5","4","5","5","4","4","5","5","5","3","1","1","2","2","2","1","2","1","0","0","1","1","0","0","0","1","0","1","1","0","1","0","1","5","4","1","1","2","2","4","5","1","4","609032333906935808","刘","670","","","","","","","","","","","","","","","","","","","true","4","4","ability","923","self","本人的","","","","","","","","","","","","","","",""
"null","","null","html-keyboard-response","178","340101","0.0-6.0-0.0-8.0-0.35","3","4","4","3","3","4","3","3","4","4","4","5","4","5","5","4","4","5","5","5","3","1","1","2","2","2","1","2","1","0","0","1","1","0","0","0","1","0","1","1","0","1","0","1","5","4","1","1","2","2","4","5","1","4","609032333906935808","刘","670","","","","","","","","","","","","","","","","","","","","","","","","","","","","","","","","","","","","","","","",""
"697","<p style=""color:white; font-size: 35px;"">高效</p>","e","categorize-html","179","340799","0.0-6.0-0.0-8.0-1.35","3","4","4","3","3","4","3","3","4","4","4","5","4","5","5","4","4","5","5","5","3","1","1","2","2","2","1","2","1","0","0","1","1","0","0","0","1","0","1","1","0","1","0","1","5","4","1","1","2","2","4","5","1","4","609032333906935808","刘","670","","","","","","","","","","","","","","","","","","","true","4","4","ability","697","positive","高效","","","","","","","","","","","","","","",""
"null","","null","html-keyboard-response","180","341050","0.0-6.0-0.0-8.0-0.36","3","4","4","3","3","4","3","3","4","4","4","5","4","5","5","4","4","5","5","5","3","1","1","2","2","2","1","2","1","0","0","1","1","0","0","0","1","0","1","1","0","1","0","1","5","4","1","1","2","2","4","5","1","4","609032333906935808","刘","670","","","","","","","","","","","","","","","","","","","","","","","","","","","","","","","","","","","","","","","",""
"685","<p style=""color:rgb(150, 250, 100); font-size: 35px;"">自己的</p>","e","categorize-html","181","341735","0.0-6.0-0.0-8.0-1.36","3","4","4","3","3","4","3","3","4","4","4","5","4","5","5","4","4","5","5","5","3","1","1","2","2","2","1","2","1","0","0","1","1","0","0","0","1","0","1","1","0","1","0","1","5","4","1","1","2","2","4","5","1","4","609032333906935808","刘","670","","","","","","","","","","","","","","","","","","","true","4","4","ability","685","self","自己的","","","","","","","","","","","","","","",""
"null","","null","html-keyboard-response","182","341987","0.0-6.0-0.0-8.0-0.37","3","4","4","3","3","4","3","3","4","4","4","5","4","5","5","4","4","5","5","5","3","1","1","2","2","2","1","2","1","0","0","1","1","0","0","0","1","0","1","1","0","1","0","1","5","4","1","1","2","2","4","5","1","4","609032333906935808","刘","670","","","","","","","","","","","","","","","","","","","","","","","","","","","","","","","","","","","","","","","",""
"571","<p style=""color:white; font-size: 35px;"">全能</p>","e","categorize-html","183","342559","0.0-6.0-0.0-8.0-1.37","3","4","4","3","3","4","3","3","4","4","4","5","4","5","5","4","4","5","5","5","3","1","1","2","2","2","1","2","1","0","0","1","1","0","0","0","1","0","1","1","0","1","0","1","5","4","1","1","2","2","4","5","1","4","609032333906935808","刘","670","","","","","","","","","","","","","","","","","","","true","4","4","ability","571","positive","全能","","","","","","","","","","","","","","",""
"null","","null","html-keyboard-response","184","342819","0.0-6.0-0.0-8.0-0.38","3","4","4","3","3","4","3","3","4","4","4","5","4","5","5","4","4","5","5","5","3","1","1","2","2","2","1","2","1","0","0","1","1","0","0","0","1","0","1","1","0","1","0","1","5","4","1","1","2","2","4","5","1","4","609032333906935808","刘","670","","","","","","","","","","","","","","","","","","","","","","","","","","","","","","","","","","","","","","","",""
"634","<p style=""color:rgb(150, 250, 100); font-size: 35px;"">他的</p>","i","categorize-html","185","343455","0.0-6.0-0.0-8.0-1.38","3","4","4","3","3","4","3","3","4","4","4","5","4","5","5","4","4","5","5","5","3","1","1","2","2","2","1","2","1","0","0","1","1","0","0","0","1","0","1","1","0","1","0","1","5","4","1","1","2","2","4","5","1","4","609032333906935808","刘","670","","","","","","","","","","","","","","","","","","","true","4","4","ability","634","other","他的","","","","","","","","","","","","","","",""
"null","","null","html-keyboard-response","186","343705","0.0-6.0-0.0-8.0-0.39","3","4","4","3","3","4","3","3","4","4","4","5","4","5","5","4","4","5","5","5","3","1","1","2","2","2","1","2","1","0","0","1","1","0","0","0","1","0","1","1","0","1","0","1","5","4","1","1","2","2","4","5","1","4","609032333906935808","刘","670","","","","","","","","","","","","","","","","","","","","","","","","","","","","","","","","","","","","","","","",""
"685","<p style=""color:white; font-size: 35px;"">蠢笨</p>","i","categorize-html","187","344391","0.0-6.0-0.0-8.0-1.39","3","4","4","3","3","4","3","3","4","4","4","5","4","5","5","4","4","5","5","5","3","1","1","2","2","2","1","2","1","0","0","1","1","0","0","0","1","0","1","1","0","1","0","1","5","4","1","1","2","2","4","5","1","4","609032333906935808","刘","670","","","","","","","","","","","","","","","","","","","true","4","4","ability","685","negative","蠢笨","","","","","","","","","","","","","","",""
"null","","null","html-keyboard-response","188","344642","0.0-6.0-0.0-8.0-0.40","3","4","4","3","3","4","3","3","4","4","4","5","4","5","5","4","4","5","5","5","3","1","1","2","2","2","1","2","1","0","0","1","1","0","0","0","1","0","1","1","0","1","0","1","5","4","1","1","2","2","4","5","1","4","609032333906935808","刘","670","","","","","","","","","","","","","","","","","","","","","","","","","","","","","","","","","","","","","","","",""
"476","<p style=""color:rgb(150, 250, 100); font-size: 35px;"">自己</p>","e","categorize-html","189","345118","0.0-6.0-0.0-8.0-1.40","3","4","4","3","3","4","3","3","4","4","4","5","4","5","5","4","4","5","5","5","3","1","1","2","2","2","1","2","1","0","0","1","1","0","0","0","1","0","1","1","0","1","0","1","5","4","1","1","2","2","4","5","1","4","609032333906935808","刘","670","","","","","","","","","","","","","","","","","","","true","4","4","ability","476","self","自己","","","","","","","","","","","","","","",""
"null","","null","html-keyboard-response","190","345369","0.0-6.0-0.0-8.0-0.41","3","4","4","3","3","4","3","3","4","4","4","5","4","5","5","4","4","5","5","5","3","1","1","2","2","2","1","2","1","0","0","1","1","0","0","0","1","0","1","1","0","1","0","1","5","4","1","1","2","2","4","5","1","4","609032333906935808","刘","670","","","","","","","","","","","","","","","","","","","","","","","","","","","","","","","","","","","","","","","",""
"717","<p style=""color:white; font-size: 35px;"">高效</p>","e","categorize-html","191","346087","0.0-6.0-0.0-8.0-1.41","3","4","4","3","3","4","3","3","4","4","4","5","4","5","5","4","4","5","5","5","3","1","1","2","2","2","1","2","1","0","0","1","1","0","0","0","1","0","1","1","0","1","0","1","5","4","1","1","2","2","4","5","1","4","609032333906935808","刘","670","","","","","","","","","","","","","","","","","","","true","4","4","ability","717","positive","高效","","","","","","","","","","","","","","",""
"null","","null","html-keyboard-response","192","346339","0.0-6.0-0.0-8.0-0.42","3","4","4","3","3","4","3","3","4","4","4","5","4","5","5","4","4","5","5","5","3","1","1","2","2","2","1","2","1","0","0","1","1","0","0","0","1","0","1","1","0","1","0","1","5","4","1","1","2","2","4","5","1","4","609032333906935808","刘","670","","","","","","","","","","","","","","","","","","","","","","","","","","","","","","","","","","","","","","","",""
"1147","<p style=""color:rgb(150, 250, 100); font-size: 35px;"">他</p>","i","categorize-html","193","347488","0.0-6.0-0.0-8.0-1.42","3","4","4","3","3","4","3","3","4","4","4","5","4","5","5","4","4","5","5","5","3","1","1","2","2","2","1","2","1","0","0","1","1","0","0","0","1","0","1","1","0","1","0","1","5","4","1","1","2","2","4","5","1","4","609032333906935808","刘","670","","","","","","","","","","","","","","","","","","","true","4","4","ability","1147","other","他","","","","","","","","","","","","","","",""
"null","","null","html-keyboard-response","194","347750","0.0-6.0-0.0-8.0-0.43","3","4","4","3","3","4","3","3","4","4","4","5","4","5","5","4","4","5","5","5","3","1","1","2","2","2","1","2","1","0","0","1","1","0","0","0","1","0","1","1","0","1","0","1","5","4","1","1","2","2","4","5","1","4","609032333906935808","刘","670","","","","","","","","","","","","","","","","","","","","","","","","","","","","","","","","","","","","","","","",""
"832","<p style=""color:white; font-size: 35px;"">愚钝</p>","i","categorize-html","195","348583","0.0-6.0-0.0-8.0-1.43","3","4","4","3","3","4","3","3","4","4","4","5","4","5","5","4","4","5","5","5","3","1","1","2","2","2","1","2","1","0","0","1","1","0","0","0","1","0","1","1","0","1","0","1","5","4","1","1","2","2","4","5","1","4","609032333906935808","刘","670","","","","","","","","","","","","","","","","","","","true","4","4","ability","832","negative","愚钝","","","","","","","","","","","","","","",""
"null","","null","html-keyboard-response","196","348834","0.0-6.0-0.0-8.0-0.44","3","4","4","3","3","4","3","3","4","4","4","5","4","5","5","4","4","5","5","5","3","1","1","2","2","2","1","2","1","0","0","1","1","0","0","0","1","0","1","1","0","1","0","1","5","4","1","1","2","2","4","5","1","4","609032333906935808","刘","670","","","","","","","","","","","","","","","","","","","","","","","","","","","","","","","","","","","","","","","",""
