"rt","stimulus","response","trial_type","trial_index","time_elapsed","internal_node_id","ses_1","ses_2","ses_3","ses_4","ses_5","ses_6","ses_7","ses_8","ses_9","ses_10","coreself_1","coreself_2","coreself_3","coreself_4","coreself_5","coreself_6","coreself_7","coreself_8","coreself_9","coreself_10","SGPS_1","SGPS_2","SGPS_3","SGPS_4","SGPS_5","SGPS_6","SGPS_7","SGPS_8","SGPS_9","NPI1","NPI2","NPI3","NPI4","NPI5","NPI6","NPI7","NPI8","NPI9","NPI10","NPI11","NPI12","NPI13","NPI14","NPI15","hsns_1","hsns_2","hsns_3","hsns_4","hsns_5","hsns_6","hsns_7","hsns_8","hsns_9","hsns_10","subj_idx","friend_name","ParticipantID","value","success","user_agent","responses","item_order","radio_event_ids","radio_event_times","key_event_times","mouse_event_times","straightlining","zigzagging","honeypot","timeout","failed_images","failed_audio","failed_video","view_history","response_type","key_press","avg_frame_time","center_x","center_y","correct_response","correct","identity","Image","word","condition","task_id","screen_id","time_stamp","version_attrib","version_target","IAT","RT","varname","summary","version_attrib2","version_target2","question_order"
"22889","
   <p><div style = ""color: white;font-size:25px;"">您好，欢迎参加本次实验。</div> </p>
   <p><div style = ""color: white;font-size:25px;"">为充分保障您的权利，请确保您已经知晓并同意《参与实验同意书》以及《数据公开知情同意书》。</div></p>
   <p><div style = ""color: white;font-size:25px;"">如果您未见过上述内容，请咨询实验员。</div></p>
   <p><div style = ""color: white;font-size:25px;"">如果您选择继续实验，则表示您已经清楚两份知情同意书的内容并同意。</div></p>
   <p><div style = ""color: red;font-size:30px;"">请确保您记得day0的实验编号，您将在本次实验输入该编号，若您忘记，请咨询实验员后作答。</div></p>
   <p> <div style = ""color: green;font-size:25px;""><按空格键至下页></div> </p>
   "," ","html-keyboard-response","0","22892","0.0-0.0","4","3","4","4","2","3","4","4","4","4","4","4","3","4","4","4","4","3","4","5","2","2","2","1","2","2","2","3","1","1","1","1","1","0","0","0","0","0","0","1","0","1","0","1","4","3","3","1","2","2","3","2","4","1","734083981330616322","邓","667","","","","","","","","","","","","","","","","","","","","","","","","","","","","","","","","","","","","","","","",""
"","","","call-function","1","22893","0.0-1.0-0.0","4","3","4","4","2","3","4","4","4","4","4","4","3","4","4","4","4","3","4","5","2","2","2","1","2","2","2","3","1","1","1","1","1","0","0","0","0","0","0","1","0","1","0","1","4","3","3","1","2","2","3","2","4","1","734083981330616322","邓","667","","","","","","","","","","","","","","","","","","","","","","","","","","","","","","","","","","","","","","","",""
"94746","","{""friend_name"":""邓"",""ParticipantID"":""667""}","survey-html-form","2","117640","0.0-1.0-1.0","4","3","4","4","2","3","4","4","4","4","4","4","3","4","4","4","4","3","4","5","2","2","2","1","2","2","2","3","1","1","1","1","1","0","0","0","0","0","0","1","0","1","0","1","4","3","3","1","2","2","3","2","4","1","734083981330616322","邓","667","","","","","","","","","","","","","","","","","","","","","","","","","","","","","","","","","","","","","","","",""
"","","","fullscreen","3","131242","0.0-2.0","4","3","4","4","2","3","4","4","4","4","4","4","3","4","4","4","4","3","4","5","2","2","2","1","2","2","2","3","1","1","1","1","1","0","0","0","0","0","0","1","0","1","0","1","4","3","3","1","2","2","3","2","4","1","734083981330616322","邓","667","","true","{}","","","","","","","","","","","","","","","","","","","","","","","","","","","","","","","","","","","","",""
"104669.29999999702","","{""Q01"":""4"",""Q02"":""3"",""Q03"":""4"",""Q04"":""4"",""Q05"":""2"",""Q06"":""3"",""Q07"":""4"",""Q08"":""4"",""Q09"":""4"",""Q10"":""4""}","survey-template","4","235914","0.0-3.0","4","3","4","4","2","3","4","4","4","4","4","4","3","4","4","4","4","3","4","5","2","2","2","1","2","2","2","3","1","1","1","1","1","0","0","0","0","0","0","1","0","1","0","1","4","3","3","1","2","2","3","2","4","1","734083981330616322","邓","667","","","","{""Q01"":""4"",""Q02"":""3"",""Q03"":""4"",""Q04"":""4"",""Q05"":""2"",""Q06"":""3"",""Q07"":""4"",""Q08"":""4"",""Q09"":""4"",""Q10"":""4""}","[0,1,2,3,4,5,6,7,8,9]","[""Q01"",""Q02"",""Q03"",""Q04"",""Q05"",""Q06"",""Q07"",""Q08"",""Q08"",""Q09"",""Q10""]","[18329.5,29202.09999999404,38840,46321.89999999106,59761.89999999106,71764.09999999404,77093.79999999702,86612,92030.09999999404,98029.89999999106,102968]","[]","[18329.5,29202.09999999404,38840,46321.89999999106,59761.89999999106,71764.09999999404,77093.79999999702,86612,92030.09999999404,98029.89999999106,102968,104668.19999998808]","0.4","0.5555555555555556","0","","","","","","","","","","","","","","","","","","","","","","","","","","","",""
"104929.39999999106","","{""Q01"":""4"",""Q02"":""4"",""Q03"":""3"",""Q04"":""4"",""Q05"":""4"",""Q06"":""4"",""Q07"":""4"",""Q08"":""3"",""Q09"":""4"",""Q10"":""5""}","survey-template","5","340850","0.0-4.0","4","3","4","4","2","3","4","4","4","4","4","4","3","4","4","4","4","3","4","5","2","2","2","1","2","2","2","3","1","1","1","1","1","0","0","0","0","0","0","1","0","1","0","1","4","3","3","1","2","2","3","2","4","1","734083981330616322","邓","667","","","","{""Q01"":""4"",""Q02"":""4"",""Q03"":""3"",""Q04"":""4"",""Q05"":""4"",""Q06"":""4"",""Q07"":""4"",""Q08"":""3"",""Q09"":""4"",""Q10"":""5""}","[0,1,2,3,4,5,6,7,8,9]","[""Q01"",""Q02"",""Q03"",""Q03"",""Q04"",""Q05"",""Q06"",""Q07"",""Q08"",""Q09"",""Q10""]","[7490.399999991059,12907.89999999106,34660.29999999702,41678.39999999106,49960.39999999106,56818.29999999702,70020.70000000298,75165.89999999106,82947.89999999106,97641.5,103944.29999999702]","[]","[7490.399999991059,12907.89999999106,34660.29999999702,41678.39999999106,49336.5,49960.39999999106,56818.29999999702,70020.70000000298,75165.89999999106,82947.89999999106,97641.5,103944.29999999702,104928.20000000298]","0.4","0.4444444444444444","0","","","","","","","","","","","","","","","","","","","","","","","","","","","",""
"","","","preload","6","341143","0.0-5.0","4","3","4","4","2","3","4","4","4","4","4","4","3","4","4","4","4","3","4","5","2","2","2","1","2","2","2","3","1","1","1","1","1","0","0","0","0","0","0","1","0","1","0","1","4","3","3","1","2","2","3","2","4","1","734083981330616322","邓","667","","true","","","","","","","","","","","false","[]","[]","[]","","","","","","","","","","","","","","","","","","","","","","","",""
"39930","","","instructions","7","381073","0.0-6.0","4","3","4","4","2","3","4","4","4","4","4","4","3","4","4","4","4","3","4","5","2","2","2","1","2","2","2","3","1","1","1","1","1","0","0","0","0","0","0","1","0","1","0","1","4","3","3","1","2","2","3","2","4","1","734083981330616322","邓","667","","","","","","","","","","","","","","","","","[{""page_index"":0,""viewing_time"":39930}]","","","","","","","","","","","","","","","","","","","","","","",""
"69154","","","instructions","8","450229","0.0-7.0-1.0-0.0","4","3","4","4","2","3","4","4","4","4","4","4","3","4","4","4","4","3","4","5","2","2","2","1","2","2","2","3","1","1","1","1","1","0","0","0","0","0","0","1","0","1","0","1","4","3","3","1","2","2","3","2","4","1","734083981330616322","邓","667","","","","","","","","","","","","","","","","","[{""page_index"":0,""viewing_time"":53778},{""page_index"":1,""viewing_time"":10515},{""page_index"":2,""viewing_time"":4861}]","","","","","","","","","","","","","","","","","","","","","","",""
"null","","null","psychophysics","9","452441","0.0-7.0-1.0-1.0-0.0-0.0","4","3","4","4","2","3","4","4","4","4","4","4","3","4","4","4","4","3","4","5","2","2","2","1","2","2","2","3","1","1","1","1","1","0","0","0","0","0","0","1","0","1","0","1","4","3","3","1","2","2","3","2","4","1","734083981330616322","邓","667","","","","null","","","","","","","","","","","","","","key","null","16.668572519084293","768","428","f","false","nonmatch","img/trapezoid.png","五边","梯形","ALT1_2","prac_ALT1_2","","","","","","","","","",""
"null","<span class='add_' style='color:yellow; font-size: 70px;'> 太慢! </span>","null","html-keyboard-response","10","452948","0.0-7.0-1.0-1.0-0.0-1.0","4","3","4","4","2","3","4","4","4","4","4","4","3","4","4","4","4","3","4","5","2","2","2","1","2","2","2","3","1","1","1","1","1","0","0","0","0","0","0","1","0","1","0","1","4","3","3","1","2","2","3","2","4","1","734083981330616322","邓","667","","","","","","","","","","","","","","","","","","","","","","","","","","","","","","feedback_test","","","","","","","","","",""
"null","","null","psychophysics","11","455157","0.0-7.0-1.0-1.0-0.0-0.1","4","3","4","4","2","3","4","4","4","4","4","4","3","4","4","4","4","3","4","5","2","2","2","1","2","2","2","3","1","1","1","1","1","0","0","0","0","0","0","1","0","1","0","1","4","3","3","1","2","2","3","2","4","1","734083981330616322","邓","667","","","","null","","","","","","","","","","","","","","key","null","16.667068702290067","768","428","f","false","nonmatch","img/trapezoid.png","菱形","梯形","ALT1_2","prac_ALT1_2","","","","","","","","","",""
"null","<span class='add_' style='color:yellow; font-size: 70px;'> 太慢! </span>","null","html-keyboard-response","12","455671","0.0-7.0-1.0-1.0-0.0-1.1","4","3","4","4","2","3","4","4","4","4","4","4","3","4","4","4","4","3","4","5","2","2","2","1","2","2","2","3","1","1","1","1","1","0","0","0","0","0","0","1","0","1","0","1","4","3","3","1","2","2","3","2","4","1","734083981330616322","邓","667","","","","","","","","","","","","","","","","","","","","","","","","","","","","","","feedback_test","","","","","","","","","",""
"1092","","f","psychophysics","13","457781","0.0-7.0-1.0-1.0-0.0-0.2","4","3","4","4","2","3","4","4","4","4","4","4","3","4","4","4","4","3","4","5","2","2","2","1","2","2","2","3","1","1","1","1","1","0","0","0","0","0","0","1","0","1","0","1","4","3","3","1","2","2","3","2","4","1","734083981330616322","邓","667","","","","nonmatch","","","","","","","","","","","","","","key","f","16.6662222222219","768","428","f","true","nonmatch","img/trapezoid.png","椭圆","梯形","ALT1_2","prac_ALT1_2","","","","","","","","","",""
"null","<span style='color:GreenYellow; font-size: 70px;'>正确! </span>","null","html-keyboard-response","14","458285","0.0-7.0-1.0-1.0-0.0-1.2","4","3","4","4","2","3","4","4","4","4","4","4","3","4","4","4","4","3","4","5","2","2","2","1","2","2","2","3","1","1","1","1","1","0","0","0","0","0","0","1","0","1","0","1","4","3","3","1","2","2","3","2","4","1","734083981330616322","邓","667","","","","","","","","","","","","","","","","","","","","","","","","","","","","","","feedback_test","","","","","","","","","",""
"1110","","f","psychophysics","15","460400","0.0-7.0-1.0-1.0-0.0-0.3","4","3","4","4","2","3","4","4","4","4","4","4","3","4","4","4","4","3","4","5","2","2","2","1","2","2","2","3","1","1","1","1","1","0","0","0","0","0","0","1","0","1","0","1","4","3","3","1","2","2","3","2","4","1","734083981330616322","邓","667","","","","nonmatch","","","","","","","","","","","","","","key","f","16.666158730158628","768","428","f","true","nonmatch","img/ellipse.png","五边","椭圆","ALT1_2","prac_ALT1_2","","","","","","","","","",""
"null","<span style='color:GreenYellow; font-size: 70px;'>正确! </span>","null","html-keyboard-response","16","460904","0.0-7.0-1.0-1.0-0.0-1.3","4","3","4","4","2","3","4","4","4","4","4","4","3","4","4","4","4","3","4","5","2","2","2","1","2","2","2","3","1","1","1","1","1","0","0","0","0","0","0","1","0","1","0","1","4","3","3","1","2","2","3","2","4","1","734083981330616322","邓","667","","","","","","","","","","","","","","","","","","","","","","","","","","","","","","feedback_test","","","","","","","","","",""
"null","","null","psychophysics","17","463115","0.0-7.0-1.0-1.0-0.0-0.4","4","3","4","4","2","3","4","4","4","4","4","4","3","4","4","4","4","3","4","5","2","2","2","1","2","2","2","3","1","1","1","1","1","0","0","0","0","0","0","1","0","1","0","1","4","3","3","1","2","2","3","2","4","1","734083981330616322","邓","667","","","","null","","","","","","","","","","","","","","key","null","16.667378787878658","768","428","f","false","nonmatch","img/diamond.png","五边","菱形","ALT1_2","prac_ALT1_2","","","","","","","","","",""
"null","<span class='add_' style='color:yellow; font-size: 70px;'> 太慢! </span>","null","html-keyboard-response","18","463617","0.0-7.0-1.0-1.0-0.0-1.4","4","3","4","4","2","3","4","4","4","4","4","4","3","4","4","4","4","3","4","5","2","2","2","1","2","2","2","3","1","1","1","1","1","0","0","0","0","0","0","1","0","1","0","1","4","3","3","1","2","2","3","2","4","1","734083981330616322","邓","667","","","","","","","","","","","","","","","","","","","","","","","","","","","","","","feedback_test","","","","","","","","","",""
"900","","f","psychophysics","19","465520","0.0-7.0-1.0-1.0-0.0-0.5","4","3","4","4","2","3","4","4","4","4","4","4","3","4","4","4","4","3","4","5","2","2","2","1","2","2","2","3","1","1","1","1","1","0","0","0","0","0","0","1","0","1","0","1","4","3","3","1","2","2","3","2","4","1","734083981330616322","邓","667","","","","nonmatch","","","","","","","","","","","","","","key","f","16.66872566371674","768","428","j","false","match","img/pentagon.png","五边","五边","ALT1_2","prac_ALT1_2","","","","","","","","","",""
"null","<span style='color:red; font-size: 70px;'>错误! </span>","null","html-keyboard-response","20","466024","0.0-7.0-1.0-1.0-0.0-1.5","4","3","4","4","2","3","4","4","4","4","4","4","3","4","4","4","4","3","4","5","2","2","2","1","2","2","2","3","1","1","1","1","1","0","0","0","0","0","0","1","0","1","0","1","4","3","3","1","2","2","3","2","4","1","734083981330616322","邓","667","","","","","","","","","","","","","","","","","","","","","","","","","","","","","","feedback_test","","","","","","","","","",""
"1133","","f","psychophysics","21","468162","0.0-7.0-1.0-1.0-0.0-0.6","4","3","4","4","2","3","4","4","4","4","4","4","3","4","4","4","4","3","4","5","2","2","2","1","2","2","2","3","1","1","1","1","1","0","0","0","0","0","0","1","0","1","0","1","4","3","3","1","2","2","3","2","4","1","734083981330616322","邓","667","","","","nonmatch","","","","","","","","","","","","","","key","f","16.668015748031408","768","428","j","false","match","img/trapezoid.png","梯形","梯形","ALT1_2","prac_ALT1_2","","","","","","","","","",""
"null","<span style='color:red; font-size: 70px;'>错误! </span>","null","html-keyboard-response","22","468666","0.0-7.0-1.0-1.0-0.0-1.6","4","3","4","4","2","3","4","4","4","4","4","4","3","4","4","4","4","3","4","5","2","2","2","1","2","2","2","3","1","1","1","1","1","0","0","0","0","0","0","1","0","1","0","1","4","3","3","1","2","2","3","2","4","1","734083981330616322","邓","667","","","","","","","","","","","","","","","","","","","","","","","","","","","","","","feedback_test","","","","","","","","","",""
"1041","","j","psychophysics","23","470711","0.0-7.0-1.0-1.0-0.0-0.7","4","3","4","4","2","3","4","4","4","4","4","4","3","4","4","4","4","3","4","5","2","2","2","1","2","2","2","3","1","1","1","1","1","0","0","0","0","0","0","1","0","1","0","1","4","3","3","1","2","2","3","2","4","1","734083981330616322","邓","667","","","","match","","","","","","","","","","","","","","key","j","16.667450819672162","768","428","j","true","match","img/ellipse.png","椭圆","椭圆","ALT1_2","prac_ALT1_2","","","","","","","","","",""
"null","<span style='color:GreenYellow; font-size: 70px;'>正确! </span>","null","html-keyboard-response","24","471215","0.0-7.0-1.0-1.0-0.0-1.7","4","3","4","4","2","3","4","4","4","4","4","4","3","4","4","4","4","3","4","5","2","2","2","1","2","2","2","3","1","1","1","1","1","0","0","0","0","0","0","1","0","1","0","1","4","3","3","1","2","2","3","2","4","1","734083981330616322","邓","667","","","","","","","","","","","","","","","","","","","","","","","","","","","","","","feedback_test","","","","","","","","","",""
"null","","null","psychophysics","25","473418","0.0-7.0-1.0-1.0-0.0-0.8","4","3","4","4","2","3","4","4","4","4","4","4","3","4","4","4","4","3","4","5","2","2","2","1","2","2","2","3","1","1","1","1","1","0","0","0","0","0","0","1","0","1","0","1","4","3","3","1","2","2","3","2","4","1","734083981330616322","邓","667","","","","null","","","","","","","","","","","","","","key","null","16.668389312977162","768","428","f","false","nonmatch","img/pentagon.png","梯形","五边","ALT1_2","prac_ALT1_2","","","","","","","","","",""
"null","<span class='add_' style='color:yellow; font-size: 70px;'> 太慢! </span>","null","html-keyboard-response","26","473921","0.0-7.0-1.0-1.0-0.0-1.8","4","3","4","4","2","3","4","4","4","4","4","4","3","4","4","4","4","3","4","5","2","2","2","1","2","2","2","3","1","1","1","1","1","0","0","0","0","0","0","1","0","1","0","1","4","3","3","1","2","2","3","2","4","1","734083981330616322","邓","667","","","","","","","","","","","","","","","","","","","","","","","","","","","","","","feedback_test","","","","","","","","","",""
"1030","","j","psychophysics","27","475954","0.0-7.0-1.0-1.0-0.0-0.9","4","3","4","4","2","3","4","4","4","4","4","4","3","4","4","4","4","3","4","5","2","2","2","1","2","2","2","3","1","1","1","1","1","0","0","0","0","0","0","1","0","1","0","1","4","3","3","1","2","2","3","2","4","1","734083981330616322","邓","667","","","","match","","","","","","","","","","","","","","key","j","16.666608333333475","768","428","j","true","match","img/diamond.png","菱形","菱形","ALT1_2","prac_ALT1_2","","","","","","","","","",""
"null","<span style='color:GreenYellow; font-size: 70px;'>正确! </span>","null","html-keyboard-response","28","476468","0.0-7.0-1.0-1.0-0.0-1.9","4","3","4","4","2","3","4","4","4","4","4","4","3","4","4","4","4","3","4","5","2","2","2","1","2","2","2","3","1","1","1","1","1","0","0","0","0","0","0","1","0","1","0","1","4","3","3","1","2","2","3","2","4","1","734083981330616322","邓","667","","","","","","","","","","","","","","","","","","","","","","","","","","","","","","feedback_test","","","","","","","","","",""
"null","","null","psychophysics","29","478678","0.0-7.0-1.0-1.0-0.0-0.10","4","3","4","4","2","3","4","4","4","4","4","4","3","4","4","4","4","3","4","5","2","2","2","1","2","2","2","3","1","1","1","1","1","0","0","0","0","0","0","1","0","1","0","1","4","3","3","1","2","2","3","2","4","1","734083981330616322","邓","667","","","","null","","","","","","","","","","","","","","key","null","16.66681818181832","768","428","j","false","match","img/trapezoid.png","梯形","梯形","ALT1_2","prac_ALT1_2","","","","","","","","","",""
"null","<span class='add_' style='color:yellow; font-size: 70px;'> 太慢! </span>","null","html-keyboard-response","30","479181","0.0-7.0-1.0-1.0-0.0-1.10","4","3","4","4","2","3","4","4","4","4","4","4","3","4","4","4","4","3","4","5","2","2","2","1","2","2","2","3","1","1","1","1","1","0","0","0","0","0","0","1","0","1","0","1","4","3","3","1","2","2","3","2","4","1","734083981330616322","邓","667","","","","","","","","","","","","","","","","","","","","","","","","","","","","","","feedback_test","","","","","","","","","",""
"968","","j","psychophysics","31","481153","0.0-7.0-1.0-1.0-0.0-0.11","4","3","4","4","2","3","4","4","4","4","4","4","3","4","4","4","4","3","4","5","2","2","2","1","2","2","2","3","1","1","1","1","1","0","0","0","0","0","0","1","0","1","0","1","4","3","3","1","2","2","3","2","4","1","734083981330616322","邓","667","","","","match","","","","","","","","","","","","","","key","j","16.668572649572635","768","428","j","true","match","img/pentagon.png","五边","五边","ALT1_2","prac_ALT1_2","","","","","","","","","",""
"null","<span style='color:GreenYellow; font-size: 70px;'>正确! </span>","null","html-keyboard-response","32","481657","0.0-7.0-1.0-1.0-0.0-1.11","4","3","4","4","2","3","4","4","4","4","4","4","3","4","4","4","4","3","4","5","2","2","2","1","2","2","2","3","1","1","1","1","1","0","0","0","0","0","0","1","0","1","0","1","4","3","3","1","2","2","3","2","4","1","734083981330616322","邓","667","","","","","","","","","","","","","","","","","","","","","","","","","","","","","","feedback_test","","","","","","","","","",""
"1023","","f","psychophysics","33","483685","0.0-7.0-1.0-1.0-0.0-0.12","4","3","4","4","2","3","4","4","4","4","4","4","3","4","4","4","4","3","4","5","2","2","2","1","2","2","2","3","1","1","1","1","1","0","0","0","0","0","0","1","0","1","0","1","4","3","3","1","2","2","3","2","4","1","734083981330616322","邓","667","","","","nonmatch","","","","","","","","","","","","","","key","f","16.666566666666768","768","428","f","true","nonmatch","img/pentagon.png","菱形","五边","ALT1_2","prac_ALT1_2","","","","","","","","","",""
"null","<span style='color:GreenYellow; font-size: 70px;'>正确! </span>","null","html-keyboard-response","34","484189","0.0-7.0-1.0-1.0-0.0-1.12","4","3","4","4","2","3","4","4","4","4","4","4","3","4","4","4","4","3","4","5","2","2","2","1","2","2","2","3","1","1","1","1","1","0","0","0","0","0","0","1","0","1","0","1","4","3","3","1","2","2","3","2","4","1","734083981330616322","邓","667","","","","","","","","","","","","","","","","","","","","","","","","","","","","","","feedback_test","","","","","","","","","",""
"null","","null","psychophysics","35","486395","0.0-7.0-1.0-1.0-0.0-0.13","4","3","4","4","2","3","4","4","4","4","4","4","3","4","4","4","4","3","4","5","2","2","2","1","2","2","2","3","1","1","1","1","1","0","0","0","0","0","0","1","0","1","0","1","4","3","3","1","2","2","3","2","4","1","734083981330616322","邓","667","","","","null","","","","","","","","","","","","","","key","null","16.66745038167929","768","428","j","false","match","img/trapezoid.png","梯形","梯形","ALT1_2","prac_ALT1_2","","","","","","","","","",""
"null","<span class='add_' style='color:yellow; font-size: 70px;'> 太慢! </span>","null","html-keyboard-response","36","486898","0.0-7.0-1.0-1.0-0.0-1.13","4","3","4","4","2","3","4","4","4","4","4","4","3","4","4","4","4","3","4","5","2","2","2","1","2","2","2","3","1","1","1","1","1","0","0","0","0","0","0","1","0","1","0","1","4","3","3","1","2","2","3","2","4","1","734083981330616322","邓","667","","","","","","","","","","","","","","","","","","","","","","","","","","","","","","feedback_test","","","","","","","","","",""
"null","","null","psychophysics","37","489105","0.0-7.0-1.0-1.0-0.0-0.14","4","3","4","4","2","3","4","4","4","4","4","4","3","4","4","4","4","3","4","5","2","2","2","1","2","2","2","3","1","1","1","1","1","0","0","0","0","0","0","1","0","1","0","1","4","3","3","1","2","2","3","2","4","1","734083981330616322","邓","667","","","","null","","","","","","","","","","","","","","key","null","16.667885496183334","768","428","f","false","nonmatch","img/ellipse.png","菱形","椭圆","ALT1_2","prac_ALT1_2","","","","","","","","","",""
"null","<span class='add_' style='color:yellow; font-size: 70px;'> 太慢! </span>","null","html-keyboard-response","38","489609","0.0-7.0-1.0-1.0-0.0-1.14","4","3","4","4","2","3","4","4","4","4","4","4","3","4","4","4","4","3","4","5","2","2","2","1","2","2","2","3","1","1","1","1","1","0","0","0","0","0","0","1","0","1","0","1","4","3","3","1","2","2","3","2","4","1","734083981330616322","邓","667","","","","","","","","","","","","","","","","","","","","","","","","","","","","","","feedback_test","","","","","","","","","",""
"1114","","j","psychophysics","39","491729","0.0-7.0-1.0-1.0-0.0-0.15","4","3","4","4","2","3","4","4","4","4","4","4","3","4","4","4","4","3","4","5","2","2","2","1","2","2","2","3","1","1","1","1","1","0","0","0","0","0","0","1","0","1","0","1","4","3","3","1","2","2","3","2","4","1","734083981330616322","邓","667","","","","match","","","","","","","","","","","","","","key","j","16.668404761904625","768","428","f","false","nonmatch","img/diamond.png","梯形","菱形","ALT1_2","prac_ALT1_2","","","","","","","","","",""
"null","<span style='color:red; font-size: 70px;'>错误! </span>","null","html-keyboard-response","40","492231","0.0-7.0-1.0-1.0-0.0-1.15","4","3","4","4","2","3","4","4","4","4","4","4","3","4","4","4","4","3","4","5","2","2","2","1","2","2","2","3","1","1","1","1","1","0","0","0","0","0","0","1","0","1","0","1","4","3","3","1","2","2","3","2","4","1","734083981330616322","邓","667","","","","","","","","","","","","","","","","","","","","","","","","","","","","","","feedback_test","","","","","","","","","",""
"961","","j","psychophysics","41","494198","0.0-7.0-1.0-1.0-0.0-0.16","4","3","4","4","2","3","4","4","4","4","4","4","3","4","4","4","4","3","4","5","2","2","2","1","2","2","2","3","1","1","1","1","1","0","0","0","0","0","0","1","0","1","0","1","4","3","3","1","2","2","3","2","4","1","734083981330616322","邓","667","","","","match","","","","","","","","","","","","","","key","j","16.667393162392845","768","428","j","true","match","img/ellipse.png","椭圆","椭圆","ALT1_2","prac_ALT1_2","","","","","","","","","",""
"null","<span style='color:GreenYellow; font-size: 70px;'>正确! </span>","null","html-keyboard-response","42","494700","0.0-7.0-1.0-1.0-0.0-1.16","4","3","4","4","2","3","4","4","4","4","4","4","3","4","4","4","4","3","4","5","2","2","2","1","2","2","2","3","1","1","1","1","1","0","0","0","0","0","0","1","0","1","0","1","4","3","3","1","2","2","3","2","4","1","734083981330616322","邓","667","","","","","","","","","","","","","","","","","","","","","","","","","","","","","","feedback_test","","","","","","","","","",""
"null","","null","psychophysics","43","496911","0.0-7.0-1.0-1.0-0.0-0.17","4","3","4","4","2","3","4","4","4","4","4","4","3","4","4","4","4","3","4","5","2","2","2","1","2","2","2","3","1","1","1","1","1","0","0","0","0","0","0","1","0","1","0","1","4","3","3","1","2","2","3","2","4","1","734083981330616322","邓","667","","","","null","","","","","","","","","","","","","","key","null","16.666787878787904","768","428","f","false","nonmatch","img/pentagon.png","椭圆","五边","ALT1_2","prac_ALT1_2","","","","","","","","","",""
"null","<span class='add_' style='color:yellow; font-size: 70px;'> 太慢! </span>","null","html-keyboard-response","44","497417","0.0-7.0-1.0-1.0-0.0-1.17","4","3","4","4","2","3","4","4","4","4","4","4","3","4","4","4","4","3","4","5","2","2","2","1","2","2","2","3","1","1","1","1","1","0","0","0","0","0","0","1","0","1","0","1","4","3","3","1","2","2","3","2","4","1","734083981330616322","邓","667","","","","","","","","","","","","","","","","","","","","","","","","","","","","","","feedback_test","","","","","","","","","",""
"927","","f","psychophysics","45","499347","0.0-7.0-1.0-1.0-0.0-0.18","4","3","4","4","2","3","4","4","4","4","4","4","3","4","4","4","4","3","4","5","2","2","2","1","2","2","2","3","1","1","1","1","1","0","0","0","0","0","0","1","0","1","0","1","4","3","3","1","2","2","3","2","4","1","734083981330616322","邓","667","","","","nonmatch","","","","","","","","","","","","","","key","f","16.667191304347437","768","428","f","true","nonmatch","img/diamond.png","椭圆","菱形","ALT1_2","prac_ALT1_2","","","","","","","","","",""
"null","<span style='color:GreenYellow; font-size: 70px;'>正确! </span>","null","html-keyboard-response","46","499850","0.0-7.0-1.0-1.0-0.0-1.18","4","3","4","4","2","3","4","4","4","4","4","4","3","4","4","4","4","3","4","5","2","2","2","1","2","2","2","3","1","1","1","1","1","0","0","0","0","0","0","1","0","1","0","1","4","3","3","1","2","2","3","2","4","1","734083981330616322","邓","667","","","","","","","","","","","","","","","","","","","","","","","","","","","","","","feedback_test","","","","","","","","","",""
"912","","j","psychophysics","47","501766","0.0-7.0-1.0-1.0-0.0-0.19","4","3","4","4","2","3","4","4","4","4","4","4","3","4","4","4","4","3","4","5","2","2","2","1","2","2","2","3","1","1","1","1","1","0","0","0","0","0","0","1","0","1","0","1","4","3","3","1","2","2","3","2","4","1","734083981330616322","邓","667","","","","match","","","","","","","","","","","","","","key","j","16.66709649122806","768","428","j","true","match","img/diamond.png","菱形","菱形","ALT1_2","prac_ALT1_2","","","","","","","","","",""
"null","<span style='color:GreenYellow; font-size: 70px;'>正确! </span>","null","html-keyboard-response","48","502269","0.0-7.0-1.0-1.0-0.0-1.19","4","3","4","4","2","3","4","4","4","4","4","4","3","4","4","4","4","3","4","5","2","2","2","1","2","2","2","3","1","1","1","1","1","0","0","0","0","0","0","1","0","1","0","1","4","3","3","1","2","2","3","2","4","1","734083981330616322","邓","667","","","","","","","","","","","","","","","","","","","","","","","","","","","","","","feedback_test","","","","","","","","","",""
"990","","f","psychophysics","49","504263","0.0-7.0-1.0-1.0-0.0-0.20","4","3","4","4","2","3","4","4","4","4","4","4","3","4","4","4","4","3","4","5","2","2","2","1","2","2","2","3","1","1","1","1","1","0","0","0","0","0","0","1","0","1","0","1","4","3","3","1","2","2","3","2","4","1","734083981330616322","邓","667","","","","nonmatch","","","","","","","","","","","","","","key","f","16.668542372881657","768","428","f","true","nonmatch","img/ellipse.png","梯形","椭圆","ALT1_2","prac_ALT1_2","","","","","","","","","",""
"null","<span style='color:GreenYellow; font-size: 70px;'>正确! </span>","null","html-keyboard-response","50","504765","0.0-7.0-1.0-1.0-0.0-1.20","4","3","4","4","2","3","4","4","4","4","4","4","3","4","4","4","4","3","4","5","2","2","2","1","2","2","2","3","1","1","1","1","1","0","0","0","0","0","0","1","0","1","0","1","4","3","3","1","2","2","3","2","4","1","734083981330616322","邓","667","","","","","","","","","","","","","","","","","","","","","","","","","","","","","","feedback_test","","","","","","","","","",""
"1141","","j","psychophysics","51","506912","0.0-7.0-1.0-1.0-0.0-0.21","4","3","4","4","2","3","4","4","4","4","4","4","3","4","4","4","4","3","4","5","2","2","2","1","2","2","2","3","1","1","1","1","1","0","0","0","0","0","0","1","0","1","0","1","4","3","3","1","2","2","3","2","4","1","734083981330616322","邓","667","","","","match","","","","","","","","","","","","","","key","j","16.66889062500013","768","428","j","true","match","img/pentagon.png","五边","五边","ALT1_2","prac_ALT1_2","","","","","","","","","",""
"null","<span style='color:GreenYellow; font-size: 70px;'>正确! </span>","null","html-keyboard-response","52","507417","0.0-7.0-1.0-1.0-0.0-1.21","4","3","4","4","2","3","4","4","4","4","4","4","3","4","4","4","4","3","4","5","2","2","2","1","2","2","2","3","1","1","1","1","1","0","0","0","0","0","0","1","0","1","0","1","4","3","3","1","2","2","3","2","4","1","734083981330616322","邓","667","","","","","","","","","","","","","","","","","","","","","","","","","","","","","","feedback_test","","","","","","","","","",""
"950","","j","psychophysics","53","509374","0.0-7.0-1.0-1.0-0.0-0.22","4","3","4","4","2","3","4","4","4","4","4","4","3","4","4","4","4","3","4","5","2","2","2","1","2","2","2","3","1","1","1","1","1","0","0","0","0","0","0","1","0","1","0","1","4","3","3","1","2","2","3","2","4","1","734083981330616322","邓","667","","","","match","","","","","","","","","","","","","","key","j","16.66611965811955","768","428","j","true","match","img/ellipse.png","椭圆","椭圆","ALT1_2","prac_ALT1_2","","","","","","","","","",""
"null","<span style='color:GreenYellow; font-size: 70px;'>正确! </span>","null","html-keyboard-response","54","509878","0.0-7.0-1.0-1.0-0.0-1.22","4","3","4","4","2","3","4","4","4","4","4","4","3","4","4","4","4","3","4","5","2","2","2","1","2","2","2","3","1","1","1","1","1","0","0","0","0","0","0","1","0","1","0","1","4","3","3","1","2","2","3","2","4","1","734083981330616322","邓","667","","","","","","","","","","","","","","","","","","","","","","","","","","","","","","feedback_test","","","","","","","","","",""
"946","","j","psychophysics","55","511833","0.0-7.0-1.0-1.0-0.0-0.23","4","3","4","4","2","3","4","4","4","4","4","4","3","4","4","4","4","3","4","5","2","2","2","1","2","2","2","3","1","1","1","1","1","0","0","0","0","0","0","1","0","1","0","1","4","3","3","1","2","2","3","2","4","1","734083981330616322","邓","667","","","","match","","","","","","","","","","","","","","key","j","16.66757758620701","768","428","j","true","match","img/diamond.png","菱形","菱形","ALT1_2","prac_ALT1_2","","","","","","","","","",""
"null","<span style='color:GreenYellow; font-size: 70px;'>正确! </span>","null","html-keyboard-response","56","512335","0.0-7.0-1.0-1.0-0.0-1.23","4","3","4","4","2","3","4","4","4","4","4","4","3","4","4","4","4","3","4","5","2","2","2","1","2","2","2","3","1","1","1","1","1","0","0","0","0","0","0","1","0","1","0","1","4","3","3","1","2","2","3","2","4","1","734083981330616322","邓","667","","","","","","","","","","","","","","","","","","","","","","","","","","","","","","feedback_test","","","","","","","","","",""
"1019","","j","psychophysics","57","514363","0.0-7.0-1.0-1.0-0.0-0.24","4","3","4","4","2","3","4","4","4","4","4","4","3","4","4","4","4","3","4","5","2","2","2","1","2","2","2","3","1","1","1","1","1","0","0","0","0","0","0","1","0","1","0","1","4","3","3","1","2","2","3","2","4","1","734083981330616322","邓","667","","","","match","","","","","","","","","","","","","","key","j","16.666899999999927","768","428","j","true","match","img/trapezoid.png","梯形","梯形","ALT1_2","prac_ALT1_2","","","","","","","","","",""
"null","<span style='color:GreenYellow; font-size: 70px;'>正确! </span>","null","html-keyboard-response","58","514864","0.0-7.0-1.0-1.0-0.0-1.24","4","3","4","4","2","3","4","4","4","4","4","4","3","4","4","4","4","3","4","5","2","2","2","1","2","2","2","3","1","1","1","1","1","0","0","0","0","0","0","1","0","1","0","1","4","3","3","1","2","2","3","2","4","1","734083981330616322","邓","667","","","","","","","","","","","","","","","","","","","","","","","","","","","","","","feedback_test","","","","","","","","","",""
"1115","","f","psychophysics","59","516982","0.0-7.0-1.0-1.0-0.0-0.25","4","3","4","4","2","3","4","4","4","4","4","4","3","4","4","4","4","3","4","5","2","2","2","1","2","2","2","3","1","1","1","1","1","0","0","0","0","0","0","1","0","1","0","1","4","3","3","1","2","2","3","2","4","1","734083981330616322","邓","667","","","","nonmatch","","","","","","","","","","","","","","key","f","16.668349206349202","768","428","f","true","nonmatch","img/diamond.png","椭圆","菱形","ALT1_2","prac_ALT1_2","","","","","","","","","",""
"null","<span style='color:GreenYellow; font-size: 70px;'>正确! </span>","null","html-keyboard-response","60","517484","0.0-7.0-1.0-1.0-0.0-1.25","4","3","4","4","2","3","4","4","4","4","4","4","3","4","4","4","4","3","4","5","2","2","2","1","2","2","2","3","1","1","1","1","1","0","0","0","0","0","0","1","0","1","0","1","4","3","3","1","2","2","3","2","4","1","734083981330616322","邓","667","","","","","","","","","","","","","","","","","","","","","","","","","","","","","","feedback_test","","","","","","","","","",""
"873","","j","psychophysics","61","519362","0.0-7.0-1.0-1.0-0.0-0.26","4","3","4","4","2","3","4","4","4","4","4","4","3","4","4","4","4","3","4","5","2","2","2","1","2","2","2","3","1","1","1","1","1","0","0","0","0","0","0","1","0","1","0","1","4","3","3","1","2","2","3","2","4","1","734083981330616322","邓","667","","","","match","","","","","","","","","","","","","","key","j","16.662063063063076","768","428","f","false","nonmatch","img/trapezoid.png","五边","梯形","ALT1_2","prac_ALT1_2","","","","","","","","","",""
"null","<span style='color:red; font-size: 70px;'>错误! </span>","null","html-keyboard-response","62","519866","0.0-7.0-1.0-1.0-0.0-1.26","4","3","4","4","2","3","4","4","4","4","4","4","3","4","4","4","4","3","4","5","2","2","2","1","2","2","2","3","1","1","1","1","1","0","0","0","0","0","0","1","0","1","0","1","4","3","3","1","2","2","3","2","4","1","734083981330616322","邓","667","","","","","","","","","","","","","","","","","","","","","","","","","","","","","","feedback_test","","","","","","","","","",""
"1008","","j","psychophysics","63","521878","0.0-7.0-1.0-1.0-0.0-0.27","4","3","4","4","2","3","4","4","4","4","4","4","3","4","4","4","4","3","4","5","2","2","2","1","2","2","2","3","1","1","1","1","1","0","0","0","0","0","0","1","0","1","0","1","4","3","3","1","2","2","3","2","4","1","734083981330616322","邓","667","","","","match","","","","","","","","","","","","","","key","j","16.67835833333326","768","428","f","false","nonmatch","img/diamond.png","五边","菱形","ALT1_2","prac_ALT1_2","","","","","","","","","",""
"null","<span style='color:red; font-size: 70px;'>错误! </span>","null","html-keyboard-response","64","522382","0.0-7.0-1.0-1.0-0.0-1.27","4","3","4","4","2","3","4","4","4","4","4","4","3","4","4","4","4","3","4","5","2","2","2","1","2","2","2","3","1","1","1","1","1","0","0","0","0","0","0","1","0","1","0","1","4","3","3","1","2","2","3","2","4","1","734083981330616322","邓","667","","","","","","","","","","","","","","","","","","","","","","","","","","","","","","feedback_test","","","","","","","","","",""
"744","","j","psychophysics","65","524130","0.0-7.0-1.0-1.0-0.0-0.28","4","3","4","4","2","3","4","4","4","4","4","4","3","4","4","4","4","3","4","5","2","2","2","1","2","2","2","3","1","1","1","1","1","0","0","0","0","0","0","1","0","1","0","1","4","3","3","1","2","2","3","2","4","1","734083981330616322","邓","667","","","","match","","","","","","","","","","","","","","key","j","16.66735576923048","768","428","j","true","match","img/ellipse.png","椭圆","椭圆","ALT1_2","prac_ALT1_2","","","","","","","","","",""
"null","<span style='color:GreenYellow; font-size: 70px;'>正确! </span>","null","html-keyboard-response","66","524632","0.0-7.0-1.0-1.0-0.0-1.28","4","3","4","4","2","3","4","4","4","4","4","4","3","4","4","4","4","3","4","5","2","2","2","1","2","2","2","3","1","1","1","1","1","0","0","0","0","0","0","1","0","1","0","1","4","3","3","1","2","2","3","2","4","1","734083981330616322","邓","667","","","","","","","","","","","","","","","","","","","","","","","","","","","","","","feedback_test","","","","","","","","","",""
"null","","null","psychophysics","67","526844","0.0-7.0-1.0-1.0-0.0-0.29","4","3","4","4","2","3","4","4","4","4","4","4","3","4","4","4","4","3","4","5","2","2","2","1","2","2","2","3","1","1","1","1","1","0","0","0","0","0","0","1","0","1","0","1","4","3","3","1","2","2","3","2","4","1","734083981330616322","邓","667","","","","null","","","","","","","","","","","","","","key","null","16.66648484848503","768","428","j","false","match","img/pentagon.png","五边","五边","ALT1_2","prac_ALT1_2","","","","","","","","","",""
"null","<span class='add_' style='color:yellow; font-size: 70px;'> 太慢! </span>","null","html-keyboard-response","68","527347","0.0-7.0-1.0-1.0-0.0-1.29","4","3","4","4","2","3","4","4","4","4","4","4","3","4","4","4","4","3","4","5","2","2","2","1","2","2","2","3","1","1","1","1","1","0","0","0","0","0","0","1","0","1","0","1","4","3","3","1","2","2","3","2","4","1","734083981330616322","邓","667","","","","","","","","","","","","","","","","","","","","","","","","","","","","","","feedback_test","","","","","","","","","",""
"null","","null","psychophysics","69","529557","0.0-7.0-1.0-1.0-0.0-0.30","4","3","4","4","2","3","4","4","4","4","4","4","3","4","4","4","4","3","4","5","2","2","2","1","2","2","2","3","1","1","1","1","1","0","0","0","0","0","0","1","0","1","0","1","4","3","3","1","2","2","3","2","4","1","734083981330616322","邓","667","","","","null","","","","","","","","","","","","","","key","null","16.665893939394277","768","428","j","false","match","img/pentagon.png","五边","五边","ALT1_2","prac_ALT1_2","","","","","","","","","",""
"null","<span class='add_' style='color:yellow; font-size: 70px;'> 太慢! </span>","null","html-keyboard-response","70","530059","0.0-7.0-1.0-1.0-0.0-1.30","4","3","4","4","2","3","4","4","4","4","4","4","3","4","4","4","4","3","4","5","2","2","2","1","2","2","2","3","1","1","1","1","1","0","0","0","0","0","0","1","0","1","0","1","4","3","3","1","2","2","3","2","4","1","734083981330616322","邓","667","","","","","","","","","","","","","","","","","","","","","","","","","","","","","","feedback_test","","","","","","","","","",""
"null","","null","psychophysics","71","532272","0.0-7.0-1.0-1.0-0.0-0.31","4","3","4","4","2","3","4","4","4","4","4","4","3","4","4","4","4","3","4","5","2","2","2","1","2","2","2","3","1","1","1","1","1","0","0","0","0","0","0","1","0","1","0","1","4","3","3","1","2","2","3","2","4","1","734083981330616322","邓","667","","","","null","","","","","","","","","","","","","","key","null","16.668015151515704","768","428","f","false","nonmatch","img/pentagon.png","菱形","五边","ALT1_2","prac_ALT1_2","","","","","","","","","",""
"null","<span class='add_' style='color:yellow; font-size: 70px;'> 太慢! </span>","null","html-keyboard-response","72","532775","0.0-7.0-1.0-1.0-0.0-1.31","4","3","4","4","2","3","4","4","4","4","4","4","3","4","4","4","4","3","4","5","2","2","2","1","2","2","2","3","1","1","1","1","1","0","0","0","0","0","0","1","0","1","0","1","4","3","3","1","2","2","3","2","4","1","734083981330616322","邓","667","","","","","","","","","","","","","","","","","","","","","","","","","","","","","","feedback_test","","","","","","","","","",""
"null","","null","psychophysics","73","534980","0.0-7.0-1.0-1.0-0.0-0.32","4","3","4","4","2","3","4","4","4","4","4","4","3","4","4","4","4","3","4","5","2","2","2","1","2","2","2","3","1","1","1","1","1","0","0","0","0","0","0","1","0","1","0","1","4","3","3","1","2","2","3","2","4","1","734083981330616322","邓","667","","","","null","","","","","","","","","","","","","","key","null","16.66793129770956","768","428","f","false","nonmatch","img/ellipse.png","五边","椭圆","ALT1_2","prac_ALT1_2","","","","","","","","","",""
"null","<span class='add_' style='color:yellow; font-size: 70px;'> 太慢! </span>","null","html-keyboard-response","74","535483","0.0-7.0-1.0-1.0-0.0-1.32","4","3","4","4","2","3","4","4","4","4","4","4","3","4","4","4","4","3","4","5","2","2","2","1","2","2","2","3","1","1","1","1","1","0","0","0","0","0","0","1","0","1","0","1","4","3","3","1","2","2","3","2","4","1","734083981330616322","邓","667","","","","","","","","","","","","","","","","","","","","","","","","","","","","","","feedback_test","","","","","","","","","",""
"834","","j","psychophysics","75","537326","0.0-7.0-1.0-1.0-0.0-0.33","4","3","4","4","2","3","4","4","4","4","4","4","3","4","4","4","4","3","4","5","2","2","2","1","2","2","2","3","1","1","1","1","1","0","0","0","0","0","0","1","0","1","0","1","4","3","3","1","2","2","3","2","4","1","734083981330616322","邓","667","","","","match","","","","","","","","","","","","","","key","j","16.6637037037031","768","428","j","true","match","img/ellipse.png","椭圆","椭圆","ALT1_2","prac_ALT1_2","","","","","","","","","",""
"null","<span style='color:GreenYellow; font-size: 70px;'>正确! </span>","null","html-keyboard-response","76","537829","0.0-7.0-1.0-1.0-0.0-1.33","4","3","4","4","2","3","4","4","4","4","4","4","3","4","4","4","4","3","4","5","2","2","2","1","2","2","2","3","1","1","1","1","1","0","0","0","0","0","0","1","0","1","0","1","4","3","3","1","2","2","3","2","4","1","734083981330616322","邓","667","","","","","","","","","","","","","","","","","","","","","","","","","","","","","","feedback_test","","","","","","","","","",""
"null","","null","psychophysics","77","540041","0.0-7.0-1.0-1.0-0.0-0.34","4","3","4","4","2","3","4","4","4","4","4","4","3","4","4","4","4","3","4","5","2","2","2","1","2","2","2","3","1","1","1","1","1","0","0","0","0","0","0","1","0","1","0","1","4","3","3","1","2","2","3","2","4","1","734083981330616322","邓","667","","","","null","","","","","","","","","","","","","","key","null","16.66705303030286","768","428","f","false","nonmatch","img/trapezoid.png","椭圆","梯形","ALT1_2","prac_ALT1_2","","","","","","","","","",""
"null","<span class='add_' style='color:yellow; font-size: 70px;'> 太慢! </span>","null","html-keyboard-response","78","540544","0.0-7.0-1.0-1.0-0.0-1.34","4","3","4","4","2","3","4","4","4","4","4","4","3","4","4","4","4","3","4","5","2","2","2","1","2","2","2","3","1","1","1","1","1","0","0","0","0","0","0","1","0","1","0","1","4","3","3","1","2","2","3","2","4","1","734083981330616322","邓","667","","","","","","","","","","","","","","","","","","","","","","","","","","","","","","feedback_test","","","","","","","","","",""
"767","","f","psychophysics","79","542316","0.0-7.0-1.0-1.0-0.0-0.35","4","3","4","4","2","3","4","4","4","4","4","4","3","4","4","4","4","3","4","5","2","2","2","1","2","2","2","3","1","1","1","1","1","0","0","0","0","0","0","1","0","1","0","1","4","3","3","1","2","2","3","2","4","1","734083981330616322","邓","667","","","","nonmatch","","","","","","","","","","","","","","key","f","16.66817142857194","768","428","f","true","nonmatch","img/pentagon.png","椭圆","五边","ALT1_2","prac_ALT1_2","","","","","","","","","",""
"null","<span style='color:GreenYellow; font-size: 70px;'>正确! </span>","null","html-keyboard-response","80","542830","0.0-7.0-1.0-1.0-0.0-1.35","4","3","4","4","2","3","4","4","4","4","4","4","3","4","4","4","4","3","4","5","2","2","2","1","2","2","2","3","1","1","1","1","1","0","0","0","0","0","0","1","0","1","0","1","4","3","3","1","2","2","3","2","4","1","734083981330616322","邓","667","","","","","","","","","","","","","","","","","","","","","","","","","","","","","","feedback_test","","","","","","","","","",""
"1055","","f","psychophysics","81","544889","0.0-7.0-1.0-1.0-0.0-0.36","4","3","4","4","2","3","4","4","4","4","4","4","3","4","4","4","4","3","4","5","2","2","2","1","2","2","2","3","1","1","1","1","1","0","0","0","0","0","0","1","0","1","0","1","4","3","3","1","2","2","3","2","4","1","734083981330616322","邓","667","","","","nonmatch","","","","","","","","","","","","","","key","f","16.667390243902734","768","428","f","true","nonmatch","img/ellipse.png","梯形","椭圆","ALT1_2","prac_ALT1_2","","","","","","","","","",""
"null","<span style='color:GreenYellow; font-size: 70px;'>正确! </span>","null","html-keyboard-response","82","545392","0.0-7.0-1.0-1.0-0.0-1.36","4","3","4","4","2","3","4","4","4","4","4","4","3","4","4","4","4","3","4","5","2","2","2","1","2","2","2","3","1","1","1","1","1","0","0","0","0","0","0","1","0","1","0","1","4","3","3","1","2","2","3","2","4","1","734083981330616322","邓","667","","","","","","","","","","","","","","","","","","","","","","","","","","","","","","feedback_test","","","","","","","","","",""
"1027","","f","psychophysics","83","547424","0.0-7.0-1.0-1.0-0.0-0.37","4","3","4","4","2","3","4","4","4","4","4","4","3","4","4","4","4","3","4","5","2","2","2","1","2","2","2","3","1","1","1","1","1","0","0","0","0","0","0","1","0","1","0","1","4","3","3","1","2","2","3","2","4","1","734083981330616322","邓","667","","","","nonmatch","","","","","","","","","","","","","","key","f","16.666950413223148","768","428","j","false","match","img/diamond.png","菱形","菱形","ALT1_2","prac_ALT1_2","","","","","","","","","",""
"null","<span style='color:red; font-size: 70px;'>错误! </span>","null","html-keyboard-response","84","547928","0.0-7.0-1.0-1.0-0.0-1.37","4","3","4","4","2","3","4","4","4","4","4","4","3","4","4","4","4","3","4","5","2","2","2","1","2","2","2","3","1","1","1","1","1","0","0","0","0","0","0","1","0","1","0","1","4","3","3","1","2","2","3","2","4","1","734083981330616322","邓","667","","","","","","","","","","","","","","","","","","","","","","","","","","","","","","feedback_test","","","","","","","","","",""
"null","","null","psychophysics","85","550130","0.0-7.0-1.0-1.0-0.0-0.38","4","3","4","4","2","3","4","4","4","4","4","4","3","4","4","4","4","3","4","5","2","2","2","1","2","2","2","3","1","1","1","1","1","0","0","0","0","0","0","1","0","1","0","1","4","3","3","1","2","2","3","2","4","1","734083981330616322","邓","667","","","","null","","","","","","","","","","","","","","key","null","16.666549618320385","768","428","f","false","nonmatch","img/pentagon.png","梯形","五边","ALT1_2","prac_ALT1_2","","","","","","","","","",""
"null","<span class='add_' style='color:yellow; font-size: 70px;'> 太慢! </span>","null","html-keyboard-response","86","550632","0.0-7.0-1.0-1.0-0.0-1.38","4","3","4","4","2","3","4","4","4","4","4","4","3","4","4","4","4","3","4","5","2","2","2","1","2","2","2","3","1","1","1","1","1","0","0","0","0","0","0","1","0","1","0","1","4","3","3","1","2","2","3","2","4","1","734083981330616322","邓","667","","","","","","","","","","","","","","","","","","","","","","","","","","","","","","feedback_test","","","","","","","","","",""
"1135","","j","psychophysics","87","552775","0.0-7.0-1.0-1.0-0.0-0.39","4","3","4","4","2","3","4","4","4","4","4","4","3","4","4","4","4","3","4","5","2","2","2","1","2","2","2","3","1","1","1","1","1","0","0","0","0","0","0","1","0","1","0","1","4","3","3","1","2","2","3","2","4","1","734083981330616322","邓","667","","","","match","","","","","","","","","","","","","","key","j","16.66729687499992","768","428","j","true","match","img/pentagon.png","五边","五边","ALT1_2","prac_ALT1_2","","","","","","","","","",""
"null","<span style='color:GreenYellow; font-size: 70px;'>正确! </span>","null","html-keyboard-response","88","553285","0.0-7.0-1.0-1.0-0.0-1.39","4","3","4","4","2","3","4","4","4","4","4","4","3","4","4","4","4","3","4","5","2","2","2","1","2","2","2","3","1","1","1","1","1","0","0","0","0","0","0","1","0","1","0","1","4","3","3","1","2","2","3","2","4","1","734083981330616322","邓","667","","","","","","","","","","","","","","","","","","","","","","","","","","","","","","feedback_test","","","","","","","","","",""
"1072","","j","psychophysics","89","555361","0.0-7.0-1.0-1.0-0.0-0.40","4","3","4","4","2","3","4","4","4","4","4","4","3","4","4","4","4","3","4","5","2","2","2","1","2","2","2","3","1","1","1","1","1","0","0","0","0","0","0","1","0","1","0","1","4","3","3","1","2","2","3","2","4","1","734083981330616322","邓","667","","","","match","","","","","","","","","","","","","","key","j","16.658373983739686","768","428","f","false","nonmatch","img/trapezoid.png","菱形","梯形","ALT1_2","prac_ALT1_2","","","","","","","","","",""
"null","<span style='color:red; font-size: 70px;'>错误! </span>","null","html-keyboard-response","90","555863","0.0-7.0-1.0-1.0-0.0-1.40","4","3","4","4","2","3","4","4","4","4","4","4","3","4","4","4","4","3","4","5","2","2","2","1","2","2","2","3","1","1","1","1","1","0","0","0","0","0","0","1","0","1","0","1","4","3","3","1","2","2","3","2","4","1","734083981330616322","邓","667","","","","","","","","","","","","","","","","","","","","","","","","","","","","","","feedback_test","","","","","","","","","",""
"961","","j","psychophysics","91","557828","0.0-7.0-1.0-1.0-0.0-0.41","4","3","4","4","2","3","4","4","4","4","4","4","3","4","4","4","4","3","4","5","2","2","2","1","2","2","2","3","1","1","1","1","1","0","0","0","0","0","0","1","0","1","0","1","4","3","3","1","2","2","3","2","4","1","734083981330616322","邓","667","","","","match","","","","","","","","","","","","","","key","j","16.667615384615672","768","428","j","true","match","img/ellipse.png","椭圆","椭圆","ALT1_2","prac_ALT1_2","","","","","","","","","",""
"null","<span style='color:GreenYellow; font-size: 70px;'>正确! </span>","null","html-keyboard-response","92","558330","0.0-7.0-1.0-1.0-0.0-1.41","4","3","4","4","2","3","4","4","4","4","4","4","3","4","4","4","4","3","4","5","2","2","2","1","2","2","2","3","1","1","1","1","1","0","0","0","0","0","0","1","0","1","0","1","4","3","3","1","2","2","3","2","4","1","734083981330616322","邓","667","","","","","","","","","","","","","","","","","","","","","","","","","","","","","","feedback_test","","","","","","","","","",""
"1076","","j","psychophysics","93","560412","0.0-7.0-1.0-1.0-0.0-0.42","4","3","4","4","2","3","4","4","4","4","4","4","3","4","4","4","4","3","4","5","2","2","2","1","2","2","2","3","1","1","1","1","1","0","0","0","0","0","0","1","0","1","0","1","4","3","3","1","2","2","3","2","4","1","734083981330616322","邓","667","","","","match","","","","","","","","","","","","","","key","j","16.667193548386773","768","428","j","true","match","img/trapezoid.png","梯形","梯形","ALT1_2","prac_ALT1_2","","","","","","","","","",""
"null","<span style='color:GreenYellow; font-size: 70px;'>正确! </span>","null","html-keyboard-response","94","560915","0.0-7.0-1.0-1.0-0.0-1.42","4","3","4","4","2","3","4","4","4","4","4","4","3","4","4","4","4","3","4","5","2","2","2","1","2","2","2","3","1","1","1","1","1","0","0","0","0","0","0","1","0","1","0","1","4","3","3","1","2","2","3","2","4","1","734083981330616322","邓","667","","","","","","","","","","","","","","","","","","","","","","","","","","","","","","feedback_test","","","","","","","","","",""
"null","","null","psychophysics","95","563126","0.0-7.0-1.0-1.0-0.0-0.43","4","3","4","4","2","3","4","4","4","4","4","4","3","4","4","4","4","3","4","5","2","2","2","1","2","2","2","3","1","1","1","1","1","0","0","0","0","0","0","1","0","1","0","1","4","3","3","1","2","2","3","2","4","1","734083981330616322","邓","667","","","","null","","","","","","","","","","","","","","key","null","16.66657575757585","768","428","j","false","match","img/trapezoid.png","梯形","梯形","ALT1_2","prac_ALT1_2","","","","","","","","","",""
"null","<span class='add_' style='color:yellow; font-size: 70px;'> 太慢! </span>","null","html-keyboard-response","96","563628","0.0-7.0-1.0-1.0-0.0-1.43","4","3","4","4","2","3","4","4","4","4","4","4","3","4","4","4","4","3","4","5","2","2","2","1","2","2","2","3","1","1","1","1","1","0","0","0","0","0","0","1","0","1","0","1","4","3","3","1","2","2","3","2","4","1","734083981330616322","邓","667","","","","","","","","","","","","","","","","","","","","","","","","","","","","","","feedback_test","","","","","","","","","",""
"1077","","j","psychophysics","97","565709","0.0-7.0-1.0-1.0-0.0-0.44","4","3","4","4","2","3","4","4","4","4","4","4","3","4","4","4","4","3","4","5","2","2","2","1","2","2","2","3","1","1","1","1","1","0","0","0","0","0","0","1","0","1","0","1","4","3","3","1","2","2","3","2","4","1","734083981330616322","邓","667","","","","match","","","","","","","","","","","","","","key","j","16.666999999999874","768","428","j","true","match","img/diamond.png","菱形","菱形","ALT1_2","prac_ALT1_2","","","","","","","","","",""
"null","<span style='color:GreenYellow; font-size: 70px;'>正确! </span>","null","html-keyboard-response","98","566212","0.0-7.0-1.0-1.0-0.0-1.44","4","3","4","4","2","3","4","4","4","4","4","4","3","4","4","4","4","3","4","5","2","2","2","1","2","2","2","3","1","1","1","1","1","0","0","0","0","0","0","1","0","1","0","1","4","3","3","1","2","2","3","2","4","1","734083981330616322","邓","667","","","","","","","","","","","","","","","","","","","","","","","","","","","","","","feedback_test","","","","","","","","","",""
"987","","f","psychophysics","99","568204","0.0-7.0-1.0-1.0-0.0-0.45","4","3","4","4","2","3","4","4","4","4","4","4","3","4","4","4","4","3","4","5","2","2","2","1","2","2","2","3","1","1","1","1","1","0","0","0","0","0","0","1","0","1","0","1","4","3","3","1","2","2","3","2","4","1","734083981330616322","邓","667","","","","nonmatch","","","","","","","","","","","","","","key","f","16.667352941176784","768","428","f","true","nonmatch","img/ellipse.png","菱形","椭圆","ALT1_2","prac_ALT1_2","","","","","","","","","",""
"null","<span style='color:GreenYellow; font-size: 70px;'>正确! </span>","null","html-keyboard-response","100","568710","0.0-7.0-1.0-1.0-0.0-1.45","4","3","4","4","2","3","4","4","4","4","4","4","3","4","4","4","4","3","4","5","2","2","2","1","2","2","2","3","1","1","1","1","1","0","0","0","0","0","0","1","0","1","0","1","4","3","3","1","2","2","3","2","4","1","734083981330616322","邓","667","","","","","","","","","","","","","","","","","","","","","","","","","","","","","","feedback_test","","","","","","","","","",""
"null","","null","psychophysics","101","570920","0.0-7.0-1.0-1.0-0.0-0.46","4","3","4","4","2","3","4","4","4","4","4","4","3","4","4","4","4","3","4","5","2","2","2","1","2","2","2","3","1","1","1","1","1","0","0","0","0","0","0","1","0","1","0","1","4","3","3","1","2","2","3","2","4","1","734083981330616322","邓","667","","","","null","","","","","","","","","","","","","","key","null","16.667295454546217","768","428","j","false","match","img/diamond.png","菱形","菱形","ALT1_2","prac_ALT1_2","","","","","","","","","",""
"null","<span class='add_' style='color:yellow; font-size: 70px;'> 太慢! </span>","null","html-keyboard-response","102","571425","0.0-7.0-1.0-1.0-0.0-1.46","4","3","4","4","2","3","4","4","4","4","4","4","3","4","4","4","4","3","4","5","2","2","2","1","2","2","2","3","1","1","1","1","1","0","0","0","0","0","0","1","0","1","0","1","4","3","3","1","2","2","3","2","4","1","734083981330616322","邓","667","","","","","","","","","","","","","","","","","","","","","","","","","","","","","","feedback_test","","","","","","","","","",""
"1034","","f","psychophysics","103","573464","0.0-7.0-1.0-1.0-0.0-0.47","4","3","4","4","2","3","4","4","4","4","4","4","3","4","4","4","4","3","4","5","2","2","2","1","2","2","2","3","1","1","1","1","1","0","0","0","0","0","0","1","0","1","0","1","4","3","3","1","2","2","3","2","4","1","734083981330616322","邓","667","","","","nonmatch","","","","","","","","","","","","","","key","f","16.668231404958917","768","428","f","true","nonmatch","img/diamond.png","梯形","菱形","ALT1_2","prac_ALT1_2","","","","","","","","","",""
"null","<span style='color:GreenYellow; font-size: 70px;'>正确! </span>","null","html-keyboard-response","104","573967","0.0-7.0-1.0-1.0-0.0-1.47","4","3","4","4","2","3","4","4","4","4","4","4","3","4","4","4","4","3","4","5","2","2","2","1","2","2","2","3","1","1","1","1","1","0","0","0","0","0","0","1","0","1","0","1","4","3","3","1","2","2","3","2","4","1","734083981330616322","邓","667","","","","","","","","","","","","","","","","","","","","","","","","","","","","","","feedback_test","","","","","","","","","",""
"15920","<style>.context{color:white; font-size: 35px; line-height:40px}</style>                          <div><p class='context'>您正确回答了52% 的试次。</p><p class='context'>您的平均反应时为996毫秒。</p><p class='context'>恭喜您完成练习。按空格键继续。</p></div>"," ","html-keyboard-response","105","589890","0.0-7.0-1.0-1.0-1.0-0.0","4","3","4","4","2","3","4","4","4","4","4","4","3","4","4","4","4","3","4","5","2","2","2","1","2","2","2","3","1","1","1","1","1","0","0","0","0","0","0","1","0","1","0","1","4","3","3","1","2","2","3","2","4","1","734083981330616322","邓","667","","","","","","","","","","","","","","","","","","","","","","","","","","","","","","","","","","","","","","","",""
"21736","","","instructions","106","611628","0.0-7.0-1.0-1.0-1.0-1.0","4","3","4","4","2","3","4","4","4","4","4","4","3","4","4","4","4","3","4","5","2","2","2","1","2","2","2","3","1","1","1","1","1","0","0","0","0","0","0","1","0","1","0","1","4","3","3","1","2","2","3","2","4","1","734083981330616322","邓","667","","","","","","","","","","","","","","","","","[{""page_index"":0,""viewing_time"":3788},{""page_index"":1,""viewing_time"":4655},{""page_index"":2,""viewing_time"":3803},{""page_index"":1,""viewing_time"":7726},{""page_index"":2,""viewing_time"":1764}]","","","","","","","","","","","","","","","","","","","","","","",""
"null","","null","psychophysics","107","613834","0.0-7.0-1.0-1.1-0.1-0.48","4","3","4","4","2","3","4","4","4","4","4","4","3","4","4","4","4","3","4","5","2","2","2","1","2","2","2","3","1","1","1","1","1","0","0","0","0","0","0","1","0","1","0","1","4","3","3","1","2","2","3","2","4","1","734083981330616322","邓","667","","","","null","","","","","","","","","","","","","","key","null","16.667595419847895","768","428","j","false","match","img/diamond.png","菱形","菱形","ALT1_2","prac_ALT1_2","","","","","","","","","",""
"null","<span class='add_' style='color:yellow; font-size: 70px;'> 太慢! </span>","null","html-keyboard-response","108","614337","0.0-7.0-1.0-1.1-0.1-1.48","4","3","4","4","2","3","4","4","4","4","4","4","3","4","4","4","4","3","4","5","2","2","2","1","2","2","2","3","1","1","1","1","1","0","0","0","0","0","0","1","0","1","0","1","4","3","3","1","2","2","3","2","4","1","734083981330616322","邓","667","","","","","","","","","","","","","","","","","","","","","","","","","","","","","","feedback_test","","","","","","","","","",""
"null","","null","psychophysics","109","616544","0.0-7.0-1.0-1.1-0.1-0.49","4","3","4","4","2","3","4","4","4","4","4","4","3","4","4","4","4","3","4","5","2","2","2","1","2","2","2","3","1","1","1","1","1","0","0","0","0","0","0","1","0","1","0","1","4","3","3","1","2","2","3","2","4","1","734083981330616322","邓","667","","","","null","","","","","","","","","","","","","","key","null","16.666297709923914","768","428","j","false","match","img/diamond.png","菱形","菱形","ALT1_2","prac_ALT1_2","","","","","","","","","",""
"null","<span class='add_' style='color:yellow; font-size: 70px;'> 太慢! </span>","null","html-keyboard-response","110","617048","0.0-7.0-1.0-1.1-0.1-1.49","4","3","4","4","2","3","4","4","4","4","4","4","3","4","4","4","4","3","4","5","2","2","2","1","2","2","2","3","1","1","1","1","1","0","0","0","0","0","0","1","0","1","0","1","4","3","3","1","2","2","3","2","4","1","734083981330616322","邓","667","","","","","","","","","","","","","","","","","","","","","","","","","","","","","","feedback_test","","","","","","","","","",""
"972","","f","psychophysics","111","619023","0.0-7.0-1.0-1.1-0.1-0.50","4","3","4","4","2","3","4","4","4","4","4","4","3","4","4","4","4","3","4","5","2","2","2","1","2","2","2","3","1","1","1","1","1","0","0","0","0","0","0","1","0","1","0","1","4","3","3","1","2","2","3","2","4","1","734083981330616322","邓","667","","","","nonmatch","","","","","","","","","","","","","","key","f","16.6659572649574","768","428","f","true","nonmatch","img/diamond.png","椭圆","菱形","ALT1_2","prac_ALT1_2","","","","","","","","","",""
"null","<span style='color:GreenYellow; font-size: 70px;'>正确! </span>","null","html-keyboard-response","112","619526","0.0-7.0-1.0-1.1-0.1-1.50","4","3","4","4","2","3","4","4","4","4","4","4","3","4","4","4","4","3","4","5","2","2","2","1","2","2","2","3","1","1","1","1","1","0","0","0","0","0","0","1","0","1","0","1","4","3","3","1","2","2","3","2","4","1","734083981330616322","邓","667","","","","","","","","","","","","","","","","","","","","","","","","","","","","","","feedback_test","","","","","","","","","",""
"901","","f","psychophysics","113","621431","0.0-7.0-1.0-1.1-0.1-0.51","4","3","4","4","2","3","4","4","4","4","4","4","3","4","4","4","4","3","4","5","2","2","2","1","2","2","2","3","1","1","1","1","1","0","0","0","0","0","0","1","0","1","0","1","4","3","3","1","2","2","3","2","4","1","734083981330616322","邓","667","","","","nonmatch","","","","","","","","","","","","","","key","f","16.81694642857162","768","428","f","true","nonmatch","img/ellipse.png","五边","椭圆","ALT1_2","prac_ALT1_2","","","","","","","","","",""
"null","<span style='color:GreenYellow; font-size: 70px;'>正确! </span>","null","html-keyboard-response","114","621934","0.0-7.0-1.0-1.1-0.1-1.51","4","3","4","4","2","3","4","4","4","4","4","4","3","4","4","4","4","3","4","5","2","2","2","1","2","2","2","3","1","1","1","1","1","0","0","0","0","0","0","1","0","1","0","1","4","3","3","1","2","2","3","2","4","1","734083981330616322","邓","667","","","","","","","","","","","","","","","","","","","","","","","","","","","","","","feedback_test","","","","","","","","","",""
"784","","j","psychophysics","115","623723","0.0-7.0-1.0-1.1-0.1-0.52","4","3","4","4","2","3","4","4","4","4","4","4","3","4","4","4","4","3","4","5","2","2","2","1","2","2","2","3","1","1","1","1","1","0","0","0","0","0","0","1","0","1","0","1","4","3","3","1","2","2","3","2","4","1","734083981330616322","邓","667","","","","match","","","","","","","","","","","","","","key","j","16.6671037735848","768","428","j","true","match","img/trapezoid.png","梯形","梯形","ALT1_2","prac_ALT1_2","","","","","","","","","",""
"null","<span style='color:GreenYellow; font-size: 70px;'>正确! </span>","null","html-keyboard-response","116","624226","0.0-7.0-1.0-1.1-0.1-1.52","4","3","4","4","2","3","4","4","4","4","4","4","3","4","4","4","4","3","4","5","2","2","2","1","2","2","2","3","1","1","1","1","1","0","0","0","0","0","0","1","0","1","0","1","4","3","3","1","2","2","3","2","4","1","734083981330616322","邓","667","","","","","","","","","","","","","","","","","","","","","","","","","","","","","","feedback_test","","","","","","","","","",""
"811","","j","psychophysics","117","626041","0.0-7.0-1.0-1.1-0.1-0.53","4","3","4","4","2","3","4","4","4","4","4","4","3","4","4","4","4","3","4","5","2","2","2","1","2","2","2","3","1","1","1","1","1","0","0","0","0","0","0","1","0","1","0","1","4","3","3","1","2","2","3","2","4","1","734083981330616322","邓","667","","","","match","","","","","","","","","","","","","","key","j","16.66724074073998","768","428","j","true","match","img/trapezoid.png","梯形","梯形","ALT1_2","prac_ALT1_2","","","","","","","","","",""
"null","<span style='color:GreenYellow; font-size: 70px;'>正确! </span>","null","html-keyboard-response","118","626543","0.0-7.0-1.0-1.1-0.1-1.53","4","3","4","4","2","3","4","4","4","4","4","4","3","4","4","4","4","3","4","5","2","2","2","1","2","2","2","3","1","1","1","1","1","0","0","0","0","0","0","1","0","1","0","1","4","3","3","1","2","2","3","2","4","1","734083981330616322","邓","667","","","","","","","","","","","","","","","","","","","","","","","","","","","","","","feedback_test","","","","","","","","","",""
"1091","","f","psychophysics","119","628640","0.0-7.0-1.0-1.1-0.1-0.54","4","3","4","4","2","3","4","4","4","4","4","4","3","4","4","4","4","3","4","5","2","2","2","1","2","2","2","3","1","1","1","1","1","0","0","0","0","0","0","1","0","1","0","1","4","3","3","1","2","2","3","2","4","1","734083981330616322","邓","667","","","","nonmatch","","","","","","","","","","","","","","key","f","16.667216000000014","768","428","j","false","match","img/diamond.png","菱形","菱形","ALT1_2","prac_ALT1_2","","","","","","","","","",""
"null","<span style='color:red; font-size: 70px;'>错误! </span>","null","html-keyboard-response","120","629145","0.0-7.0-1.0-1.1-0.1-1.54","4","3","4","4","2","3","4","4","4","4","4","4","3","4","4","4","4","3","4","5","2","2","2","1","2","2","2","3","1","1","1","1","1","0","0","0","0","0","0","1","0","1","0","1","4","3","3","1","2","2","3","2","4","1","734083981330616322","邓","667","","","","","","","","","","","","","","","","","","","","","","","","","","","","","","feedback_test","","","","","","","","","",""
"1148","","j","psychophysics","121","631306","0.0-7.0-1.0-1.1-0.1-0.55","4","3","4","4","2","3","4","4","4","4","4","4","3","4","4","4","4","3","4","5","2","2","2","1","2","2","2","3","1","1","1","1","1","0","0","0","0","0","0","1","0","1","0","1","4","3","3","1","2","2","3","2","4","1","734083981330616322","邓","667","","","","match","","","","","","","","","","","","","","key","j","16.664395348836717","768","428","j","true","match","img/pentagon.png","五边","五边","ALT1_2","prac_ALT1_2","","","","","","","","","",""
"null","<span style='color:GreenYellow; font-size: 70px;'>正确! </span>","null","html-keyboard-response","122","631809","0.0-7.0-1.0-1.1-0.1-1.55","4","3","4","4","2","3","4","4","4","4","4","4","3","4","4","4","4","3","4","5","2","2","2","1","2","2","2","3","1","1","1","1","1","0","0","0","0","0","0","1","0","1","0","1","4","3","3","1","2","2","3","2","4","1","734083981330616322","邓","667","","","","","","","","","","","","","","","","","","","","","","","","","","","","","","feedback_test","","","","","","","","","",""
"798","","j","psychophysics","123","633612","0.0-7.0-1.0-1.1-0.1-0.56","4","3","4","4","2","3","4","4","4","4","4","4","3","4","4","4","4","3","4","5","2","2","2","1","2","2","2","3","1","1","1","1","1","0","0","0","0","0","0","1","0","1","0","1","4","3","3","1","2","2","3","2","4","1","734083981330616322","邓","667","","","","match","","","","","","","","","","","","","","key","j","16.664747663551644","768","428","f","false","nonmatch","img/trapezoid.png","五边","梯形","ALT1_2","prac_ALT1_2","","","","","","","","","",""
"null","<span style='color:red; font-size: 70px;'>错误! </span>","null","html-keyboard-response","124","634114","0.0-7.0-1.0-1.1-0.1-1.56","4","3","4","4","2","3","4","4","4","4","4","4","3","4","4","4","4","3","4","5","2","2","2","1","2","2","2","3","1","1","1","1","1","0","0","0","0","0","0","1","0","1","0","1","4","3","3","1","2","2","3","2","4","1","734083981330616322","邓","667","","","","","","","","","","","","","","","","","","","","","","","","","","","","","","feedback_test","","","","","","","","","",""
"921","","j","psychophysics","125","636039","0.0-7.0-1.0-1.1-0.1-0.57","4","3","4","4","2","3","4","4","4","4","4","4","3","4","4","4","4","3","4","5","2","2","2","1","2","2","2","3","1","1","1","1","1","0","0","0","0","0","0","1","0","1","0","1","4","3","3","1","2","2","3","2","4","1","734083981330616322","邓","667","","","","match","","","","","","","","","","","","","","key","j","16.667017543859977","768","428","j","true","match","img/trapezoid.png","梯形","梯形","ALT1_2","prac_ALT1_2","","","","","","","","","",""
"null","<span style='color:GreenYellow; font-size: 70px;'>正确! </span>","null","html-keyboard-response","126","636542","0.0-7.0-1.0-1.1-0.1-1.57","4","3","4","4","2","3","4","4","4","4","4","4","3","4","4","4","4","3","4","5","2","2","2","1","2","2","2","3","1","1","1","1","1","0","0","0","0","0","0","1","0","1","0","1","4","3","3","1","2","2","3","2","4","1","734083981330616322","邓","667","","","","","","","","","","","","","","","","","","","","","","","","","","","","","","feedback_test","","","","","","","","","",""
"958","","f","psychophysics","127","638505","0.0-7.0-1.0-1.1-0.1-0.58","4","3","4","4","2","3","4","4","4","4","4","4","3","4","4","4","4","3","4","5","2","2","2","1","2","2","2","3","1","1","1","1","1","0","0","0","0","0","0","1","0","1","0","1","4","3","3","1","2","2","3","2","4","1","734083981330616322","邓","667","","","","nonmatch","","","","","","","","","","","","","","key","f","16.66834188034185","768","428","f","true","nonmatch","img/diamond.png","五边","菱形","ALT1_2","prac_ALT1_2","","","","","","","","","",""
"null","<span style='color:GreenYellow; font-size: 70px;'>正确! </span>","null","html-keyboard-response","128","639009","0.0-7.0-1.0-1.1-0.1-1.58","4","3","4","4","2","3","4","4","4","4","4","4","3","4","4","4","4","3","4","5","2","2","2","1","2","2","2","3","1","1","1","1","1","0","0","0","0","0","0","1","0","1","0","1","4","3","3","1","2","2","3","2","4","1","734083981330616322","邓","667","","","","","","","","","","","","","","","","","","","","","","","","","","","","","","feedback_test","","","","","","","","","",""
"945","","j","psychophysics","129","640958","0.0-7.0-1.0-1.1-0.1-0.59","4","3","4","4","2","3","4","4","4","4","4","4","3","4","4","4","4","3","4","5","2","2","2","1","2","2","2","3","1","1","1","1","1","0","0","0","0","0","0","1","0","1","0","1","4","3","3","1","2","2","3","2","4","1","734083981330616322","邓","667","","","","match","","","","","","","","","","","","","","key","j","16.667741379311213","768","428","j","true","match","img/ellipse.png","椭圆","椭圆","ALT1_2","prac_ALT1_2","","","","","","","","","",""
"null","<span style='color:GreenYellow; font-size: 70px;'>正确! </span>","null","html-keyboard-response","130","641461","0.0-7.0-1.0-1.1-0.1-1.59","4","3","4","4","2","3","4","4","4","4","4","4","3","4","4","4","4","3","4","5","2","2","2","1","2","2","2","3","1","1","1","1","1","0","0","0","0","0","0","1","0","1","0","1","4","3","3","1","2","2","3","2","4","1","734083981330616322","邓","667","","","","","","","","","","","","","","","","","","","","","","","","","","","","","","feedback_test","","","","","","","","","",""
"893","","f","psychophysics","131","643359","0.0-7.0-1.0-1.1-0.1-0.60","4","3","4","4","2","3","4","4","4","4","4","4","3","4","4","4","4","3","4","5","2","2","2","1","2","2","2","3","1","1","1","1","1","0","0","0","0","0","0","1","0","1","0","1","4","3","3","1","2","2","3","2","4","1","734083981330616322","邓","667","","","","nonmatch","","","","","","","","","","","","","","key","f","16.667053097344944","768","428","f","true","nonmatch","img/ellipse.png","梯形","椭圆","ALT1_2","prac_ALT1_2","","","","","","","","","",""
"null","<span style='color:GreenYellow; font-size: 70px;'>正确! </span>","null","html-keyboard-response","132","643862","0.0-7.0-1.0-1.1-0.1-1.60","4","3","4","4","2","3","4","4","4","4","4","4","3","4","4","4","4","3","4","5","2","2","2","1","2","2","2","3","1","1","1","1","1","0","0","0","0","0","0","1","0","1","0","1","4","3","3","1","2","2","3","2","4","1","734083981330616322","邓","667","","","","","","","","","","","","","","","","","","","","","","","","","","","","","","feedback_test","","","","","","","","","",""
"1022","","f","psychophysics","133","645888","0.0-7.0-1.0-1.1-0.1-0.61","4","3","4","4","2","3","4","4","4","4","4","4","3","4","4","4","4","3","4","5","2","2","2","1","2","2","2","3","1","1","1","1","1","0","0","0","0","0","0","1","0","1","0","1","4","3","3","1","2","2","3","2","4","1","734083981330616322","邓","667","","","","nonmatch","","","","","","","","","","","","","","key","f","16.668425000000084","768","428","f","true","nonmatch","img/pentagon.png","梯形","五边","ALT1_2","prac_ALT1_2","","","","","","","","","",""
"null","<span style='color:GreenYellow; font-size: 70px;'>正确! </span>","null","html-keyboard-response","134","646391","0.0-7.0-1.0-1.1-0.1-1.61","4","3","4","4","2","3","4","4","4","4","4","4","3","4","4","4","4","3","4","5","2","2","2","1","2","2","2","3","1","1","1","1","1","0","0","0","0","0","0","1","0","1","0","1","4","3","3","1","2","2","3","2","4","1","734083981330616322","邓","667","","","","","","","","","","","","","","","","","","","","","","","","","","","","","","feedback_test","","","","","","","","","",""
"984","","j","psychophysics","135","648379","0.0-7.0-1.0-1.1-0.1-0.62","4","3","4","4","2","3","4","4","4","4","4","4","3","4","4","4","4","3","4","5","2","2","2","1","2","2","2","3","1","1","1","1","1","0","0","0","0","0","0","1","0","1","0","1","4","3","3","1","2","2","3","2","4","1","734083981330616322","邓","667","","","","match","","","","","","","","","","","","","","key","j","16.666762711865022","768","428","f","false","nonmatch","img/pentagon.png","椭圆","五边","ALT1_2","prac_ALT1_2","","","","","","","","","",""
"null","<span style='color:red; font-size: 70px;'>错误! </span>","null","html-keyboard-response","136","648883","0.0-7.0-1.0-1.1-0.1-1.62","4","3","4","4","2","3","4","4","4","4","4","4","3","4","4","4","4","3","4","5","2","2","2","1","2","2","2","3","1","1","1","1","1","0","0","0","0","0","0","1","0","1","0","1","4","3","3","1","2","2","3","2","4","1","734083981330616322","邓","667","","","","","","","","","","","","","","","","","","","","","","","","","","","","","","feedback_test","","","","","","","","","",""
"738","","j","psychophysics","137","650627","0.0-7.0-1.0-1.1-0.1-0.63","4","3","4","4","2","3","4","4","4","4","4","4","3","4","4","4","4","3","4","5","2","2","2","1","2","2","2","3","1","1","1","1","1","0","0","0","0","0","0","1","0","1","0","1","4","3","3","1","2","2","3","2","4","1","734083981330616322","邓","667","","","","match","","","","","","","","","","","","","","key","j","16.669427184466027","768","428","f","false","nonmatch","img/pentagon.png","菱形","五边","ALT1_2","prac_ALT1_2","","","","","","","","","",""
"null","<span style='color:red; font-size: 70px;'>错误! </span>","null","html-keyboard-response","138","651129","0.0-7.0-1.0-1.1-0.1-1.63","4","3","4","4","2","3","4","4","4","4","4","4","3","4","4","4","4","3","4","5","2","2","2","1","2","2","2","3","1","1","1","1","1","0","0","0","0","0","0","1","0","1","0","1","4","3","3","1","2","2","3","2","4","1","734083981330616322","邓","667","","","","","","","","","","","","","","","","","","","","","","","","","","","","","","feedback_test","","","","","","","","","",""
"1022","","f","psychophysics","139","653156","0.0-7.0-1.0-1.1-0.1-0.64","4","3","4","4","2","3","4","4","4","4","4","4","3","4","4","4","4","3","4","5","2","2","2","1","2","2","2","3","1","1","1","1","1","0","0","0","0","0","0","1","0","1","0","1","4","3","3","1","2","2","3","2","4","1","734083981330616322","邓","667","","","","nonmatch","","","","","","","","","","","","","","key","f","16.66799166666654","768","428","f","true","nonmatch","img/diamond.png","梯形","菱形","ALT1_2","prac_ALT1_2","","","","","","","","","",""
"null","<span style='color:GreenYellow; font-size: 70px;'>正确! </span>","null","html-keyboard-response","140","653658","0.0-7.0-1.0-1.1-0.1-1.64","4","3","4","4","2","3","4","4","4","4","4","4","3","4","4","4","4","3","4","5","2","2","2","1","2","2","2","3","1","1","1","1","1","0","0","0","0","0","0","1","0","1","0","1","4","3","3","1","2","2","3","2","4","1","734083981330616322","邓","667","","","","","","","","","","","","","","","","","","","","","","","","","","","","","","feedback_test","","","","","","","","","",""
"992","","j","psychophysics","141","655654","0.0-7.0-1.0-1.1-0.1-0.65","4","3","4","4","2","3","4","4","4","4","4","4","3","4","4","4","4","3","4","5","2","2","2","1","2","2","2","3","1","1","1","1","1","0","0","0","0","0","0","1","0","1","0","1","4","3","3","1","2","2","3","2","4","1","734083981330616322","邓","667","","","","match","","","","","","","","","","","","","","key","j","16.667596638654633","768","428","f","false","nonmatch","img/trapezoid.png","菱形","梯形","ALT1_2","prac_ALT1_2","","","","","","","","","",""
"null","<span style='color:red; font-size: 70px;'>错误! </span>","null","html-keyboard-response","142","656156","0.0-7.0-1.0-1.1-0.1-1.65","4","3","4","4","2","3","4","4","4","4","4","4","3","4","4","4","4","3","4","5","2","2","2","1","2","2","2","3","1","1","1","1","1","0","0","0","0","0","0","1","0","1","0","1","4","3","3","1","2","2","3","2","4","1","734083981330616322","邓","667","","","","","","","","","","","","","","","","","","","","","","","","","","","","","","feedback_test","","","","","","","","","",""
"906","","j","psychophysics","143","658066","0.0-7.0-1.0-1.1-0.1-0.66","4","3","4","4","2","3","4","4","4","4","4","4","3","4","4","4","4","3","4","5","2","2","2","1","2","2","2","3","1","1","1","1","1","0","0","0","0","0","0","1","0","1","0","1","4","3","3","1","2","2","3","2","4","1","734083981330616322","邓","667","","","","match","","","","","","","","","","","","","","key","j","16.665666666666144","768","428","j","true","match","img/ellipse.png","椭圆","椭圆","ALT1_2","prac_ALT1_2","","","","","","","","","",""
"null","<span style='color:GreenYellow; font-size: 70px;'>正确! </span>","null","html-keyboard-response","144","658570","0.0-7.0-1.0-1.1-0.1-1.66","4","3","4","4","2","3","4","4","4","4","4","4","3","4","4","4","4","3","4","5","2","2","2","1","2","2","2","3","1","1","1","1","1","0","0","0","0","0","0","1","0","1","0","1","4","3","3","1","2","2","3","2","4","1","734083981330616322","邓","667","","","","","","","","","","","","","","","","","","","","","","","","","","","","","","feedback_test","","","","","","","","","",""
"778","","f","psychophysics","145","660352","0.0-7.0-1.0-1.1-0.1-0.67","4","3","4","4","2","3","4","4","4","4","4","4","3","4","4","4","4","3","4","5","2","2","2","1","2","2","2","3","1","1","1","1","1","0","0","0","0","0","0","1","0","1","0","1","4","3","3","1","2","2","3","2","4","1","734083981330616322","邓","667","","","","nonmatch","","","","","","","","","","","","","","key","f","16.66698113207613","768","428","f","true","nonmatch","img/trapezoid.png","椭圆","梯形","ALT1_2","prac_ALT1_2","","","","","","","","","",""
"null","<span style='color:GreenYellow; font-size: 70px;'>正确! </span>","null","html-keyboard-response","146","660862","0.0-7.0-1.0-1.1-0.1-1.67","4","3","4","4","2","3","4","4","4","4","4","4","3","4","4","4","4","3","4","5","2","2","2","1","2","2","2","3","1","1","1","1","1","0","0","0","0","0","0","1","0","1","0","1","4","3","3","1","2","2","3","2","4","1","734083981330616322","邓","667","","","","","","","","","","","","","","","","","","","","","","","","","","","","","","feedback_test","","","","","","","","","",""
"972","","j","psychophysics","147","662839","0.0-7.0-1.0-1.1-0.1-0.68","4","3","4","4","2","3","4","4","4","4","4","4","3","4","4","4","4","3","4","5","2","2","2","1","2","2","2","3","1","1","1","1","1","0","0","0","0","0","0","1","0","1","0","1","4","3","3","1","2","2","3","2","4","1","734083981330616322","邓","667","","","","match","","","","","","","","","","","","","","key","j","16.667410256409756","768","428","j","true","match","img/pentagon.png","五边","五边","ALT1_2","prac_ALT1_2","","","","","","","","","",""
"null","<span style='color:GreenYellow; font-size: 70px;'>正确! </span>","null","html-keyboard-response","148","663341","0.0-7.0-1.0-1.1-0.1-1.68","4","3","4","4","2","3","4","4","4","4","4","4","3","4","4","4","4","3","4","5","2","2","2","1","2","2","2","3","1","1","1","1","1","0","0","0","0","0","0","1","0","1","0","1","4","3","3","1","2","2","3","2","4","1","734083981330616322","邓","667","","","","","","","","","","","","","","","","","","","","","","","","","","","","","","feedback_test","","","","","","","","","",""
"821","","f","psychophysics","149","665168","0.0-7.0-1.0-1.1-0.1-0.69","4","3","4","4","2","3","4","4","4","4","4","4","3","4","4","4","4","3","4","5","2","2","2","1","2","2","2","3","1","1","1","1","1","0","0","0","0","0","0","1","0","1","0","1","4","3","3","1","2","2","3","2","4","1","734083981330616322","邓","667","","","","nonmatch","","","","","","","","","","","","","","key","f","16.666999999999813","768","428","f","true","nonmatch","img/ellipse.png","菱形","椭圆","ALT1_2","prac_ALT1_2","","","","","","","","","",""
"null","<span style='color:GreenYellow; font-size: 70px;'>正确! </span>","null","html-keyboard-response","150","665671","0.0-7.0-1.0-1.1-0.1-1.69","4","3","4","4","2","3","4","4","4","4","4","4","3","4","4","4","4","3","4","5","2","2","2","1","2","2","2","3","1","1","1","1","1","0","0","0","0","0","0","1","0","1","0","1","4","3","3","1","2","2","3","2","4","1","734083981330616322","邓","667","","","","","","","","","","","","","","","","","","","","","","","","","","","","","","feedback_test","","","","","","","","","",""
"803","","j","psychophysics","151","667479","0.0-7.0-1.0-1.1-0.1-0.70","4","3","4","4","2","3","4","4","4","4","4","4","3","4","4","4","4","3","4","5","2","2","2","1","2","2","2","3","1","1","1","1","1","0","0","0","0","0","0","1","0","1","0","1","4","3","3","1","2","2","3","2","4","1","734083981330616322","邓","667","","","","match","","","","","","","","","","","","","","key","j","16.668588785046634","768","428","j","true","match","img/pentagon.png","五边","五边","ALT1_2","prac_ALT1_2","","","","","","","","","",""
"null","<span style='color:GreenYellow; font-size: 70px;'>正确! </span>","null","html-keyboard-response","152","667982","0.0-7.0-1.0-1.1-0.1-1.70","4","3","4","4","2","3","4","4","4","4","4","4","3","4","4","4","4","3","4","5","2","2","2","1","2","2","2","3","1","1","1","1","1","0","0","0","0","0","0","1","0","1","0","1","4","3","3","1","2","2","3","2","4","1","734083981330616322","邓","667","","","","","","","","","","","","","","","","","","","","","","","","","","","","","","feedback_test","","","","","","","","","",""
"712","","j","psychophysics","153","669699","0.0-7.0-1.0-1.1-0.1-0.71","4","3","4","4","2","3","4","4","4","4","4","4","3","4","4","4","4","3","4","5","2","2","2","1","2","2","2","3","1","1","1","1","1","0","0","0","0","0","0","1","0","1","0","1","4","3","3","1","2","2","3","2","4","1","734083981330616322","邓","667","","","","match","","","","","","","","","","","","","","key","j","16.66769607843119","768","428","j","true","match","img/ellipse.png","椭圆","椭圆","ALT1_2","prac_ALT1_2","","","","","","","","","",""
"null","<span style='color:GreenYellow; font-size: 70px;'>正确! </span>","null","html-keyboard-response","154","670203","0.0-7.0-1.0-1.1-0.1-1.71","4","3","4","4","2","3","4","4","4","4","4","4","3","4","4","4","4","3","4","5","2","2","2","1","2","2","2","3","1","1","1","1","1","0","0","0","0","0","0","1","0","1","0","1","4","3","3","1","2","2","3","2","4","1","734083981330616322","邓","667","","","","","","","","","","","","","","","","","","","","","","","","","","","","","","feedback_test","","","","","","","","","",""
"1107","","f","psychophysics","155","672316","0.0-7.0-1.0-1.1-0.1-0.72","4","3","4","4","2","3","4","4","4","4","4","4","3","4","4","4","4","3","4","5","2","2","2","1","2","2","2","3","1","1","1","1","1","0","0","0","0","0","0","1","0","1","0","1","4","3","3","1","2","2","3","2","4","1","734083981330616322","邓","667","","","","nonmatch","","","","","","","","","","","","","","key","f","16.66754761904696","768","428","f","true","nonmatch","img/pentagon.png","梯形","五边","ALT1_2","prac_ALT1_2","","","","","","","","","",""
"null","<span style='color:GreenYellow; font-size: 70px;'>正确! </span>","null","html-keyboard-response","156","672820","0.0-7.0-1.0-1.1-0.1-1.72","4","3","4","4","2","3","4","4","4","4","4","4","3","4","4","4","4","3","4","5","2","2","2","1","2","2","2","3","1","1","1","1","1","0","0","0","0","0","0","1","0","1","0","1","4","3","3","1","2","2","3","2","4","1","734083981330616322","邓","667","","","","","","","","","","","","","","","","","","","","","","","","","","","","","","feedback_test","","","","","","","","","",""
"null","","null","psychophysics","157","675032","0.0-7.0-1.0-1.1-0.1-0.73","4","3","4","4","2","3","4","4","4","4","4","4","3","4","4","4","4","3","4","5","2","2","2","1","2","2","2","3","1","1","1","1","1","0","0","0","0","0","0","1","0","1","0","1","4","3","3","1","2","2","3","2","4","1","734083981330616322","邓","667","","","","null","","","","","","","","","","","","","","key","null","16.668015267175644","768","428","j","false","match","img/diamond.png","菱形","菱形","ALT1_2","prac_ALT1_2","","","","","","","","","",""
"null","<span class='add_' style='color:yellow; font-size: 70px;'> 太慢! </span>","null","html-keyboard-response","158","675536","0.0-7.0-1.0-1.1-0.1-1.73","4","3","4","4","2","3","4","4","4","4","4","4","3","4","4","4","4","3","4","5","2","2","2","1","2","2","2","3","1","1","1","1","1","0","0","0","0","0","0","1","0","1","0","1","4","3","3","1","2","2","3","2","4","1","734083981330616322","邓","667","","","","","","","","","","","","","","","","","","","","","","","","","","","","","","feedback_test","","","","","","","","","",""
"944","","j","psychophysics","159","677485","0.0-7.0-1.0-1.1-0.1-0.74","4","3","4","4","2","3","4","4","4","4","4","4","3","4","4","4","4","3","4","5","2","2","2","1","2","2","2","3","1","1","1","1","1","0","0","0","0","0","0","1","0","1","0","1","4","3","3","1","2","2","3","2","4","1","734083981330616322","邓","667","","","","match","","","","","","","","","","","","","","key","j","16.667249999999605","768","428","j","true","match","img/pentagon.png","五边","五边","ALT1_2","prac_ALT1_2","","","","","","","","","",""
"null","<span style='color:GreenYellow; font-size: 70px;'>正确! </span>","null","html-keyboard-response","160","677988","0.0-7.0-1.0-1.1-0.1-1.74","4","3","4","4","2","3","4","4","4","4","4","4","3","4","4","4","4","3","4","5","2","2","2","1","2","2","2","3","1","1","1","1","1","0","0","0","0","0","0","1","0","1","0","1","4","3","3","1","2","2","3","2","4","1","734083981330616322","邓","667","","","","","","","","","","","","","","","","","","","","","","","","","","","","","","feedback_test","","","","","","","","","",""
"776","","f","psychophysics","161","679768","0.0-7.0-1.0-1.1-0.1-0.75","4","3","4","4","2","3","4","4","4","4","4","4","3","4","4","4","4","3","4","5","2","2","2","1","2","2","2","3","1","1","1","1","1","0","0","0","0","0","0","1","0","1","0","1","4","3","3","1","2","2","3","2","4","1","734083981330616322","邓","667","","","","nonmatch","","","","","","","","","","","","","","key","f","16.66770754716873","768","428","f","true","nonmatch","img/pentagon.png","椭圆","五边","ALT1_2","prac_ALT1_2","","","","","","","","","",""
"null","<span style='color:GreenYellow; font-size: 70px;'>正确! </span>","null","html-keyboard-response","162","680271","0.0-7.0-1.0-1.1-0.1-1.75","4","3","4","4","2","3","4","4","4","4","4","4","3","4","4","4","4","3","4","5","2","2","2","1","2","2","2","3","1","1","1","1","1","0","0","0","0","0","0","1","0","1","0","1","4","3","3","1","2","2","3","2","4","1","734083981330616322","邓","667","","","","","","","","","","","","","","","","","","","","","","","","","","","","","","feedback_test","","","","","","","","","",""
"820","","j","psychophysics","163","682095","0.0-7.0-1.0-1.1-0.1-0.76","4","3","4","4","2","3","4","4","4","4","4","4","3","4","4","4","4","3","4","5","2","2","2","1","2","2","2","3","1","1","1","1","1","0","0","0","0","0","0","1","0","1","0","1","4","3","3","1","2","2","3","2","4","1","734083981330616322","邓","667","","","","match","","","","","","","","","","","","","","key","j","16.66719444444472","768","428","f","false","nonmatch","img/pentagon.png","菱形","五边","ALT1_2","prac_ALT1_2","","","","","","","","","",""
"null","<span style='color:red; font-size: 70px;'>错误! </span>","null","html-keyboard-response","164","682599","0.0-7.0-1.0-1.1-0.1-1.76","4","3","4","4","2","3","4","4","4","4","4","4","3","4","4","4","4","3","4","5","2","2","2","1","2","2","2","3","1","1","1","1","1","0","0","0","0","0","0","1","0","1","0","1","4","3","3","1","2","2","3","2","4","1","734083981330616322","邓","667","","","","","","","","","","","","","","","","","","","","","","","","","","","","","","feedback_test","","","","","","","","","",""
"1052","","f","psychophysics","165","684665","0.0-7.0-1.0-1.1-0.1-0.77","4","3","4","4","2","3","4","4","4","4","4","4","3","4","4","4","4","3","4","5","2","2","2","1","2","2","2","3","1","1","1","1","1","0","0","0","0","0","0","1","0","1","0","1","4","3","3","1","2","2","3","2","4","1","734083981330616322","邓","667","","","","nonmatch","","","","","","","","","","","","","","key","f","16.668308943089826","768","428","f","true","nonmatch","img/diamond.png","梯形","菱形","ALT1_2","prac_ALT1_2","","","","","","","","","",""
"null","<span style='color:GreenYellow; font-size: 70px;'>正确! </span>","null","html-keyboard-response","166","685171","0.0-7.0-1.0-1.1-0.1-1.77","4","3","4","4","2","3","4","4","4","4","4","4","3","4","4","4","4","3","4","5","2","2","2","1","2","2","2","3","1","1","1","1","1","0","0","0","0","0","0","1","0","1","0","1","4","3","3","1","2","2","3","2","4","1","734083981330616322","邓","667","","","","","","","","","","","","","","","","","","","","","","","","","","","","","","feedback_test","","","","","","","","","",""
"946","","j","psychophysics","167","687121","0.0-7.0-1.0-1.1-0.1-0.78","4","3","4","4","2","3","4","4","4","4","4","4","3","4","4","4","4","3","4","5","2","2","2","1","2","2","2","3","1","1","1","1","1","0","0","0","0","0","0","1","0","1","0","1","4","3","3","1","2","2","3","2","4","1","734083981330616322","邓","667","","","","match","","","","","","","","","","","","","","key","j","16.668431034483266","768","428","f","false","nonmatch","img/trapezoid.png","五边","梯形","ALT1_2","prac_ALT1_2","","","","","","","","","",""
"null","<span style='color:red; font-size: 70px;'>错误! </span>","null","html-keyboard-response","168","687623","0.0-7.0-1.0-1.1-0.1-1.78","4","3","4","4","2","3","4","4","4","4","4","4","3","4","4","4","4","3","4","5","2","2","2","1","2","2","2","3","1","1","1","1","1","0","0","0","0","0","0","1","0","1","0","1","4","3","3","1","2","2","3","2","4","1","734083981330616322","邓","667","","","","","","","","","","","","","","","","","","","","","","","","","","","","","","feedback_test","","","","","","","","","",""
"861","","j","psychophysics","169","689490","0.0-7.0-1.0-1.1-0.1-0.79","4","3","4","4","2","3","4","4","4","4","4","4","3","4","4","4","4","3","4","5","2","2","2","1","2","2","2","3","1","1","1","1","1","0","0","0","0","0","0","1","0","1","0","1","4","3","3","1","2","2","3","2","4","1","734083981330616322","邓","667","","","","match","","","","","","","","","","","","","","key","j","16.66575675675654","768","428","j","true","match","img/diamond.png","菱形","菱形","ALT1_2","prac_ALT1_2","","","","","","","","","",""
"null","<span style='color:GreenYellow; font-size: 70px;'>正确! </span>","null","html-keyboard-response","170","689991","0.0-7.0-1.0-1.1-0.1-1.79","4","3","4","4","2","3","4","4","4","4","4","4","3","4","4","4","4","3","4","5","2","2","2","1","2","2","2","3","1","1","1","1","1","0","0","0","0","0","0","1","0","1","0","1","4","3","3","1","2","2","3","2","4","1","734083981330616322","邓","667","","","","","","","","","","","","","","","","","","","","","","","","","","","","","","feedback_test","","","","","","","","","",""
"1043","","f","psychophysics","171","692039","0.0-7.0-1.0-1.1-0.1-0.80","4","3","4","4","2","3","4","4","4","4","4","4","3","4","4","4","4","3","4","5","2","2","2","1","2","2","2","3","1","1","1","1","1","0","0","0","0","0","0","1","0","1","0","1","4","3","3","1","2","2","3","2","4","1","734083981330616322","邓","667","","","","nonmatch","","","","","","","","","","","","","","key","f","16.6666803278695","768","428","f","true","nonmatch","img/trapezoid.png","菱形","梯形","ALT1_2","prac_ALT1_2","","","","","","","","","",""
"null","<span style='color:GreenYellow; font-size: 70px;'>正确! </span>","null","html-keyboard-response","172","692541","0.0-7.0-1.0-1.1-0.1-1.80","4","3","4","4","2","3","4","4","4","4","4","4","3","4","4","4","4","3","4","5","2","2","2","1","2","2","2","3","1","1","1","1","1","0","0","0","0","0","0","1","0","1","0","1","4","3","3","1","2","2","3","2","4","1","734083981330616322","邓","667","","","","","","","","","","","","","","","","","","","","","","","","","","","","","","feedback_test","","","","","","","","","",""
"656","","j","psychophysics","173","694205","0.0-7.0-1.0-1.1-0.1-0.81","4","3","4","4","2","3","4","4","4","4","4","4","3","4","4","4","4","3","4","5","2","2","2","1","2","2","2","3","1","1","1","1","1","0","0","0","0","0","0","1","0","1","0","1","4","3","3","1","2","2","3","2","4","1","734083981330616322","邓","667","","","","match","","","","","","","","","","","","","","key","j","16.66740404040496","768","428","j","true","match","img/ellipse.png","椭圆","椭圆","ALT1_2","prac_ALT1_2","","","","","","","","","",""
"null","<span style='color:GreenYellow; font-size: 70px;'>正确! </span>","null","html-keyboard-response","174","694721","0.0-7.0-1.0-1.1-0.1-1.81","4","3","4","4","2","3","4","4","4","4","4","4","3","4","4","4","4","3","4","5","2","2","2","1","2","2","2","3","1","1","1","1","1","0","0","0","0","0","0","1","0","1","0","1","4","3","3","1","2","2","3","2","4","1","734083981330616322","邓","667","","","","","","","","","","","","","","","","","","","","","","","","","","","","","","feedback_test","","","","","","","","","",""
"786","","j","psychophysics","175","696510","0.0-7.0-1.0-1.1-0.1-0.82","4","3","4","4","2","3","4","4","4","4","4","4","3","4","4","4","4","3","4","5","2","2","2","1","2","2","2","3","1","1","1","1","1","0","0","0","0","0","0","1","0","1","0","1","4","3","3","1","2","2","3","2","4","1","734083981330616322","邓","667","","","","match","","","","","","","","","","","","","","key","j","16.667952830189364","768","428","j","true","match","img/ellipse.png","椭圆","椭圆","ALT1_2","prac_ALT1_2","","","","","","","","","",""
"null","<span style='color:GreenYellow; font-size: 70px;'>正确! </span>","null","html-keyboard-response","176","697013","0.0-7.0-1.0-1.1-0.1-1.82","4","3","4","4","2","3","4","4","4","4","4","4","3","4","4","4","4","3","4","5","2","2","2","1","2","2","2","3","1","1","1","1","1","0","0","0","0","0","0","1","0","1","0","1","4","3","3","1","2","2","3","2","4","1","734083981330616322","邓","667","","","","","","","","","","","","","","","","","","","","","","","","","","","","","","feedback_test","","","","","","","","","",""
"841","","f","psychophysics","177","698860","0.0-7.0-1.0-1.1-0.1-0.83","4","3","4","4","2","3","4","4","4","4","4","4","3","4","4","4","4","3","4","5","2","2","2","1","2","2","2","3","1","1","1","1","1","0","0","0","0","0","0","1","0","1","0","1","4","3","3","1","2","2","3","2","4","1","734083981330616322","邓","667","","","","nonmatch","","","","","","","","","","","","","","key","f","16.668440366972348","768","428","f","true","nonmatch","img/ellipse.png","五边","椭圆","ALT1_2","prac_ALT1_2","","","","","","","","","",""
"null","<span style='color:GreenYellow; font-size: 70px;'>正确! </span>","null","html-keyboard-response","178","699362","0.0-7.0-1.0-1.1-0.1-1.83","4","3","4","4","2","3","4","4","4","4","4","4","3","4","4","4","4","3","4","5","2","2","2","1","2","2","2","3","1","1","1","1","1","0","0","0","0","0","0","1","0","1","0","1","4","3","3","1","2","2","3","2","4","1","734083981330616322","邓","667","","","","","","","","","","","","","","","","","","","","","","","","","","","","","","feedback_test","","","","","","","","","",""
"947","","f","psychophysics","179","701324","0.0-7.0-1.0-1.1-0.1-0.84","4","3","4","4","2","3","4","4","4","4","4","4","3","4","4","4","4","3","4","5","2","2","2","1","2","2","2","3","1","1","1","1","1","0","0","0","0","0","0","1","0","1","0","1","4","3","3","1","2","2","3","2","4","1","734083981330616322","邓","667","","","","nonmatch","","","","","","","","","","","","","","key","f","16.666456896551797","768","428","f","true","nonmatch","img/ellipse.png","菱形","椭圆","ALT1_2","prac_ALT1_2","","","","","","","","","",""
"null","<span style='color:GreenYellow; font-size: 70px;'>正确! </span>","null","html-keyboard-response","180","701826","0.0-7.0-1.0-1.1-0.1-1.84","4","3","4","4","2","3","4","4","4","4","4","4","3","4","4","4","4","3","4","5","2","2","2","1","2","2","2","3","1","1","1","1","1","0","0","0","0","0","0","1","0","1","0","1","4","3","3","1","2","2","3","2","4","1","734083981330616322","邓","667","","","","","","","","","","","","","","","","","","","","","","","","","","","","","","feedback_test","","","","","","","","","",""
"828","","j","psychophysics","181","703658","0.0-7.0-1.0-1.1-0.1-0.85","4","3","4","4","2","3","4","4","4","4","4","4","3","4","4","4","4","3","4","5","2","2","2","1","2","2","2","3","1","1","1","1","1","0","0","0","0","0","0","1","0","1","0","1","4","3","3","1","2","2","3","2","4","1","734083981330616322","邓","667","","","","match","","","","","","","","","","","","","","key","j","16.65273148148144","768","428","j","true","match","img/trapezoid.png","梯形","梯形","ALT1_2","prac_ALT1_2","","","","","","","","","",""
"null","<span style='color:GreenYellow; font-size: 70px;'>正确! </span>","null","html-keyboard-response","182","704159","0.0-7.0-1.0-1.1-0.1-1.85","4","3","4","4","2","3","4","4","4","4","4","4","3","4","4","4","4","3","4","5","2","2","2","1","2","2","2","3","1","1","1","1","1","0","0","0","0","0","0","1","0","1","0","1","4","3","3","1","2","2","3","2","4","1","734083981330616322","邓","667","","","","","","","","","","","","","","","","","","","","","","","","","","","","","","feedback_test","","","","","","","","","",""
"852","","j","psychophysics","183","706016","0.0-7.0-1.0-1.1-0.1-0.86","4","3","4","4","2","3","4","4","4","4","4","4","3","4","4","4","4","3","4","5","2","2","2","1","2","2","2","3","1","1","1","1","1","0","0","0","0","0","0","1","0","1","0","1","4","3","3","1","2","2","3","2","4","1","734083981330616322","邓","667","","","","match","","","","","","","","","","","","","","key","j","16.66764545454538","768","428","j","true","match","img/ellipse.png","椭圆","椭圆","ALT1_2","prac_ALT1_2","","","","","","","","","",""
"null","<span style='color:GreenYellow; font-size: 70px;'>正确! </span>","null","html-keyboard-response","184","706520","0.0-7.0-1.0-1.1-0.1-1.86","4","3","4","4","2","3","4","4","4","4","4","4","3","4","4","4","4","3","4","5","2","2","2","1","2","2","2","3","1","1","1","1","1","0","0","0","0","0","0","1","0","1","0","1","4","3","3","1","2","2","3","2","4","1","734083981330616322","邓","667","","","","","","","","","","","","","","","","","","","","","","","","","","","","","","feedback_test","","","","","","","","","",""
