"rt","stimulus","response","trial_type","trial_index","time_elapsed","internal_node_id","ses_1","ses_2","ses_3","ses_4","ses_5","ses_6","ses_7","ses_8","ses_9","ses_10","coreself_1","coreself_2","coreself_3","coreself_4","coreself_5","coreself_6","coreself_7","coreself_8","coreself_9","coreself_10","SGPS_1","SGPS_2","SGPS_3","SGPS_4","SGPS_5","SGPS_6","SGPS_7","SGPS_8","SGPS_9","NPI1","NPI2","NPI3","NPI4","NPI5","NPI6","NPI7","NPI8","NPI9","NPI10","NPI11","NPI12","NPI13","NPI14","NPI15","hsns_1","hsns_2","hsns_3","hsns_4","hsns_5","hsns_6","hsns_7","hsns_8","hsns_9","hsns_10","subj_idx","friend_name","ParticipantID","value","success","user_agent","responses","item_order","radio_event_ids","radio_event_times","key_event_times","mouse_event_times","straightlining","zigzagging","honeypot","timeout","failed_images","failed_audio","failed_video","view_history","response_type","key_press","avg_frame_time","center_x","center_y","correct_response","correct","identity","Image","word","condition","task_id","screen_id","time_stamp","version_attrib","version_target","IAT","RT","varname","summary","version_attrib2","version_target2","question_order"
"1687","
   <p><div style = ""color: white;font-size:25px;"">您好，欢迎参加本次实验。</div> </p>
   <p><div style = ""color: white;font-size:25px;"">为充分保障您的权利，请确保您已经知晓并同意《参与实验同意书》以及《数据公开知情同意书》。</div></p>
   <p><div style = ""color: white;font-size:25px;"">如果您未见过上述内容，请咨询实验员。</div></p>
   <p><div style = ""color: white;font-size:25px;"">如果您选择继续实验，则表示您已经清楚两份知情同意书的内容并同意。</div></p>
   <p><div style = ""color: red;font-size:30px;"">请确保您记得day0的实验编号，您将在本次实验输入该编号，若您忘记，请咨询实验员后作答。</div></p>
   <p> <div style = ""color: green;font-size:25px;""><按空格键至下页></div> </p>
   "," ","html-keyboard-response","0","1689","0.0-0.0","4","4","4","4","4","4","4","3","4","4","5","5","5","4","5","5","5","5","5","5","1","1","1","1","2","2","1","1","1","0","1","0","0","0","0","0","1","0","0","0","0","1","0","1","5","1","1","1","1","1","2","1","2","1","590502391271391232","李","498","","","","","","","","","","","","","","","","","","","","","","","","","","","","","","","","","","","","","","","",""
"","","","call-function","1","1690","0.0-1.0-0.0","4","4","4","4","4","4","4","3","4","4","5","5","5","4","5","5","5","5","5","5","1","1","1","1","2","2","1","1","1","0","1","0","0","0","0","0","1","0","0","0","0","1","0","1","5","1","1","1","1","1","2","1","2","1","590502391271391232","李","498","","","","","","","","","","","","","","","","","","","","","","","","","","","","","","","","","","","","","","","",""
"33153","","{""friend_name"":""李"",""ParticipantID"":""498""}","survey-html-form","2","34843","0.0-1.0-1.0","4","4","4","4","4","4","4","3","4","4","5","5","5","4","5","5","5","5","5","5","1","1","1","1","2","2","1","1","1","0","1","0","0","0","0","0","1","0","0","0","0","1","0","1","5","1","1","1","1","1","2","1","2","1","590502391271391232","李","498","","","","","","","","","","","","","","","","","","","","","","","","","","","","","","","","","","","","","","","",""
"","","","fullscreen","3","36123","0.0-2.0","4","4","4","4","4","4","4","3","4","4","5","5","5","4","5","5","5","5","5","5","1","1","1","1","2","2","1","1","1","0","1","0","0","0","0","0","1","0","0","0","0","1","0","1","5","1","1","1","1","1","2","1","2","1","590502391271391232","李","498","","true","","","","","","","","","","","","","","","","","","","","","","","","","","","","","","","","","","","","","",""
"46716","","{""Q01"":""4"",""Q02"":""4"",""Q03"":""4"",""Q04"":""4"",""Q05"":""4"",""Q06"":""4"",""Q07"":""4"",""Q08"":""3"",""Q09"":""4"",""Q10"":""4""}","survey-template","4","82843","0.0-3.0","4","4","4","4","4","4","4","3","4","4","5","5","5","4","5","5","5","5","5","5","1","1","1","1","2","2","1","1","1","0","1","0","0","0","0","0","1","0","0","0","0","1","0","1","5","1","1","1","1","1","2","1","2","1","590502391271391232","李","498","","","","{""Q01"":""4"",""Q02"":""4"",""Q03"":""4"",""Q04"":""4"",""Q05"":""4"",""Q06"":""4"",""Q07"":""4"",""Q08"":""3"",""Q09"":""4"",""Q10"":""4""}","[0,1,2,3,4,5,6,7,8,9]","[""Q01"",""Q02"",""Q03"",""Q04"",""Q05"",""Q06"",""Q07"",""Q08"",""Q09"",""Q10""]","[2575,5053,7093,13916,15309,16901,21469,22317,23613,24149]","[]","[2575,5053,7093,13916,15309,16901,18173,20356,21469,22317,23613,24149,46716]","0.5","0.5555555555555556","0","","","","","","","","","","","","","","","","","","","","","","","","","","","",""
"74627","","{""Q01"":""5"",""Q02"":""5"",""Q03"":""5"",""Q04"":""4"",""Q05"":""5"",""Q06"":""5"",""Q07"":""5"",""Q08"":""5"",""Q09"":""5"",""Q10"":""5""}","survey-template","5","157472","0.0-4.0","4","4","4","4","4","4","4","3","4","4","5","5","5","4","5","5","5","5","5","5","1","1","1","1","2","2","1","1","1","0","1","0","0","0","0","0","1","0","0","0","0","1","0","1","5","1","1","1","1","1","2","1","2","1","590502391271391232","李","498","","","","{""Q01"":""5"",""Q02"":""5"",""Q03"":""5"",""Q04"":""4"",""Q05"":""5"",""Q06"":""5"",""Q07"":""5"",""Q08"":""5"",""Q09"":""5"",""Q10"":""5""}","[0,1,2,3,4,5,6,7,8,9]","[""Q01"",""Q02"",""Q03"",""Q04"",""Q05"",""Q06"",""Q07"",""Q08"",""Q09"",""Q10""]","[3742,6005,12006,16781,18901,20605,22262,24871,30510,44898]","[]","[3742,6005,12006,16781,18901,20605,22262,23269,23687,24871,30510,44898,74627]","0.6","0.5555555555555556","0","","","","","","","","","","","","","","","","","","","","","","","","","","","",""
"","","","preload","6","157893","0.0-5.0","4","4","4","4","4","4","4","3","4","4","5","5","5","4","5","5","5","5","5","5","1","1","1","1","2","2","1","1","1","0","1","0","0","0","0","0","1","0","0","0","0","1","0","1","5","1","1","1","1","1","2","1","2","1","590502391271391232","李","498","","true","","","","","","","","","","","false","[]","[]","[]","","","","","","","","","","","","","","","","","","","","","","","",""
"41736","","","instructions","7","199630","0.0-6.0","4","4","4","4","4","4","4","3","4","4","5","5","5","4","5","5","5","5","5","5","1","1","1","1","2","2","1","1","1","0","1","0","0","0","0","0","1","0","0","0","0","1","0","1","5","1","1","1","1","1","2","1","2","1","590502391271391232","李","498","","","","","","","","","","","","","","","","","[{""page_index"":0,""viewing_time"":41736}]","","","","","","","","","","","","","","","","","","","","","","",""
"25153","","","instructions","8","224782","0.0-7.0-0.0-0.0","4","4","4","4","4","4","4","3","4","4","5","5","5","4","5","5","5","5","5","5","1","1","1","1","2","2","1","1","1","0","1","0","0","0","0","0","1","0","0","0","0","1","0","1","5","1","1","1","1","1","2","1","2","1","590502391271391232","李","498","","","","","","","","","","","","","","","","","[{""page_index"":0,""viewing_time"":22931},{""page_index"":1,""viewing_time"":925},{""page_index"":2,""viewing_time"":1297}]","","","","","","","","","","","","","","","","","","","","","","",""
"603","","j","psychophysics","9","226481","0.0-7.0-0.0-1.0-0.0-0.0","4","4","4","4","4","4","4","3","4","4","5","5","5","4","5","5","5","5","5","5","1","1","1","1","2","2","1","1","1","0","1","0","0","0","0","0","1","0","0","0","0","1","0","1","5","1","1","1","1","1","2","1","2","1","590502391271391232","李","498","","","","nonmatch","","","","","","","","","","","","","","key","j","8.333004926108403","768","428","f","false","match","img/triangle.png","三角","三角","ALT1_1","prac_ALT1_1","","","","","","","","","",""
"null","<span style='color:red; font-size: 70px;'>错误! </span>","null","html-keyboard-response","10","226993","0.0-7.0-0.0-1.0-0.0-1.0","4","4","4","4","4","4","4","3","4","4","5","5","5","4","5","5","5","5","5","5","1","1","1","1","2","2","1","1","1","0","1","0","0","0","0","0","1","0","0","0","0","1","0","1","5","1","1","1","1","1","2","1","2","1","590502391271391232","李","498","","","","","","","","","","","","","","","","","","","","","","","","","","","","","","feedback_test","","","","","","","","","",""
"719","","f","psychophysics","11","228714","0.0-7.0-0.0-1.0-0.0-0.1","4","4","4","4","4","4","4","3","4","4","5","5","5","4","5","5","5","5","5","5","1","1","1","1","2","2","1","1","1","0","1","0","0","0","0","0","1","0","0","0","0","1","0","1","5","1","1","1","1","1","2","1","2","1","590502391271391232","李","498","","","","match","","","","","","","","","","","","","","key","f","8.352352941176493","768","428","f","true","match","img/trapezoid.png","梯形","梯形","ALT1_1","prac_ALT1_1","","","","","","","","","",""
"null","<span style='color:GreenYellow; font-size: 70px;'>正确! </span>","null","html-keyboard-response","12","229222","0.0-7.0-0.0-1.0-0.0-1.1","4","4","4","4","4","4","4","3","4","4","5","5","5","4","5","5","5","5","5","5","1","1","1","1","2","2","1","1","1","0","1","0","0","0","0","0","1","0","0","0","0","1","0","1","5","1","1","1","1","1","2","1","2","1","590502391271391232","李","498","","","","","","","","","","","","","","","","","","","","","","","","","","","","","","feedback_test","","","","","","","","","",""
"619","","j","psychophysics","13","230843","0.0-7.0-0.0-1.0-0.0-0.2","4","4","4","4","4","4","4","3","4","4","5","5","5","4","5","5","5","5","5","5","1","1","1","1","2","2","1","1","1","0","1","0","0","0","0","0","1","0","0","0","0","1","0","1","5","1","1","1","1","1","2","1","2","1","590502391271391232","李","498","","","","nonmatch","","","","","","","","","","","","","","key","j","8.339270833333407","768","428","j","true","nonmatch","img/ellipse.png","梯形","椭圆","ALT1_1","prac_ALT1_1","","","","","","","","","",""
"null","<span style='color:GreenYellow; font-size: 70px;'>正确! </span>","null","html-keyboard-response","14","231388","0.0-7.0-0.0-1.0-0.0-1.2","4","4","4","4","4","4","4","3","4","4","5","5","5","4","5","5","5","5","5","5","1","1","1","1","2","2","1","1","1","0","1","0","0","0","0","0","1","0","0","0","0","1","0","1","5","1","1","1","1","1","2","1","2","1","590502391271391232","李","498","","","","","","","","","","","","","","","","","","","","","","","","","","","","","","feedback_test","","","","","","","","","",""
"594","","f","psychophysics","15","233001","0.0-7.0-0.0-1.0-0.0-0.3","4","4","4","4","4","4","4","3","4","4","5","5","5","4","5","5","5","5","5","5","1","1","1","1","2","2","1","1","1","0","1","0","0","0","0","0","1","0","0","0","0","1","0","1","5","1","1","1","1","1","2","1","2","1","590502391271391232","李","498","","","","match","","","","","","","","","","","","","","key","f","8.323769633507835","768","428","f","true","match","img/hexagon.png","六边","六边","ALT1_1","prac_ALT1_1","","","","","","","","","",""
"null","<span style='color:GreenYellow; font-size: 70px;'>正确! </span>","null","html-keyboard-response","16","233506","0.0-7.0-0.0-1.0-0.0-1.3","4","4","4","4","4","4","4","3","4","4","5","5","5","4","5","5","5","5","5","5","1","1","1","1","2","2","1","1","1","0","1","0","0","0","0","0","1","0","0","0","0","1","0","1","5","1","1","1","1","1","2","1","2","1","590502391271391232","李","498","","","","","","","","","","","","","","","","","","","","","","","","","","","","","","feedback_test","","","","","","","","","",""
"589","","j","psychophysics","17","235098","0.0-7.0-0.0-1.0-0.0-0.4","4","4","4","4","4","4","4","3","4","4","5","5","5","4","5","5","5","5","5","5","1","1","1","1","2","2","1","1","1","0","1","0","0","0","0","0","1","0","0","0","0","1","0","1","5","1","1","1","1","1","2","1","2","1","590502391271391232","李","498","","","","nonmatch","","","","","","","","","","","","","","key","j","8.32253968253964","768","428","j","true","nonmatch","img/ellipse.png","六边","椭圆","ALT1_1","prac_ALT1_1","","","","","","","","","",""
"null","<span style='color:GreenYellow; font-size: 70px;'>正确! </span>","null","html-keyboard-response","18","235626","0.0-7.0-0.0-1.0-0.0-1.4","4","4","4","4","4","4","4","3","4","4","5","5","5","4","5","5","5","5","5","5","1","1","1","1","2","2","1","1","1","0","1","0","0","0","0","0","1","0","0","0","0","1","0","1","5","1","1","1","1","1","2","1","2","1","590502391271391232","李","498","","","","","","","","","","","","","","","","","","","","","","","","","","","","","","feedback_test","","","","","","","","","",""
"749","","f","psychophysics","19","237378","0.0-7.0-0.0-1.0-0.0-0.5","4","4","4","4","4","4","4","3","4","4","5","5","5","4","5","5","5","5","5","5","1","1","1","1","2","2","1","1","1","0","1","0","0","0","0","0","1","0","0","0","0","1","0","1","5","1","1","1","1","1","2","1","2","1","590502391271391232","李","498","","","","match","","","","","","","","","","","","","","key","f","8.331826923076873","768","428","f","true","match","img/ellipse.png","椭圆","椭圆","ALT1_1","prac_ALT1_1","","","","","","","","","",""
"null","<span style='color:GreenYellow; font-size: 70px;'>正确! </span>","null","html-keyboard-response","20","237919","0.0-7.0-0.0-1.0-0.0-1.5","4","4","4","4","4","4","4","3","4","4","5","5","5","4","5","5","5","5","5","5","1","1","1","1","2","2","1","1","1","0","1","0","0","0","0","0","1","0","0","0","0","1","0","1","5","1","1","1","1","1","2","1","2","1","590502391271391232","李","498","","","","","","","","","","","","","","","","","","","","","","","","","","","","","","feedback_test","","","","","","","","","",""
"647","","j","psychophysics","21","239586","0.0-7.0-0.0-1.0-0.0-0.6","4","4","4","4","4","4","4","3","4","4","5","5","5","4","5","5","5","5","5","5","1","1","1","1","2","2","1","1","1","0","1","0","0","0","0","0","1","0","0","0","0","1","0","1","5","1","1","1","1","1","2","1","2","1","590502391271391232","李","498","","","","nonmatch","","","","","","","","","","","","","","key","j","8.323756345177658","768","428","j","true","nonmatch","img/triangle.png","椭圆","三角","ALT1_1","prac_ALT1_1","","","","","","","","","",""
"null","<span style='color:GreenYellow; font-size: 70px;'>正确! </span>","null","html-keyboard-response","22","240088","0.0-7.0-0.0-1.0-0.0-1.6","4","4","4","4","4","4","4","3","4","4","5","5","5","4","5","5","5","5","5","5","1","1","1","1","2","2","1","1","1","0","1","0","0","0","0","0","1","0","0","0","0","1","0","1","5","1","1","1","1","1","2","1","2","1","590502391271391232","李","498","","","","","","","","","","","","","","","","","","","","","","","","","","","","","","feedback_test","","","","","","","","","",""
"678","","f","psychophysics","23","241770","0.0-7.0-0.0-1.0-0.0-0.7","4","4","4","4","4","4","4","3","4","4","5","5","5","4","5","5","5","5","5","5","1","1","1","1","2","2","1","1","1","0","1","0","0","0","0","0","1","0","0","0","0","1","0","1","5","1","1","1","1","1","2","1","2","1","590502391271391232","李","498","","","","match","","","","","","","","","","","","","","key","f","8.339095477386842","768","428","f","true","match","img/hexagon.png","六边","六边","ALT1_1","prac_ALT1_1","","","","","","","","","",""
"null","<span style='color:GreenYellow; font-size: 70px;'>正确! </span>","null","html-keyboard-response","24","242274","0.0-7.0-0.0-1.0-0.0-1.7","4","4","4","4","4","4","4","3","4","4","5","5","5","4","5","5","5","5","5","5","1","1","1","1","2","2","1","1","1","0","1","0","0","0","0","0","1","0","0","0","0","1","0","1","5","1","1","1","1","1","2","1","2","1","590502391271391232","李","498","","","","","","","","","","","","","","","","","","","","","","","","","","","","","","feedback_test","","","","","","","","","",""
"1059","","j","psychophysics","25","244337","0.0-7.0-0.0-1.0-0.0-0.8","4","4","4","4","4","4","4","3","4","4","5","5","5","4","5","5","5","5","5","5","1","1","1","1","2","2","1","1","1","0","1","0","0","0","0","0","1","0","0","0","0","1","0","1","5","1","1","1","1","1","2","1","2","1","590502391271391232","李","498","","","","nonmatch","","","","","","","","","","","","","","key","j","8.331265306122463","768","428","j","true","nonmatch","img/trapezoid.png","椭圆","梯形","ALT1_1","prac_ALT1_1","","","","","","","","","",""
"null","<span style='color:GreenYellow; font-size: 70px;'>正确! </span>","null","html-keyboard-response","26","244842","0.0-7.0-0.0-1.0-0.0-1.8","4","4","4","4","4","4","4","3","4","4","5","5","5","4","5","5","5","5","5","5","1","1","1","1","2","2","1","1","1","0","1","0","0","0","0","0","1","0","0","0","0","1","0","1","5","1","1","1","1","1","2","1","2","1","590502391271391232","李","498","","","","","","","","","","","","","","","","","","","","","","","","","","","","","","feedback_test","","","","","","","","","",""
"589","","f","psychophysics","27","246435","0.0-7.0-0.0-1.0-0.0-0.9","4","4","4","4","4","4","4","3","4","4","5","5","5","4","5","5","5","5","5","5","1","1","1","1","2","2","1","1","1","0","1","0","0","0","0","0","1","0","0","0","0","1","0","1","5","1","1","1","1","1","2","1","2","1","590502391271391232","李","498","","","","match","","","","","","","","","","","","","","key","f","8.323809523809585","768","428","f","true","match","img/triangle.png","三角","三角","ALT1_1","prac_ALT1_1","","","","","","","","","",""
"null","<span style='color:GreenYellow; font-size: 70px;'>正确! </span>","null","html-keyboard-response","28","246977","0.0-7.0-0.0-1.0-0.0-1.9","4","4","4","4","4","4","4","3","4","4","5","5","5","4","5","5","5","5","5","5","1","1","1","1","2","2","1","1","1","0","1","0","0","0","0","0","1","0","0","0","0","1","0","1","5","1","1","1","1","1","2","1","2","1","590502391271391232","李","498","","","","","","","","","","","","","","","","","","","","","","","","","","","","","","feedback_test","","","","","","","","","",""
"646","","j","psychophysics","29","248642","0.0-7.0-0.0-1.0-0.0-0.10","4","4","4","4","4","4","4","3","4","4","5","5","5","4","5","5","5","5","5","5","1","1","1","1","2","2","1","1","1","0","1","0","0","0","0","0","1","0","0","0","0","1","0","1","5","1","1","1","1","1","2","1","2","1","590502391271391232","李","498","","","","nonmatch","","","","","","","","","","","","","","key","j","8.323756345177658","768","428","j","true","nonmatch","img/hexagon.png","椭圆","六边","ALT1_1","prac_ALT1_1","","","","","","","","","",""
"null","<span style='color:GreenYellow; font-size: 70px;'>正确! </span>","null","html-keyboard-response","30","249147","0.0-7.0-0.0-1.0-0.0-1.10","4","4","4","4","4","4","4","3","4","4","5","5","5","4","5","5","5","5","5","5","1","1","1","1","2","2","1","1","1","0","1","0","0","0","0","0","1","0","0","0","0","1","0","1","5","1","1","1","1","1","2","1","2","1","590502391271391232","李","498","","","","","","","","","","","","","","","","","","","","","","","","","","","","","","feedback_test","","","","","","","","","",""
"812","","j","psychophysics","31","250961","0.0-7.0-0.0-1.0-0.0-0.11","4","4","4","4","4","4","4","3","4","4","5","5","5","4","5","5","5","5","5","5","1","1","1","1","2","2","1","1","1","0","1","0","0","0","0","0","1","0","0","0","0","1","0","1","5","1","1","1","1","1","2","1","2","1","590502391271391232","李","498","","","","nonmatch","","","","","","","","","","","","","","key","j","8.346511627906978","768","428","j","true","nonmatch","img/triangle.png","梯形","三角","ALT1_1","prac_ALT1_1","","","","","","","","","",""
"null","<span style='color:GreenYellow; font-size: 70px;'>正确! </span>","null","html-keyboard-response","32","251472","0.0-7.0-0.0-1.0-0.0-1.11","4","4","4","4","4","4","4","3","4","4","5","5","5","4","5","5","5","5","5","5","1","1","1","1","2","2","1","1","1","0","1","0","0","0","0","0","1","0","0","0","0","1","0","1","5","1","1","1","1","1","2","1","2","1","590502391271391232","李","498","","","","","","","","","","","","","","","","","","","","","","","","","","","","","","feedback_test","","","","","","","","","",""
"578","","f","psychophysics","33","253050","0.0-7.0-0.0-1.0-0.0-0.12","4","4","4","4","4","4","4","3","4","4","5","5","5","4","5","5","5","5","5","5","1","1","1","1","2","2","1","1","1","0","1","0","0","0","0","0","1","0","0","0","0","1","0","1","5","1","1","1","1","1","2","1","2","1","590502391271391232","李","498","","","","match","","","","","","","","","","","","","","key","f","8.323208556149744","768","428","f","true","match","img/hexagon.png","六边","六边","ALT1_1","prac_ALT1_1","","","","","","","","","",""
"null","<span style='color:GreenYellow; font-size: 70px;'>正确! </span>","null","html-keyboard-response","34","253560","0.0-7.0-0.0-1.0-0.0-1.12","4","4","4","4","4","4","4","3","4","4","5","5","5","4","5","5","5","5","5","5","1","1","1","1","2","2","1","1","1","0","1","0","0","0","0","0","1","0","0","0","0","1","0","1","5","1","1","1","1","1","2","1","2","1","590502391271391232","李","498","","","","","","","","","","","","","","","","","","","","","","","","","","","","","","feedback_test","","","","","","","","","",""
"607","","f","psychophysics","35","255170","0.0-7.0-0.0-1.0-0.0-0.13","4","4","4","4","4","4","4","3","4","4","5","5","5","4","5","5","5","5","5","5","1","1","1","1","2","2","1","1","1","0","1","0","0","0","0","0","1","0","0","0","0","1","0","1","5","1","1","1","1","1","2","1","2","1","590502391271391232","李","498","","","","match","","","","","","","","","","","","","","key","f","8.323246073298533","768","428","f","true","match","img/ellipse.png","椭圆","椭圆","ALT1_1","prac_ALT1_1","","","","","","","","","",""
"null","<span style='color:GreenYellow; font-size: 70px;'>正确! </span>","null","html-keyboard-response","36","255679","0.0-7.0-0.0-1.0-0.0-1.13","4","4","4","4","4","4","4","3","4","4","5","5","5","4","5","5","5","5","5","5","1","1","1","1","2","2","1","1","1","0","1","0","0","0","0","0","1","0","0","0","0","1","0","1","5","1","1","1","1","1","2","1","2","1","590502391271391232","李","498","","","","","","","","","","","","","","","","","","","","","","","","","","","","","","feedback_test","","","","","","","","","",""
"516","","j","psychophysics","37","257202","0.0-7.0-0.0-1.0-0.0-0.14","4","4","4","4","4","4","4","3","4","4","5","5","5","4","5","5","5","5","5","5","1","1","1","1","2","2","1","1","1","0","1","0","0","0","0","0","1","0","0","0","0","1","0","1","5","1","1","1","1","1","2","1","2","1","590502391271391232","李","498","","","","nonmatch","","","","","","","","","","","","","","key","j","8.322000000000116","768","428","j","true","nonmatch","img/trapezoid.png","三角","梯形","ALT1_1","prac_ALT1_1","","","","","","","","","",""
"null","<span style='color:GreenYellow; font-size: 70px;'>正确! </span>","null","html-keyboard-response","38","257706","0.0-7.0-0.0-1.0-0.0-1.14","4","4","4","4","4","4","4","3","4","4","5","5","5","4","5","5","5","5","5","5","1","1","1","1","2","2","1","1","1","0","1","0","0","0","0","0","1","0","0","0","0","1","0","1","5","1","1","1","1","1","2","1","2","1","590502391271391232","李","498","","","","","","","","","","","","","","","","","","","","","","","","","","","","","","feedback_test","","","","","","","","","",""
"619","","f","psychophysics","39","259331","0.0-7.0-0.0-1.0-0.0-0.15","4","4","4","4","4","4","4","3","4","4","5","5","5","4","5","5","5","5","5","5","1","1","1","1","2","2","1","1","1","0","1","0","0","0","0","0","1","0","0","0","0","1","0","1","5","1","1","1","1","1","2","1","2","1","590502391271391232","李","498","","","","match","","","","","","","","","","","","","","key","f","8.32290155440403","768","428","f","true","match","img/ellipse.png","椭圆","椭圆","ALT1_1","prac_ALT1_1","","","","","","","","","",""
"null","<span style='color:GreenYellow; font-size: 70px;'>正确! </span>","null","html-keyboard-response","40","259842","0.0-7.0-0.0-1.0-0.0-1.15","4","4","4","4","4","4","4","3","4","4","5","5","5","4","5","5","5","5","5","5","1","1","1","1","2","2","1","1","1","0","1","0","0","0","0","0","1","0","0","0","0","1","0","1","5","1","1","1","1","1","2","1","2","1","590502391271391232","李","498","","","","","","","","","","","","","","","","","","","","","","","","","","","","","","feedback_test","","","","","","","","","",""
"572","","j","psychophysics","41","261418","0.0-7.0-0.0-1.0-0.0-0.16","4","4","4","4","4","4","4","3","4","4","5","5","5","4","5","5","5","5","5","5","1","1","1","1","2","2","1","1","1","0","1","0","0","0","0","0","1","0","0","0","0","1","0","1","5","1","1","1","1","1","2","1","2","1","590502391271391232","李","498","","","","nonmatch","","","","","","","","","","","","","","key","j","8.323763440860064","768","428","j","true","nonmatch","img/trapezoid.png","六边","梯形","ALT1_1","prac_ALT1_1","","","","","","","","","",""
"null","<span style='color:GreenYellow; font-size: 70px;'>正确! </span>","null","html-keyboard-response","42","261929","0.0-7.0-0.0-1.0-0.0-1.16","4","4","4","4","4","4","4","3","4","4","5","5","5","4","5","5","5","5","5","5","1","1","1","1","2","2","1","1","1","0","1","0","0","0","0","0","1","0","0","0","0","1","0","1","5","1","1","1","1","1","2","1","2","1","590502391271391232","李","498","","","","","","","","","","","","","","","","","","","","","","","","","","","","","","feedback_test","","","","","","","","","",""
"666","","j","psychophysics","43","263713","0.0-7.0-0.0-1.0-0.0-0.17","4","4","4","4","4","4","4","3","4","4","5","5","5","4","5","5","5","5","5","5","1","1","1","1","2","2","1","1","1","0","1","0","0","0","0","0","1","0","0","0","0","1","0","1","5","1","1","1","1","1","2","1","2","1","590502391271391232","李","498","","","","nonmatch","","","","","","","","","","","","","","key","j","8.361220657277006","768","428","f","false","match","img/trapezoid.png","梯形","梯形","ALT1_1","prac_ALT1_1","","","","","","","","","",""
"null","<span style='color:red; font-size: 70px;'>错误! </span>","null","html-keyboard-response","44","264213","0.0-7.0-0.0-1.0-0.0-1.17","4","4","4","4","4","4","4","3","4","4","5","5","5","4","5","5","5","5","5","5","1","1","1","1","2","2","1","1","1","0","1","0","0","0","0","0","1","0","0","0","0","1","0","1","5","1","1","1","1","1","2","1","2","1","590502391271391232","李","498","","","","","","","","","","","","","","","","","","","","","","","","","","","","","","feedback_test","","","","","","","","","",""
"546","","j","psychophysics","45","265761","0.0-7.0-0.0-1.0-0.0-0.18","4","4","4","4","4","4","4","3","4","4","5","5","5","4","5","5","5","5","5","5","1","1","1","1","2","2","1","1","1","0","1","0","0","0","0","0","1","0","0","0","0","1","0","1","5","1","1","1","1","1","2","1","2","1","590502391271391232","李","498","","","","nonmatch","","","","","","","","","","","","","","key","j","8.323715846994485","768","428","j","true","nonmatch","img/ellipse.png","三角","椭圆","ALT1_1","prac_ALT1_1","","","","","","","","","",""
"null","<span style='color:GreenYellow; font-size: 70px;'>正确! </span>","null","html-keyboard-response","46","266271","0.0-7.0-0.0-1.0-0.0-1.18","4","4","4","4","4","4","4","3","4","4","5","5","5","4","5","5","5","5","5","5","1","1","1","1","2","2","1","1","1","0","1","0","0","0","0","0","1","0","0","0","0","1","0","1","5","1","1","1","1","1","2","1","2","1","590502391271391232","李","498","","","","","","","","","","","","","","","","","","","","","","","","","","","","","","feedback_test","","","","","","","","","",""
"731","","j","psychophysics","47","268010","0.0-7.0-0.0-1.0-0.0-0.19","4","4","4","4","4","4","4","3","4","4","5","5","5","4","5","5","5","5","5","5","1","1","1","1","2","2","1","1","1","0","1","0","0","0","0","0","1","0","0","0","0","1","0","1","5","1","1","1","1","1","2","1","2","1","590502391271391232","李","498","","","","nonmatch","","","","","","","","","","","","","","key","j","8.332077294685945","768","428","j","true","nonmatch","img/hexagon.png","三角","六边","ALT1_1","prac_ALT1_1","","","","","","","","","",""
"null","<span style='color:GreenYellow; font-size: 70px;'>正确! </span>","null","html-keyboard-response","48","268522","0.0-7.0-0.0-1.0-0.0-1.19","4","4","4","4","4","4","4","3","4","4","5","5","5","4","5","5","5","5","5","5","1","1","1","1","2","2","1","1","1","0","1","0","0","0","0","0","1","0","0","0","0","1","0","1","5","1","1","1","1","1","2","1","2","1","590502391271391232","李","498","","","","","","","","","","","","","","","","","","","","","","","","","","","","","","feedback_test","","","","","","","","","",""
"502","","f","psychophysics","49","270026","0.0-7.0-0.0-1.0-0.0-0.20","4","4","4","4","4","4","4","3","4","4","5","5","5","4","5","5","5","5","5","5","1","1","1","1","2","2","1","1","1","0","1","0","0","0","0","0","1","0","0","0","0","1","0","1","5","1","1","1","1","1","2","1","2","1","590502391271391232","李","498","","","","match","","","","","","","","","","","","","","key","f","8.35765363128502","768","428","f","true","match","img/triangle.png","三角","三角","ALT1_1","prac_ALT1_1","","","","","","","","","",""
"null","<span style='color:GreenYellow; font-size: 70px;'>正确! </span>","null","html-keyboard-response","50","270542","0.0-7.0-0.0-1.0-0.0-1.20","4","4","4","4","4","4","4","3","4","4","5","5","5","4","5","5","5","5","5","5","1","1","1","1","2","2","1","1","1","0","1","0","0","0","0","0","1","0","0","0","0","1","0","1","5","1","1","1","1","1","2","1","2","1","590502391271391232","李","498","","","","","","","","","","","","","","","","","","","","","","","","","","","","","","feedback_test","","","","","","","","","",""
"648","","j","psychophysics","51","272194","0.0-7.0-0.0-1.0-0.0-0.21","4","4","4","4","4","4","4","3","4","4","5","5","5","4","5","5","5","5","5","5","1","1","1","1","2","2","1","1","1","0","1","0","0","0","0","0","1","0","0","0","0","1","0","1","5","1","1","1","1","1","2","1","2","1","590502391271391232","李","498","","","","nonmatch","","","","","","","","","","","","","","key","j","8.332755102040673","768","428","j","true","nonmatch","img/hexagon.png","梯形","六边","ALT1_1","prac_ALT1_1","","","","","","","","","",""
"null","<span style='color:GreenYellow; font-size: 70px;'>正确! </span>","null","html-keyboard-response","52","272697","0.0-7.0-0.0-1.0-0.0-1.21","4","4","4","4","4","4","4","3","4","4","5","5","5","4","5","5","5","5","5","5","1","1","1","1","2","2","1","1","1","0","1","0","0","0","0","0","1","0","0","0","0","1","0","1","5","1","1","1","1","1","2","1","2","1","590502391271391232","李","498","","","","","","","","","","","","","","","","","","","","","","","","","","","","","","feedback_test","","","","","","","","","",""
"673","","j","psychophysics","53","274370","0.0-7.0-0.0-1.0-0.0-0.22","4","4","4","4","4","4","4","3","4","4","5","5","5","4","5","5","5","5","5","5","1","1","1","1","2","2","1","1","1","0","1","0","0","0","0","0","1","0","0","0","0","1","0","1","5","1","1","1","1","1","2","1","2","1","590502391271391232","李","498","","","","nonmatch","","","","","","","","","","","","","","key","j","8.32383838383836","768","428","j","true","nonmatch","img/triangle.png","六边","三角","ALT1_1","prac_ALT1_1","","","","","","","","","",""
"null","<span style='color:GreenYellow; font-size: 70px;'>正确! </span>","null","html-keyboard-response","54","274880","0.0-7.0-0.0-1.0-0.0-1.22","4","4","4","4","4","4","4","3","4","4","5","5","5","4","5","5","5","5","5","5","1","1","1","1","2","2","1","1","1","0","1","0","0","0","0","0","1","0","0","0","0","1","0","1","5","1","1","1","1","1","2","1","2","1","590502391271391232","李","498","","","","","","","","","","","","","","","","","","","","","","","","","","","","","","feedback_test","","","","","","","","","",""
"560","","f","psychophysics","55","276441","0.0-7.0-0.0-1.0-0.0-0.23","4","4","4","4","4","4","4","3","4","4","5","5","5","4","5","5","5","5","5","5","1","1","1","1","2","2","1","1","1","0","1","0","0","0","0","0","1","0","0","0","0","1","0","1","5","1","1","1","1","1","2","1","2","1","590502391271391232","李","498","","","","match","","","","","","","","","","","","","","key","f","8.32378378378391","768","428","f","true","match","img/trapezoid.png","梯形","梯形","ALT1_1","prac_ALT1_1","","","","","","","","","",""
"null","<span style='color:GreenYellow; font-size: 70px;'>正确! </span>","null","html-keyboard-response","56","276948","0.0-7.0-0.0-1.0-0.0-1.23","4","4","4","4","4","4","4","3","4","4","5","5","5","4","5","5","5","5","5","5","1","1","1","1","2","2","1","1","1","0","1","0","0","0","0","0","1","0","0","0","0","1","0","1","5","1","1","1","1","1","2","1","2","1","590502391271391232","李","498","","","","","","","","","","","","","","","","","","","","","","","","","","","","","","feedback_test","","","","","","","","","",""
"684","","j","psychophysics","57","278634","0.0-7.0-0.0-1.0-0.0-0.24","4","4","4","4","4","4","4","3","4","4","5","5","5","4","5","5","5","5","5","5","1","1","1","1","2","2","1","1","1","0","1","0","0","0","0","0","1","0","0","0","0","1","0","1","5","1","1","1","1","1","2","1","2","1","590502391271391232","李","498","","","","nonmatch","","","","","","","","","","","","","","key","j","8.36278606965166","768","428","j","true","nonmatch","img/trapezoid.png","椭圆","梯形","ALT1_1","prac_ALT1_1","","","","","","","","","",""
"null","<span style='color:GreenYellow; font-size: 70px;'>正确! </span>","null","html-keyboard-response","58","279162","0.0-7.0-0.0-1.0-0.0-1.24","4","4","4","4","4","4","4","3","4","4","5","5","5","4","5","5","5","5","5","5","1","1","1","1","2","2","1","1","1","0","1","0","0","0","0","0","1","0","0","0","0","1","0","1","5","1","1","1","1","1","2","1","2","1","590502391271391232","李","498","","","","","","","","","","","","","","","","","","","","","","","","","","","","","","feedback_test","","","","","","","","","",""
"963","","j","psychophysics","59","281130","0.0-7.0-0.0-1.0-0.0-0.25","4","4","4","4","4","4","4","3","4","4","5","5","5","4","5","5","5","5","5","5","1","1","1","1","2","2","1","1","1","0","1","0","0","0","0","0","1","0","0","0","0","1","0","1","5","1","1","1","1","1","2","1","2","1","590502391271391232","李","498","","","","nonmatch","","","","","","","","","","","","","","key","j","8.331367521367431","768","428","j","true","nonmatch","img/hexagon.png","三角","六边","ALT1_1","prac_ALT1_1","","","","","","","","","",""
"null","<span style='color:GreenYellow; font-size: 70px;'>正确! </span>","null","html-keyboard-response","60","281634","0.0-7.0-0.0-1.0-0.0-1.25","4","4","4","4","4","4","4","3","4","4","5","5","5","4","5","5","5","5","5","5","1","1","1","1","2","2","1","1","1","0","1","0","0","0","0","0","1","0","0","0","0","1","0","1","5","1","1","1","1","1","2","1","2","1","590502391271391232","李","498","","","","","","","","","","","","","","","","","","","","","","","","","","","","","","feedback_test","","","","","","","","","",""
"544","","f","psychophysics","61","283194","0.0-7.0-0.0-1.0-0.0-0.26","4","4","4","4","4","4","4","3","4","4","5","5","5","4","5","5","5","5","5","5","1","1","1","1","2","2","1","1","1","0","1","0","0","0","0","0","1","0","0","0","0","1","0","1","5","1","1","1","1","1","2","1","2","1","590502391271391232","李","498","","","","match","","","","","","","","","","","","","","key","f","8.333837837837889","768","428","f","true","match","img/triangle.png","三角","三角","ALT1_1","prac_ALT1_1","","","","","","","","","",""
"null","<span style='color:GreenYellow; font-size: 70px;'>正确! </span>","null","html-keyboard-response","62","283699","0.0-7.0-0.0-1.0-0.0-1.26","4","4","4","4","4","4","4","3","4","4","5","5","5","4","5","5","5","5","5","5","1","1","1","1","2","2","1","1","1","0","1","0","0","0","0","0","1","0","0","0","0","1","0","1","5","1","1","1","1","1","2","1","2","1","590502391271391232","李","498","","","","","","","","","","","","","","","","","","","","","","","","","","","","","","feedback_test","","","","","","","","","",""
"738","","j","psychophysics","63","285441","0.0-7.0-0.0-1.0-0.0-0.27","4","4","4","4","4","4","4","3","4","4","5","5","5","4","5","5","5","5","5","5","1","1","1","1","2","2","1","1","1","0","1","0","0","0","0","0","1","0","0","0","0","1","0","1","5","1","1","1","1","1","2","1","2","1","590502391271391232","李","498","","","","nonmatch","","","","","","","","","","","","","","key","j","8.331923076923257","768","428","j","true","nonmatch","img/triangle.png","六边","三角","ALT1_1","prac_ALT1_1","","","","","","","","","",""
"null","<span style='color:GreenYellow; font-size: 70px;'>正确! </span>","null","html-keyboard-response","64","285947","0.0-7.0-0.0-1.0-0.0-1.27","4","4","4","4","4","4","4","3","4","4","5","5","5","4","5","5","5","5","5","5","1","1","1","1","2","2","1","1","1","0","1","0","0","0","0","0","1","0","0","0","0","1","0","1","5","1","1","1","1","1","2","1","2","1","590502391271391232","李","498","","","","","","","","","","","","","","","","","","","","","","","","","","","","","","feedback_test","","","","","","","","","",""
"526","","j","psychophysics","65","287475","0.0-7.0-0.0-1.0-0.0-0.28","4","4","4","4","4","4","4","3","4","4","5","5","5","4","5","5","5","5","5","5","1","1","1","1","2","2","1","1","1","0","1","0","0","0","0","0","1","0","0","0","0","1","0","1","5","1","1","1","1","1","2","1","2","1","590502391271391232","李","498","","","","nonmatch","","","","","","","","","","","","","","key","j","8.357790055248671","768","428","j","true","nonmatch","img/ellipse.png","三角","椭圆","ALT1_1","prac_ALT1_1","","","","","","","","","",""
"null","<span style='color:GreenYellow; font-size: 70px;'>正确! </span>","null","html-keyboard-response","66","287987","0.0-7.0-0.0-1.0-0.0-1.28","4","4","4","4","4","4","4","3","4","4","5","5","5","4","5","5","5","5","5","5","1","1","1","1","2","2","1","1","1","0","1","0","0","0","0","0","1","0","0","0","0","1","0","1","5","1","1","1","1","1","2","1","2","1","590502391271391232","李","498","","","","","","","","","","","","","","","","","","","","","","","","","","","","","","feedback_test","","","","","","","","","",""
"619","","f","psychophysics","67","289610","0.0-7.0-0.0-1.0-0.0-0.29","4","4","4","4","4","4","4","3","4","4","5","5","5","4","5","5","5","5","5","5","1","1","1","1","2","2","1","1","1","0","1","0","0","0","0","0","1","0","0","0","0","1","0","1","5","1","1","1","1","1","2","1","2","1","590502391271391232","李","498","","","","match","","","","","","","","","","","","","","key","f","8.322708333333443","768","428","f","true","match","img/hexagon.png","六边","六边","ALT1_1","prac_ALT1_1","","","","","","","","","",""
"null","<span style='color:GreenYellow; font-size: 70px;'>正确! </span>","null","html-keyboard-response","68","290124","0.0-7.0-0.0-1.0-0.0-1.29","4","4","4","4","4","4","4","3","4","4","5","5","5","4","5","5","5","5","5","5","1","1","1","1","2","2","1","1","1","0","1","0","0","0","0","0","1","0","0","0","0","1","0","1","5","1","1","1","1","1","2","1","2","1","590502391271391232","李","498","","","","","","","","","","","","","","","","","","","","","","","","","","","","","","feedback_test","","","","","","","","","",""
"523","","j","psychophysics","69","291746","0.0-7.0-0.0-1.0-0.0-0.30","4","4","4","4","4","4","4","3","4","4","5","5","5","4","5","5","5","5","5","5","1","1","1","1","2","2","1","1","1","0","1","0","0","0","0","0","1","0","0","0","0","1","0","1","5","1","1","1","1","1","2","1","2","1","590502391271391232","李","498","","","","nonmatch","","","","","","","","","","","","","","key","j","8.323020833333127","768","428","j","true","nonmatch","img/ellipse.png","六边","椭圆","ALT1_1","prac_ALT1_1","","","","","","","","","",""
"null","<span style='color:GreenYellow; font-size: 70px;'>正确! </span>","null","html-keyboard-response","70","292260","0.0-7.0-0.0-1.0-0.0-1.30","4","4","4","4","4","4","4","3","4","4","5","5","5","4","5","5","5","5","5","5","1","1","1","1","2","2","1","1","1","0","1","0","0","0","0","0","1","0","0","0","0","1","0","1","5","1","1","1","1","1","2","1","2","1","590502391271391232","李","498","","","","","","","","","","","","","","","","","","","","","","","","","","","","","","feedback_test","","","","","","","","","",""
"557","","j","psychophysics","71","293834","0.0-7.0-0.0-1.0-0.0-0.31","4","4","4","4","4","4","4","3","4","4","5","5","5","4","5","5","5","5","5","5","1","1","1","1","2","2","1","1","1","0","1","0","0","0","0","0","1","0","0","0","0","1","0","1","5","1","1","1","1","1","2","1","2","1","590502391271391232","李","498","","","","nonmatch","","","","","","","","","","","","","","key","j","8.365668449197885","768","428","j","true","nonmatch","img/hexagon.png","梯形","六边","ALT1_1","prac_ALT1_1","","","","","","","","","",""
"null","<span style='color:GreenYellow; font-size: 70px;'>正确! </span>","null","html-keyboard-response","72","294343","0.0-7.0-0.0-1.0-0.0-1.31","4","4","4","4","4","4","4","3","4","4","5","5","5","4","5","5","5","5","5","5","1","1","1","1","2","2","1","1","1","0","1","0","0","0","0","0","1","0","0","0","0","1","0","1","5","1","1","1","1","1","2","1","2","1","590502391271391232","李","498","","","","","","","","","","","","","","","","","","","","","","","","","","","","","","feedback_test","","","","","","","","","",""
"557","","f","psychophysics","73","295906","0.0-7.0-0.0-1.0-0.0-0.32","4","4","4","4","4","4","4","3","4","4","5","5","5","4","5","5","5","5","5","5","1","1","1","1","2","2","1","1","1","0","1","0","0","0","0","0","1","0","0","0","0","1","0","1","5","1","1","1","1","1","2","1","2","1","590502391271391232","李","498","","","","match","","","","","","","","","","","","","","key","f","8.338702702702564","768","428","f","true","match","img/trapezoid.png","梯形","梯形","ALT1_1","prac_ALT1_1","","","","","","","","","",""
"null","<span style='color:GreenYellow; font-size: 70px;'>正确! </span>","null","html-keyboard-response","74","296419","0.0-7.0-0.0-1.0-0.0-1.32","4","4","4","4","4","4","4","3","4","4","5","5","5","4","5","5","5","5","5","5","1","1","1","1","2","2","1","1","1","0","1","0","0","0","0","0","1","0","0","0","0","1","0","1","5","1","1","1","1","1","2","1","2","1","590502391271391232","李","498","","","","","","","","","","","","","","","","","","","","","","","","","","","","","","feedback_test","","","","","","","","","",""
"586","","f","psychophysics","75","298010","0.0-7.0-0.0-1.0-0.0-0.33","4","4","4","4","4","4","4","3","4","4","5","5","5","4","5","5","5","5","5","5","1","1","1","1","2","2","1","1","1","0","1","0","0","0","0","0","1","0","0","0","0","1","0","1","5","1","1","1","1","1","2","1","2","1","590502391271391232","李","498","","","","match","","","","","","","","","","","","","","key","f","8.356190476190513","768","428","f","true","match","img/hexagon.png","六边","六边","ALT1_1","prac_ALT1_1","","","","","","","","","",""
"null","<span style='color:GreenYellow; font-size: 70px;'>正确! </span>","null","html-keyboard-response","76","298522","0.0-7.0-0.0-1.0-0.0-1.33","4","4","4","4","4","4","4","3","4","4","5","5","5","4","5","5","5","5","5","5","1","1","1","1","2","2","1","1","1","0","1","0","0","0","0","0","1","0","0","0","0","1","0","1","5","1","1","1","1","1","2","1","2","1","590502391271391232","李","498","","","","","","","","","","","","","","","","","","","","","","","","","","","","","","feedback_test","","","","","","","","","",""
"552","","j","psychophysics","77","300090","0.0-7.0-0.0-1.0-0.0-0.34","4","4","4","4","4","4","4","3","4","4","5","5","5","4","5","5","5","5","5","5","1","1","1","1","2","2","1","1","1","0","1","0","0","0","0","0","1","0","0","0","0","1","0","1","5","1","1","1","1","1","2","1","2","1","590502391271391232","李","498","","","","nonmatch","","","","","","","","","","","","","","key","j","8.323763440860377","768","428","j","true","nonmatch","img/ellipse.png","梯形","椭圆","ALT1_1","prac_ALT1_1","","","","","","","","","",""
"null","<span style='color:GreenYellow; font-size: 70px;'>正确! </span>","null","html-keyboard-response","78","300607","0.0-7.0-0.0-1.0-0.0-1.34","4","4","4","4","4","4","4","3","4","4","5","5","5","4","5","5","5","5","5","5","1","1","1","1","2","2","1","1","1","0","1","0","0","0","0","0","1","0","0","0","0","1","0","1","5","1","1","1","1","1","2","1","2","1","590502391271391232","李","498","","","","","","","","","","","","","","","","","","","","","","","","","","","","","","feedback_test","","","","","","","","","",""
"594","","j","psychophysics","79","302202","0.0-7.0-0.0-1.0-0.0-0.35","4","4","4","4","4","4","4","3","4","4","5","5","5","4","5","5","5","5","5","5","1","1","1","1","2","2","1","1","1","0","1","0","0","0","0","0","1","0","0","0","0","1","0","1","5","1","1","1","1","1","2","1","2","1","590502391271391232","李","498","","","","nonmatch","","","","","","","","","","","","","","key","j","8.32306878306877","768","428","j","true","nonmatch","img/triangle.png","梯形","三角","ALT1_1","prac_ALT1_1","","","","","","","","","",""
"null","<span style='color:GreenYellow; font-size: 70px;'>正确! </span>","null","html-keyboard-response","80","302707","0.0-7.0-0.0-1.0-0.0-1.35","4","4","4","4","4","4","4","3","4","4","5","5","5","4","5","5","5","5","5","5","1","1","1","1","2","2","1","1","1","0","1","0","0","0","0","0","1","0","0","0","0","1","0","1","5","1","1","1","1","1","2","1","2","1","590502391271391232","李","498","","","","","","","","","","","","","","","","","","","","","","","","","","","","","","feedback_test","","","","","","","","","",""
"673","","f","psychophysics","81","304385","0.0-7.0-0.0-1.0-0.0-0.36","4","4","4","4","4","4","4","3","4","4","5","5","5","4","5","5","5","5","5","5","1","1","1","1","2","2","1","1","1","0","1","0","0","0","0","0","1","0","0","0","0","1","0","1","5","1","1","1","1","1","2","1","2","1","590502391271391232","李","498","","","","match","","","","","","","","","","","","","","key","f","8.323517587939723","768","428","f","true","match","img/ellipse.png","椭圆","椭圆","ALT1_1","prac_ALT1_1","","","","","","","","","",""
"null","<span style='color:GreenYellow; font-size: 70px;'>正确! </span>","null","html-keyboard-response","82","304890","0.0-7.0-0.0-1.0-0.0-1.36","4","4","4","4","4","4","4","3","4","4","5","5","5","4","5","5","5","5","5","5","1","1","1","1","2","2","1","1","1","0","1","0","0","0","0","0","1","0","0","0","0","1","0","1","5","1","1","1","1","1","2","1","2","1","590502391271391232","李","498","","","","","","","","","","","","","","","","","","","","","","","","","","","","","","feedback_test","","","","","","","","","",""
"590","","f","psychophysics","83","306483","0.0-7.0-0.0-1.0-0.0-0.37","4","4","4","4","4","4","4","3","4","4","5","5","5","4","5","5","5","5","5","5","1","1","1","1","2","2","1","1","1","0","1","0","0","0","0","0","1","0","0","0","0","1","0","1","5","1","1","1","1","1","2","1","2","1","590502391271391232","李","498","","","","match","","","","","","","","","","","","","","key","f","8.323809523809278","768","428","f","true","match","img/ellipse.png","椭圆","椭圆","ALT1_1","prac_ALT1_1","","","","","","","","","",""
"null","<span style='color:GreenYellow; font-size: 70px;'>正确! </span>","null","html-keyboard-response","84","306994","0.0-7.0-0.0-1.0-0.0-1.37","4","4","4","4","4","4","4","3","4","4","5","5","5","4","5","5","5","5","5","5","1","1","1","1","2","2","1","1","1","0","1","0","0","0","0","0","1","0","0","0","0","1","0","1","5","1","1","1","1","1","2","1","2","1","590502391271391232","李","498","","","","","","","","","","","","","","","","","","","","","","","","","","","","","","feedback_test","","","","","","","","","",""
"574","","f","psychophysics","85","308570","0.0-7.0-0.0-1.0-0.0-0.38","4","4","4","4","4","4","4","3","4","4","5","5","5","4","5","5","5","5","5","5","1","1","1","1","2","2","1","1","1","0","1","0","0","0","0","0","1","0","0","0","0","1","0","1","5","1","1","1","1","1","2","1","2","1","590502391271391232","李","498","","","","match","","","","","","","","","","","","","","key","f","8.32308510638293","768","428","f","true","match","img/triangle.png","三角","三角","ALT1_1","prac_ALT1_1","","","","","","","","","",""
"null","<span style='color:GreenYellow; font-size: 70px;'>正确! </span>","null","html-keyboard-response","86","309079","0.0-7.0-0.0-1.0-0.0-1.38","4","4","4","4","4","4","4","3","4","4","5","5","5","4","5","5","5","5","5","5","1","1","1","1","2","2","1","1","1","0","1","0","0","0","0","0","1","0","0","0","0","1","0","1","5","1","1","1","1","1","2","1","2","1","590502391271391232","李","498","","","","","","","","","","","","","","","","","","","","","","","","","","","","","","feedback_test","","","","","","","","","",""
"528","","f","psychophysics","87","310609","0.0-7.0-0.0-1.0-0.0-0.39","4","4","4","4","4","4","4","3","4","4","5","5","5","4","5","5","5","5","5","5","1","1","1","1","2","2","1","1","1","0","1","0","0","0","0","0","1","0","0","0","0","1","0","1","5","1","1","1","1","1","2","1","2","1","590502391271391232","李","498","","","","match","","","","","","","","","","","","","","key","f","8.32375690607722","768","428","f","true","match","img/triangle.png","三角","三角","ALT1_1","prac_ALT1_1","","","","","","","","","",""
"null","<span style='color:GreenYellow; font-size: 70px;'>正确! </span>","null","html-keyboard-response","88","311117","0.0-7.0-0.0-1.0-0.0-1.39","4","4","4","4","4","4","4","3","4","4","5","5","5","4","5","5","5","5","5","5","1","1","1","1","2","2","1","1","1","0","1","0","0","0","0","0","1","0","0","0","0","1","0","1","5","1","1","1","1","1","2","1","2","1","590502391271391232","李","498","","","","","","","","","","","","","","","","","","","","","","","","","","","","","","feedback_test","","","","","","","","","",""
"710","","f","psychophysics","89","312842","0.0-7.0-0.0-1.0-0.0-0.40","4","4","4","4","4","4","4","3","4","4","5","5","5","4","5","5","5","5","5","5","1","1","1","1","2","2","1","1","1","0","1","0","0","0","0","0","1","0","0","0","0","1","0","1","5","1","1","1","1","1","2","1","2","1","590502391271391232","李","498","","","","match","","","","","","","","","","","","","","key","f","8.323121951219466","768","428","f","true","match","img/hexagon.png","六边","六边","ALT1_1","prac_ALT1_1","","","","","","","","","",""
"null","<span style='color:GreenYellow; font-size: 70px;'>正确! </span>","null","html-keyboard-response","90","313343","0.0-7.0-0.0-1.0-0.0-1.40","4","4","4","4","4","4","4","3","4","4","5","5","5","4","5","5","5","5","5","5","1","1","1","1","2","2","1","1","1","0","1","0","0","0","0","0","1","0","0","0","0","1","0","1","5","1","1","1","1","1","2","1","2","1","590502391271391232","李","498","","","","","","","","","","","","","","","","","","","","","","","","","","","","","","feedback_test","","","","","","","","","",""
"593","","f","psychophysics","91","314939","0.0-7.0-0.0-1.0-0.0-0.41","4","4","4","4","4","4","4","3","4","4","5","5","5","4","5","5","5","5","5","5","1","1","1","1","2","2","1","1","1","0","1","0","0","0","0","0","1","0","0","0","0","1","0","1","5","1","1","1","1","1","2","1","2","1","590502391271391232","李","498","","","","match","","","","","","","","","","","","","","key","f","8.356526315789425","768","428","f","true","match","img/trapezoid.png","梯形","梯形","ALT1_1","prac_ALT1_1","","","","","","","","","",""
"null","<span style='color:GreenYellow; font-size: 70px;'>正确! </span>","null","html-keyboard-response","92","315448","0.0-7.0-0.0-1.0-0.0-1.41","4","4","4","4","4","4","4","3","4","4","5","5","5","4","5","5","5","5","5","5","1","1","1","1","2","2","1","1","1","0","1","0","0","0","0","0","1","0","0","0","0","1","0","1","5","1","1","1","1","1","2","1","2","1","590502391271391232","李","498","","","","","","","","","","","","","","","","","","","","","","","","","","","","","","feedback_test","","","","","","","","","",""
"513","","f","psychophysics","93","316961","0.0-7.0-0.0-1.0-0.0-0.42","4","4","4","4","4","4","4","3","4","4","5","5","5","4","5","5","5","5","5","5","1","1","1","1","2","2","1","1","1","0","1","0","0","0","0","0","1","0","0","0","0","1","0","1","5","1","1","1","1","1","2","1","2","1","590502391271391232","李","498","","","","match","","","","","","","","","","","","","","key","f","8.323240223463609","768","428","f","true","match","img/trapezoid.png","梯形","梯形","ALT1_1","prac_ALT1_1","","","","","","","","","",""
"null","<span style='color:GreenYellow; font-size: 70px;'>正确! </span>","null","html-keyboard-response","94","317472","0.0-7.0-0.0-1.0-0.0-1.42","4","4","4","4","4","4","4","3","4","4","5","5","5","4","5","5","5","5","5","5","1","1","1","1","2","2","1","1","1","0","1","0","0","0","0","0","1","0","0","0","0","1","0","1","5","1","1","1","1","1","2","1","2","1","590502391271391232","李","498","","","","","","","","","","","","","","","","","","","","","","","","","","","","","","feedback_test","","","","","","","","","",""
"661","","j","psychophysics","95","319137","0.0-7.0-0.0-1.0-0.0-0.43","4","4","4","4","4","4","4","3","4","4","5","5","5","4","5","5","5","5","5","5","1","1","1","1","2","2","1","1","1","0","1","0","0","0","0","0","1","0","0","0","0","1","0","1","5","1","1","1","1","1","2","1","2","1","590502391271391232","李","498","","","","nonmatch","","","","","","","","","","","","","","key","j","8.323857868020541","768","428","j","true","nonmatch","img/trapezoid.png","六边","梯形","ALT1_1","prac_ALT1_1","","","","","","","","","",""
"null","<span style='color:GreenYellow; font-size: 70px;'>正确! </span>","null","html-keyboard-response","96","319637","0.0-7.0-0.0-1.0-0.0-1.43","4","4","4","4","4","4","4","3","4","4","5","5","5","4","5","5","5","5","5","5","1","1","1","1","2","2","1","1","1","0","1","0","0","0","0","0","1","0","0","0","0","1","0","1","5","1","1","1","1","1","2","1","2","1","590502391271391232","李","498","","","","","","","","","","","","","","","","","","","","","","","","","","","","","","feedback_test","","","","","","","","","",""
"557","","j","psychophysics","97","321209","0.0-7.0-0.0-1.0-0.0-0.44","4","4","4","4","4","4","4","3","4","4","5","5","5","4","5","5","5","5","5","5","1","1","1","1","2","2","1","1","1","0","1","0","0","0","0","0","1","0","0","0","0","1","0","1","5","1","1","1","1","1","2","1","2","1","590502391271391232","李","498","","","","nonmatch","","","","","","","","","","","","","","key","j","8.323870967741886","768","428","j","true","nonmatch","img/hexagon.png","椭圆","六边","ALT1_1","prac_ALT1_1","","","","","","","","","",""
"null","<span style='color:GreenYellow; font-size: 70px;'>正确! </span>","null","html-keyboard-response","98","321723","0.0-7.0-0.0-1.0-0.0-1.44","4","4","4","4","4","4","4","3","4","4","5","5","5","4","5","5","5","5","5","5","1","1","1","1","2","2","1","1","1","0","1","0","0","0","0","0","1","0","0","0","0","1","0","1","5","1","1","1","1","1","2","1","2","1","590502391271391232","李","498","","","","","","","","","","","","","","","","","","","","","","","","","","","","","","feedback_test","","","","","","","","","",""
"487","","f","psychophysics","99","323307","0.0-7.0-0.0-1.0-0.0-0.45","4","4","4","4","4","4","4","3","4","4","5","5","5","4","5","5","5","5","5","5","1","1","1","1","2","2","1","1","1","0","1","0","0","0","0","0","1","0","0","0","0","1","0","1","5","1","1","1","1","1","2","1","2","1","590502391271391232","李","498","","","","match","","","","","","","","","","","","","","key","f","8.322553191489437","768","428","f","true","match","img/ellipse.png","椭圆","椭圆","ALT1_1","prac_ALT1_1","","","","","","","","","",""
"null","<span style='color:GreenYellow; font-size: 70px;'>正确! </span>","null","html-keyboard-response","100","323822","0.0-7.0-0.0-1.0-0.0-1.45","4","4","4","4","4","4","4","3","4","4","5","5","5","4","5","5","5","5","5","5","1","1","1","1","2","2","1","1","1","0","1","0","0","0","0","0","1","0","0","0","0","1","0","1","5","1","1","1","1","1","2","1","2","1","590502391271391232","李","498","","","","","","","","","","","","","","","","","","","","","","","","","","","","","","feedback_test","","","","","","","","","",""
"698","","j","psychophysics","101","325537","0.0-7.0-0.0-1.0-0.0-0.46","4","4","4","4","4","4","4","3","4","4","5","5","5","4","5","5","5","5","5","5","1","1","1","1","2","2","1","1","1","0","1","0","0","0","0","0","1","0","0","0","0","1","0","1","5","1","1","1","1","1","2","1","2","1","590502391271391232","李","498","","","","nonmatch","","","","","","","","","","","","","","key","j","8.323152709359778","768","428","j","true","nonmatch","img/trapezoid.png","三角","梯形","ALT1_1","prac_ALT1_1","","","","","","","","","",""
"null","<span style='color:GreenYellow; font-size: 70px;'>正确! </span>","null","html-keyboard-response","102","326046","0.0-7.0-0.0-1.0-0.0-1.46","4","4","4","4","4","4","4","3","4","4","5","5","5","4","5","5","5","5","5","5","1","1","1","1","2","2","1","1","1","0","1","0","0","0","0","0","1","0","0","0","0","1","0","1","5","1","1","1","1","1","2","1","2","1","590502391271391232","李","498","","","","","","","","","","","","","","","","","","","","","","","","","","","","","","feedback_test","","","","","","","","","",""
"493","","j","psychophysics","103","327601","0.0-7.0-0.0-1.0-0.0-0.47","4","4","4","4","4","4","4","3","4","4","5","5","5","4","5","5","5","5","5","5","1","1","1","1","2","2","1","1","1","0","1","0","0","0","0","0","1","0","0","0","0","1","0","1","5","1","1","1","1","1","2","1","2","1","590502391271391232","李","498","","","","nonmatch","","","","","","","","","","","","","","key","j","8.32380434782586","768","428","j","true","nonmatch","img/triangle.png","椭圆","三角","ALT1_1","prac_ALT1_1","","","","","","","","","",""
"null","<span style='color:GreenYellow; font-size: 70px;'>正确! </span>","null","html-keyboard-response","104","328112","0.0-7.0-0.0-1.0-0.0-1.47","4","4","4","4","4","4","4","3","4","4","5","5","5","4","5","5","5","5","5","5","1","1","1","1","2","2","1","1","1","0","1","0","0","0","0","0","1","0","0","0","0","1","0","1","5","1","1","1","1","1","2","1","2","1","590502391271391232","李","498","","","","","","","","","","","","","","","","","","","","","","","","","","","","","","feedback_test","","","","","","","","","",""
"41065","<style>.context{color:white; font-size: 35px; line-height:40px}</style>                            <div><p class='context'>您正确回答了96% 的试次。</p><p class='context'>您的平均反应时为626毫秒。</p><p class='context'>恭喜您完成练习。按空格键进入正式实验。</p><p class='footer' style='font-size: 35px; line-height:40px;'>请在进入正式实验之前将您的<span style='color: lightgreen;'>食指</span>放在电脑键盘的相应键位上进行按键。</p>"," ","html-keyboard-response","105","369183","0.0-7.0-0.0-2.0","4","4","4","4","4","4","4","3","4","4","5","5","5","4","5","5","5","5","5","5","1","1","1","1","2","2","1","1","1","0","1","0","0","0","0","0","1","0","0","0","0","1","0","1","5","1","1","1","1","1","2","1","2","1","590502391271391232","李","498","","","","","","","","","","","","","","","","","","","","","","","","","","","","","","","","","","","","","","","",""
"1416","
    <p style='color: white; font-size: 22px'>请您将手指放在按键上，准备进入正式的匹配任务。</p>
    <p> <div style = ""color: green""><按空格键进入下一阶段的匹配任务></div></p>
    "," ","html-keyboard-response","106","370601","0.0-7.0-0.0-3.0","4","4","4","4","4","4","4","3","4","4","5","5","5","4","5","5","5","5","5","5","1","1","1","1","2","2","1","1","1","0","1","0","0","0","0","0","1","0","0","0","0","1","0","1","5","1","1","1","1","1","2","1","2","1","590502391271391232","李","498","","","","","","","","","","","","","","","","","","","","","","","","","","","","","","","","","","","","","","","",""
"576","","f","psychophysics","107","372177","0.0-7.0-0.0-4.0-0.0-0.0","4","4","4","4","4","4","4","3","4","4","5","5","5","4","5","5","5","5","5","5","1","1","1","1","2","2","1","1","1","0","1","0","0","0","0","0","1","0","0","0","0","1","0","1","5","1","1","1","1","1","2","1","2","1","590502391271391232","李","498","","","","match","","","","","","","","","","","","","","key","f","8.321604278074942","768","428","f","true","match","img/triangle.png","三角","三角","ALT1","formal_ALT1_1","","","","","","","","","",""
"null","<span style='color:GreenYellow; font-size: 70px;'>正确! </span>","null","html-keyboard-response","108","372684","0.0-7.0-0.0-4.0-0.0-1.0","4","4","4","4","4","4","4","3","4","4","5","5","5","4","5","5","5","5","5","5","1","1","1","1","2","2","1","1","1","0","1","0","0","0","0","0","1","0","0","0","0","1","0","1","5","1","1","1","1","1","2","1","2","1","590502391271391232","李","498","","","","","","","","","","","","","","","","","","","","","","","","","","","","","","feedback_test","","","","","","","","","",""
"580","","j","psychophysics","109","374266","0.0-7.0-0.0-4.0-0.0-0.1","4","4","4","4","4","4","4","3","4","4","5","5","5","4","5","5","5","5","5","5","1","1","1","1","2","2","1","1","1","0","1","0","0","0","0","0","1","0","0","0","0","1","0","1","5","1","1","1","1","1","2","1","2","1","590502391271391232","李","498","","","","nonmatch","","","","","","","","","","","","","","key","j","8.359468085106469","768","428","j","true","nonmatch","img/hexagon.png","三角","六边","ALT1","formal_ALT1_1","","","","","","","","","",""
"null","<span style='color:GreenYellow; font-size: 70px;'>正确! </span>","null","html-keyboard-response","110","374771","0.0-7.0-0.0-4.0-0.0-1.1","4","4","4","4","4","4","4","3","4","4","5","5","5","4","5","5","5","5","5","5","1","1","1","1","2","2","1","1","1","0","1","0","0","0","0","0","1","0","0","0","0","1","0","1","5","1","1","1","1","1","2","1","2","1","590502391271391232","李","498","","","","","","","","","","","","","","","","","","","","","","","","","","","","","","feedback_test","","","","","","","","","",""
"591","","j","psychophysics","111","376377","0.0-7.0-0.0-4.0-0.0-0.2","4","4","4","4","4","4","4","3","4","4","5","5","5","4","5","5","5","5","5","5","1","1","1","1","2","2","1","1","1","0","1","0","0","0","0","0","1","0","0","0","0","1","0","1","5","1","1","1","1","1","2","1","2","1","590502391271391232","李","498","","","","nonmatch","","","","","","","","","","","","","","key","j","8.348842105262998","768","428","j","true","nonmatch","img/triangle.png","梯形","三角","ALT1","formal_ALT1_1","","","","","","","","","",""
"null","<span style='color:GreenYellow; font-size: 70px;'>正确! </span>","null","html-keyboard-response","112","376886","0.0-7.0-0.0-4.0-0.0-1.2","4","4","4","4","4","4","4","3","4","4","5","5","5","4","5","5","5","5","5","5","1","1","1","1","2","2","1","1","1","0","1","0","0","0","0","0","1","0","0","0","0","1","0","1","5","1","1","1","1","1","2","1","2","1","590502391271391232","李","498","","","","","","","","","","","","","","","","","","","","","","","","","","","","","","feedback_test","","","","","","","","","",""
"589","","j","psychophysics","113","378489","0.0-7.0-0.0-4.0-0.0-0.3","4","4","4","4","4","4","4","3","4","4","5","5","5","4","5","5","5","5","5","5","1","1","1","1","2","2","1","1","1","0","1","0","0","0","0","0","1","0","0","0","0","1","0","1","5","1","1","1","1","1","2","1","2","1","590502391271391232","李","498","","","","nonmatch","","","","","","","","","","","","","","key","j","8.32378947368431","768","428","j","true","nonmatch","img/ellipse.png","梯形","椭圆","ALT1","formal_ALT1_1","","","","","","","","","",""
"null","<span style='color:GreenYellow; font-size: 70px;'>正确! </span>","null","html-keyboard-response","114","379001","0.0-7.0-0.0-4.0-0.0-1.3","4","4","4","4","4","4","4","3","4","4","5","5","5","4","5","5","5","5","5","5","1","1","1","1","2","2","1","1","1","0","1","0","0","0","0","0","1","0","0","0","0","1","0","1","5","1","1","1","1","1","2","1","2","1","590502391271391232","李","498","","","","","","","","","","","","","","","","","","","","","","","","","","","","","","feedback_test","","","","","","","","","",""
"493","","j","psychophysics","115","380497","0.0-7.0-0.0-4.0-0.0-0.4","4","4","4","4","4","4","4","3","4","4","5","5","5","4","5","5","5","5","5","5","1","1","1","1","2","2","1","1","1","0","1","0","0","0","0","0","1","0","0","0","0","1","0","1","5","1","1","1","1","1","2","1","2","1","590502391271391232","李","498","","","","nonmatch","","","","","","","","","","","","","","key","j","8.323841807909645","768","428","j","true","nonmatch","img/ellipse.png","六边","椭圆","ALT1","formal_ALT1_1","","","","","","","","","",""
"null","<span style='color:GreenYellow; font-size: 70px;'>正确! </span>","null","html-keyboard-response","116","381007","0.0-7.0-0.0-4.0-0.0-1.4","4","4","4","4","4","4","4","3","4","4","5","5","5","4","5","5","5","5","5","5","1","1","1","1","2","2","1","1","1","0","1","0","0","0","0","0","1","0","0","0","0","1","0","1","5","1","1","1","1","1","2","1","2","1","590502391271391232","李","498","","","","","","","","","","","","","","","","","","","","","","","","","","","","","","feedback_test","","","","","","","","","",""
"496","","f","psychophysics","117","382521","0.0-7.0-0.0-4.0-0.0-0.5","4","4","4","4","4","4","4","3","4","4","5","5","5","4","5","5","5","5","5","5","1","1","1","1","2","2","1","1","1","0","1","0","0","0","0","0","1","0","0","0","0","1","0","1","5","1","1","1","1","1","2","1","2","1","590502391271391232","李","498","","","","match","","","","","","","","","","","","","","key","f","8.323240223463934","768","428","f","true","match","img/trapezoid.png","梯形","梯形","ALT1","formal_ALT1_1","","","","","","","","","",""
"null","<span style='color:GreenYellow; font-size: 70px;'>正确! </span>","null","html-keyboard-response","118","383080","0.0-7.0-0.0-4.0-0.0-1.5","4","4","4","4","4","4","4","3","4","4","5","5","5","4","5","5","5","5","5","5","1","1","1","1","2","2","1","1","1","0","1","0","0","0","0","0","1","0","0","0","0","1","0","1","5","1","1","1","1","1","2","1","2","1","590502391271391232","李","498","","","","","","","","","","","","","","","","","","","","","","","","","","","","","","feedback_test","","","","","","","","","",""
"590","","f","psychophysics","119","384690","0.0-7.0-0.0-4.0-0.0-0.6","4","4","4","4","4","4","4","3","4","4","5","5","5","4","5","5","5","5","5","5","1","1","1","1","2","2","1","1","1","0","1","0","0","0","0","0","1","0","0","0","0","1","0","1","5","1","1","1","1","1","2","1","2","1","590502391271391232","李","498","","","","match","","","","","","","","","","","","","","key","f","8.332670157067954","768","428","f","true","match","img/hexagon.png","六边","六边","ALT1","formal_ALT1_1","","","","","","","","","",""
"null","<span style='color:GreenYellow; font-size: 70px;'>正确! </span>","null","html-keyboard-response","120","385207","0.0-7.0-0.0-4.0-0.0-1.6","4","4","4","4","4","4","4","3","4","4","5","5","5","4","5","5","5","5","5","5","1","1","1","1","2","2","1","1","1","0","1","0","0","0","0","0","1","0","0","0","0","1","0","1","5","1","1","1","1","1","2","1","2","1","590502391271391232","李","498","","","","","","","","","","","","","","","","","","","","","","","","","","","","","","feedback_test","","","","","","","","","",""
"688","","f","psychophysics","121","386906","0.0-7.0-0.0-4.0-0.0-0.7","4","4","4","4","4","4","4","3","4","4","5","5","5","4","5","5","5","5","5","5","1","1","1","1","2","2","1","1","1","0","1","0","0","0","0","0","1","0","0","0","0","1","0","1","5","1","1","1","1","1","2","1","2","1","590502391271391232","李","498","","","","match","","","","","","","","","","","","","","key","f","8.322970297029658","768","428","f","true","match","img/ellipse.png","椭圆","椭圆","ALT1","formal_ALT1_1","","","","","","","","","",""
"null","<span style='color:GreenYellow; font-size: 70px;'>正确! </span>","null","html-keyboard-response","122","387414","0.0-7.0-0.0-4.0-0.0-1.7","4","4","4","4","4","4","4","3","4","4","5","5","5","4","5","5","5","5","5","5","1","1","1","1","2","2","1","1","1","0","1","0","0","0","0","0","1","0","0","0","0","1","0","1","5","1","1","1","1","1","2","1","2","1","590502391271391232","李","498","","","","","","","","","","","","","","","","","","","","","","","","","","","","","","feedback_test","","","","","","","","","",""
"730","","f","psychophysics","123","389145","0.0-7.0-0.0-4.0-0.0-0.8","4","4","4","4","4","4","4","3","4","4","5","5","5","4","5","5","5","5","5","5","1","1","1","1","2","2","1","1","1","0","1","0","0","0","0","0","1","0","0","0","0","1","0","1","5","1","1","1","1","1","2","1","2","1","590502391271391232","李","498","","","","match","","","","","","","","","","","","","","key","f","8.332292682926807","768","428","f","true","match","img/ellipse.png","椭圆","椭圆","ALT1","formal_ALT1_1","","","","","","","","","",""
"null","<span style='color:GreenYellow; font-size: 70px;'>正确! </span>","null","html-keyboard-response","124","389657","0.0-7.0-0.0-4.0-0.0-1.8","4","4","4","4","4","4","4","3","4","4","5","5","5","4","5","5","5","5","5","5","1","1","1","1","2","2","1","1","1","0","1","0","0","0","0","0","1","0","0","0","0","1","0","1","5","1","1","1","1","1","2","1","2","1","590502391271391232","李","498","","","","","","","","","","","","","","","","","","","","","","","","","","","","","","feedback_test","","","","","","","","","",""
"609","","f","psychophysics","125","391282","0.0-7.0-0.0-4.0-0.0-0.9","4","4","4","4","4","4","4","3","4","4","5","5","5","4","5","5","5","5","5","5","1","1","1","1","2","2","1","1","1","0","1","0","0","0","0","0","1","0","0","0","0","1","0","1","5","1","1","1","1","1","2","1","2","1","590502391271391232","李","498","","","","match","","","","","","","","","","","","","","key","f","8.323108808290083","768","428","f","true","match","img/hexagon.png","六边","六边","ALT1","formal_ALT1_1","","","","","","","","","",""
"null","<span style='color:GreenYellow; font-size: 70px;'>正确! </span>","null","html-keyboard-response","126","391792","0.0-7.0-0.0-4.0-0.0-1.9","4","4","4","4","4","4","4","3","4","4","5","5","5","4","5","5","5","5","5","5","1","1","1","1","2","2","1","1","1","0","1","0","0","0","0","0","1","0","0","0","0","1","0","1","5","1","1","1","1","1","2","1","2","1","590502391271391232","李","498","","","","","","","","","","","","","","","","","","","","","","","","","","","","","","feedback_test","","","","","","","","","",""
"634","","j","psychophysics","127","393443","0.0-7.0-0.0-4.0-0.0-0.10","4","4","4","4","4","4","4","3","4","4","5","5","5","4","5","5","5","5","5","5","1","1","1","1","2","2","1","1","1","0","1","0","0","0","0","0","1","0","0","0","0","1","0","1","5","1","1","1","1","1","2","1","2","1","590502391271391232","李","498","","","","nonmatch","","","","","","","","","","","","","","key","j","8.323775510203891","768","428","j","true","nonmatch","img/trapezoid.png","三角","梯形","ALT1","formal_ALT1_1","","","","","","","","","",""
"null","<span style='color:GreenYellow; font-size: 70px;'>正确! </span>","null","html-keyboard-response","128","394007","0.0-7.0-0.0-4.0-0.0-1.10","4","4","4","4","4","4","4","3","4","4","5","5","5","4","5","5","5","5","5","5","1","1","1","1","2","2","1","1","1","0","1","0","0","0","0","0","1","0","0","0","0","1","0","1","5","1","1","1","1","1","2","1","2","1","590502391271391232","李","498","","","","","","","","","","","","","","","","","","","","","","","","","","","","","","feedback_test","","","","","","","","","",""
"675","","j","psychophysics","129","395682","0.0-7.0-0.0-4.0-0.0-0.11","4","4","4","4","4","4","4","3","4","4","5","5","5","4","5","5","5","5","5","5","1","1","1","1","2","2","1","1","1","0","1","0","0","0","0","0","1","0","0","0","0","1","0","1","5","1","1","1","1","1","2","1","2","1","590502391271391232","李","498","","","","nonmatch","","","","","","","","","","","","","","key","j","8.323819095477399","768","428","j","true","nonmatch","img/hexagon.png","梯形","六边","ALT1","formal_ALT1_1","","","","","","","","","",""
"null","<span style='color:GreenYellow; font-size: 70px;'>正确! </span>","null","html-keyboard-response","130","396217","0.0-7.0-0.0-4.0-0.0-1.11","4","4","4","4","4","4","4","3","4","4","5","5","5","4","5","5","5","5","5","5","1","1","1","1","2","2","1","1","1","0","1","0","0","0","0","0","1","0","0","0","0","1","0","1","5","1","1","1","1","1","2","1","2","1","590502391271391232","李","498","","","","","","","","","","","","","","","","","","","","","","","","","","","","","","feedback_test","","","","","","","","","",""
"616","","j","psychophysics","131","397881","0.0-7.0-0.0-4.0-0.0-0.12","4","4","4","4","4","4","4","3","4","4","5","5","5","4","5","5","5","5","5","5","1","1","1","1","2","2","1","1","1","0","1","0","0","0","0","0","1","0","0","0","0","1","0","1","5","1","1","1","1","1","2","1","2","1","590502391271391232","李","498","","","","nonmatch","","","","","","","","","","","","","","key","j","8.323737373737256","768","428","j","true","nonmatch","img/triangle.png","椭圆","三角","ALT1","formal_ALT1_1","","","","","","","","","",""
"null","<span style='color:GreenYellow; font-size: 70px;'>正确! </span>","null","html-keyboard-response","132","398446","0.0-7.0-0.0-4.0-0.0-1.12","4","4","4","4","4","4","4","3","4","4","5","5","5","4","5","5","5","5","5","5","1","1","1","1","2","2","1","1","1","0","1","0","0","0","0","0","1","0","0","0","0","1","0","1","5","1","1","1","1","1","2","1","2","1","590502391271391232","李","498","","","","","","","","","","","","","","","","","","","","","","","","","","","","","","feedback_test","","","","","","","","","",""
"602","","j","psychophysics","133","400067","0.0-7.0-0.0-4.0-0.0-0.13","4","4","4","4","4","4","4","3","4","4","5","5","5","4","5","5","5","5","5","5","1","1","1","1","2","2","1","1","1","0","1","0","0","0","0","0","1","0","0","0","0","1","0","1","5","1","1","1","1","1","2","1","2","1","590502391271391232","李","498","","","","nonmatch","","","","","","","","","","","","","","key","j","8.32302083333343","768","428","j","true","nonmatch","img/ellipse.png","三角","椭圆","ALT1","formal_ALT1_1","","","","","","","","","",""
"null","<span style='color:GreenYellow; font-size: 70px;'>正确! </span>","null","html-keyboard-response","134","400587","0.0-7.0-0.0-4.0-0.0-1.13","4","4","4","4","4","4","4","3","4","4","5","5","5","4","5","5","5","5","5","5","1","1","1","1","2","2","1","1","1","0","1","0","0","0","0","0","1","0","0","0","0","1","0","1","5","1","1","1","1","1","2","1","2","1","590502391271391232","李","498","","","","","","","","","","","","","","","","","","","","","","","","","","","","","","feedback_test","","","","","","","","","",""
"553","","j","psychophysics","135","402154","0.0-7.0-0.0-4.0-0.0-0.14","4","4","4","4","4","4","4","3","4","4","5","5","5","4","5","5","5","5","5","5","1","1","1","1","2","2","1","1","1","0","1","0","0","0","0","0","1","0","0","0","0","1","0","1","5","1","1","1","1","1","2","1","2","1","590502391271391232","李","498","","","","nonmatch","","","","","","","","","","","","","","key","j","8.323118279569767","768","428","j","true","nonmatch","img/hexagon.png","椭圆","六边","ALT1","formal_ALT1_1","","","","","","","","","",""
"null","<span style='color:GreenYellow; font-size: 70px;'>正确! </span>","null","html-keyboard-response","136","402670","0.0-7.0-0.0-4.0-0.0-1.14","4","4","4","4","4","4","4","3","4","4","5","5","5","4","5","5","5","5","5","5","1","1","1","1","2","2","1","1","1","0","1","0","0","0","0","0","1","0","0","0","0","1","0","1","5","1","1","1","1","1","2","1","2","1","590502391271391232","李","498","","","","","","","","","","","","","","","","","","","","","","","","","","","","","","feedback_test","","","","","","","","","",""
"538","","f","psychophysics","137","404210","0.0-7.0-0.0-4.0-0.0-0.15","4","4","4","4","4","4","4","3","4","4","5","5","5","4","5","5","5","5","5","5","1","1","1","1","2","2","1","1","1","0","1","0","0","0","0","0","1","0","0","0","0","1","0","1","5","1","1","1","1","1","2","1","2","1","590502391271391232","李","498","","","","match","","","","","","","","","","","","","","key","f","8.323186813186531","768","428","f","true","match","img/triangle.png","三角","三角","ALT1","formal_ALT1_1","","","","","","","","","",""
"null","<span style='color:GreenYellow; font-size: 70px;'>正确! </span>","null","html-keyboard-response","138","404724","0.0-7.0-0.0-4.0-0.0-1.15","4","4","4","4","4","4","4","3","4","4","5","5","5","4","5","5","5","5","5","5","1","1","1","1","2","2","1","1","1","0","1","0","0","0","0","0","1","0","0","0","0","1","0","1","5","1","1","1","1","1","2","1","2","1","590502391271391232","李","498","","","","","","","","","","","","","","","","","","","","","","","","","","","","","","feedback_test","","","","","","","","","",""
"540","","f","psychophysics","139","406267","0.0-7.0-0.0-4.0-0.0-0.16","4","4","4","4","4","4","4","3","4","4","5","5","5","4","5","5","5","5","5","5","1","1","1","1","2","2","1","1","1","0","1","0","0","0","0","0","1","0","0","0","0","1","0","1","5","1","1","1","1","1","2","1","2","1","590502391271391232","李","498","","","","match","","","","","","","","","","","","","","key","f","8.323825136611754","768","428","f","true","match","img/triangle.png","三角","三角","ALT1","formal_ALT1_1","","","","","","","","","",""
"null","<span style='color:GreenYellow; font-size: 70px;'>正确! </span>","null","html-keyboard-response","140","406782","0.0-7.0-0.0-4.0-0.0-1.16","4","4","4","4","4","4","4","3","4","4","5","5","5","4","5","5","5","5","5","5","1","1","1","1","2","2","1","1","1","0","1","0","0","0","0","0","1","0","0","0","0","1","0","1","5","1","1","1","1","1","2","1","2","1","590502391271391232","李","498","","","","","","","","","","","","","","","","","","","","","","","","","","","","","","feedback_test","","","","","","","","","",""
"538","","j","psychophysics","141","408321","0.0-7.0-0.0-4.0-0.0-0.17","4","4","4","4","4","4","4","3","4","4","5","5","5","4","5","5","5","5","5","5","1","1","1","1","2","2","1","1","1","0","1","0","0","0","0","0","1","0","0","0","0","1","0","1","5","1","1","1","1","1","2","1","2","1","590502391271391232","李","498","","","","nonmatch","","","","","","","","","","","","","","key","j","8.323846153846167","768","428","j","true","nonmatch","img/triangle.png","六边","三角","ALT1","formal_ALT1_1","","","","","","","","","",""
"null","<span style='color:GreenYellow; font-size: 70px;'>正确! </span>","null","html-keyboard-response","142","408837","0.0-7.0-0.0-4.0-0.0-1.17","4","4","4","4","4","4","4","3","4","4","5","5","5","4","5","5","5","5","5","5","1","1","1","1","2","2","1","1","1","0","1","0","0","0","0","0","1","0","0","0","0","1","0","1","5","1","1","1","1","1","2","1","2","1","590502391271391232","李","498","","","","","","","","","","","","","","","","","","","","","","","","","","","","","","feedback_test","","","","","","","","","",""
"588","","j","psychophysics","143","410427","0.0-7.0-0.0-4.0-0.0-0.18","4","4","4","4","4","4","4","3","4","4","5","5","5","4","5","5","5","5","5","5","1","1","1","1","2","2","1","1","1","0","1","0","0","0","0","0","1","0","0","0","0","1","0","1","5","1","1","1","1","1","2","1","2","1","590502391271391232","李","498","","","","nonmatch","","","","","","","","","","","","","","key","j","8.322978723404416","768","428","j","true","nonmatch","img/trapezoid.png","六边","梯形","ALT1","formal_ALT1_1","","","","","","","","","",""
"null","<span style='color:GreenYellow; font-size: 70px;'>正确! </span>","null","html-keyboard-response","144","410940","0.0-7.0-0.0-4.0-0.0-1.18","4","4","4","4","4","4","4","3","4","4","5","5","5","4","5","5","5","5","5","5","1","1","1","1","2","2","1","1","1","0","1","0","0","0","0","0","1","0","0","0","0","1","0","1","5","1","1","1","1","1","2","1","2","1","590502391271391232","李","498","","","","","","","","","","","","","","","","","","","","","","","","","","","","","","feedback_test","","","","","","","","","",""
"661","","f","psychophysics","145","412611","0.0-7.0-0.0-4.0-0.0-0.19","4","4","4","4","4","4","4","3","4","4","5","5","5","4","5","5","5","5","5","5","1","1","1","1","2","2","1","1","1","0","1","0","0","0","0","0","1","0","0","0","0","1","0","1","5","1","1","1","1","1","2","1","2","1","590502391271391232","李","498","","","","match","","","","","","","","","","","","","","key","f","8.323737373737256","768","428","f","true","match","img/ellipse.png","椭圆","椭圆","ALT1","formal_ALT1_1","","","","","","","","","",""
"null","<span style='color:GreenYellow; font-size: 70px;'>正确! </span>","null","html-keyboard-response","146","413113","0.0-7.0-0.0-4.0-0.0-1.19","4","4","4","4","4","4","4","3","4","4","5","5","5","4","5","5","5","5","5","5","1","1","1","1","2","2","1","1","1","0","1","0","0","0","0","0","1","0","0","0","0","1","0","1","5","1","1","1","1","1","2","1","2","1","590502391271391232","李","498","","","","","","","","","","","","","","","","","","","","","","","","","","","","","","feedback_test","","","","","","","","","",""
"643","","f","psychophysics","147","414761","0.0-7.0-0.0-4.0-0.0-0.20","4","4","4","4","4","4","4","3","4","4","5","5","5","4","5","5","5","5","5","5","1","1","1","1","2","2","1","1","1","0","1","0","0","0","0","0","1","0","0","0","0","1","0","1","5","1","1","1","1","1","2","1","2","1","590502391271391232","李","498","","","","match","","","","","","","","","","","","","","key","f","8.323794871794943","768","428","f","true","match","img/trapezoid.png","梯形","梯形","ALT1","formal_ALT1_1","","","","","","","","","",""
"null","<span style='color:GreenYellow; font-size: 70px;'>正确! </span>","null","html-keyboard-response","148","415270","0.0-7.0-0.0-4.0-0.0-1.20","4","4","4","4","4","4","4","3","4","4","5","5","5","4","5","5","5","5","5","5","1","1","1","1","2","2","1","1","1","0","1","0","0","0","0","0","1","0","0","0","0","1","0","1","5","1","1","1","1","1","2","1","2","1","590502391271391232","李","498","","","","","","","","","","","","","","","","","","","","","","","","","","","","","","feedback_test","","","","","","","","","",""
"602","","f","psychophysics","149","416873","0.0-7.0-0.0-4.0-0.0-0.21","4","4","4","4","4","4","4","3","4","4","5","5","5","4","5","5","5","5","5","5","1","1","1","1","2","2","1","1","1","0","1","0","0","0","0","0","1","0","0","0","0","1","0","1","5","1","1","1","1","1","2","1","2","1","590502391271391232","李","498","","","","match","","","","","","","","","","","","","","key","f","8.32378947368431","768","428","f","true","match","img/trapezoid.png","梯形","梯形","ALT1","formal_ALT1_1","","","","","","","","","",""
"null","<span style='color:GreenYellow; font-size: 70px;'>正确! </span>","null","html-keyboard-response","150","417388","0.0-7.0-0.0-4.0-0.0-1.21","4","4","4","4","4","4","4","3","4","4","5","5","5","4","5","5","5","5","5","5","1","1","1","1","2","2","1","1","1","0","1","0","0","0","0","0","1","0","0","0","0","1","0","1","5","1","1","1","1","1","2","1","2","1","590502391271391232","李","498","","","","","","","","","","","","","","","","","","","","","","","","","","","","","","feedback_test","","","","","","","","","",""
"566","","f","psychophysics","151","418971","0.0-7.0-0.0-4.0-0.0-0.22","4","4","4","4","4","4","4","3","4","4","5","5","5","4","5","5","5","5","5","5","1","1","1","1","2","2","1","1","1","0","1","0","0","0","0","0","1","0","0","0","0","1","0","1","5","1","1","1","1","1","2","1","2","1","590502391271391232","李","498","","","","match","","","","","","","","","","","","","","key","f","8.32308510638293","768","428","f","true","match","img/hexagon.png","六边","六边","ALT1","formal_ALT1_1","","","","","","","","","",""
"null","<span style='color:GreenYellow; font-size: 70px;'>正确! </span>","null","html-keyboard-response","152","419488","0.0-7.0-0.0-4.0-0.0-1.22","4","4","4","4","4","4","4","3","4","4","5","5","5","4","5","5","5","5","5","5","1","1","1","1","2","2","1","1","1","0","1","0","0","0","0","0","1","0","0","0","0","1","0","1","5","1","1","1","1","1","2","1","2","1","590502391271391232","李","498","","","","","","","","","","","","","","","","","","","","","","","","","","","","","","feedback_test","","","","","","","","","",""
"539","","j","psychophysics","153","421033","0.0-7.0-0.0-4.0-0.0-0.23","4","4","4","4","4","4","4","3","4","4","5","5","5","4","5","5","5","5","5","5","1","1","1","1","2","2","1","1","1","0","1","0","0","0","0","0","1","0","0","0","0","1","0","1","5","1","1","1","1","1","2","1","2","1","590502391271391232","李","498","","","","nonmatch","","","","","","","","","","","","","","key","j","8.323825136612072","768","428","j","true","nonmatch","img/trapezoid.png","椭圆","梯形","ALT1","formal_ALT1_1","","","","","","","","","",""
"null","<span style='color:GreenYellow; font-size: 70px;'>正确! </span>","null","html-keyboard-response","154","421545","0.0-7.0-0.0-4.0-0.0-1.23","4","4","4","4","4","4","4","3","4","4","5","5","5","4","5","5","5","5","5","5","1","1","1","1","2","2","1","1","1","0","1","0","0","0","0","0","1","0","0","0","0","1","0","1","5","1","1","1","1","1","2","1","2","1","590502391271391232","李","498","","","","","","","","","","","","","","","","","","","","","","","","","","","","","","feedback_test","","","","","","","","","",""
"682","","j","psychophysics","155","423234","0.0-7.0-0.0-4.0-0.0-0.24","4","4","4","4","4","4","4","3","4","4","5","5","5","4","5","5","5","5","5","5","1","1","1","1","2","2","1","1","1","0","1","0","0","0","0","0","1","0","0","0","0","1","0","1","5","1","1","1","1","1","2","1","2","1","590502391271391232","李","498","","","","nonmatch","","","","","","","","","","","","","","key","j","8.323600000000152","768","428","j","true","nonmatch","img/triangle.png","椭圆","三角","ALT1","formal_ALT1_1","","","","","","","","","",""
"null","<span style='color:GreenYellow; font-size: 70px;'>正确! </span>","null","html-keyboard-response","156","423768","0.0-7.0-0.0-4.0-0.0-1.24","4","4","4","4","4","4","4","3","4","4","5","5","5","4","5","5","5","5","5","5","1","1","1","1","2","2","1","1","1","0","1","0","0","0","0","0","1","0","0","0","0","1","0","1","5","1","1","1","1","1","2","1","2","1","590502391271391232","李","498","","","","","","","","","","","","","","","","","","","","","","","","","","","","","","feedback_test","","","","","","","","","",""
"612","","f","psychophysics","157","425394","0.0-7.0-0.0-4.0-0.0-0.25","4","4","4","4","4","4","4","3","4","4","5","5","5","4","5","5","5","5","5","5","1","1","1","1","2","2","1","1","1","0","1","0","0","0","0","0","1","0","0","0","0","1","0","1","5","1","1","1","1","1","2","1","2","1","590502391271391232","李","498","","","","match","","","","","","","","","","","","","","key","f","8.323854166666933","768","428","f","true","match","img/trapezoid.png","梯形","梯形","ALT1","formal_ALT1_1","","","","","","","","","",""
"null","<span style='color:GreenYellow; font-size: 70px;'>正确! </span>","null","html-keyboard-response","158","425904","0.0-7.0-0.0-4.0-0.0-1.25","4","4","4","4","4","4","4","3","4","4","5","5","5","4","5","5","5","5","5","5","1","1","1","1","2","2","1","1","1","0","1","0","0","0","0","0","1","0","0","0","0","1","0","1","5","1","1","1","1","1","2","1","2","1","590502391271391232","李","498","","","","","","","","","","","","","","","","","","","","","","","","","","","","","","feedback_test","","","","","","","","","",""
"579","","j","psychophysics","159","427498","0.0-7.0-0.0-4.0-0.0-0.26","4","4","4","4","4","4","4","3","4","4","5","5","5","4","5","5","5","5","5","5","1","1","1","1","2","2","1","1","1","0","1","0","0","0","0","0","1","0","0","0","0","1","0","1","5","1","1","1","1","1","2","1","2","1","590502391271391232","李","498","","","","nonmatch","","","","","","","","","","","","","","key","j","8.323473684210331","768","428","j","true","nonmatch","img/trapezoid.png","椭圆","梯形","ALT1","formal_ALT1_1","","","","","","","","","",""
"null","<span style='color:GreenYellow; font-size: 70px;'>正确! </span>","null","html-keyboard-response","160","428052","0.0-7.0-0.0-4.0-0.0-1.26","4","4","4","4","4","4","4","3","4","4","5","5","5","4","5","5","5","5","5","5","1","1","1","1","2","2","1","1","1","0","1","0","0","0","0","0","1","0","0","0","0","1","0","1","5","1","1","1","1","1","2","1","2","1","590502391271391232","李","498","","","","","","","","","","","","","","","","","","","","","","","","","","","","","","feedback_test","","","","","","","","","",""
"626","","f","psychophysics","161","429698","0.0-7.0-0.0-4.0-0.0-0.27","4","4","4","4","4","4","4","3","4","4","5","5","5","4","5","5","5","5","5","5","1","1","1","1","2","2","1","1","1","0","1","0","0","0","0","0","1","0","0","0","0","1","0","1","5","1","1","1","1","1","2","1","2","1","590502391271391232","李","498","","","","match","","","","","","","","","","","","","","key","f","8.323487179487262","768","428","f","true","match","img/triangle.png","三角","三角","ALT1","formal_ALT1_1","","","","","","","","","",""
"null","<span style='color:GreenYellow; font-size: 70px;'>正确! </span>","null","html-keyboard-response","162","430204","0.0-7.0-0.0-4.0-0.0-1.27","4","4","4","4","4","4","4","3","4","4","5","5","5","4","5","5","5","5","5","5","1","1","1","1","2","2","1","1","1","0","1","0","0","0","0","0","1","0","0","0","0","1","0","1","5","1","1","1","1","1","2","1","2","1","590502391271391232","李","498","","","","","","","","","","","","","","","","","","","","","","","","","","","","","","feedback_test","","","","","","","","","",""
"491","","f","psychophysics","163","431698","0.0-7.0-0.0-4.0-0.0-0.28","4","4","4","4","4","4","4","3","4","4","5","5","5","4","5","5","5","5","5","5","1","1","1","1","2","2","1","1","1","0","1","0","0","0","0","0","1","0","0","0","0","1","0","1","5","1","1","1","1","1","2","1","2","1","590502391271391232","李","498","","","","match","","","","","","","","","","","","","","key","f","8.358876404494408","768","428","f","true","match","img/ellipse.png","椭圆","椭圆","ALT1","formal_ALT1_1","","","","","","","","","",""
"null","<span style='color:GreenYellow; font-size: 70px;'>正确! </span>","null","html-keyboard-response","164","432214","0.0-7.0-0.0-4.0-0.0-1.28","4","4","4","4","4","4","4","3","4","4","5","5","5","4","5","5","5","5","5","5","1","1","1","1","2","2","1","1","1","0","1","0","0","0","0","0","1","0","0","0","0","1","0","1","5","1","1","1","1","1","2","1","2","1","590502391271391232","李","498","","","","","","","","","","","","","","","","","","","","","","","","","","","","","","feedback_test","","","","","","","","","",""
"553","","f","psychophysics","165","433770","0.0-7.0-0.0-4.0-0.0-0.29","4","4","4","4","4","4","4","3","4","4","5","5","5","4","5","5","5","5","5","5","1","1","1","1","2","2","1","1","1","0","1","0","0","0","0","0","1","0","0","0","0","1","0","1","5","1","1","1","1","1","2","1","2","1","590502391271391232","李","498","","","","match","","","","","","","","","","","","","","key","f","8.3236956521739","768","428","f","true","match","img/trapezoid.png","梯形","梯形","ALT1","formal_ALT1_1","","","","","","","","","",""
"null","<span style='color:GreenYellow; font-size: 70px;'>正确! </span>","null","html-keyboard-response","166","434285","0.0-7.0-0.0-4.0-0.0-1.29","4","4","4","4","4","4","4","3","4","4","5","5","5","4","5","5","5","5","5","5","1","1","1","1","2","2","1","1","1","0","1","0","0","0","0","0","1","0","0","0","0","1","0","1","5","1","1","1","1","1","2","1","2","1","590502391271391232","李","498","","","","","","","","","","","","","","","","","","","","","","","","","","","","","","feedback_test","","","","","","","","","",""
"526","","j","psychophysics","167","435826","0.0-7.0-0.0-4.0-0.0-0.30","4","4","4","4","4","4","4","3","4","4","5","5","5","4","5","5","5","5","5","5","1","1","1","1","2","2","1","1","1","0","1","0","0","0","0","0","1","0","0","0","0","1","0","1","5","1","1","1","1","1","2","1","2","1","590502391271391232","李","498","","","","nonmatch","","","","","","","","","","","","","","key","j","8.323846153846167","768","428","j","true","nonmatch","img/hexagon.png","椭圆","六边","ALT1","formal_ALT1_1","","","","","","","","","",""
"null","<span style='color:GreenYellow; font-size: 70px;'>正确! </span>","null","html-keyboard-response","168","436340","0.0-7.0-0.0-4.0-0.0-1.30","4","4","4","4","4","4","4","3","4","4","5","5","5","4","5","5","5","5","5","5","1","1","1","1","2","2","1","1","1","0","1","0","0","0","0","0","1","0","0","0","0","1","0","1","5","1","1","1","1","1","2","1","2","1","590502391271391232","李","498","","","","","","","","","","","","","","","","","","","","","","","","","","","","","","feedback_test","","","","","","","","","",""
"685","","j","psychophysics","169","438026","0.0-7.0-0.0-4.0-0.0-0.31","4","4","4","4","4","4","4","3","4","4","5","5","5","4","5","5","5","5","5","5","1","1","1","1","2","2","1","1","1","0","1","0","0","0","0","0","1","0","0","0","0","1","0","1","5","1","1","1","1","1","2","1","2","1","590502391271391232","李","498","","","","nonmatch","","","","","","","","","","","","","","key","j","8.323800000000046","768","428","j","true","nonmatch","img/trapezoid.png","六边","梯形","ALT1","formal_ALT1_1","","","","","","","","","",""
"null","<span style='color:GreenYellow; font-size: 70px;'>正确! </span>","null","html-keyboard-response","170","438540","0.0-7.0-0.0-4.0-0.0-1.31","4","4","4","4","4","4","4","3","4","4","5","5","5","4","5","5","5","5","5","5","1","1","1","1","2","2","1","1","1","0","1","0","0","0","0","0","1","0","0","0","0","1","0","1","5","1","1","1","1","1","2","1","2","1","590502391271391232","李","498","","","","","","","","","","","","","","","","","","","","","","","","","","","","","","feedback_test","","","","","","","","","",""
"543","","f","psychophysics","171","440089","0.0-7.0-0.0-4.0-0.0-0.32","4","4","4","4","4","4","4","3","4","4","5","5","5","4","5","5","5","5","5","5","1","1","1","1","2","2","1","1","1","0","1","0","0","0","0","0","1","0","0","0","0","1","0","1","5","1","1","1","1","1","2","1","2","1","590502391271391232","李","498","","","","match","","","","","","","","","","","","","","key","f","8.357391304347876","768","428","f","true","match","img/ellipse.png","椭圆","椭圆","ALT1","formal_ALT1_1","","","","","","","","","",""
"null","<span style='color:GreenYellow; font-size: 70px;'>正确! </span>","null","html-keyboard-response","172","440602","0.0-7.0-0.0-4.0-0.0-1.32","4","4","4","4","4","4","4","3","4","4","5","5","5","4","5","5","5","5","5","5","1","1","1","1","2","2","1","1","1","0","1","0","0","0","0","0","1","0","0","0","0","1","0","1","5","1","1","1","1","1","2","1","2","1","590502391271391232","李","498","","","","","","","","","","","","","","","","","","","","","","","","","","","","","","feedback_test","","","","","","","","","",""
"526","","j","psychophysics","173","442130","0.0-7.0-0.0-4.0-0.0-0.33","4","4","4","4","4","4","4","3","4","4","5","5","5","4","5","5","5","5","5","5","1","1","1","1","2","2","1","1","1","0","1","0","0","0","0","0","1","0","0","0","0","1","0","1","5","1","1","1","1","1","2","1","2","1","590502391271391232","李","498","","","","nonmatch","","","","","","","","","","","","","","key","j","8.323646408839869","768","428","j","true","nonmatch","img/triangle.png","六边","三角","ALT1","formal_ALT1_1","","","","","","","","","",""
"null","<span style='color:GreenYellow; font-size: 70px;'>正确! </span>","null","html-keyboard-response","174","442642","0.0-7.0-0.0-4.0-0.0-1.33","4","4","4","4","4","4","4","3","4","4","5","5","5","4","5","5","5","5","5","5","1","1","1","1","2","2","1","1","1","0","1","0","0","0","0","0","1","0","0","0","0","1","0","1","5","1","1","1","1","1","2","1","2","1","590502391271391232","李","498","","","","","","","","","","","","","","","","","","","","","","","","","","","","","","feedback_test","","","","","","","","","",""
"564","","f","psychophysics","175","444209","0.0-7.0-0.0-4.0-0.0-0.34","4","4","4","4","4","4","4","3","4","4","5","5","5","4","5","5","5","5","5","5","1","1","1","1","2","2","1","1","1","0","1","0","0","0","0","0","1","0","0","0","0","1","0","1","5","1","1","1","1","1","2","1","2","1","590502391271391232","李","498","","","","match","","","","","","","","","","","","","","key","f","8.323870967741886","768","428","f","true","match","img/hexagon.png","六边","六边","ALT1","formal_ALT1_1","","","","","","","","","",""
"null","<span style='color:GreenYellow; font-size: 70px;'>正确! </span>","null","html-keyboard-response","176","444716","0.0-7.0-0.0-4.0-0.0-1.34","4","4","4","4","4","4","4","3","4","4","5","5","5","4","5","5","5","5","5","5","1","1","1","1","2","2","1","1","1","0","1","0","0","0","0","0","1","0","0","0","0","1","0","1","5","1","1","1","1","1","2","1","2","1","590502391271391232","李","498","","","","","","","","","","","","","","","","","","","","","","","","","","","","","","feedback_test","","","","","","","","","",""
"569","","f","psychophysics","177","446289","0.0-7.0-0.0-4.0-0.0-0.35","4","4","4","4","4","4","4","3","4","4","5","5","5","4","5","5","5","5","5","5","1","1","1","1","2","2","1","1","1","0","1","0","0","0","0","0","1","0","0","0","0","1","0","1","5","1","1","1","1","1","2","1","2","1","590502391271391232","李","498","","","","match","","","","","","","","","","","","","","key","f","8.323763440860377","768","428","f","true","match","img/ellipse.png","椭圆","椭圆","ALT1","formal_ALT1_1","","","","","","","","","",""
"null","<span style='color:GreenYellow; font-size: 70px;'>正确! </span>","null","html-keyboard-response","178","446791","0.0-7.0-0.0-4.0-0.0-1.35","4","4","4","4","4","4","4","3","4","4","5","5","5","4","5","5","5","5","5","5","1","1","1","1","2","2","1","1","1","0","1","0","0","0","0","0","1","0","0","0","0","1","0","1","5","1","1","1","1","1","2","1","2","1","590502391271391232","李","498","","","","","","","","","","","","","","","","","","","","","","","","","","","","","","feedback_test","","","","","","","","","",""
"506","","j","psychophysics","179","448313","0.0-7.0-0.0-4.0-0.0-0.36","4","4","4","4","4","4","4","3","4","4","5","5","5","4","5","5","5","5","5","5","1","1","1","1","2","2","1","1","1","0","1","0","0","0","0","0","1","0","0","0","0","1","0","1","5","1","1","1","1","1","2","1","2","1","590502391271391232","李","498","","","","nonmatch","","","","","","","","","","","","","","key","j","8.338777777777674","768","428","j","true","nonmatch","img/ellipse.png","三角","椭圆","ALT1","formal_ALT1_1","","","","","","","","","",""
"null","<span style='color:GreenYellow; font-size: 70px;'>正确! </span>","null","html-keyboard-response","180","448828","0.0-7.0-0.0-4.0-0.0-1.36","4","4","4","4","4","4","4","3","4","4","5","5","5","4","5","5","5","5","5","5","1","1","1","1","2","2","1","1","1","0","1","0","0","0","0","0","1","0","0","0","0","1","0","1","5","1","1","1","1","1","2","1","2","1","590502391271391232","李","498","","","","","","","","","","","","","","","","","","","","","","","","","","","","","","feedback_test","","","","","","","","","",""
"885","","j","psychophysics","181","450714","0.0-7.0-0.0-4.0-0.0-0.37","4","4","4","4","4","4","4","3","4","4","5","5","5","4","5","5","5","5","5","5","1","1","1","1","2","2","1","1","1","0","1","0","0","0","0","0","1","0","0","0","0","1","0","1","5","1","1","1","1","1","2","1","2","1","590502391271391232","李","498","","","","nonmatch","","","","","","","","","","","","","","key","j","8.341607142857226","768","428","j","true","nonmatch","img/hexagon.png","梯形","六边","ALT1","formal_ALT1_1","","","","","","","","","",""
"null","<span style='color:GreenYellow; font-size: 70px;'>正确! </span>","null","html-keyboard-response","182","451215","0.0-7.0-0.0-4.0-0.0-1.37","4","4","4","4","4","4","4","3","4","4","5","5","5","4","5","5","5","5","5","5","1","1","1","1","2","2","1","1","1","0","1","0","0","0","0","0","1","0","0","0","0","1","0","1","5","1","1","1","1","1","2","1","2","1","590502391271391232","李","498","","","","","","","","","","","","","","","","","","","","","","","","","","","","","","feedback_test","","","","","","","","","",""
"825","","j","psychophysics","183","453041","0.0-7.0-0.0-4.0-0.0-0.38","4","4","4","4","4","4","4","3","4","4","5","5","5","4","5","5","5","5","5","5","1","1","1","1","2","2","1","1","1","0","1","0","0","0","0","0","1","0","0","0","0","1","0","1","5","1","1","1","1","1","2","1","2","1","590502391271391232","李","498","","","","nonmatch","","","","","","","","","","","","","","key","j","8.332073732718884","768","428","j","true","nonmatch","img/triangle.png","梯形","三角","ALT1","formal_ALT1_1","","","","","","","","","",""
"null","<span style='color:GreenYellow; font-size: 70px;'>正确! </span>","null","html-keyboard-response","184","453544","0.0-7.0-0.0-4.0-0.0-1.38","4","4","4","4","4","4","4","3","4","4","5","5","5","4","5","5","5","5","5","5","1","1","1","1","2","2","1","1","1","0","1","0","0","0","0","0","1","0","0","0","0","1","0","1","5","1","1","1","1","1","2","1","2","1","590502391271391232","李","498","","","","","","","","","","","","","","","","","","","","","","","","","","","","","","feedback_test","","","","","","","","","",""
"711","","f","psychophysics","185","455257","0.0-7.0-0.0-4.0-0.0-0.39","4","4","4","4","4","4","4","3","4","4","5","5","5","4","5","5","5","5","5","5","1","1","1","1","2","2","1","1","1","0","1","0","0","0","0","0","1","0","0","0","0","1","0","1","5","1","1","1","1","1","2","1","2","1","590502391271391232","李","498","","","","match","","","","","","","","","","","","","","key","f","8.322955665024619","768","428","f","true","match","img/triangle.png","三角","三角","ALT1","formal_ALT1_1","","","","","","","","","",""
"null","<span style='color:GreenYellow; font-size: 70px;'>正确! </span>","null","html-keyboard-response","186","455757","0.0-7.0-0.0-4.0-0.0-1.39","4","4","4","4","4","4","4","3","4","4","5","5","5","4","5","5","5","5","5","5","1","1","1","1","2","2","1","1","1","0","1","0","0","0","0","0","1","0","0","0","0","1","0","1","5","1","1","1","1","1","2","1","2","1","590502391271391232","李","498","","","","","","","","","","","","","","","","","","","","","","","","","","","","","","feedback_test","","","","","","","","","",""
