"rt","stimulus","response","trial_type","trial_index","time_elapsed","internal_node_id","ses_1","ses_2","ses_3","ses_4","ses_5","ses_6","ses_7","ses_8","ses_9","ses_10","coreself_1","coreself_2","coreself_3","coreself_4","coreself_5","coreself_6","coreself_7","coreself_8","coreself_9","coreself_10","SGPS_1","SGPS_2","SGPS_3","SGPS_4","SGPS_5","SGPS_6","SGPS_7","SGPS_8","SGPS_9","NPI1","NPI2","NPI3","NPI4","NPI5","NPI6","NPI7","NPI8","NPI9","NPI10","NPI11","NPI12","NPI13","NPI14","NPI15","hsns_1","hsns_2","hsns_3","hsns_4","hsns_5","hsns_6","hsns_7","hsns_8","hsns_9","hsns_10","subj_idx","friend_name","ParticipantID","value","success","user_agent","responses","item_order","radio_event_ids","radio_event_times","key_event_times","mouse_event_times","straightlining","zigzagging","honeypot","timeout","failed_images","failed_audio","failed_video","version_attrib2","version_target2","correct","IAT","screen_id","task_id","RT","condition","word","varname","summary","version_attrib","version_target","time_stamp","view_history","response_type","key_press","avg_frame_time","center_x","center_y","correct_response","identity","Image","question_order"
"9222","
   <p><div style = ""color: white;font-size:25px;"">您好，欢迎参加本次实验。</div> </p>
   <p><div style = ""color: white;font-size:25px;"">为充分保障您的权利，请确保您已经知晓并同意《参与实验同意书》以及《数据公开知情同意书》。</div></p>
   <p><div style = ""color: white;font-size:25px;"">如果您未见过上述内容，请咨询实验员。</div></p>
   <p><div style = ""color: white;font-size:25px;"">如果您选择继续实验，则表示您已经清楚两份知情同意书的内容并同意。</div></p>
   <p><div style = ""color: red;font-size:30px;"">请确保您记得day0的实验编号，您将在本次实验输入该编号，若您忘记，请咨询实验员后作答。</div></p>
   <p> <div style = ""color: green;font-size:25px;""><按空格键至下页></div> </p>
   "," ","html-keyboard-response","0","9226","0.0-0.0","3","3","3","4","3","4","3","3","3","3","3","4","3","4","4","4","5","3","4","4","2","2","2","2","2","2","1","2","1","1","1","0","0","1","1","0","0","0","0","0","0","1","0","0","5","2","4","1","3","5","4","4","3","2","637378161314627584","杨","453","","","","","","","","","","","","","","","","","","","","","","","","","","","","","","","","","","","","","","","",""
"","","","call-function","1","9227","0.0-1.0-0.0","3","3","3","4","3","4","3","3","3","3","3","4","3","4","4","4","5","3","4","4","2","2","2","2","2","2","1","2","1","1","1","0","0","1","1","0","0","0","0","0","0","1","0","0","5","2","4","1","3","5","4","4","3","2","637378161314627584","杨","453","","","","","","","","","","","","","","","","","","","","","","","","","","","","","","","","","","","","","","","",""
"25409","","{""friend_name"":""杨"",""ParticipantID"":""453""}","survey-html-form","2","34640","0.0-1.0-1.0","3","3","3","4","3","4","3","3","3","3","3","4","3","4","4","4","5","3","4","4","2","2","2","2","2","2","1","2","1","1","1","0","0","1","1","0","0","0","0","0","0","1","0","0","5","2","4","1","3","5","4","4","3","2","637378161314627584","杨","453","","","","","","","","","","","","","","","","","","","","","","","","","","","","","","","","","","","","","","","",""
"","","","fullscreen","3","39357","0.0-2.0","3","3","3","4","3","4","3","3","3","3","3","4","3","4","4","4","5","3","4","4","2","2","2","2","2","2","1","2","1","1","1","0","0","1","1","0","0","0","0","0","0","1","0","0","5","2","4","1","3","5","4","4","3","2","637378161314627584","杨","453","","true","","","","","","","","","","","","","","","","","","","","","","","","","","","","","","","","","","","","","",""
"46870","","{""Q01"":""3"",""Q02"":""3"",""Q03"":""3"",""Q04"":""4"",""Q05"":""3"",""Q06"":""4"",""Q07"":""3"",""Q08"":""3"",""Q09"":""3"",""Q10"":""3""}","survey-template","4","86240","0.0-3.0","3","3","3","4","3","4","3","3","3","3","3","4","3","4","4","4","5","3","4","4","2","2","2","2","2","2","1","2","1","1","1","0","0","1","1","0","0","0","0","0","0","1","0","0","5","2","4","1","3","5","4","4","3","2","637378161314627584","杨","453","","","","{""Q01"":""3"",""Q02"":""3"",""Q03"":""3"",""Q04"":""4"",""Q05"":""3"",""Q06"":""4"",""Q07"":""3"",""Q08"":""3"",""Q09"":""3"",""Q10"":""3""}","[0,1,2,3,4,5,6,7,8,9]","[""Q01"",""Q02"",""Q03"",""Q04"",""Q05"",""Q06"",""Q07"",""Q08"",""Q09"",""Q10""]","[7719,10337,12501,14568,18745,20171,21774,24711,27188,30201]","[]","[7719,10337,12501,14568,18745,20171,21774,24088,24711,27188,30201,46870]","0.5","0.3333333333333333","0","","","","","","","","","","","","","","","","","","","","","","","","","","","",""
"46503","","{""Q01"":""3"",""Q02"":""4"",""Q03"":""3"",""Q04"":""4"",""Q05"":""4"",""Q06"":""4"",""Q07"":""5"",""Q08"":""3"",""Q09"":""4"",""Q10"":""4""}","survey-template","5","132747","0.0-4.0","3","3","3","4","3","4","3","3","3","3","3","4","3","4","4","4","5","3","4","4","2","2","2","2","2","2","1","2","1","1","1","0","0","1","1","0","0","0","0","0","0","1","0","0","5","2","4","1","3","5","4","4","3","2","637378161314627584","杨","453","","","","{""Q01"":""3"",""Q02"":""4"",""Q03"":""3"",""Q04"":""4"",""Q05"":""4"",""Q06"":""4"",""Q07"":""5"",""Q08"":""3"",""Q09"":""4"",""Q10"":""4""}","[0,1,2,3,4,5,6,7,8,9]","[""Q01"",""Q02"",""Q04"",""Q05"",""Q06"",""Q07"",""Q08"",""Q09"",""Q10"",""Q03""]","[3952,9090,13673,15827,18838,21642,25835,28541,35028,38541]","[]","[3952,9090,13673,15827,18838,21642,24175,25835,28541,35028,38541,39691,46503]","0.3","0.4444444444444444","0","","","","","","","","","","","","","","","","","","","","","","","","","","","",""
"","","","preload","6","133027","0.0-5.0","3","3","3","4","3","4","3","3","3","3","3","4","3","4","4","4","5","3","4","4","2","2","2","2","2","2","1","2","1","1","1","0","0","1","1","0","0","0","0","0","0","1","0","0","5","2","4","1","3","5","4","4","3","2","637378161314627584","杨","453","","true","","","","","","","","","","","false","[]","[]","[]","","","","","","","","","","","","","","","","","","","","","","","",""
"12973","
    <h3>词语分类任务</h3>
    <p>在接下来的任务中，你需要对一系列词语进行分类。<p/>
    请先熟悉这些词语，这有利于你完成接下来的任务。</p>
    <table align=""center"" border=1 cellpadding=3 cellspacing=0>
    <tr> <th>类别</th> <th>词语</th> </tr>
    <tr> <td>&emsp;积极&emsp;</td> <td>&emsp;高尚、诚信、善良、君子、廉正、正直&emsp;</td> </tr>
    <tr> <td>&emsp;消极&emsp;</td> <td>&emsp;缺德、卑鄙、不孝、不仁、小人、黑心&emsp;</td> </tr>
    <tr> <td>&emsp;自我&emsp;</td> <td>&emsp;我、我的、自己、自己的、本人、本人的&emsp;</td> </tr>
    <tr> <td>&emsp;他人&emsp;</td> <td>&emsp;他、他的、别人、别人的、他人、他人的&emsp;</td> </tr>
    </table><br/>","0","html-button-response","7","145999","0.0-6.0-1.0-0.0","3","3","3","4","3","4","3","3","3","3","3","4","3","4","4","4","5","3","4","4","2","2","2","2","2","2","1","2","1","1","1","0","0","1","1","0","0","0","0","0","0","1","0","0","5","2","4","1","3","5","4","4","3","2","637378161314627584","杨","453","","","","","","","","","","","","","","","","","2","2","","","","","","","","","","","","","","","","","","","","","",""
"23861","
    <div class=""tag-bottom""><p>
    —— 任务1：对“他人”词和“自我”词分类 ——<p/>
    不同词语会出现在屏幕中央，类别标签将始终显示在屏幕上方<p/>   
    <span style=""color:#FFD866""><b>请根据上方标签的提示，尽可能正确并且快速地做出按键反应</b></span><p/>
    当按键错误时屏幕中会出现<span style=""color:red""> X </span>，需要按另一个键纠正才能继续<br/><p/>
    请把双手食指分别放在键盘的“E”键和“I”键上<p/>
    按<空格键>开始
    </p></div>"," ","html-keyboard-response","8","169862","0.0-6.0-1.0-1.0","3","3","3","4","3","4","3","3","3","3","3","4","3","4","4","4","5","3","4","4","2","2","2","2","2","2","1","2","1","1","1","0","0","1","1","0","0","0","0","0","0","1","0","0","5","2","4","1","3","5","4","4","3","2","637378161314627584","杨","453","","","","","","","","","","","","","","","","","","","","","","","","","","","","","","","","","","","","","","","",""
"null","","null","html-keyboard-response","9","170134","0.0-6.0-1.0-2.0-0.0","3","3","3","4","3","4","3","3","3","3","3","4","3","4","4","4","5","3","4","4","2","2","2","2","2","2","1","2","1","1","1","0","0","1","1","0","0","0","0","0","0","1","0","0","5","2","4","1","3","5","4","4","3","2","637378161314627584","杨","453","","","","","","","","","","","","","","","","","","","","","","","","","","","","","","","","","","","","","","","",""
"722","<p style=""color:rgb(150, 250, 100); font-size: 35px;"">自己的</p>","i","categorize-html","10","170859","0.0-6.0-1.0-2.0-1.0","3","3","3","4","3","4","3","3","3","3","3","4","3","4","4","4","5","3","4","4","2","2","2","2","2","2","1","2","1","1","1","0","0","1","1","0","0","0","0","0","0","1","0","0","5","2","4","1","3","5","4","4","3","2","637378161314627584","杨","453","","","","","","","","","","","","","","","","","","","true","11","1","moral","722","self","自己的","","","","","","","","","","","","","","",""
"null","","null","html-keyboard-response","11","171140","0.0-6.0-1.0-2.0-0.1","3","3","3","4","3","4","3","3","3","3","3","4","3","4","4","4","5","3","4","4","2","2","2","2","2","2","1","2","1","1","1","0","0","1","1","0","0","0","0","0","0","1","0","0","5","2","4","1","3","5","4","4","3","2","637378161314627584","杨","453","","","","","","","","","","","","","","","","","","","","","","","","","","","","","","","","","","","","","","","",""
"825","<p style=""color:rgb(150, 250, 100); font-size: 35px;"">他人的</p>","e","categorize-html","12","171966","0.0-6.0-1.0-2.0-1.1","3","3","3","4","3","4","3","3","3","3","3","4","3","4","4","4","5","3","4","4","2","2","2","2","2","2","1","2","1","1","1","0","0","1","1","0","0","0","0","0","0","1","0","0","5","2","4","1","3","5","4","4","3","2","637378161314627584","杨","453","","","","","","","","","","","","","","","","","","","true","11","1","moral","825","other","他人的","","","","","","","","","","","","","","",""
"null","","null","html-keyboard-response","13","172225","0.0-6.0-1.0-2.0-0.2","3","3","3","4","3","4","3","3","3","3","3","4","3","4","4","4","5","3","4","4","2","2","2","2","2","2","1","2","1","1","1","0","0","1","1","0","0","0","0","0","0","1","0","0","5","2","4","1","3","5","4","4","3","2","637378161314627584","杨","453","","","","","","","","","","","","","","","","","","","","","","","","","","","","","","","","","","","","","","","",""
"785","<p style=""color:rgb(150, 250, 100); font-size: 35px;"">他</p>","e","categorize-html","14","173012","0.0-6.0-1.0-2.0-1.2","3","3","3","4","3","4","3","3","3","3","3","4","3","4","4","4","5","3","4","4","2","2","2","2","2","2","1","2","1","1","1","0","0","1","1","0","0","0","0","0","0","1","0","0","5","2","4","1","3","5","4","4","3","2","637378161314627584","杨","453","","","","","","","","","","","","","","","","","","","true","11","1","moral","785","other","他","","","","","","","","","","","","","","",""
"null","","null","html-keyboard-response","15","173271","0.0-6.0-1.0-2.0-0.3","3","3","3","4","3","4","3","3","3","3","3","4","3","4","4","4","5","3","4","4","2","2","2","2","2","2","1","2","1","1","1","0","0","1","1","0","0","0","0","0","0","1","0","0","5","2","4","1","3","5","4","4","3","2","637378161314627584","杨","453","","","","","","","","","","","","","","","","","","","","","","","","","","","","","","","","","","","","","","","",""
"817","<p style=""color:rgb(150, 250, 100); font-size: 35px;"">他人</p>","e","categorize-html","16","174090","0.0-6.0-1.0-2.0-1.3","3","3","3","4","3","4","3","3","3","3","3","4","3","4","4","4","5","3","4","4","2","2","2","2","2","2","1","2","1","1","1","0","0","1","1","0","0","0","0","0","0","1","0","0","5","2","4","1","3","5","4","4","3","2","637378161314627584","杨","453","","","","","","","","","","","","","","","","","","","true","11","1","moral","817","other","他人","","","","","","","","","","","","","","",""
"null","","null","html-keyboard-response","17","174350","0.0-6.0-1.0-2.0-0.4","3","3","3","4","3","4","3","3","3","3","3","4","3","4","4","4","5","3","4","4","2","2","2","2","2","2","1","2","1","1","1","0","0","1","1","0","0","0","0","0","0","1","0","0","5","2","4","1","3","5","4","4","3","2","637378161314627584","杨","453","","","","","","","","","","","","","","","","","","","","","","","","","","","","","","","","","","","","","","","",""
"714","<p style=""color:rgb(150, 250, 100); font-size: 35px;"">本人</p>","i","categorize-html","18","175065","0.0-6.0-1.0-2.0-1.4","3","3","3","4","3","4","3","3","3","3","3","4","3","4","4","4","5","3","4","4","2","2","2","2","2","2","1","2","1","1","1","0","0","1","1","0","0","0","0","0","0","1","0","0","5","2","4","1","3","5","4","4","3","2","637378161314627584","杨","453","","","","","","","","","","","","","","","","","","","true","11","1","moral","714","self","本人","","","","","","","","","","","","","","",""
"null","","null","html-keyboard-response","19","175326","0.0-6.0-1.0-2.0-0.5","3","3","3","4","3","4","3","3","3","3","3","4","3","4","4","4","5","3","4","4","2","2","2","2","2","2","1","2","1","1","1","0","0","1","1","0","0","0","0","0","0","1","0","0","5","2","4","1","3","5","4","4","3","2","637378161314627584","杨","453","","","","","","","","","","","","","","","","","","","","","","","","","","","","","","","","","","","","","","","",""
"711","<p style=""color:rgb(150, 250, 100); font-size: 35px;"">别人</p>","e","categorize-html","20","176039","0.0-6.0-1.0-2.0-1.5","3","3","3","4","3","4","3","3","3","3","3","4","3","4","4","4","5","3","4","4","2","2","2","2","2","2","1","2","1","1","1","0","0","1","1","0","0","0","0","0","0","1","0","0","5","2","4","1","3","5","4","4","3","2","637378161314627584","杨","453","","","","","","","","","","","","","","","","","","","true","11","1","moral","711","other","别人","","","","","","","","","","","","","","",""
"null","","null","html-keyboard-response","21","176303","0.0-6.0-1.0-2.0-0.6","3","3","3","4","3","4","3","3","3","3","3","4","3","4","4","4","5","3","4","4","2","2","2","2","2","2","1","2","1","1","1","0","0","1","1","0","0","0","0","0","0","1","0","0","5","2","4","1","3","5","4","4","3","2","637378161314627584","杨","453","","","","","","","","","","","","","","","","","","","","","","","","","","","","","","","","","","","","","","","",""
"786","<p style=""color:rgb(150, 250, 100); font-size: 35px;"">本人的</p>","i","categorize-html","22","177092","0.0-6.0-1.0-2.0-1.6","3","3","3","4","3","4","3","3","3","3","3","4","3","4","4","4","5","3","4","4","2","2","2","2","2","2","1","2","1","1","1","0","0","1","1","0","0","0","0","0","0","1","0","0","5","2","4","1","3","5","4","4","3","2","637378161314627584","杨","453","","","","","","","","","","","","","","","","","","","true","11","1","moral","786","self","本人的","","","","","","","","","","","","","","",""
"null","","null","html-keyboard-response","23","177349","0.0-6.0-1.0-2.0-0.7","3","3","3","4","3","4","3","3","3","3","3","4","3","4","4","4","5","3","4","4","2","2","2","2","2","2","1","2","1","1","1","0","0","1","1","0","0","0","0","0","0","1","0","0","5","2","4","1","3","5","4","4","3","2","637378161314627584","杨","453","","","","","","","","","","","","","","","","","","","","","","","","","","","","","","","","","","","","","","","",""
"706","<p style=""color:rgb(150, 250, 100); font-size: 35px;"">自己</p>","i","categorize-html","24","178057","0.0-6.0-1.0-2.0-1.7","3","3","3","4","3","4","3","3","3","3","3","4","3","4","4","4","5","3","4","4","2","2","2","2","2","2","1","2","1","1","1","0","0","1","1","0","0","0","0","0","0","1","0","0","5","2","4","1","3","5","4","4","3","2","637378161314627584","杨","453","","","","","","","","","","","","","","","","","","","true","11","1","moral","706","self","自己","","","","","","","","","","","","","","",""
"null","","null","html-keyboard-response","25","178320","0.0-6.0-1.0-2.0-0.8","3","3","3","4","3","4","3","3","3","3","3","4","3","4","4","4","5","3","4","4","2","2","2","2","2","2","1","2","1","1","1","0","0","1","1","0","0","0","0","0","0","1","0","0","5","2","4","1","3","5","4","4","3","2","637378161314627584","杨","453","","","","","","","","","","","","","","","","","","","","","","","","","","","","","","","","","","","","","","","",""
"803","<p style=""color:rgb(150, 250, 100); font-size: 35px;"">别人的</p>","e","categorize-html","26","179125","0.0-6.0-1.0-2.0-1.8","3","3","3","4","3","4","3","3","3","3","3","4","3","4","4","4","5","3","4","4","2","2","2","2","2","2","1","2","1","1","1","0","0","1","1","0","0","0","0","0","0","1","0","0","5","2","4","1","3","5","4","4","3","2","637378161314627584","杨","453","","","","","","","","","","","","","","","","","","","true","11","1","moral","803","other","别人的","","","","","","","","","","","","","","",""
"null","","null","html-keyboard-response","27","179379","0.0-6.0-1.0-2.0-0.9","3","3","3","4","3","4","3","3","3","3","3","4","3","4","4","4","5","3","4","4","2","2","2","2","2","2","1","2","1","1","1","0","0","1","1","0","0","0","0","0","0","1","0","0","5","2","4","1","3","5","4","4","3","2","637378161314627584","杨","453","","","","","","","","","","","","","","","","","","","","","","","","","","","","","","","","","","","","","","","",""
"747","<p style=""color:rgb(150, 250, 100); font-size: 35px;"">我的</p>","i","categorize-html","28","180128","0.0-6.0-1.0-2.0-1.9","3","3","3","4","3","4","3","3","3","3","3","4","3","4","4","4","5","3","4","4","2","2","2","2","2","2","1","2","1","1","1","0","0","1","1","0","0","0","0","0","0","1","0","0","5","2","4","1","3","5","4","4","3","2","637378161314627584","杨","453","","","","","","","","","","","","","","","","","","","true","11","1","moral","747","self","我的","","","","","","","","","","","","","","",""
"null","","null","html-keyboard-response","29","180382","0.0-6.0-1.0-2.0-0.10","3","3","3","4","3","4","3","3","3","3","3","4","3","4","4","4","5","3","4","4","2","2","2","2","2","2","1","2","1","1","1","0","0","1","1","0","0","0","0","0","0","1","0","0","5","2","4","1","3","5","4","4","3","2","637378161314627584","杨","453","","","","","","","","","","","","","","","","","","","","","","","","","","","","","","","","","","","","","","","",""
"819","<p style=""color:rgb(150, 250, 100); font-size: 35px;"">我</p>","i","categorize-html","30","181203","0.0-6.0-1.0-2.0-1.10","3","3","3","4","3","4","3","3","3","3","3","4","3","4","4","4","5","3","4","4","2","2","2","2","2","2","1","2","1","1","1","0","0","1","1","0","0","0","0","0","0","1","0","0","5","2","4","1","3","5","4","4","3","2","637378161314627584","杨","453","","","","","","","","","","","","","","","","","","","true","11","1","moral","819","self","我","","","","","","","","","","","","","","",""
"null","","null","html-keyboard-response","31","181465","0.0-6.0-1.0-2.0-0.11","3","3","3","4","3","4","3","3","3","3","3","4","3","4","4","4","5","3","4","4","2","2","2","2","2","2","1","2","1","1","1","0","0","1","1","0","0","0","0","0","0","1","0","0","5","2","4","1","3","5","4","4","3","2","637378161314627584","杨","453","","","","","","","","","","","","","","","","","","","","","","","","","","","","","","","","","","","","","","","",""
"720","<p style=""color:rgb(150, 250, 100); font-size: 35px;"">他的</p>","e","categorize-html","32","182187","0.0-6.0-1.0-2.0-1.11","3","3","3","4","3","4","3","3","3","3","3","4","3","4","4","4","5","3","4","4","2","2","2","2","2","2","1","2","1","1","1","0","0","1","1","0","0","0","0","0","0","1","0","0","5","2","4","1","3","5","4","4","3","2","637378161314627584","杨","453","","","","","","","","","","","","","","","","","","","true","11","1","moral","720","other","他的","","","","","","","","","","","","","","",""
"9736","
    <div class=""tag-bottom""><p>
    —— 任务2：对“消极”词和“积极”词分类 ——<p/>   
    <span style=""color:#78DCE8""><b>注意上方，类别标签和需要分类的词语都已经改变</b></span><p/>
    <span style=""color:#FFD866""><b>请根据上方标签的提示，尽可能正确并且快速地做出按键反应</b></span><p/>
    当按键错误时屏幕中会出现<span style=""color:red""> X </span>，需要按另一个键纠正才能继续<br/><p/>
    请把双手食指分别放在键盘的“E”键和“I”键上<p/>
    按<空格键>开始
    </p></div>"," ","html-keyboard-response","33","191923","0.0-6.0-1.0-3.0","3","3","3","4","3","4","3","3","3","3","3","4","3","4","4","4","5","3","4","4","2","2","2","2","2","2","1","2","1","1","1","0","0","1","1","0","0","0","0","0","0","1","0","0","5","2","4","1","3","5","4","4","3","2","637378161314627584","杨","453","","","","","","","","","","","","","","","","","","","","","","","","","","","","","","","","","","","","","","","",""
"null","","null","html-keyboard-response","34","192195","0.0-6.0-1.0-4.0-0.0","3","3","3","4","3","4","3","3","3","3","3","4","3","4","4","4","5","3","4","4","2","2","2","2","2","2","1","2","1","1","1","0","0","1","1","0","0","0","0","0","0","1","0","0","5","2","4","1","3","5","4","4","3","2","637378161314627584","杨","453","","","","","","","","","","","","","","","","","","","","","","","","","","","","","","","","","","","","","","","",""
"686","<p style=""color:white; font-size: 35px;"">高尚</p>","i","categorize-html","35","192883","0.0-6.0-1.0-4.0-1.0","3","3","3","4","3","4","3","3","3","3","3","4","3","4","4","4","5","3","4","4","2","2","2","2","2","2","1","2","1","1","1","0","0","1","1","0","0","0","0","0","0","1","0","0","5","2","4","1","3","5","4","4","3","2","637378161314627584","杨","453","","","","","","","","","","","","","","","","","","","true","12","2","moral","686","positive","高尚","","","","","","","","","","","","","","",""
"null","","null","html-keyboard-response","36","193138","0.0-6.0-1.0-4.0-0.1","3","3","3","4","3","4","3","3","3","3","3","4","3","4","4","4","5","3","4","4","2","2","2","2","2","2","1","2","1","1","1","0","0","1","1","0","0","0","0","0","0","1","0","0","5","2","4","1","3","5","4","4","3","2","637378161314627584","杨","453","","","","","","","","","","","","","","","","","","","","","","","","","","","","","","","","","","","","","","","",""
"684","<p style=""color:white; font-size: 35px;"">不孝</p>","e","categorize-html","37","193824","0.0-6.0-1.0-4.0-1.1","3","3","3","4","3","4","3","3","3","3","3","4","3","4","4","4","5","3","4","4","2","2","2","2","2","2","1","2","1","1","1","0","0","1","1","0","0","0","0","0","0","1","0","0","5","2","4","1","3","5","4","4","3","2","637378161314627584","杨","453","","","","","","","","","","","","","","","","","","","true","12","2","moral","684","negative","不孝","","","","","","","","","","","","","","",""
"null","","null","html-keyboard-response","38","194077","0.0-6.0-1.0-4.0-0.2","3","3","3","4","3","4","3","3","3","3","3","4","3","4","4","4","5","3","4","4","2","2","2","2","2","2","1","2","1","1","1","0","0","1","1","0","0","0","0","0","0","1","0","0","5","2","4","1","3","5","4","4","3","2","637378161314627584","杨","453","","","","","","","","","","","","","","","","","","","","","","","","","","","","","","","","","","","","","","","",""
"696","<p style=""color:white; font-size: 35px;"">廉正</p>","i","categorize-html","39","194775","0.0-6.0-1.0-4.0-1.2","3","3","3","4","3","4","3","3","3","3","3","4","3","4","4","4","5","3","4","4","2","2","2","2","2","2","1","2","1","1","1","0","0","1","1","0","0","0","0","0","0","1","0","0","5","2","4","1","3","5","4","4","3","2","637378161314627584","杨","453","","","","","","","","","","","","","","","","","","","true","12","2","moral","696","positive","廉正","","","","","","","","","","","","","","",""
"null","","null","html-keyboard-response","40","195028","0.0-6.0-1.0-4.0-0.3","3","3","3","4","3","4","3","3","3","3","3","4","3","4","4","4","5","3","4","4","2","2","2","2","2","2","1","2","1","1","1","0","0","1","1","0","0","0","0","0","0","1","0","0","5","2","4","1","3","5","4","4","3","2","637378161314627584","杨","453","","","","","","","","","","","","","","","","","","","","","","","","","","","","","","","","","","","","","","","",""
"765","<p style=""color:white; font-size: 35px;"">黑心</p>","e","categorize-html","41","195795","0.0-6.0-1.0-4.0-1.3","3","3","3","4","3","4","3","3","3","3","3","4","3","4","4","4","5","3","4","4","2","2","2","2","2","2","1","2","1","1","1","0","0","1","1","0","0","0","0","0","0","1","0","0","5","2","4","1","3","5","4","4","3","2","637378161314627584","杨","453","","","","","","","","","","","","","","","","","","","true","12","2","moral","765","negative","黑心","","","","","","","","","","","","","","",""
"null","","null","html-keyboard-response","42","196051","0.0-6.0-1.0-4.0-0.4","3","3","3","4","3","4","3","3","3","3","3","4","3","4","4","4","5","3","4","4","2","2","2","2","2","2","1","2","1","1","1","0","0","1","1","0","0","0","0","0","0","1","0","0","5","2","4","1","3","5","4","4","3","2","637378161314627584","杨","453","","","","","","","","","","","","","","","","","","","","","","","","","","","","","","","","","","","","","","","",""
"861","<p style=""color:white; font-size: 35px;"">君子</p>","i","categorize-html","43","196914","0.0-6.0-1.0-4.0-1.4","3","3","3","4","3","4","3","3","3","3","3","4","3","4","4","4","5","3","4","4","2","2","2","2","2","2","1","2","1","1","1","0","0","1","1","0","0","0","0","0","0","1","0","0","5","2","4","1","3","5","4","4","3","2","637378161314627584","杨","453","","","","","","","","","","","","","","","","","","","true","12","2","moral","861","positive","君子","","","","","","","","","","","","","","",""
"null","","null","html-keyboard-response","44","197168","0.0-6.0-1.0-4.0-0.5","3","3","3","4","3","4","3","3","3","3","3","4","3","4","4","4","5","3","4","4","2","2","2","2","2","2","1","2","1","1","1","0","0","1","1","0","0","0","0","0","0","1","0","0","5","2","4","1","3","5","4","4","3","2","637378161314627584","杨","453","","","","","","","","","","","","","","","","","","","","","","","","","","","","","","","","","","","","","","","",""
"783","<p style=""color:white; font-size: 35px;"">善良</p>","i","categorize-html","45","197953","0.0-6.0-1.0-4.0-1.5","3","3","3","4","3","4","3","3","3","3","3","4","3","4","4","4","5","3","4","4","2","2","2","2","2","2","1","2","1","1","1","0","0","1","1","0","0","0","0","0","0","1","0","0","5","2","4","1","3","5","4","4","3","2","637378161314627584","杨","453","","","","","","","","","","","","","","","","","","","true","12","2","moral","783","positive","善良","","","","","","","","","","","","","","",""
"null","","null","html-keyboard-response","46","198207","0.0-6.0-1.0-4.0-0.6","3","3","3","4","3","4","3","3","3","3","3","4","3","4","4","4","5","3","4","4","2","2","2","2","2","2","1","2","1","1","1","0","0","1","1","0","0","0","0","0","0","1","0","0","5","2","4","1","3","5","4","4","3","2","637378161314627584","杨","453","","","","","","","","","","","","","","","","","","","","","","","","","","","","","","","","","","","","","","","",""
"788","<p style=""color:white; font-size: 35px;"">缺德</p>","e","categorize-html","47","198996","0.0-6.0-1.0-4.0-1.6","3","3","3","4","3","4","3","3","3","3","3","4","3","4","4","4","5","3","4","4","2","2","2","2","2","2","1","2","1","1","1","0","0","1","1","0","0","0","0","0","0","1","0","0","5","2","4","1","3","5","4","4","3","2","637378161314627584","杨","453","","","","","","","","","","","","","","","","","","","true","12","2","moral","788","negative","缺德","","","","","","","","","","","","","","",""
"null","","null","html-keyboard-response","48","199255","0.0-6.0-1.0-4.0-0.7","3","3","3","4","3","4","3","3","3","3","3","4","3","4","4","4","5","3","4","4","2","2","2","2","2","2","1","2","1","1","1","0","0","1","1","0","0","0","0","0","0","1","0","0","5","2","4","1","3","5","4","4","3","2","637378161314627584","杨","453","","","","","","","","","","","","","","","","","","","","","","","","","","","","","","","","","","","","","","","",""
"680","<p style=""color:white; font-size: 35px;"">诚信</p>","i","categorize-html","49","199937","0.0-6.0-1.0-4.0-1.7","3","3","3","4","3","4","3","3","3","3","3","4","3","4","4","4","5","3","4","4","2","2","2","2","2","2","1","2","1","1","1","0","0","1","1","0","0","0","0","0","0","1","0","0","5","2","4","1","3","5","4","4","3","2","637378161314627584","杨","453","","","","","","","","","","","","","","","","","","","true","12","2","moral","680","positive","诚信","","","","","","","","","","","","","","",""
"null","","null","html-keyboard-response","50","200190","0.0-6.0-1.0-4.0-0.8","3","3","3","4","3","4","3","3","3","3","3","4","3","4","4","4","5","3","4","4","2","2","2","2","2","2","1","2","1","1","1","0","0","1","1","0","0","0","0","0","0","1","0","0","5","2","4","1","3","5","4","4","3","2","637378161314627584","杨","453","","","","","","","","","","","","","","","","","","","","","","","","","","","","","","","","","","","","","","","",""
"929","<p style=""color:white; font-size: 35px;"">正直</p>","i","categorize-html","51","201121","0.0-6.0-1.0-4.0-1.8","3","3","3","4","3","4","3","3","3","3","3","4","3","4","4","4","5","3","4","4","2","2","2","2","2","2","1","2","1","1","1","0","0","1","1","0","0","0","0","0","0","1","0","0","5","2","4","1","3","5","4","4","3","2","637378161314627584","杨","453","","","","","","","","","","","","","","","","","","","true","12","2","moral","929","positive","正直","","","","","","","","","","","","","","",""
"null","","null","html-keyboard-response","52","201384","0.0-6.0-1.0-4.0-0.9","3","3","3","4","3","4","3","3","3","3","3","4","3","4","4","4","5","3","4","4","2","2","2","2","2","2","1","2","1","1","1","0","0","1","1","0","0","0","0","0","0","1","0","0","5","2","4","1","3","5","4","4","3","2","637378161314627584","杨","453","","","","","","","","","","","","","","","","","","","","","","","","","","","","","","","","","","","","","","","",""
"608","<p style=""color:white; font-size: 35px;"">卑鄙</p>","e","categorize-html","53","201995","0.0-6.0-1.0-4.0-1.9","3","3","3","4","3","4","3","3","3","3","3","4","3","4","4","4","5","3","4","4","2","2","2","2","2","2","1","2","1","1","1","0","0","1","1","0","0","0","0","0","0","1","0","0","5","2","4","1","3","5","4","4","3","2","637378161314627584","杨","453","","","","","","","","","","","","","","","","","","","true","12","2","moral","608","negative","卑鄙","","","","","","","","","","","","","","",""
"null","","null","html-keyboard-response","54","202260","0.0-6.0-1.0-4.0-0.10","3","3","3","4","3","4","3","3","3","3","3","4","3","4","4","4","5","3","4","4","2","2","2","2","2","2","1","2","1","1","1","0","0","1","1","0","0","0","0","0","0","1","0","0","5","2","4","1","3","5","4","4","3","2","637378161314627584","杨","453","","","","","","","","","","","","","","","","","","","","","","","","","","","","","","","","","","","","","","","",""
"599","<p style=""color:white; font-size: 35px;"">小人</p>","e","categorize-html","55","202861","0.0-6.0-1.0-4.0-1.10","3","3","3","4","3","4","3","3","3","3","3","4","3","4","4","4","5","3","4","4","2","2","2","2","2","2","1","2","1","1","1","0","0","1","1","0","0","0","0","0","0","1","0","0","5","2","4","1","3","5","4","4","3","2","637378161314627584","杨","453","","","","","","","","","","","","","","","","","","","true","12","2","moral","599","negative","小人","","","","","","","","","","","","","","",""
"null","","null","html-keyboard-response","56","203126","0.0-6.0-1.0-4.0-0.11","3","3","3","4","3","4","3","3","3","3","3","4","3","4","4","4","5","3","4","4","2","2","2","2","2","2","1","2","1","1","1","0","0","1","1","0","0","0","0","0","0","1","0","0","5","2","4","1","3","5","4","4","3","2","637378161314627584","杨","453","","","","","","","","","","","","","","","","","","","","","","","","","","","","","","","","","","","","","","","",""
"1381","<p style=""color:white; font-size: 35px;"">不仁</p>","e","categorize-html","57","204509","0.0-6.0-1.0-4.0-1.11","3","3","3","4","3","4","3","3","3","3","3","4","3","4","4","4","5","3","4","4","2","2","2","2","2","2","1","2","1","1","1","0","0","1","1","0","0","0","0","0","0","1","0","0","5","2","4","1","3","5","4","4","3","2","637378161314627584","杨","453","","","","","","","","","","","","","","","","","","","true","12","2","moral","1381","negative","不仁","","","","","","","","","","","","","","",""
"12130","
    <div class=""tag-bottom""><p>
    —— 任务3：对“他人/消极”词和“自我/积极”词分类 ——<p/>
    <span style=""color:#78DCE8""><b>注意上方，之前的四类词语将混合在一起交替呈现</b></span><p/>
    <span style=""color:#FFD866""><b>请根据上方标签的提示，尽可能正确并且快速地做出按键反应</b></span><p/>
    当按键错误时屏幕中会出现<span style=""color:red""> X </span>，需要按另一个键纠正才能继续<br/><p/>
    请把双手食指分别放在键盘的“E”键和“I”键上<p/>
    按<空格键>开始
    </p></div>"," ","html-keyboard-response","58","216639","0.0-6.0-1.0-5.0","3","3","3","4","3","4","3","3","3","3","3","4","3","4","4","4","5","3","4","4","2","2","2","2","2","2","1","2","1","1","1","0","0","1","1","0","0","0","0","0","0","1","0","0","5","2","4","1","3","5","4","4","3","2","637378161314627584","杨","453","","","","","","","","","","","","","","","","","","","","","","","","","","","","","","","","","","","","","","","",""
"null","","null","html-keyboard-response","59","216898","0.0-6.0-1.0-6.0-0.0","3","3","3","4","3","4","3","3","3","3","3","4","3","4","4","4","5","3","4","4","2","2","2","2","2","2","1","2","1","1","1","0","0","1","1","0","0","0","0","0","0","1","0","0","5","2","4","1","3","5","4","4","3","2","637378161314627584","杨","453","","","","","","","","","","","","","","","","","","","","","","","","","","","","","","","","","","","","","","","",""
"630","<p style=""color:rgb(150, 250, 100); font-size: 35px;"">他人</p>","e","categorize-html","60","217530","0.0-6.0-1.0-6.0-1.0","3","3","3","4","3","4","3","3","3","3","3","4","3","4","4","4","5","3","4","4","2","2","2","2","2","2","1","2","1","1","1","0","0","1","1","0","0","0","0","0","0","1","0","0","5","2","4","1","3","5","4","4","3","2","637378161314627584","杨","453","","","","","","","","","","","","","","","","","","","true","13","3","moral","630","other","他人","","","","","","","","","","","","","","",""
"null","","null","html-keyboard-response","61","217791","0.0-6.0-1.0-6.0-0.1","3","3","3","4","3","4","3","3","3","3","3","4","3","4","4","4","5","3","4","4","2","2","2","2","2","2","1","2","1","1","1","0","0","1","1","0","0","0","0","0","0","1","0","0","5","2","4","1","3","5","4","4","3","2","637378161314627584","杨","453","","","","","","","","","","","","","","","","","","","","","","","","","","","","","","","","","","","","","","","",""
"711","<p style=""color:white; font-size: 35px;"">君子</p>","i","categorize-html","62","218505","0.0-6.0-1.0-6.0-1.1","3","3","3","4","3","4","3","3","3","3","3","4","3","4","4","4","5","3","4","4","2","2","2","2","2","2","1","2","1","1","1","0","0","1","1","0","0","0","0","0","0","1","0","0","5","2","4","1","3","5","4","4","3","2","637378161314627584","杨","453","","","","","","","","","","","","","","","","","","","true","13","3","moral","711","positive","君子","","","","","","","","","","","","","","",""
"null","","null","html-keyboard-response","63","218759","0.0-6.0-1.0-6.0-0.2","3","3","3","4","3","4","3","3","3","3","3","4","3","4","4","4","5","3","4","4","2","2","2","2","2","2","1","2","1","1","1","0","0","1","1","0","0","0","0","0","0","1","0","0","5","2","4","1","3","5","4","4","3","2","637378161314627584","杨","453","","","","","","","","","","","","","","","","","","","","","","","","","","","","","","","","","","","","","","","",""
"567","<p style=""color:rgb(150, 250, 100); font-size: 35px;"">我的</p>","i","categorize-html","64","219329","0.0-6.0-1.0-6.0-1.2","3","3","3","4","3","4","3","3","3","3","3","4","3","4","4","4","5","3","4","4","2","2","2","2","2","2","1","2","1","1","1","0","0","1","1","0","0","0","0","0","0","1","0","0","5","2","4","1","3","5","4","4","3","2","637378161314627584","杨","453","","","","","","","","","","","","","","","","","","","true","13","3","moral","567","self","我的","","","","","","","","","","","","","","",""
"null","","null","html-keyboard-response","65","219589","0.0-6.0-1.0-6.0-0.3","3","3","3","4","3","4","3","3","3","3","3","4","3","4","4","4","5","3","4","4","2","2","2","2","2","2","1","2","1","1","1","0","0","1","1","0","0","0","0","0","0","1","0","0","5","2","4","1","3","5","4","4","3","2","637378161314627584","杨","453","","","","","","","","","","","","","","","","","","","","","","","","","","","","","","","","","","","","","","","",""
"702","<p style=""color:white; font-size: 35px;"">卑鄙</p>","e","categorize-html","66","220293","0.0-6.0-1.0-6.0-1.3","3","3","3","4","3","4","3","3","3","3","3","4","3","4","4","4","5","3","4","4","2","2","2","2","2","2","1","2","1","1","1","0","0","1","1","0","0","0","0","0","0","1","0","0","5","2","4","1","3","5","4","4","3","2","637378161314627584","杨","453","","","","","","","","","","","","","","","","","","","true","13","3","moral","702","negative","卑鄙","","","","","","","","","","","","","","",""
"null","","null","html-keyboard-response","67","220546","0.0-6.0-1.0-6.0-0.4","3","3","3","4","3","4","3","3","3","3","3","4","3","4","4","4","5","3","4","4","2","2","2","2","2","2","1","2","1","1","1","0","0","1","1","0","0","0","0","0","0","1","0","0","5","2","4","1","3","5","4","4","3","2","637378161314627584","杨","453","","","","","","","","","","","","","","","","","","","","","","","","","","","","","","","","","","","","","","","",""
"681","<p style=""color:rgb(150, 250, 100); font-size: 35px;"">本人</p>","i","categorize-html","68","221230","0.0-6.0-1.0-6.0-1.4","3","3","3","4","3","4","3","3","3","3","3","4","3","4","4","4","5","3","4","4","2","2","2","2","2","2","1","2","1","1","1","0","0","1","1","0","0","0","0","0","0","1","0","0","5","2","4","1","3","5","4","4","3","2","637378161314627584","杨","453","","","","","","","","","","","","","","","","","","","true","13","3","moral","681","self","本人","","","","","","","","","","","","","","",""
"null","","null","html-keyboard-response","69","221482","0.0-6.0-1.0-6.0-0.5","3","3","3","4","3","4","3","3","3","3","3","4","3","4","4","4","5","3","4","4","2","2","2","2","2","2","1","2","1","1","1","0","0","1","1","0","0","0","0","0","0","1","0","0","5","2","4","1","3","5","4","4","3","2","637378161314627584","杨","453","","","","","","","","","","","","","","","","","","","","","","","","","","","","","","","","","","","","","","","",""
"852","<p style=""color:white; font-size: 35px;"">高尚</p>","i","categorize-html","70","222336","0.0-6.0-1.0-6.0-1.5","3","3","3","4","3","4","3","3","3","3","3","4","3","4","4","4","5","3","4","4","2","2","2","2","2","2","1","2","1","1","1","0","0","1","1","0","0","0","0","0","0","1","0","0","5","2","4","1","3","5","4","4","3","2","637378161314627584","杨","453","","","","","","","","","","","","","","","","","","","true","13","3","moral","852","positive","高尚","","","","","","","","","","","","","","",""
"null","","null","html-keyboard-response","71","222599","0.0-6.0-1.0-6.0-0.6","3","3","3","4","3","4","3","3","3","3","3","4","3","4","4","4","5","3","4","4","2","2","2","2","2","2","1","2","1","1","1","0","0","1","1","0","0","0","0","0","0","1","0","0","5","2","4","1","3","5","4","4","3","2","637378161314627584","杨","453","","","","","","","","","","","","","","","","","","","","","","","","","","","","","","","","","","","","","","","",""
"627","<p style=""color:rgb(150, 250, 100); font-size: 35px;"">他人的</p>","e","categorize-html","72","223229","0.0-6.0-1.0-6.0-1.6","3","3","3","4","3","4","3","3","3","3","3","4","3","4","4","4","5","3","4","4","2","2","2","2","2","2","1","2","1","1","1","0","0","1","1","0","0","0","0","0","0","1","0","0","5","2","4","1","3","5","4","4","3","2","637378161314627584","杨","453","","","","","","","","","","","","","","","","","","","true","13","3","moral","627","other","他人的","","","","","","","","","","","","","","",""
"null","","null","html-keyboard-response","73","223492","0.0-6.0-1.0-6.0-0.7","3","3","3","4","3","4","3","3","3","3","3","4","3","4","4","4","5","3","4","4","2","2","2","2","2","2","1","2","1","1","1","0","0","1","1","0","0","0","0","0","0","1","0","0","5","2","4","1","3","5","4","4","3","2","637378161314627584","杨","453","","","","","","","","","","","","","","","","","","","","","","","","","","","","","","","","","","","","","","","",""
"732","<p style=""color:white; font-size: 35px;"">黑心</p>","e","categorize-html","74","224228","0.0-6.0-1.0-6.0-1.7","3","3","3","4","3","4","3","3","3","3","3","4","3","4","4","4","5","3","4","4","2","2","2","2","2","2","1","2","1","1","1","0","0","1","1","0","0","0","0","0","0","1","0","0","5","2","4","1","3","5","4","4","3","2","637378161314627584","杨","453","","","","","","","","","","","","","","","","","","","true","13","3","moral","732","negative","黑心","","","","","","","","","","","","","","",""
"null","","null","html-keyboard-response","75","224493","0.0-6.0-1.0-6.0-0.8","3","3","3","4","3","4","3","3","3","3","3","4","3","4","4","4","5","3","4","4","2","2","2","2","2","2","1","2","1","1","1","0","0","1","1","0","0","0","0","0","0","1","0","0","5","2","4","1","3","5","4","4","3","2","637378161314627584","杨","453","","","","","","","","","","","","","","","","","","","","","","","","","","","","","","","","","","","","","","","",""
"644","<p style=""color:rgb(150, 250, 100); font-size: 35px;"">他的</p>","e","categorize-html","76","225139","0.0-6.0-1.0-6.0-1.8","3","3","3","4","3","4","3","3","3","3","3","4","3","4","4","4","5","3","4","4","2","2","2","2","2","2","1","2","1","1","1","0","0","1","1","0","0","0","0","0","0","1","0","0","5","2","4","1","3","5","4","4","3","2","637378161314627584","杨","453","","","","","","","","","","","","","","","","","","","true","13","3","moral","644","other","他的","","","","","","","","","","","","","","",""
"null","","null","html-keyboard-response","77","225405","0.0-6.0-1.0-6.0-0.9","3","3","3","4","3","4","3","3","3","3","3","4","3","4","4","4","5","3","4","4","2","2","2","2","2","2","1","2","1","1","1","0","0","1","1","0","0","0","0","0","0","1","0","0","5","2","4","1","3","5","4","4","3","2","637378161314627584","杨","453","","","","","","","","","","","","","","","","","","","","","","","","","","","","","","","","","","","","","","","",""
"723","<p style=""color:white; font-size: 35px;"">小人</p>","e","categorize-html","78","226130","0.0-6.0-1.0-6.0-1.9","3","3","3","4","3","4","3","3","3","3","3","4","3","4","4","4","5","3","4","4","2","2","2","2","2","2","1","2","1","1","1","0","0","1","1","0","0","0","0","0","0","1","0","0","5","2","4","1","3","5","4","4","3","2","637378161314627584","杨","453","","","","","","","","","","","","","","","","","","","true","13","3","moral","723","negative","小人","","","","","","","","","","","","","","",""
"null","","null","html-keyboard-response","79","226393","0.0-6.0-1.0-6.0-0.10","3","3","3","4","3","4","3","3","3","3","3","4","3","4","4","4","5","3","4","4","2","2","2","2","2","2","1","2","1","1","1","0","0","1","1","0","0","0","0","0","0","1","0","0","5","2","4","1","3","5","4","4","3","2","637378161314627584","杨","453","","","","","","","","","","","","","","","","","","","","","","","","","","","","","","","","","","","","","","","",""
"691","<p style=""color:rgb(150, 250, 100); font-size: 35px;"">自己的</p>","i","categorize-html","80","227086","0.0-6.0-1.0-6.0-1.10","3","3","3","4","3","4","3","3","3","3","3","4","3","4","4","4","5","3","4","4","2","2","2","2","2","2","1","2","1","1","1","0","0","1","1","0","0","0","0","0","0","1","0","0","5","2","4","1","3","5","4","4","3","2","637378161314627584","杨","453","","","","","","","","","","","","","","","","","","","true","13","3","moral","691","self","自己的","","","","","","","","","","","","","","",""
"null","","null","html-keyboard-response","81","227346","0.0-6.0-1.0-6.0-0.11","3","3","3","4","3","4","3","3","3","3","3","4","3","4","4","4","5","3","4","4","2","2","2","2","2","2","1","2","1","1","1","0","0","1","1","0","0","0","0","0","0","1","0","0","5","2","4","1","3","5","4","4","3","2","637378161314627584","杨","453","","","","","","","","","","","","","","","","","","","","","","","","","","","","","","","","","","","","","","","",""
"838","<p style=""color:white; font-size: 35px;"">诚信</p>","i","categorize-html","82","228185","0.0-6.0-1.0-6.0-1.11","3","3","3","4","3","4","3","3","3","3","3","4","3","4","4","4","5","3","4","4","2","2","2","2","2","2","1","2","1","1","1","0","0","1","1","0","0","0","0","0","0","1","0","0","5","2","4","1","3","5","4","4","3","2","637378161314627584","杨","453","","","","","","","","","","","","","","","","","","","true","13","3","moral","838","positive","诚信","","","","","","","","","","","","","","",""
"null","","null","html-keyboard-response","83","228442","0.0-6.0-1.0-6.0-0.12","3","3","3","4","3","4","3","3","3","3","3","4","3","4","4","4","5","3","4","4","2","2","2","2","2","2","1","2","1","1","1","0","0","1","1","0","0","0","0","0","0","1","0","0","5","2","4","1","3","5","4","4","3","2","637378161314627584","杨","453","","","","","","","","","","","","","","","","","","","","","","","","","","","","","","","","","","","","","","","",""
"762","<p style=""color:rgb(150, 250, 100); font-size: 35px;"">别人的</p>","e","categorize-html","84","229205","0.0-6.0-1.0-6.0-1.12","3","3","3","4","3","4","3","3","3","3","3","4","3","4","4","4","5","3","4","4","2","2","2","2","2","2","1","2","1","1","1","0","0","1","1","0","0","0","0","0","0","1","0","0","5","2","4","1","3","5","4","4","3","2","637378161314627584","杨","453","","","","","","","","","","","","","","","","","","","true","13","3","moral","762","other","别人的","","","","","","","","","","","","","","",""
"null","","null","html-keyboard-response","85","229464","0.0-6.0-1.0-6.0-0.13","3","3","3","4","3","4","3","3","3","3","3","4","3","4","4","4","5","3","4","4","2","2","2","2","2","2","1","2","1","1","1","0","0","1","1","0","0","0","0","0","0","1","0","0","5","2","4","1","3","5","4","4","3","2","637378161314627584","杨","453","","","","","","","","","","","","","","","","","","","","","","","","","","","","","","","","","","","","","","","",""
"758","<p style=""color:white; font-size: 35px;"">不孝</p>","e","categorize-html","86","230224","0.0-6.0-1.0-6.0-1.13","3","3","3","4","3","4","3","3","3","3","3","4","3","4","4","4","5","3","4","4","2","2","2","2","2","2","1","2","1","1","1","0","0","1","1","0","0","0","0","0","0","1","0","0","5","2","4","1","3","5","4","4","3","2","637378161314627584","杨","453","","","","","","","","","","","","","","","","","","","true","13","3","moral","758","negative","不孝","","","","","","","","","","","","","","",""
"null","","null","html-keyboard-response","87","230479","0.0-6.0-1.0-6.0-0.14","3","3","3","4","3","4","3","3","3","3","3","4","3","4","4","4","5","3","4","4","2","2","2","2","2","2","1","2","1","1","1","0","0","1","1","0","0","0","0","0","0","1","0","0","5","2","4","1","3","5","4","4","3","2","637378161314627584","杨","453","","","","","","","","","","","","","","","","","","","","","","","","","","","","","","","","","","","","","","","",""
"786","<p style=""color:rgb(150, 250, 100); font-size: 35px;"">我</p>","i","categorize-html","88","231267","0.0-6.0-1.0-6.0-1.14","3","3","3","4","3","4","3","3","3","3","3","4","3","4","4","4","5","3","4","4","2","2","2","2","2","2","1","2","1","1","1","0","0","1","1","0","0","0","0","0","0","1","0","0","5","2","4","1","3","5","4","4","3","2","637378161314627584","杨","453","","","","","","","","","","","","","","","","","","","true","13","3","moral","786","self","我","","","","","","","","","","","","","","",""
"null","","null","html-keyboard-response","89","231528","0.0-6.0-1.0-6.0-0.15","3","3","3","4","3","4","3","3","3","3","3","4","3","4","4","4","5","3","4","4","2","2","2","2","2","2","1","2","1","1","1","0","0","1","1","0","0","0","0","0","0","1","0","0","5","2","4","1","3","5","4","4","3","2","637378161314627584","杨","453","","","","","","","","","","","","","","","","","","","","","","","","","","","","","","","","","","","","","","","",""
"1090","<p style=""color:white; font-size: 35px;"">善良</p>","i","categorize-html","90","232619","0.0-6.0-1.0-6.0-1.15","3","3","3","4","3","4","3","3","3","3","3","4","3","4","4","4","5","3","4","4","2","2","2","2","2","2","1","2","1","1","1","0","0","1","1","0","0","0","0","0","0","1","0","0","5","2","4","1","3","5","4","4","3","2","637378161314627584","杨","453","","","","","","","","","","","","","","","","","","","true","13","3","moral","1090","positive","善良","","","","","","","","","","","","","","",""
"null","","null","html-keyboard-response","91","232874","0.0-6.0-1.0-6.0-0.16","3","3","3","4","3","4","3","3","3","3","3","4","3","4","4","4","5","3","4","4","2","2","2","2","2","2","1","2","1","1","1","0","0","1","1","0","0","0","0","0","0","1","0","0","5","2","4","1","3","5","4","4","3","2","637378161314627584","杨","453","","","","","","","","","","","","","","","","","","","","","","","","","","","","","","","","","","","","","","","",""
"847","<p style=""color:rgb(150, 250, 100); font-size: 35px;"">他</p>","e","categorize-html","92","233723","0.0-6.0-1.0-6.0-1.16","3","3","3","4","3","4","3","3","3","3","3","4","3","4","4","4","5","3","4","4","2","2","2","2","2","2","1","2","1","1","1","0","0","1","1","0","0","0","0","0","0","1","0","0","5","2","4","1","3","5","4","4","3","2","637378161314627584","杨","453","","","","","","","","","","","","","","","","","","","true","13","3","moral","847","other","他","","","","","","","","","","","","","","",""
"null","","null","html-keyboard-response","93","233984","0.0-6.0-1.0-6.0-0.17","3","3","3","4","3","4","3","3","3","3","3","4","3","4","4","4","5","3","4","4","2","2","2","2","2","2","1","2","1","1","1","0","0","1","1","0","0","0","0","0","0","1","0","0","5","2","4","1","3","5","4","4","3","2","637378161314627584","杨","453","","","","","","","","","","","","","","","","","","","","","","","","","","","","","","","","","","","","","","","",""
"1295","<p style=""color:white; font-size: 35px;"">缺德</p>","e","categorize-html","94","235280","0.0-6.0-1.0-6.0-1.17","3","3","3","4","3","4","3","3","3","3","3","4","3","4","4","4","5","3","4","4","2","2","2","2","2","2","1","2","1","1","1","0","0","1","1","0","0","0","0","0","0","1","0","0","5","2","4","1","3","5","4","4","3","2","637378161314627584","杨","453","","","","","","","","","","","","","","","","","","","true","13","3","moral","1295","negative","缺德","","","","","","","","","","","","","","",""
"null","","null","html-keyboard-response","95","235536","0.0-6.0-1.0-6.0-0.18","3","3","3","4","3","4","3","3","3","3","3","4","3","4","4","4","5","3","4","4","2","2","2","2","2","2","1","2","1","1","1","0","0","1","1","0","0","0","0","0","0","1","0","0","5","2","4","1","3","5","4","4","3","2","637378161314627584","杨","453","","","","","","","","","","","","","","","","","","","","","","","","","","","","","","","","","","","","","","","",""
"923","<p style=""color:rgb(150, 250, 100); font-size: 35px;"">本人的</p>","i","categorize-html","96","236461","0.0-6.0-1.0-6.0-1.18","3","3","3","4","3","4","3","3","3","3","3","4","3","4","4","4","5","3","4","4","2","2","2","2","2","2","1","2","1","1","1","0","0","1","1","0","0","0","0","0","0","1","0","0","5","2","4","1","3","5","4","4","3","2","637378161314627584","杨","453","","","","","","","","","","","","","","","","","","","true","13","3","moral","923","self","本人的","","","","","","","","","","","","","","",""
"null","","null","html-keyboard-response","97","236723","0.0-6.0-1.0-6.0-0.19","3","3","3","4","3","4","3","3","3","3","3","4","3","4","4","4","5","3","4","4","2","2","2","2","2","2","1","2","1","1","1","0","0","1","1","0","0","0","0","0","0","1","0","0","5","2","4","1","3","5","4","4","3","2","637378161314627584","杨","453","","","","","","","","","","","","","","","","","","","","","","","","","","","","","","","","","","","","","","","",""
"980","<p style=""color:white; font-size: 35px;"">廉正</p>","i","categorize-html","98","237706","0.0-6.0-1.0-6.0-1.19","3","3","3","4","3","4","3","3","3","3","3","4","3","4","4","4","5","3","4","4","2","2","2","2","2","2","1","2","1","1","1","0","0","1","1","0","0","0","0","0","0","1","0","0","5","2","4","1","3","5","4","4","3","2","637378161314627584","杨","453","","","","","","","","","","","","","","","","","","","true","13","3","moral","980","positive","廉正","","","","","","","","","","","","","","",""
"null","","null","html-keyboard-response","99","237966","0.0-6.0-1.0-6.0-0.20","3","3","3","4","3","4","3","3","3","3","3","4","3","4","4","4","5","3","4","4","2","2","2","2","2","2","1","2","1","1","1","0","0","1","1","0","0","0","0","0","0","1","0","0","5","2","4","1","3","5","4","4","3","2","637378161314627584","杨","453","","","","","","","","","","","","","","","","","","","","","","","","","","","","","","","","","","","","","","","",""
"1161","<p style=""color:rgb(150, 250, 100); font-size: 35px;"">自己</p>","i","categorize-html","100","239129","0.0-6.0-1.0-6.0-1.20","3","3","3","4","3","4","3","3","3","3","3","4","3","4","4","4","5","3","4","4","2","2","2","2","2","2","1","2","1","1","1","0","0","1","1","0","0","0","0","0","0","1","0","0","5","2","4","1","3","5","4","4","3","2","637378161314627584","杨","453","","","","","","","","","","","","","","","","","","","true","13","3","moral","1161","self","自己","","","","","","","","","","","","","","",""
"null","","null","html-keyboard-response","101","239392","0.0-6.0-1.0-6.0-0.21","3","3","3","4","3","4","3","3","3","3","3","4","3","4","4","4","5","3","4","4","2","2","2","2","2","2","1","2","1","1","1","0","0","1","1","0","0","0","0","0","0","1","0","0","5","2","4","1","3","5","4","4","3","2","637378161314627584","杨","453","","","","","","","","","","","","","","","","","","","","","","","","","","","","","","","","","","","","","","","",""
"897","<p style=""color:white; font-size: 35px;"">正直</p>","i","categorize-html","102","240290","0.0-6.0-1.0-6.0-1.21","3","3","3","4","3","4","3","3","3","3","3","4","3","4","4","4","5","3","4","4","2","2","2","2","2","2","1","2","1","1","1","0","0","1","1","0","0","0","0","0","0","1","0","0","5","2","4","1","3","5","4","4","3","2","637378161314627584","杨","453","","","","","","","","","","","","","","","","","","","true","13","3","moral","897","positive","正直","","","","","","","","","","","","","","",""
"null","","null","html-keyboard-response","103","240545","0.0-6.0-1.0-6.0-0.22","3","3","3","4","3","4","3","3","3","3","3","4","3","4","4","4","5","3","4","4","2","2","2","2","2","2","1","2","1","1","1","0","0","1","1","0","0","0","0","0","0","1","0","0","5","2","4","1","3","5","4","4","3","2","637378161314627584","杨","453","","","","","","","","","","","","","","","","","","","","","","","","","","","","","","","","","","","","","","","",""
"1175","<p style=""color:rgb(150, 250, 100); font-size: 35px;"">别人</p>","e","categorize-html","104","241721","0.0-6.0-1.0-6.0-1.22","3","3","3","4","3","4","3","3","3","3","3","4","3","4","4","4","5","3","4","4","2","2","2","2","2","2","1","2","1","1","1","0","0","1","1","0","0","0","0","0","0","1","0","0","5","2","4","1","3","5","4","4","3","2","637378161314627584","杨","453","","","","","","","","","","","","","","","","","","","true","13","3","moral","1175","other","别人","","","","","","","","","","","","","","",""
"null","","null","html-keyboard-response","105","241980","0.0-6.0-1.0-6.0-0.23","3","3","3","4","3","4","3","3","3","3","3","4","3","4","4","4","5","3","4","4","2","2","2","2","2","2","1","2","1","1","1","0","0","1","1","0","0","0","0","0","0","1","0","0","5","2","4","1","3","5","4","4","3","2","637378161314627584","杨","453","","","","","","","","","","","","","","","","","","","","","","","","","","","","","","","","","","","","","","","",""
"837","<p style=""color:white; font-size: 35px;"">不仁</p>","e","categorize-html","106","242819","0.0-6.0-1.0-6.0-1.23","3","3","3","4","3","4","3","3","3","3","3","4","3","4","4","4","5","3","4","4","2","2","2","2","2","2","1","2","1","1","1","0","0","1","1","0","0","0","0","0","0","1","0","0","5","2","4","1","3","5","4","4","3","2","637378161314627584","杨","453","","","","","","","","","","","","","","","","","","","true","13","3","moral","837","negative","不仁","","","","","","","","","","","","","","",""
"28077","
    <div class=""tag-bottom""><p>
    —— 任务4：对“他人/消极”词和“自我/积极”词分类 ——<p/>
    <span style=""color:#78DCE8""><b>与刚才的任务完全相同，请再次对这四类词语分类</b></span><p/>
    <span style=""color:#FFD866""><b>请根据上方标签的提示，尽可能正确并且快速地做出按键反应</b></span><p/>
    当按键错误时屏幕中会出现<span style=""color:red""> X </span>，需要按另一个键纠正才能继续<br/><p/>
    请把双手食指分别放在键盘的“E”键和“I”键上<p/>
    按<空格键>开始
    </p></div>"," ","html-keyboard-response","107","270897","0.0-6.0-1.0-7.0","3","3","3","4","3","4","3","3","3","3","3","4","3","4","4","4","5","3","4","4","2","2","2","2","2","2","1","2","1","1","1","0","0","1","1","0","0","0","0","0","0","1","0","0","5","2","4","1","3","5","4","4","3","2","637378161314627584","杨","453","","","","","","","","","","","","","","","","","","","","","","","","","","","","","","","","","","","","","","","",""
"null","","null","html-keyboard-response","108","271149","0.0-6.0-1.0-8.0-0.0","3","3","3","4","3","4","3","3","3","3","3","4","3","4","4","4","5","3","4","4","2","2","2","2","2","2","1","2","1","1","1","0","0","1","1","0","0","0","0","0","0","1","0","0","5","2","4","1","3","5","4","4","3","2","637378161314627584","杨","453","","","","","","","","","","","","","","","","","","","","","","","","","","","","","","","","","","","","","","","",""
"426","<p style=""color:rgb(150, 250, 100); font-size: 35px;"">他的</p>","e","categorize-html","109","271577","0.0-6.0-1.0-8.0-1.0","3","3","3","4","3","4","3","3","3","3","3","4","3","4","4","4","5","3","4","4","2","2","2","2","2","2","1","2","1","1","1","0","0","1","1","0","0","0","0","0","0","1","0","0","5","2","4","1","3","5","4","4","3","2","637378161314627584","杨","453","","","","","","","","","","","","","","","","","","","true","14","4","moral","426","other","他的","","","","","","","","","","","","","","",""
"null","","null","html-keyboard-response","110","271841","0.0-6.0-1.0-8.0-0.1","3","3","3","4","3","4","3","3","3","3","3","4","3","4","4","4","5","3","4","4","2","2","2","2","2","2","1","2","1","1","1","0","0","1","1","0","0","0","0","0","0","1","0","0","5","2","4","1","3","5","4","4","3","2","637378161314627584","杨","453","","","","","","","","","","","","","","","","","","","","","","","","","","","","","","","","","","","","","","","",""
"727","<p style=""color:white; font-size: 35px;"">小人</p>","e","categorize-html","111","272568","0.0-6.0-1.0-8.0-1.1","3","3","3","4","3","4","3","3","3","3","3","4","3","4","4","4","5","3","4","4","2","2","2","2","2","2","1","2","1","1","1","0","0","1","1","0","0","0","0","0","0","1","0","0","5","2","4","1","3","5","4","4","3","2","637378161314627584","杨","453","","","","","","","","","","","","","","","","","","","true","14","4","moral","727","negative","小人","","","","","","","","","","","","","","",""
"null","","null","html-keyboard-response","112","272831","0.0-6.0-1.0-8.0-0.2","3","3","3","4","3","4","3","3","3","3","3","4","3","4","4","4","5","3","4","4","2","2","2","2","2","2","1","2","1","1","1","0","0","1","1","0","0","0","0","0","0","1","0","0","5","2","4","1","3","5","4","4","3","2","637378161314627584","杨","453","","","","","","","","","","","","","","","","","","","","","","","","","","","","","","","","","","","","","","","",""
"883","<p style=""color:rgb(150, 250, 100); font-size: 35px;"">自己的</p>","i","categorize-html","113","273717","0.0-6.0-1.0-8.0-1.2","3","3","3","4","3","4","3","3","3","3","3","4","3","4","4","4","5","3","4","4","2","2","2","2","2","2","1","2","1","1","1","0","0","1","1","0","0","0","0","0","0","1","0","0","5","2","4","1","3","5","4","4","3","2","637378161314627584","杨","453","","","","","","","","","","","","","","","","","","","true","14","4","moral","883","self","自己的","","","","","","","","","","","","","","",""
"null","","null","html-keyboard-response","114","273977","0.0-6.0-1.0-8.0-0.3","3","3","3","4","3","4","3","3","3","3","3","4","3","4","4","4","5","3","4","4","2","2","2","2","2","2","1","2","1","1","1","0","0","1","1","0","0","0","0","0","0","1","0","0","5","2","4","1","3","5","4","4","3","2","637378161314627584","杨","453","","","","","","","","","","","","","","","","","","","","","","","","","","","","","","","","","","","","","","","",""
"796","<p style=""color:white; font-size: 35px;"">诚信</p>","i","categorize-html","115","274776","0.0-6.0-1.0-8.0-1.3","3","3","3","4","3","4","3","3","3","3","3","4","3","4","4","4","5","3","4","4","2","2","2","2","2","2","1","2","1","1","1","0","0","1","1","0","0","0","0","0","0","1","0","0","5","2","4","1","3","5","4","4","3","2","637378161314627584","杨","453","","","","","","","","","","","","","","","","","","","true","14","4","moral","796","positive","诚信","","","","","","","","","","","","","","",""
"null","","null","html-keyboard-response","116","275031","0.0-6.0-1.0-8.0-0.4","3","3","3","4","3","4","3","3","3","3","3","4","3","4","4","4","5","3","4","4","2","2","2","2","2","2","1","2","1","1","1","0","0","1","1","0","0","0","0","0","0","1","0","0","5","2","4","1","3","5","4","4","3","2","637378161314627584","杨","453","","","","","","","","","","","","","","","","","","","","","","","","","","","","","","","","","","","","","","","",""
"788","<p style=""color:rgb(150, 250, 100); font-size: 35px;"">我的</p>","i","categorize-html","117","275821","0.0-6.0-1.0-8.0-1.4","3","3","3","4","3","4","3","3","3","3","3","4","3","4","4","4","5","3","4","4","2","2","2","2","2","2","1","2","1","1","1","0","0","1","1","0","0","0","0","0","0","1","0","0","5","2","4","1","3","5","4","4","3","2","637378161314627584","杨","453","","","","","","","","","","","","","","","","","","","true","14","4","moral","788","self","我的","","","","","","","","","","","","","","",""
"null","","null","html-keyboard-response","118","276086","0.0-6.0-1.0-8.0-0.5","3","3","3","4","3","4","3","3","3","3","3","4","3","4","4","4","5","3","4","4","2","2","2","2","2","2","1","2","1","1","1","0","0","1","1","0","0","0","0","0","0","1","0","0","5","2","4","1","3","5","4","4","3","2","637378161314627584","杨","453","","","","","","","","","","","","","","","","","","","","","","","","","","","","","","","","","","","","","","","",""
"728","<p style=""color:white; font-size: 35px;"">小人</p>","e","categorize-html","119","276816","0.0-6.0-1.0-8.0-1.5","3","3","3","4","3","4","3","3","3","3","3","4","3","4","4","4","5","3","4","4","2","2","2","2","2","2","1","2","1","1","1","0","0","1","1","0","0","0","0","0","0","1","0","0","5","2","4","1","3","5","4","4","3","2","637378161314627584","杨","453","","","","","","","","","","","","","","","","","","","true","14","4","moral","728","negative","小人","","","","","","","","","","","","","","",""
"null","","null","html-keyboard-response","120","277078","0.0-6.0-1.0-8.0-0.6","3","3","3","4","3","4","3","3","3","3","3","4","3","4","4","4","5","3","4","4","2","2","2","2","2","2","1","2","1","1","1","0","0","1","1","0","0","0","0","0","0","1","0","0","5","2","4","1","3","5","4","4","3","2","637378161314627584","杨","453","","","","","","","","","","","","","","","","","","","","","","","","","","","","","","","","","","","","","","","",""
"745","<p style=""color:rgb(150, 250, 100); font-size: 35px;"">别人的</p>","e","categorize-html","121","277825","0.0-6.0-1.0-8.0-1.6","3","3","3","4","3","4","3","3","3","3","3","4","3","4","4","4","5","3","4","4","2","2","2","2","2","2","1","2","1","1","1","0","0","1","1","0","0","0","0","0","0","1","0","0","5","2","4","1","3","5","4","4","3","2","637378161314627584","杨","453","","","","","","","","","","","","","","","","","","","true","14","4","moral","745","other","别人的","","","","","","","","","","","","","","",""
"null","","null","html-keyboard-response","122","278078","0.0-6.0-1.0-8.0-0.7","3","3","3","4","3","4","3","3","3","3","3","4","3","4","4","4","5","3","4","4","2","2","2","2","2","2","1","2","1","1","1","0","0","1","1","0","0","0","0","0","0","1","0","0","5","2","4","1","3","5","4","4","3","2","637378161314627584","杨","453","","","","","","","","","","","","","","","","","","","","","","","","","","","","","","","","","","","","","","","",""
"626","<p style=""color:white; font-size: 35px;"">廉正</p>","i","categorize-html","123","278706","0.0-6.0-1.0-8.0-1.7","3","3","3","4","3","4","3","3","3","3","3","4","3","4","4","4","5","3","4","4","2","2","2","2","2","2","1","2","1","1","1","0","0","1","1","0","0","0","0","0","0","1","0","0","5","2","4","1","3","5","4","4","3","2","637378161314627584","杨","453","","","","","","","","","","","","","","","","","","","true","14","4","moral","626","positive","廉正","","","","","","","","","","","","","","",""
"null","","null","html-keyboard-response","124","278968","0.0-6.0-1.0-8.0-0.8","3","3","3","4","3","4","3","3","3","3","3","4","3","4","4","4","5","3","4","4","2","2","2","2","2","2","1","2","1","1","1","0","0","1","1","0","0","0","0","0","0","1","0","0","5","2","4","1","3","5","4","4","3","2","637378161314627584","杨","453","","","","","","","","","","","","","","","","","","","","","","","","","","","","","","","","","","","","","","","",""
"857","<p style=""color:rgb(150, 250, 100); font-size: 35px;"">我的</p>","i","categorize-html","125","279829","0.0-6.0-1.0-8.0-1.8","3","3","3","4","3","4","3","3","3","3","3","4","3","4","4","4","5","3","4","4","2","2","2","2","2","2","1","2","1","1","1","0","0","1","1","0","0","0","0","0","0","1","0","0","5","2","4","1","3","5","4","4","3","2","637378161314627584","杨","453","","","","","","","","","","","","","","","","","","","true","14","4","moral","857","self","我的","","","","","","","","","","","","","","",""
"null","","null","html-keyboard-response","126","280094","0.0-6.0-1.0-8.0-0.9","3","3","3","4","3","4","3","3","3","3","3","4","3","4","4","4","5","3","4","4","2","2","2","2","2","2","1","2","1","1","1","0","0","1","1","0","0","0","0","0","0","1","0","0","5","2","4","1","3","5","4","4","3","2","637378161314627584","杨","453","","","","","","","","","","","","","","","","","","","","","","","","","","","","","","","","","","","","","","","",""
"744","<p style=""color:white; font-size: 35px;"">缺德</p>","e","categorize-html","127","280839","0.0-6.0-1.0-8.0-1.9","3","3","3","4","3","4","3","3","3","3","3","4","3","4","4","4","5","3","4","4","2","2","2","2","2","2","1","2","1","1","1","0","0","1","1","0","0","0","0","0","0","1","0","0","5","2","4","1","3","5","4","4","3","2","637378161314627584","杨","453","","","","","","","","","","","","","","","","","","","true","14","4","moral","744","negative","缺德","","","","","","","","","","","","","","",""
"null","","null","html-keyboard-response","128","281098","0.0-6.0-1.0-8.0-0.10","3","3","3","4","3","4","3","3","3","3","3","4","3","4","4","4","5","3","4","4","2","2","2","2","2","2","1","2","1","1","1","0","0","1","1","0","0","0","0","0","0","1","0","0","5","2","4","1","3","5","4","4","3","2","637378161314627584","杨","453","","","","","","","","","","","","","","","","","","","","","","","","","","","","","","","","","","","","","","","",""
"795","<p style=""color:rgb(150, 250, 100); font-size: 35px;"">他人的</p>","e","categorize-html","129","281895","0.0-6.0-1.0-8.0-1.10","3","3","3","4","3","4","3","3","3","3","3","4","3","4","4","4","5","3","4","4","2","2","2","2","2","2","1","2","1","1","1","0","0","1","1","0","0","0","0","0","0","1","0","0","5","2","4","1","3","5","4","4","3","2","637378161314627584","杨","453","","","","","","","","","","","","","","","","","","","true","14","4","moral","795","other","他人的","","","","","","","","","","","","","","",""
"null","","null","html-keyboard-response","130","282152","0.0-6.0-1.0-8.0-0.11","3","3","3","4","3","4","3","3","3","3","3","4","3","4","4","4","5","3","4","4","2","2","2","2","2","2","1","2","1","1","1","0","0","1","1","0","0","0","0","0","0","1","0","0","5","2","4","1","3","5","4","4","3","2","637378161314627584","杨","453","","","","","","","","","","","","","","","","","","","","","","","","","","","","","","","","","","","","","","","",""
"712","<p style=""color:white; font-size: 35px;"">正直</p>","i","categorize-html","131","282866","0.0-6.0-1.0-8.0-1.11","3","3","3","4","3","4","3","3","3","3","3","4","3","4","4","4","5","3","4","4","2","2","2","2","2","2","1","2","1","1","1","0","0","1","1","0","0","0","0","0","0","1","0","0","5","2","4","1","3","5","4","4","3","2","637378161314627584","杨","453","","","","","","","","","","","","","","","","","","","true","14","4","moral","712","positive","正直","","","","","","","","","","","","","","",""
"null","","null","html-keyboard-response","132","283130","0.0-6.0-1.0-8.0-0.12","3","3","3","4","3","4","3","3","3","3","3","4","3","4","4","4","5","3","4","4","2","2","2","2","2","2","1","2","1","1","1","0","0","1","1","0","0","0","0","0","0","1","0","0","5","2","4","1","3","5","4","4","3","2","637378161314627584","杨","453","","","","","","","","","","","","","","","","","","","","","","","","","","","","","","","","","","","","","","","",""
"728","<p style=""color:rgb(150, 250, 100); font-size: 35px;"">他人的</p>","e","categorize-html","133","283860","0.0-6.0-1.0-8.0-1.12","3","3","3","4","3","4","3","3","3","3","3","4","3","4","4","4","5","3","4","4","2","2","2","2","2","2","1","2","1","1","1","0","0","1","1","0","0","0","0","0","0","1","0","0","5","2","4","1","3","5","4","4","3","2","637378161314627584","杨","453","","","","","","","","","","","","","","","","","","","true","14","4","moral","728","other","他人的","","","","","","","","","","","","","","",""
"null","","null","html-keyboard-response","134","284115","0.0-6.0-1.0-8.0-0.13","3","3","3","4","3","4","3","3","3","3","3","4","3","4","4","4","5","3","4","4","2","2","2","2","2","2","1","2","1","1","1","0","0","1","1","0","0","0","0","0","0","1","0","0","5","2","4","1","3","5","4","4","3","2","637378161314627584","杨","453","","","","","","","","","","","","","","","","","","","","","","","","","","","","","","","","","","","","","","","",""
"709","<p style=""color:white; font-size: 35px;"">君子</p>","i","categorize-html","135","284827","0.0-6.0-1.0-8.0-1.13","3","3","3","4","3","4","3","3","3","3","3","4","3","4","4","4","5","3","4","4","2","2","2","2","2","2","1","2","1","1","1","0","0","1","1","0","0","0","0","0","0","1","0","0","5","2","4","1","3","5","4","4","3","2","637378161314627584","杨","453","","","","","","","","","","","","","","","","","","","true","14","4","moral","709","positive","君子","","","","","","","","","","","","","","",""
"null","","null","html-keyboard-response","136","285087","0.0-6.0-1.0-8.0-0.14","3","3","3","4","3","4","3","3","3","3","3","4","3","4","4","4","5","3","4","4","2","2","2","2","2","2","1","2","1","1","1","0","0","1","1","0","0","0","0","0","0","1","0","0","5","2","4","1","3","5","4","4","3","2","637378161314627584","杨","453","","","","","","","","","","","","","","","","","","","","","","","","","","","","","","","","","","","","","","","",""
"701","<p style=""color:rgb(150, 250, 100); font-size: 35px;"">我</p>","i","categorize-html","137","285790","0.0-6.0-1.0-8.0-1.14","3","3","3","4","3","4","3","3","3","3","3","4","3","4","4","4","5","3","4","4","2","2","2","2","2","2","1","2","1","1","1","0","0","1","1","0","0","0","0","0","0","1","0","0","5","2","4","1","3","5","4","4","3","2","637378161314627584","杨","453","","","","","","","","","","","","","","","","","","","true","14","4","moral","701","self","我","","","","","","","","","","","","","","",""
"null","","null","html-keyboard-response","138","286042","0.0-6.0-1.0-8.0-0.15","3","3","3","4","3","4","3","3","3","3","3","4","3","4","4","4","5","3","4","4","2","2","2","2","2","2","1","2","1","1","1","0","0","1","1","0","0","0","0","0","0","1","0","0","5","2","4","1","3","5","4","4","3","2","637378161314627584","杨","453","","","","","","","","","","","","","","","","","","","","","","","","","","","","","","","","","","","","","","","",""
"796","<p style=""color:white; font-size: 35px;"">不孝</p>","e","categorize-html","139","286842","0.0-6.0-1.0-8.0-1.15","3","3","3","4","3","4","3","3","3","3","3","4","3","4","4","4","5","3","4","4","2","2","2","2","2","2","1","2","1","1","1","0","0","1","1","0","0","0","0","0","0","1","0","0","5","2","4","1","3","5","4","4","3","2","637378161314627584","杨","453","","","","","","","","","","","","","","","","","","","true","14","4","moral","796","negative","不孝","","","","","","","","","","","","","","",""
"null","","null","html-keyboard-response","140","287104","0.0-6.0-1.0-8.0-0.16","3","3","3","4","3","4","3","3","3","3","3","4","3","4","4","4","5","3","4","4","2","2","2","2","2","2","1","2","1","1","1","0","0","1","1","0","0","0","0","0","0","1","0","0","5","2","4","1","3","5","4","4","3","2","637378161314627584","杨","453","","","","","","","","","","","","","","","","","","","","","","","","","","","","","","","","","","","","","","","",""
"739","<p style=""color:rgb(150, 250, 100); font-size: 35px;"">自己</p>","i","categorize-html","141","287846","0.0-6.0-1.0-8.0-1.16","3","3","3","4","3","4","3","3","3","3","3","4","3","4","4","4","5","3","4","4","2","2","2","2","2","2","1","2","1","1","1","0","0","1","1","0","0","0","0","0","0","1","0","0","5","2","4","1","3","5","4","4","3","2","637378161314627584","杨","453","","","","","","","","","","","","","","","","","","","true","14","4","moral","739","self","自己","","","","","","","","","","","","","","",""
"null","","null","html-keyboard-response","142","288108","0.0-6.0-1.0-8.0-0.17","3","3","3","4","3","4","3","3","3","3","3","4","3","4","4","4","5","3","4","4","2","2","2","2","2","2","1","2","1","1","1","0","0","1","1","0","0","0","0","0","0","1","0","0","5","2","4","1","3","5","4","4","3","2","637378161314627584","杨","453","","","","","","","","","","","","","","","","","","","","","","","","","","","","","","","","","","","","","","","",""
"694","<p style=""color:white; font-size: 35px;"">黑心</p>","e","categorize-html","143","288804","0.0-6.0-1.0-8.0-1.17","3","3","3","4","3","4","3","3","3","3","3","4","3","4","4","4","5","3","4","4","2","2","2","2","2","2","1","2","1","1","1","0","0","1","1","0","0","0","0","0","0","1","0","0","5","2","4","1","3","5","4","4","3","2","637378161314627584","杨","453","","","","","","","","","","","","","","","","","","","true","14","4","moral","694","negative","黑心","","","","","","","","","","","","","","",""
"null","","null","html-keyboard-response","144","289070","0.0-6.0-1.0-8.0-0.18","3","3","3","4","3","4","3","3","3","3","3","4","3","4","4","4","5","3","4","4","2","2","2","2","2","2","1","2","1","1","1","0","0","1","1","0","0","0","0","0","0","1","0","0","5","2","4","1","3","5","4","4","3","2","637378161314627584","杨","453","","","","","","","","","","","","","","","","","","","","","","","","","","","","","","","","","","","","","","","",""
"764","<p style=""color:rgb(150, 250, 100); font-size: 35px;"">他</p>","e","categorize-html","145","289835","0.0-6.0-1.0-8.0-1.18","3","3","3","4","3","4","3","3","3","3","3","4","3","4","4","4","5","3","4","4","2","2","2","2","2","2","1","2","1","1","1","0","0","1","1","0","0","0","0","0","0","1","0","0","5","2","4","1","3","5","4","4","3","2","637378161314627584","杨","453","","","","","","","","","","","","","","","","","","","true","14","4","moral","764","other","他","","","","","","","","","","","","","","",""
"null","","null","html-keyboard-response","146","290086","0.0-6.0-1.0-8.0-0.19","3","3","3","4","3","4","3","3","3","3","3","4","3","4","4","4","5","3","4","4","2","2","2","2","2","2","1","2","1","1","1","0","0","1","1","0","0","0","0","0","0","1","0","0","5","2","4","1","3","5","4","4","3","2","637378161314627584","杨","453","","","","","","","","","","","","","","","","","","","","","","","","","","","","","","","","","","","","","","","",""
"1257","<p style=""color:white; font-size: 35px;"">诚信</p>","i","categorize-html","147","291344","0.0-6.0-1.0-8.0-1.19","3","3","3","4","3","4","3","3","3","3","3","4","3","4","4","4","5","3","4","4","2","2","2","2","2","2","1","2","1","1","1","0","0","1","1","0","0","0","0","0","0","1","0","0","5","2","4","1","3","5","4","4","3","2","637378161314627584","杨","453","","","","","","","","","","","","","","","","","","","true","14","4","moral","1257","positive","诚信","","","","","","","","","","","","","","",""
"null","","null","html-keyboard-response","148","291605","0.0-6.0-1.0-8.0-0.20","3","3","3","4","3","4","3","3","3","3","3","4","3","4","4","4","5","3","4","4","2","2","2","2","2","2","1","2","1","1","1","0","0","1","1","0","0","0","0","0","0","1","0","0","5","2","4","1","3","5","4","4","3","2","637378161314627584","杨","453","","","","","","","","","","","","","","","","","","","","","","","","","","","","","","","","","","","","","","","",""
"725","<p style=""color:rgb(150, 250, 100); font-size: 35px;"">他人</p>","e","categorize-html","149","292332","0.0-6.0-1.0-8.0-1.20","3","3","3","4","3","4","3","3","3","3","3","4","3","4","4","4","5","3","4","4","2","2","2","2","2","2","1","2","1","1","1","0","0","1","1","0","0","0","0","0","0","1","0","0","5","2","4","1","3","5","4","4","3","2","637378161314627584","杨","453","","","","","","","","","","","","","","","","","","","true","14","4","moral","725","other","他人","","","","","","","","","","","","","","",""
"null","","null","html-keyboard-response","150","292586","0.0-6.0-1.0-8.0-0.21","3","3","3","4","3","4","3","3","3","3","3","4","3","4","4","4","5","3","4","4","2","2","2","2","2","2","1","2","1","1","1","0","0","1","1","0","0","0","0","0","0","1","0","0","5","2","4","1","3","5","4","4","3","2","637378161314627584","杨","453","","","","","","","","","","","","","","","","","","","","","","","","","","","","","","","","","","","","","","","",""
"699","<p style=""color:white; font-size: 35px;"">高尚</p>","i","categorize-html","151","293285","0.0-6.0-1.0-8.0-1.21","3","3","3","4","3","4","3","3","3","3","3","4","3","4","4","4","5","3","4","4","2","2","2","2","2","2","1","2","1","1","1","0","0","1","1","0","0","0","0","0","0","1","0","0","5","2","4","1","3","5","4","4","3","2","637378161314627584","杨","453","","","","","","","","","","","","","","","","","","","true","14","4","moral","699","positive","高尚","","","","","","","","","","","","","","",""
"null","","null","html-keyboard-response","152","293539","0.0-6.0-1.0-8.0-0.22","3","3","3","4","3","4","3","3","3","3","3","4","3","4","4","4","5","3","4","4","2","2","2","2","2","2","1","2","1","1","1","0","0","1","1","0","0","0","0","0","0","1","0","0","5","2","4","1","3","5","4","4","3","2","637378161314627584","杨","453","","","","","","","","","","","","","","","","","","","","","","","","","","","","","","","","","","","","","","","",""
"756","<p style=""color:rgb(150, 250, 100); font-size: 35px;"">本人</p>","i","categorize-html","153","294297","0.0-6.0-1.0-8.0-1.22","3","3","3","4","3","4","3","3","3","3","3","4","3","4","4","4","5","3","4","4","2","2","2","2","2","2","1","2","1","1","1","0","0","1","1","0","0","0","0","0","0","1","0","0","5","2","4","1","3","5","4","4","3","2","637378161314627584","杨","453","","","","","","","","","","","","","","","","","","","true","14","4","moral","756","self","本人","","","","","","","","","","","","","","",""
"null","","null","html-keyboard-response","154","294550","0.0-6.0-1.0-8.0-0.23","3","3","3","4","3","4","3","3","3","3","3","4","3","4","4","4","5","3","4","4","2","2","2","2","2","2","1","2","1","1","1","0","0","1","1","0","0","0","0","0","0","1","0","0","5","2","4","1","3","5","4","4","3","2","637378161314627584","杨","453","","","","","","","","","","","","","","","","","","","","","","","","","","","","","","","","","","","","","","","",""
"729","<p style=""color:white; font-size: 35px;"">缺德</p>","e","categorize-html","155","295282","0.0-6.0-1.0-8.0-1.23","3","3","3","4","3","4","3","3","3","3","3","4","3","4","4","4","5","3","4","4","2","2","2","2","2","2","1","2","1","1","1","0","0","1","1","0","0","0","0","0","0","1","0","0","5","2","4","1","3","5","4","4","3","2","637378161314627584","杨","453","","","","","","","","","","","","","","","","","","","true","14","4","moral","729","negative","缺德","","","","","","","","","","","","","","",""
"null","","null","html-keyboard-response","156","295541","0.0-6.0-1.0-8.0-0.24","3","3","3","4","3","4","3","3","3","3","3","4","3","4","4","4","5","3","4","4","2","2","2","2","2","2","1","2","1","1","1","0","0","1","1","0","0","0","0","0","0","1","0","0","5","2","4","1","3","5","4","4","3","2","637378161314627584","杨","453","","","","","","","","","","","","","","","","","","","","","","","","","","","","","","","","","","","","","","","",""
"768","<p style=""color:rgb(150, 250, 100); font-size: 35px;"">自己</p>","i","categorize-html","157","296321","0.0-6.0-1.0-8.0-1.24","3","3","3","4","3","4","3","3","3","3","3","4","3","4","4","4","5","3","4","4","2","2","2","2","2","2","1","2","1","1","1","0","0","1","1","0","0","0","0","0","0","1","0","0","5","2","4","1","3","5","4","4","3","2","637378161314627584","杨","453","","","","","","","","","","","","","","","","","","","true","14","4","moral","768","self","自己","","","","","","","","","","","","","","",""
"null","","null","html-keyboard-response","158","296591","0.0-6.0-1.0-8.0-0.25","3","3","3","4","3","4","3","3","3","3","3","4","3","4","4","4","5","3","4","4","2","2","2","2","2","2","1","2","1","1","1","0","0","1","1","0","0","0","0","0","0","1","0","0","5","2","4","1","3","5","4","4","3","2","637378161314627584","杨","453","","","","","","","","","","","","","","","","","","","","","","","","","","","","","","","","","","","","","","","",""
"690","<p style=""color:white; font-size: 35px;"">卑鄙</p>","e","categorize-html","159","297288","0.0-6.0-1.0-8.0-1.25","3","3","3","4","3","4","3","3","3","3","3","4","3","4","4","4","5","3","4","4","2","2","2","2","2","2","1","2","1","1","1","0","0","1","1","0","0","0","0","0","0","1","0","0","5","2","4","1","3","5","4","4","3","2","637378161314627584","杨","453","","","","","","","","","","","","","","","","","","","true","14","4","moral","690","negative","卑鄙","","","","","","","","","","","","","","",""
"null","","null","html-keyboard-response","160","297545","0.0-6.0-1.0-8.0-0.26","3","3","3","4","3","4","3","3","3","3","3","4","3","4","4","4","5","3","4","4","2","2","2","2","2","2","1","2","1","1","1","0","0","1","1","0","0","0","0","0","0","1","0","0","5","2","4","1","3","5","4","4","3","2","637378161314627584","杨","453","","","","","","","","","","","","","","","","","","","","","","","","","","","","","","","","","","","","","","","",""
"672","<p style=""color:rgb(150, 250, 100); font-size: 35px;"">别人</p>","e","categorize-html","161","298220","0.0-6.0-1.0-8.0-1.26","3","3","3","4","3","4","3","3","3","3","3","4","3","4","4","4","5","3","4","4","2","2","2","2","2","2","1","2","1","1","1","0","0","1","1","0","0","0","0","0","0","1","0","0","5","2","4","1","3","5","4","4","3","2","637378161314627584","杨","453","","","","","","","","","","","","","","","","","","","true","14","4","moral","672","other","别人","","","","","","","","","","","","","","",""
"null","","null","html-keyboard-response","162","298478","0.0-6.0-1.0-8.0-0.27","3","3","3","4","3","4","3","3","3","3","3","4","3","4","4","4","5","3","4","4","2","2","2","2","2","2","1","2","1","1","1","0","0","1","1","0","0","0","0","0","0","1","0","0","5","2","4","1","3","5","4","4","3","2","637378161314627584","杨","453","","","","","","","","","","","","","","","","","","","","","","","","","","","","","","","","","","","","","","","",""
"1029","<p style=""color:white; font-size: 35px;"">正直</p>","i","categorize-html","163","299509","0.0-6.0-1.0-8.0-1.27","3","3","3","4","3","4","3","3","3","3","3","4","3","4","4","4","5","3","4","4","2","2","2","2","2","2","1","2","1","1","1","0","0","1","1","0","0","0","0","0","0","1","0","0","5","2","4","1","3","5","4","4","3","2","637378161314627584","杨","453","","","","","","","","","","","","","","","","","","","true","14","4","moral","1029","positive","正直","","","","","","","","","","","","","","",""
"null","","null","html-keyboard-response","164","299776","0.0-6.0-1.0-8.0-0.28","3","3","3","4","3","4","3","3","3","3","3","4","3","4","4","4","5","3","4","4","2","2","2","2","2","2","1","2","1","1","1","0","0","1","1","0","0","0","0","0","0","1","0","0","5","2","4","1","3","5","4","4","3","2","637378161314627584","杨","453","","","","","","","","","","","","","","","","","","","","","","","","","","","","","","","","","","","","","","","",""
"1004","<p style=""color:rgb(150, 250, 100); font-size: 35px;"">他的</p>","e","categorize-html","165","300782","0.0-6.0-1.0-8.0-1.28","3","3","3","4","3","4","3","3","3","3","3","4","3","4","4","4","5","3","4","4","2","2","2","2","2","2","1","2","1","1","1","0","0","1","1","0","0","0","0","0","0","1","0","0","5","2","4","1","3","5","4","4","3","2","637378161314627584","杨","453","","","","","","","","","","","","","","","","","","","true","14","4","moral","1004","other","他的","","","","","","","","","","","","","","",""
"null","","null","html-keyboard-response","166","301033","0.0-6.0-1.0-8.0-0.29","3","3","3","4","3","4","3","3","3","3","3","4","3","4","4","4","5","3","4","4","2","2","2","2","2","2","1","2","1","1","1","0","0","1","1","0","0","0","0","0","0","1","0","0","5","2","4","1","3","5","4","4","3","2","637378161314627584","杨","453","","","","","","","","","","","","","","","","","","","","","","","","","","","","","","","","","","","","","","","",""
"753","<p style=""color:white; font-size: 35px;"">不仁</p>","e","categorize-html","167","301788","0.0-6.0-1.0-8.0-1.29","3","3","3","4","3","4","3","3","3","3","3","4","3","4","4","4","5","3","4","4","2","2","2","2","2","2","1","2","1","1","1","0","0","1","1","0","0","0","0","0","0","1","0","0","5","2","4","1","3","5","4","4","3","2","637378161314627584","杨","453","","","","","","","","","","","","","","","","","","","true","14","4","moral","753","negative","不仁","","","","","","","","","","","","","","",""
"null","","null","html-keyboard-response","168","302053","0.0-6.0-1.0-8.0-0.30","3","3","3","4","3","4","3","3","3","3","3","4","3","4","4","4","5","3","4","4","2","2","2","2","2","2","1","2","1","1","1","0","0","1","1","0","0","0","0","0","0","1","0","0","5","2","4","1","3","5","4","4","3","2","637378161314627584","杨","453","","","","","","","","","","","","","","","","","","","","","","","","","","","","","","","","","","","","","","","",""
"721","<p style=""color:rgb(150, 250, 100); font-size: 35px;"">本人的</p>","i","categorize-html","169","302776","0.0-6.0-1.0-8.0-1.30","3","3","3","4","3","4","3","3","3","3","3","4","3","4","4","4","5","3","4","4","2","2","2","2","2","2","1","2","1","1","1","0","0","1","1","0","0","0","0","0","0","1","0","0","5","2","4","1","3","5","4","4","3","2","637378161314627584","杨","453","","","","","","","","","","","","","","","","","","","true","14","4","moral","721","self","本人的","","","","","","","","","","","","","","",""
"null","","null","html-keyboard-response","170","303040","0.0-6.0-1.0-8.0-0.31","3","3","3","4","3","4","3","3","3","3","3","4","3","4","4","4","5","3","4","4","2","2","2","2","2","2","1","2","1","1","1","0","0","1","1","0","0","0","0","0","0","1","0","0","5","2","4","1","3","5","4","4","3","2","637378161314627584","杨","453","","","","","","","","","","","","","","","","","","","","","","","","","","","","","","","","","","","","","","","",""
"777","<p style=""color:white; font-size: 35px;"">善良</p>","i","categorize-html","171","303818","0.0-6.0-1.0-8.0-1.31","3","3","3","4","3","4","3","3","3","3","3","4","3","4","4","4","5","3","4","4","2","2","2","2","2","2","1","2","1","1","1","0","0","1","1","0","0","0","0","0","0","1","0","0","5","2","4","1","3","5","4","4","3","2","637378161314627584","杨","453","","","","","","","","","","","","","","","","","","","true","14","4","moral","777","positive","善良","","","","","","","","","","","","","","",""
"null","","null","html-keyboard-response","172","304074","0.0-6.0-1.0-8.0-0.32","3","3","3","4","3","4","3","3","3","3","3","4","3","4","4","4","5","3","4","4","2","2","2","2","2","2","1","2","1","1","1","0","0","1","1","0","0","0","0","0","0","1","0","0","5","2","4","1","3","5","4","4","3","2","637378161314627584","杨","453","","","","","","","","","","","","","","","","","","","","","","","","","","","","","","","","","","","","","","","",""
"1360","<p style=""color:rgb(150, 250, 100); font-size: 35px;"">他人</p>","e","categorize-html","173","305437","0.0-6.0-1.0-8.0-1.32","3","3","3","4","3","4","3","3","3","3","3","4","3","4","4","4","5","3","4","4","2","2","2","2","2","2","1","2","1","1","1","0","0","1","1","0","0","0","0","0","0","1","0","0","5","2","4","1","3","5","4","4","3","2","637378161314627584","杨","453","","","","","","","","","","","","","","","","","","","true","14","4","moral","1360","other","他人","","","","","","","","","","","","","","",""
"null","","null","html-keyboard-response","174","305691","0.0-6.0-1.0-8.0-0.33","3","3","3","4","3","4","3","3","3","3","3","4","3","4","4","4","5","3","4","4","2","2","2","2","2","2","1","2","1","1","1","0","0","1","1","0","0","0","0","0","0","1","0","0","5","2","4","1","3","5","4","4","3","2","637378161314627584","杨","453","","","","","","","","","","","","","","","","","","","","","","","","","","","","","","","","","","","","","","","",""
"684","<p style=""color:white; font-size: 35px;"">高尚</p>","i","categorize-html","175","306376","0.0-6.0-1.0-8.0-1.33","3","3","3","4","3","4","3","3","3","3","3","4","3","4","4","4","5","3","4","4","2","2","2","2","2","2","1","2","1","1","1","0","0","1","1","0","0","0","0","0","0","1","0","0","5","2","4","1","3","5","4","4","3","2","637378161314627584","杨","453","","","","","","","","","","","","","","","","","","","true","14","4","moral","684","positive","高尚","","","","","","","","","","","","","","",""
"null","","null","html-keyboard-response","176","306632","0.0-6.0-1.0-8.0-0.34","3","3","3","4","3","4","3","3","3","3","3","4","3","4","4","4","5","3","4","4","2","2","2","2","2","2","1","2","1","1","1","0","0","1","1","0","0","0","0","0","0","1","0","0","5","2","4","1","3","5","4","4","3","2","637378161314627584","杨","453","","","","","","","","","","","","","","","","","","","","","","","","","","","","","","","","","","","","","","","",""
"782","<p style=""color:rgb(150, 250, 100); font-size: 35px;"">本人</p>","i","categorize-html","177","307415","0.0-6.0-1.0-8.0-1.34","3","3","3","4","3","4","3","3","3","3","3","4","3","4","4","4","5","3","4","4","2","2","2","2","2","2","1","2","1","1","1","0","0","1","1","0","0","0","0","0","0","1","0","0","5","2","4","1","3","5","4","4","3","2","637378161314627584","杨","453","","","","","","","","","","","","","","","","","","","true","14","4","moral","782","self","本人","","","","","","","","","","","","","","",""
"null","","null","html-keyboard-response","178","307682","0.0-6.0-1.0-8.0-0.35","3","3","3","4","3","4","3","3","3","3","3","4","3","4","4","4","5","3","4","4","2","2","2","2","2","2","1","2","1","1","1","0","0","1","1","0","0","0","0","0","0","1","0","0","5","2","4","1","3","5","4","4","3","2","637378161314627584","杨","453","","","","","","","","","","","","","","","","","","","","","","","","","","","","","","","","","","","","","","","",""
"1760","<p style=""color:white; font-size: 35px;"">不孝</p>","e","categorize-html","179","309444","0.0-6.0-1.0-8.0-1.35","3","3","3","4","3","4","3","3","3","3","3","4","3","4","4","4","5","3","4","4","2","2","2","2","2","2","1","2","1","1","1","0","0","1","1","0","0","0","0","0","0","1","0","0","5","2","4","1","3","5","4","4","3","2","637378161314627584","杨","453","","","","","","","","","","","","","","","","","","","true","14","4","moral","1760","negative","不孝","","","","","","","","","","","","","","",""
"null","","null","html-keyboard-response","180","309699","0.0-6.0-1.0-8.0-0.36","3","3","3","4","3","4","3","3","3","3","3","4","3","4","4","4","5","3","4","4","2","2","2","2","2","2","1","2","1","1","1","0","0","1","1","0","0","0","0","0","0","1","0","0","5","2","4","1","3","5","4","4","3","2","637378161314627584","杨","453","","","","","","","","","","","","","","","","","","","","","","","","","","","","","","","","","","","","","","","",""
"613","<p style=""color:rgb(150, 250, 100); font-size: 35px;"">我</p>","i","categorize-html","181","310315","0.0-6.0-1.0-8.0-1.36","3","3","3","4","3","4","3","3","3","3","3","4","3","4","4","4","5","3","4","4","2","2","2","2","2","2","1","2","1","1","1","0","0","1","1","0","0","0","0","0","0","1","0","0","5","2","4","1","3","5","4","4","3","2","637378161314627584","杨","453","","","","","","","","","","","","","","","","","","","true","14","4","moral","613","self","我","","","","","","","","","","","","","","",""
"null","","null","html-keyboard-response","182","310580","0.0-6.0-1.0-8.0-0.37","3","3","3","4","3","4","3","3","3","3","3","4","3","4","4","4","5","3","4","4","2","2","2","2","2","2","1","2","1","1","1","0","0","1","1","0","0","0","0","0","0","1","0","0","5","2","4","1","3","5","4","4","3","2","637378161314627584","杨","453","","","","","","","","","","","","","","","","","","","","","","","","","","","","","","","","","","","","","","","",""
"613","<p style=""color:white; font-size: 35px;"">廉正</p>","i","categorize-html","183","311196","0.0-6.0-1.0-8.0-1.37","3","3","3","4","3","4","3","3","3","3","3","4","3","4","4","4","5","3","4","4","2","2","2","2","2","2","1","2","1","1","1","0","0","1","1","0","0","0","0","0","0","1","0","0","5","2","4","1","3","5","4","4","3","2","637378161314627584","杨","453","","","","","","","","","","","","","","","","","","","true","14","4","moral","613","positive","廉正","","","","","","","","","","","","","","",""
"null","","null","html-keyboard-response","184","311458","0.0-6.0-1.0-8.0-0.38","3","3","3","4","3","4","3","3","3","3","3","4","3","4","4","4","5","3","4","4","2","2","2","2","2","2","1","2","1","1","1","0","0","1","1","0","0","0","0","0","0","1","0","0","5","2","4","1","3","5","4","4","3","2","637378161314627584","杨","453","","","","","","","","","","","","","","","","","","","","","","","","","","","","","","","","","","","","","","","",""
"602","<p style=""color:rgb(150, 250, 100); font-size: 35px;"">他</p>","i","categorize-html","185","312716","0.0-6.0-1.0-8.0-1.38","3","3","3","4","3","4","3","3","3","3","3","4","3","4","4","4","5","3","4","4","2","2","2","2","2","2","1","2","1","1","1","0","0","1","1","0","0","0","0","0","0","1","0","0","5","2","4","1","3","5","4","4","3","2","637378161314627584","杨","453","","","","","","","","","","","","","","","","","","","false","14","4","moral","1388.723404255319","other","他","","","","","","","","","","","","","","",""
"null","","null","html-keyboard-response","186","312979","0.0-6.0-1.0-8.0-0.39","3","3","3","4","3","4","3","3","3","3","3","4","3","4","4","4","5","3","4","4","2","2","2","2","2","2","1","2","1","1","1","0","0","1","1","0","0","0","0","0","0","1","0","0","5","2","4","1","3","5","4","4","3","2","637378161314627584","杨","453","","","","","","","","","","","","","","","","","","","","","","","","","","","","","","","","","","","","","","","",""
"654","<p style=""color:white; font-size: 35px;"">卑鄙</p>","e","categorize-html","187","313634","0.0-6.0-1.0-8.0-1.39","3","3","3","4","3","4","3","3","3","3","3","4","3","4","4","4","5","3","4","4","2","2","2","2","2","2","1","2","1","1","1","0","0","1","1","0","0","0","0","0","0","1","0","0","5","2","4","1","3","5","4","4","3","2","637378161314627584","杨","453","","","","","","","","","","","","","","","","","","","true","14","4","moral","654","negative","卑鄙","","","","","","","","","","","","","","",""
"null","","null","html-keyboard-response","188","313900","0.0-6.0-1.0-8.0-0.40","3","3","3","4","3","4","3","3","3","3","3","4","3","4","4","4","5","3","4","4","2","2","2","2","2","2","1","2","1","1","1","0","0","1","1","0","0","0","0","0","0","1","0","0","5","2","4","1","3","5","4","4","3","2","637378161314627584","杨","453","","","","","","","","","","","","","","","","","","","","","","","","","","","","","","","","","","","","","","","",""
"812","<p style=""color:rgb(150, 250, 100); font-size: 35px;"">本人的</p>","i","categorize-html","189","314715","0.0-6.0-1.0-8.0-1.40","3","3","3","4","3","4","3","3","3","3","3","4","3","4","4","4","5","3","4","4","2","2","2","2","2","2","1","2","1","1","1","0","0","1","1","0","0","0","0","0","0","1","0","0","5","2","4","1","3","5","4","4","3","2","637378161314627584","杨","453","","","","","","","","","","","","","","","","","","","true","14","4","moral","812","self","本人的","","","","","","","","","","","","","","",""
"null","","null","html-keyboard-response","190","314978","0.0-6.0-1.0-8.0-0.41","3","3","3","4","3","4","3","3","3","3","3","4","3","4","4","4","5","3","4","4","2","2","2","2","2","2","1","2","1","1","1","0","0","1","1","0","0","0","0","0","0","1","0","0","5","2","4","1","3","5","4","4","3","2","637378161314627584","杨","453","","","","","","","","","","","","","","","","","","","","","","","","","","","","","","","","","","","","","","","",""
"718","<p style=""color:white; font-size: 35px;"">君子</p>","i","categorize-html","191","315699","0.0-6.0-1.0-8.0-1.41","3","3","3","4","3","4","3","3","3","3","3","4","3","4","4","4","5","3","4","4","2","2","2","2","2","2","1","2","1","1","1","0","0","1","1","0","0","0","0","0","0","1","0","0","5","2","4","1","3","5","4","4","3","2","637378161314627584","杨","453","","","","","","","","","","","","","","","","","","","true","14","4","moral","718","positive","君子","","","","","","","","","","","","","","",""
"null","","null","html-keyboard-response","192","315964","0.0-6.0-1.0-8.0-0.42","3","3","3","4","3","4","3","3","3","3","3","4","3","4","4","4","5","3","4","4","2","2","2","2","2","2","1","2","1","1","1","0","0","1","1","0","0","0","0","0","0","1","0","0","5","2","4","1","3","5","4","4","3","2","637378161314627584","杨","453","","","","","","","","","","","","","","","","","","","","","","","","","","","","","","","","","","","","","","","",""
"672","<p style=""color:rgb(150, 250, 100); font-size: 35px;"">别人</p>","e","categorize-html","193","316638","0.0-6.0-1.0-8.0-1.42","3","3","3","4","3","4","3","3","3","3","3","4","3","4","4","4","5","3","4","4","2","2","2","2","2","2","1","2","1","1","1","0","0","1","1","0","0","0","0","0","0","1","0","0","5","2","4","1","3","5","4","4","3","2","637378161314627584","杨","453","","","","","","","","","","","","","","","","","","","true","14","4","moral","672","other","别人","","","","","","","","","","","","","","",""
"null","","null","html-keyboard-response","194","316892","0.0-6.0-1.0-8.0-0.43","3","3","3","4","3","4","3","3","3","3","3","4","3","4","4","4","5","3","4","4","2","2","2","2","2","2","1","2","1","1","1","0","0","1","1","0","0","0","0","0","0","1","0","0","5","2","4","1","3","5","4","4","3","2","637378161314627584","杨","453","","","","","","","","","","","","","","","","","","","","","","","","","","","","","","","","","","","","","","","",""
"740","<p style=""color:white; font-size: 35px;"">黑心</p>","e","categorize-html","195","317633","0.0-6.0-1.0-8.0-1.43","3","3","3","4","3","4","3","3","3","3","3","4","3","4","4","4","5","3","4","4","2","2","2","2","2","2","1","2","1","1","1","0","0","1","1","0","0","0","0","0","0","1","0","0","5","2","4","1","3","5","4","4","3","2","637378161314627584","杨","453","","","","","","","","","","","","","","","","","","","true","14","4","moral","740","negative","黑心","","","","","","","","","","","","","","",""
"null","","null","html-keyboard-response","196","317892","0.0-6.0-1.0-8.0-0.44","3","3","3","4","3","4","3","3","3","3","3","4","3","4","4","4","5","3","4","4","2","2","2","2","2","2","1","2","1","1","1","0","0","1","1","0","0","0","0","0","0","1","0","0","5","2","4","1","3","5","4","4","3","2","637378161314627584","杨","453","","","","","","","","","","","","","","","","","","","","","","","","","","","","","","","","","","","","","","","",""
"693","<p style=""color:rgb(150, 250, 100); font-size: 35px;"">自己的</p>","i","categorize-html","197","318586","0.0-6.0-1.0-8.0-1.44","3","3","3","4","3","4","3","3","3","3","3","4","3","4","4","4","5","3","4","4","2","2","2","2","2","2","1","2","1","1","1","0","0","1","1","0","0","0","0","0","0","1","0","0","5","2","4","1","3","5","4","4","3","2","637378161314627584","杨","453","","","","","","","","","","","","","","","","","","","true","14","4","moral","693","self","自己的","","","","","","","","","","","","","","",""
"null","","null","html-keyboard-response","198","318845","0.0-6.0-1.0-8.0-0.45","3","3","3","4","3","4","3","3","3","3","3","4","3","4","4","4","5","3","4","4","2","2","2","2","2","2","1","2","1","1","1","0","0","1","1","0","0","0","0","0","0","1","0","0","5","2","4","1","3","5","4","4","3","2","637378161314627584","杨","453","","","","","","","","","","","","","","","","","","","","","","","","","","","","","","","","","","","","","","","",""
