"rt","stimulus","response","trial_type","trial_index","time_elapsed","internal_node_id","ses_1","ses_2","ses_3","ses_4","ses_5","ses_6","ses_7","ses_8","ses_9","ses_10","coreself_1","coreself_2","coreself_3","coreself_4","coreself_5","coreself_6","coreself_7","coreself_8","coreself_9","coreself_10","SGPS_1","SGPS_2","SGPS_3","SGPS_4","SGPS_5","SGPS_6","SGPS_7","SGPS_8","SGPS_9","NPI1","NPI2","NPI3","NPI4","NPI5","NPI6","NPI7","NPI8","NPI9","NPI10","NPI11","NPI12","NPI13","NPI14","NPI15","hsns_1","hsns_2","hsns_3","hsns_4","hsns_5","hsns_6","hsns_7","hsns_8","hsns_9","hsns_10","subj_idx","friend_name","ParticipantID","value","success","user_agent","responses","item_order","radio_event_ids","radio_event_times","key_event_times","mouse_event_times","straightlining","zigzagging","honeypot","timeout","failed_images","failed_audio","failed_video","view_history","response_type","key_press","avg_frame_time","center_x","center_y","correct_response","correct","identity","Image","word","condition","task_id","screen_id","time_stamp","version_attrib2","version_target2","IAT","RT","varname","summary","version_attrib","version_target","question_order"
"12915","
   <p><div style = ""color: white;font-size:25px;"">您好，欢迎参加本次实验。</div> </p>
   <p><div style = ""color: white;font-size:25px;"">为充分保障您的权利，请确保您已经知晓并同意《参与实验同意书》以及《数据公开知情同意书》。</div></p>
   <p><div style = ""color: white;font-size:25px;"">如果您未见过上述内容，请咨询实验员。</div></p>
   <p><div style = ""color: white;font-size:25px;"">如果您选择继续实验，则表示您已经清楚两份知情同意书的内容并同意。</div></p>
   <p><div style = ""color: red;font-size:30px;"">请确保您记得day0的实验编号，您将在本次实验输入该编号，若您忘记，请咨询实验员后作答。</div></p>
   <p> <div style = ""color: green;font-size:25px;""><按空格键至下页></div> </p>
   "," ","html-keyboard-response","0","12916","0.0-0.0","4","4","4","4","4","4","4","3","4","4","5","5","5","5","5","5","5","5","5","5","1","1","1","1","1","1","1","1","1","0","1","0","0","0","0","0","1","0","0","0","0","1","0","1","5","1","1","1","1","1","3","1","2","1","557541487416442880","刘","37","","","","","","","","","","","","","","","","","","","","","","","","","","","","","","","","","","","","","","","",""
"","","","call-function","1","12917","0.0-1.0-0.0","4","4","4","4","4","4","4","3","4","4","5","5","5","5","5","5","5","5","5","5","1","1","1","1","1","1","1","1","1","0","1","0","0","0","0","0","1","0","0","0","0","1","0","1","5","1","1","1","1","1","3","1","2","1","557541487416442880","刘","37","","","","","","","","","","","","","","","","","","","","","","","","","","","","","","","","","","","","","","","",""
"80318","","{""friend_name"":""刘"",""ParticipantID"":""37""}","survey-html-form","2","93237","0.0-1.0-1.0","4","4","4","4","4","4","4","3","4","4","5","5","5","5","5","5","5","5","5","5","1","1","1","1","1","1","1","1","1","0","1","0","0","0","0","0","1","0","0","0","0","1","0","1","5","1","1","1","1","1","3","1","2","1","557541487416442880","刘","37","","","","","","","","","","","","","","","","","","","","","","","","","","","","","","","","","","","","","","","",""
"","","","fullscreen","3","94606","0.0-2.0","4","4","4","4","4","4","4","3","4","4","5","5","5","5","5","5","5","5","5","5","1","1","1","1","1","1","1","1","1","0","1","0","0","0","0","0","1","0","0","0","0","1","0","1","5","1","1","1","1","1","3","1","2","1","557541487416442880","刘","37","","true","{}","","","","","","","","","","","","","","","","","","","","","","","","","","","","","","","","","","","","",""
"35797.59999990463","","{""Q01"":""4"",""Q02"":""4"",""Q03"":""4"",""Q04"":""4"",""Q05"":""4"",""Q06"":""4"",""Q07"":""4"",""Q08"":""3"",""Q09"":""4"",""Q10"":""4""}","survey-template","4","130406","0.0-3.0","4","4","4","4","4","4","4","3","4","4","5","5","5","5","5","5","5","5","5","5","1","1","1","1","1","1","1","1","1","0","1","0","0","0","0","0","1","0","0","0","0","1","0","1","5","1","1","1","1","1","3","1","2","1","557541487416442880","刘","37","","","","{""Q01"":""4"",""Q02"":""4"",""Q03"":""4"",""Q04"":""4"",""Q05"":""4"",""Q06"":""4"",""Q07"":""4"",""Q08"":""3"",""Q09"":""4"",""Q10"":""4""}","[0,1,2,3,4,5,6,7,8,9]","[""Q01"",""Q02"",""Q03"",""Q04"",""Q05"",""Q06"",""Q07"",""Q08"",""Q09"",""Q10""]","[13697.699999809265,15572.900000095367,18037.099999904633,20296.800000190735,22737,24985,27209.900000095367,28961.599999904633,30404.800000190735,31485]","[]","[13697.699999809265,15572.900000095367,18037.099999904633,20296.800000190735,22737,24609,24985,27209.900000095367,28961.599999904633,30404.800000190735,31125.699999809265,31485,35796.90000009537]","0.5","0.5555555555555556","0","","","","","","","","","","","","","","","","","","","","","","","","","","","",""
"102380.69999980927","","{""Q01"":""5"",""Q02"":""5"",""Q03"":""5"",""Q04"":""5"",""Q05"":""5"",""Q06"":""5"",""Q07"":""5"",""Q08"":""5"",""Q09"":""5"",""Q10"":""5""}","survey-template","5","232790","0.0-4.0","4","4","4","4","4","4","4","3","4","4","5","5","5","5","5","5","5","5","5","5","1","1","1","1","1","1","1","1","1","0","1","0","0","0","0","0","1","0","0","0","0","1","0","1","5","1","1","1","1","1","3","1","2","1","557541487416442880","刘","37","","","","{""Q01"":""5"",""Q02"":""5"",""Q03"":""5"",""Q04"":""5"",""Q05"":""5"",""Q06"":""5"",""Q07"":""5"",""Q08"":""5"",""Q09"":""5"",""Q10"":""5""}","[0,1,2,3,4,5,6,7,8,9]","[""Q01"",""Q02"",""Q03"",""Q04"",""Q05"",""Q06"",""Q07"",""Q08"",""Q09"",""Q10""]","[3460.0999999046326,5132,8100,14404.099999904633,18715.89999961853,29060.39999961853,33324,58884.699999809265,64733.09999990463,69493.19999980927]","[]","[3460.0999999046326,5132,8100,14404.099999904633,15996.199999809265,18715.89999961853,29060.39999961853,33324,58884.699999809265,64733.09999990463,67955.89999961853,68892.89999961853,69493.19999980927,102380.09999990463]","0.6","0.7777777777777778","0","","","","","","","","","","","","","","","","","","","","","","","","","","","",""
"","","","preload","6","233160","0.0-5.0","4","4","4","4","4","4","4","3","4","4","5","5","5","5","5","5","5","5","5","5","1","1","1","1","1","1","1","1","1","0","1","0","0","0","0","0","1","0","0","0","0","1","0","1","5","1","1","1","1","1","3","1","2","1","557541487416442880","刘","37","","true","","","","","","","","","","","false","[]","[]","[]","","","","","","","","","","","","","","","","","","","","","","","",""
"23041","","","instructions","7","256201","0.0-6.0","4","4","4","4","4","4","4","3","4","4","5","5","5","5","5","5","5","5","5","5","1","1","1","1","1","1","1","1","1","0","1","0","0","0","0","0","1","0","0","0","0","1","0","1","5","1","1","1","1","1","3","1","2","1","557541487416442880","刘","37","","","","","","","","","","","","","","","","","[{""page_index"":0,""viewing_time"":23041}]","","","","","","","","","","","","","","","","","","","","","","",""
"44559","","","instructions","8","300761","0.0-7.0-1.0-0.0","4","4","4","4","4","4","4","3","4","4","5","5","5","5","5","5","5","5","5","5","1","1","1","1","1","1","1","1","1","0","1","0","0","0","0","0","1","0","0","0","0","1","0","1","5","1","1","1","1","1","3","1","2","1","557541487416442880","刘","37","","","","","","","","","","","","","","","","","[{""page_index"":0,""viewing_time"":41319},{""page_index"":1,""viewing_time"":1432},{""page_index"":2,""viewing_time"":1808}]","","","","","","","","","","","","","","","","","","","","","","",""
"null","","null","psychophysics","9","302965","0.0-7.0-1.0-1.0-0.0-0.0","4","4","4","4","4","4","4","3","4","4","5","5","5","5","5","5","5","5","5","5","1","1","1","1","1","1","1","1","1","0","1","0","0","0","0","0","1","0","0","0","0","1","0","1","5","1","1","1","1","1","3","1","2","1","557541487416442880","刘","37","","","","null","","","","","","","","","","","","","","key","null","8.331908396946645","853.3333333333334","476","f","false","nonmatch","img/square.png","六边","方形","ALT1_2","prac_ALT1_2","","","","","","","","","",""
"null","<span class='add_' style='color:yellow; font-size: 70px;'> 太慢! </span>","null","html-keyboard-response","10","303472","0.0-7.0-1.0-1.0-0.0-1.0","4","4","4","4","4","4","4","3","4","4","5","5","5","5","5","5","5","5","5","5","1","1","1","1","1","1","1","1","1","0","1","0","0","0","0","0","1","0","0","0","0","1","0","1","5","1","1","1","1","1","3","1","2","1","557541487416442880","刘","37","","","","","","","","","","","","","","","","","","","","","","","","","","","","","","feedback_test","","","","","","","","","",""
"611","","j","psychophysics","11","305085","0.0-7.0-1.0-1.0-0.0-0.1","4","4","4","4","4","4","4","3","4","4","5","5","5","5","5","5","5","5","5","5","1","1","1","1","1","1","1","1","1","0","1","0","0","0","0","0","1","0","0","0","0","1","0","1","5","1","1","1","1","1","3","1","2","1","557541487416442880","刘","37","","","","match","","","","","","","","","","","","","","key","j","8.333130208333387","853.3333333333334","476","f","false","nonmatch","img/ellipse.png","梯形","椭圆","ALT1_2","prac_ALT1_2","","","","","","","","","",""
"null","<span style='color:red; font-size: 70px;'>错误! </span>","null","html-keyboard-response","12","305585","0.0-7.0-1.0-1.0-0.0-1.1","4","4","4","4","4","4","4","3","4","4","5","5","5","5","5","5","5","5","5","5","1","1","1","1","1","1","1","1","1","0","1","0","0","0","0","0","1","0","0","0","0","1","0","1","5","1","1","1","1","1","3","1","2","1","557541487416442880","刘","37","","","","","","","","","","","","","","","","","","","","","","","","","","","","","","feedback_test","","","","","","","","","",""
"1099","","j","psychophysics","13","307685","0.0-7.0-1.0-1.0-0.0-0.2","4","4","4","4","4","4","4","3","4","4","5","5","5","5","5","5","5","5","5","5","1","1","1","1","1","1","1","1","1","0","1","0","0","0","0","0","1","0","0","0","0","1","0","1","5","1","1","1","1","1","3","1","2","1","557541487416442880","刘","37","","","","match","","","","","","","","","","","","","","key","j","8.333127490039804","853.3333333333334","476","j","true","match","img/trapezoid.png","梯形","梯形","ALT1_2","prac_ALT1_2","","","","","","","","","",""
"null","<span style='color:GreenYellow; font-size: 70px;'>正确! </span>","null","html-keyboard-response","14","308193","0.0-7.0-1.0-1.0-0.0-1.2","4","4","4","4","4","4","4","3","4","4","5","5","5","5","5","5","5","5","5","5","1","1","1","1","1","1","1","1","1","0","1","0","0","0","0","0","1","0","0","0","0","1","0","1","5","1","1","1","1","1","3","1","2","1","557541487416442880","刘","37","","","","","","","","","","","","","","","","","","","","","","","","","","","","","","feedback_test","","","","","","","","","",""
"731","","f","psychophysics","15","309925","0.0-7.0-1.0-1.0-0.0-0.3","4","4","4","4","4","4","4","3","4","4","5","5","5","5","5","5","5","5","5","5","1","1","1","1","1","1","1","1","1","0","1","0","0","0","0","0","1","0","0","0","0","1","0","1","5","1","1","1","1","1","3","1","2","1","557541487416442880","刘","37","","","","nonmatch","","","","","","","","","","","","","","key","f","8.334524271844714","853.3333333333334","476","f","true","nonmatch","img/trapezoid.png","椭圆","梯形","ALT1_2","prac_ALT1_2","","","","","","","","","",""
"null","<span style='color:GreenYellow; font-size: 70px;'>正确! </span>","null","html-keyboard-response","16","310432","0.0-7.0-1.0-1.0-0.0-1.3","4","4","4","4","4","4","4","3","4","4","5","5","5","5","5","5","5","5","5","5","1","1","1","1","1","1","1","1","1","0","1","0","0","0","0","0","1","0","0","0","0","1","0","1","5","1","1","1","1","1","3","1","2","1","557541487416442880","刘","37","","","","","","","","","","","","","","","","","","","","","","","","","","","","","","feedback_test","","","","","","","","","",""
"788","","j","psychophysics","17","312221","0.0-7.0-1.0-1.0-0.0-0.4","4","4","4","4","4","4","4","3","4","4","5","5","5","5","5","5","5","5","5","5","1","1","1","1","1","1","1","1","1","0","1","0","0","0","0","0","1","0","0","0","0","1","0","1","5","1","1","1","1","1","3","1","2","1","557541487416442880","刘","37","","","","match","","","","","","","","","","","","","","key","j","8.333389671361719","853.3333333333334","476","j","true","match","img/square.png","方形","方形","ALT1_2","prac_ALT1_2","","","","","","","","","",""
"null","<span style='color:GreenYellow; font-size: 70px;'>正确! </span>","null","html-keyboard-response","18","312728","0.0-7.0-1.0-1.0-0.0-1.4","4","4","4","4","4","4","4","3","4","4","5","5","5","5","5","5","5","5","5","5","1","1","1","1","1","1","1","1","1","0","1","0","0","0","0","0","1","0","0","0","0","1","0","1","5","1","1","1","1","1","3","1","2","1","557541487416442880","刘","37","","","","","","","","","","","","","","","","","","","","","","","","","","","","","","feedback_test","","","","","","","","","",""
"732","","f","psychophysics","19","314461","0.0-7.0-1.0-1.0-0.0-0.5","4","4","4","4","4","4","4","3","4","4","5","5","5","5","5","5","5","5","5","5","1","1","1","1","1","1","1","1","1","0","1","0","0","0","0","0","1","0","0","0","0","1","0","1","5","1","1","1","1","1","3","1","2","1","557541487416442880","刘","37","","","","nonmatch","","","","","","","","","","","","","","key","f","8.333800970873957","853.3333333333334","476","f","true","nonmatch","img/hexagon.png","方形","六边","ALT1_2","prac_ALT1_2","","","","","","","","","",""
"null","<span style='color:GreenYellow; font-size: 70px;'>正确! </span>","null","html-keyboard-response","20","314969","0.0-7.0-1.0-1.0-0.0-1.5","4","4","4","4","4","4","4","3","4","4","5","5","5","5","5","5","5","5","5","5","1","1","1","1","1","1","1","1","1","0","1","0","0","0","0","0","1","0","0","0","0","1","0","1","5","1","1","1","1","1","3","1","2","1","557541487416442880","刘","37","","","","","","","","","","","","","","","","","","","","","","","","","","","","","","feedback_test","","","","","","","","","",""
"732","","j","psychophysics","21","316701","0.0-7.0-1.0-1.0-0.0-0.6","4","4","4","4","4","4","4","3","4","4","5","5","5","5","5","5","5","5","5","5","1","1","1","1","1","1","1","1","1","0","1","0","0","0","0","0","1","0","0","0","0","1","0","1","5","1","1","1","1","1","3","1","2","1","557541487416442880","刘","37","","","","match","","","","","","","","","","","","","","key","j","8.332800970873649","853.3333333333334","476","j","true","match","img/hexagon.png","六边","六边","ALT1_2","prac_ALT1_2","","","","","","","","","",""
"null","<span style='color:GreenYellow; font-size: 70px;'>正确! </span>","null","html-keyboard-response","22","317209","0.0-7.0-1.0-1.0-0.0-1.6","4","4","4","4","4","4","4","3","4","4","5","5","5","5","5","5","5","5","5","5","1","1","1","1","1","1","1","1","1","0","1","0","0","0","0","0","1","0","0","0","0","1","0","1","5","1","1","1","1","1","3","1","2","1","557541487416442880","刘","37","","","","","","","","","","","","","","","","","","","","","","","","","","","","","","feedback_test","","","","","","","","","",""
"731","","f","psychophysics","23","318941","0.0-7.0-1.0-1.0-0.0-0.7","4","4","4","4","4","4","4","3","4","4","5","5","5","5","5","5","5","5","5","5","1","1","1","1","1","1","1","1","1","0","1","0","0","0","0","0","1","0","0","0","0","1","0","1","5","1","1","1","1","1","3","1","2","1","557541487416442880","刘","37","","","","nonmatch","","","","","","","","","","","","","","key","f","8.334378640776901","853.3333333333334","476","f","true","nonmatch","img/hexagon.png","梯形","六边","ALT1_2","prac_ALT1_2","","","","","","","","","",""
"null","<span style='color:GreenYellow; font-size: 70px;'>正确! </span>","null","html-keyboard-response","24","319449","0.0-7.0-1.0-1.0-0.0-1.7","4","4","4","4","4","4","4","3","4","4","5","5","5","5","5","5","5","5","5","5","1","1","1","1","1","1","1","1","1","0","1","0","0","0","0","0","1","0","0","0","0","1","0","1","5","1","1","1","1","1","3","1","2","1","557541487416442880","刘","37","","","","","","","","","","","","","","","","","","","","","","","","","","","","","","feedback_test","","","","","","","","","",""
"660","","j","psychophysics","25","321109","0.0-7.0-1.0-1.0-0.0-0.8","4","4","4","4","4","4","4","3","4","4","5","5","5","5","5","5","5","5","5","5","1","1","1","1","1","1","1","1","1","0","1","0","0","0","0","0","1","0","0","0","0","1","0","1","5","1","1","1","1","1","3","1","2","1","557541487416442880","刘","37","","","","match","","","","","","","","","","","","","","key","j","8.333580808080804","853.3333333333334","476","j","true","match","img/square.png","方形","方形","ALT1_2","prac_ALT1_2","","","","","","","","","",""
"null","<span style='color:GreenYellow; font-size: 70px;'>正确! </span>","null","html-keyboard-response","26","321617","0.0-7.0-1.0-1.0-0.0-1.8","4","4","4","4","4","4","4","3","4","4","5","5","5","5","5","5","5","5","5","5","1","1","1","1","1","1","1","1","1","0","1","0","0","0","0","0","1","0","0","0","0","1","0","1","5","1","1","1","1","1","3","1","2","1","557541487416442880","刘","37","","","","","","","","","","","","","","","","","","","","","","","","","","","","","","feedback_test","","","","","","","","","",""
"747","","f","psychophysics","27","323365","0.0-7.0-1.0-1.0-0.0-0.9","4","4","4","4","4","4","4","3","4","4","5","5","5","5","5","5","5","5","5","5","1","1","1","1","1","1","1","1","1","0","1","0","0","0","0","0","1","0","0","0","0","1","0","1","5","1","1","1","1","1","3","1","2","1","557541487416442880","刘","37","","","","nonmatch","","","","","","","","","","","","","","key","f","8.334903846153724","853.3333333333334","476","f","true","nonmatch","img/trapezoid.png","方形","梯形","ALT1_2","prac_ALT1_2","","","","","","","","","",""
"null","<span style='color:GreenYellow; font-size: 70px;'>正确! </span>","null","html-keyboard-response","28","323873","0.0-7.0-1.0-1.0-0.0-1.9","4","4","4","4","4","4","4","3","4","4","5","5","5","5","5","5","5","5","5","5","1","1","1","1","1","1","1","1","1","0","1","0","0","0","0","0","1","0","0","0","0","1","0","1","5","1","1","1","1","1","3","1","2","1","557541487416442880","刘","37","","","","","","","","","","","","","","","","","","","","","","","","","","","","","","feedback_test","","","","","","","","","",""
"668","","f","psychophysics","29","325542","0.0-7.0-1.0-1.0-0.0-0.10","4","4","4","4","4","4","4","3","4","4","5","5","5","5","5","5","5","5","5","5","1","1","1","1","1","1","1","1","1","0","1","0","0","0","0","0","1","0","0","0","0","1","0","1","5","1","1","1","1","1","3","1","2","1","557541487416442880","刘","37","","","","nonmatch","","","","","","","","","","","","","","key","f","8.33132663316587","853.3333333333334","476","f","true","nonmatch","img/square.png","椭圆","方形","ALT1_2","prac_ALT1_2","","","","","","","","","",""
"null","<span style='color:GreenYellow; font-size: 70px;'>正确! </span>","null","html-keyboard-response","30","326046","0.0-7.0-1.0-1.0-0.0-1.10","4","4","4","4","4","4","4","3","4","4","5","5","5","5","5","5","5","5","5","5","1","1","1","1","1","1","1","1","1","0","1","0","0","0","0","0","1","0","0","0","0","1","0","1","5","1","1","1","1","1","3","1","2","1","557541487416442880","刘","37","","","","","","","","","","","","","","","","","","","","","","","","","","","","","","feedback_test","","","","","","","","","",""
"805","","j","psychophysics","31","327853","0.0-7.0-1.0-1.0-0.0-0.11","4","4","4","4","4","4","4","3","4","4","5","5","5","5","5","5","5","5","5","5","1","1","1","1","1","1","1","1","1","0","1","0","0","0","0","0","1","0","0","0","0","1","0","1","5","1","1","1","1","1","3","1","2","1","557541487416442880","刘","37","","","","match","","","","","","","","","","","","","","key","j","8.334333333333403","853.3333333333334","476","j","true","match","img/trapezoid.png","梯形","梯形","ALT1_2","prac_ALT1_2","","","","","","","","","",""
"null","<span style='color:GreenYellow; font-size: 70px;'>正确! </span>","null","html-keyboard-response","32","328360","0.0-7.0-1.0-1.0-0.0-1.11","4","4","4","4","4","4","4","3","4","4","5","5","5","5","5","5","5","5","5","5","1","1","1","1","1","1","1","1","1","0","1","0","0","0","0","0","1","0","0","0","0","1","0","1","5","1","1","1","1","1","3","1","2","1","557541487416442880","刘","37","","","","","","","","","","","","","","","","","","","","","","","","","","","","","","feedback_test","","","","","","","","","",""
"892","","j","psychophysics","33","330253","0.0-7.0-1.0-1.0-0.0-0.12","4","4","4","4","4","4","4","3","4","4","5","5","5","5","5","5","5","5","5","5","1","1","1","1","1","1","1","1","1","0","1","0","0","0","0","0","1","0","0","0","0","1","0","1","5","1","1","1","1","1","3","1","2","1","557541487416442880","刘","37","","","","match","","","","","","","","","","","","","","key","j","8.33459734513277","853.3333333333334","476","j","true","match","img/square.png","方形","方形","ALT1_2","prac_ALT1_2","","","","","","","","","",""
"null","<span style='color:GreenYellow; font-size: 70px;'>正确! </span>","null","html-keyboard-response","34","330760","0.0-7.0-1.0-1.0-0.0-1.12","4","4","4","4","4","4","4","3","4","4","5","5","5","5","5","5","5","5","5","5","1","1","1","1","1","1","1","1","1","0","1","0","0","0","0","0","1","0","0","0","0","1","0","1","5","1","1","1","1","1","3","1","2","1","557541487416442880","刘","37","","","","","","","","","","","","","","","","","","","","","","","","","","","","","","feedback_test","","","","","","","","","",""
"685","","f","psychophysics","35","332446","0.0-7.0-1.0-1.0-0.0-0.13","4","4","4","4","4","4","4","3","4","4","5","5","5","5","5","5","5","5","5","5","1","1","1","1","1","1","1","1","1","0","1","0","0","0","0","0","1","0","0","0","0","1","0","1","5","1","1","1","1","1","3","1","2","1","557541487416442880","刘","37","","","","nonmatch","","","","","","","","","","","","","","key","f","8.334099502487465","853.3333333333334","476","f","true","nonmatch","img/trapezoid.png","六边","梯形","ALT1_2","prac_ALT1_2","","","","","","","","","",""
"null","<span style='color:GreenYellow; font-size: 70px;'>正确! </span>","null","html-keyboard-response","36","332953","0.0-7.0-1.0-1.0-0.0-1.13","4","4","4","4","4","4","4","3","4","4","5","5","5","5","5","5","5","5","5","5","1","1","1","1","1","1","1","1","1","0","1","0","0","0","0","0","1","0","0","0","0","1","0","1","5","1","1","1","1","1","3","1","2","1","557541487416442880","刘","37","","","","","","","","","","","","","","","","","","","","","","","","","","","","","","feedback_test","","","","","","","","","",""
"660","","f","psychophysics","37","334613","0.0-7.0-1.0-1.0-0.0-0.14","4","4","4","4","4","4","4","3","4","4","5","5","5","5","5","5","5","5","5","5","1","1","1","1","1","1","1","1","1","0","1","0","0","0","0","0","1","0","0","0","0","1","0","1","5","1","1","1","1","1","3","1","2","1","557541487416442880","刘","37","","","","nonmatch","","","","","","","","","","","","","","key","f","8.33377777777772","853.3333333333334","476","f","true","nonmatch","img/hexagon.png","椭圆","六边","ALT1_2","prac_ALT1_2","","","","","","","","","",""
"null","<span style='color:GreenYellow; font-size: 70px;'>正确! </span>","null","html-keyboard-response","38","335121","0.0-7.0-1.0-1.0-0.0-1.14","4","4","4","4","4","4","4","3","4","4","5","5","5","5","5","5","5","5","5","5","1","1","1","1","1","1","1","1","1","0","1","0","0","0","0","0","1","0","0","0","0","1","0","1","5","1","1","1","1","1","3","1","2","1","557541487416442880","刘","37","","","","","","","","","","","","","","","","","","","","","","","","","","","","","","feedback_test","","","","","","","","","",""
"611","","f","psychophysics","39","336733","0.0-7.0-1.0-1.0-0.0-0.15","4","4","4","4","4","4","4","3","4","4","5","5","5","5","5","5","5","5","5","5","1","1","1","1","1","1","1","1","1","0","1","0","0","0","0","0","1","0","0","0","0","1","0","1","5","1","1","1","1","1","3","1","2","1","557541487416442880","刘","37","","","","nonmatch","","","","","","","","","","","","","","key","f","8.333958333333308","853.3333333333334","476","f","true","nonmatch","img/ellipse.png","六边","椭圆","ALT1_2","prac_ALT1_2","","","","","","","","","",""
"null","<span style='color:GreenYellow; font-size: 70px;'>正确! </span>","null","html-keyboard-response","40","337241","0.0-7.0-1.0-1.0-0.0-1.15","4","4","4","4","4","4","4","3","4","4","5","5","5","5","5","5","5","5","5","5","1","1","1","1","1","1","1","1","1","0","1","0","0","0","0","0","1","0","0","0","0","1","0","1","5","1","1","1","1","1","3","1","2","1","557541487416442880","刘","37","","","","","","","","","","","","","","","","","","","","","","","","","","","","","","feedback_test","","","","","","","","","",""
"707","","f","psychophysics","41","338949","0.0-7.0-1.0-1.0-0.0-0.16","4","4","4","4","4","4","4","3","4","4","5","5","5","5","5","5","5","5","5","5","1","1","1","1","1","1","1","1","1","0","1","0","0","0","0","0","1","0","0","0","0","1","0","1","5","1","1","1","1","1","3","1","2","1","557541487416442880","刘","37","","","","nonmatch","","","","","","","","","","","","","","key","f","8.333226600985313","853.3333333333334","476","f","true","nonmatch","img/ellipse.png","方形","椭圆","ALT1_2","prac_ALT1_2","","","","","","","","","",""
"null","<span style='color:GreenYellow; font-size: 70px;'>正确! </span>","null","html-keyboard-response","42","339450","0.0-7.0-1.0-1.0-0.0-1.16","4","4","4","4","4","4","4","3","4","4","5","5","5","5","5","5","5","5","5","5","1","1","1","1","1","1","1","1","1","0","1","0","0","0","0","0","1","0","0","0","0","1","0","1","5","1","1","1","1","1","3","1","2","1","557541487416442880","刘","37","","","","","","","","","","","","","","","","","","","","","","","","","","","","","","feedback_test","","","","","","","","","",""
"569","","j","psychophysics","43","341021","0.0-7.0-1.0-1.0-0.0-0.17","4","4","4","4","4","4","4","3","4","4","5","5","5","5","5","5","5","5","5","5","1","1","1","1","1","1","1","1","1","0","1","0","0","0","0","0","1","0","0","0","0","1","0","1","5","1","1","1","1","1","3","1","2","1","557541487416442880","刘","37","","","","match","","","","","","","","","","","","","","key","j","8.335139037433011","853.3333333333334","476","j","true","match","img/ellipse.png","椭圆","椭圆","ALT1_2","prac_ALT1_2","","","","","","","","","",""
"null","<span style='color:GreenYellow; font-size: 70px;'>正确! </span>","null","html-keyboard-response","44","341529","0.0-7.0-1.0-1.0-0.0-1.17","4","4","4","4","4","4","4","3","4","4","5","5","5","5","5","5","5","5","5","5","1","1","1","1","1","1","1","1","1","0","1","0","0","0","0","0","1","0","0","0","0","1","0","1","5","1","1","1","1","1","3","1","2","1","557541487416442880","刘","37","","","","","","","","","","","","","","","","","","","","","","","","","","","","","","feedback_test","","","","","","","","","",""
"571","","j","psychophysics","45","343101","0.0-7.0-1.0-1.0-0.0-0.18","4","4","4","4","4","4","4","3","4","4","5","5","5","5","5","5","5","5","5","5","1","1","1","1","1","1","1","1","1","0","1","0","0","0","0","0","1","0","0","0","0","1","0","1","5","1","1","1","1","1","3","1","2","1","557541487416442880","刘","37","","","","match","","","","","","","","","","","","","","key","j","8.33515508021421","853.3333333333334","476","j","true","match","img/ellipse.png","椭圆","椭圆","ALT1_2","prac_ALT1_2","","","","","","","","","",""
"null","<span style='color:GreenYellow; font-size: 70px;'>正确! </span>","null","html-keyboard-response","46","343609","0.0-7.0-1.0-1.0-0.0-1.18","4","4","4","4","4","4","4","3","4","4","5","5","5","5","5","5","5","5","5","5","1","1","1","1","1","1","1","1","1","0","1","0","0","0","0","0","1","0","0","0","0","1","0","1","5","1","1","1","1","1","3","1","2","1","557541487416442880","刘","37","","","","","","","","","","","","","","","","","","","","","","","","","","","","","","feedback_test","","","","","","","","","",""
"699","","j","psychophysics","47","345309","0.0-7.0-1.0-1.0-0.0-0.19","4","4","4","4","4","4","4","3","4","4","5","5","5","5","5","5","5","5","5","5","1","1","1","1","1","1","1","1","1","0","1","0","0","0","0","0","1","0","0","0","0","1","0","1","5","1","1","1","1","1","3","1","2","1","557541487416442880","刘","37","","","","match","","","","","","","","","","","","","","key","j","8.333499999999848","853.3333333333334","476","j","true","match","img/trapezoid.png","梯形","梯形","ALT1_2","prac_ALT1_2","","","","","","","","","",""
"null","<span style='color:GreenYellow; font-size: 70px;'>正确! </span>","null","html-keyboard-response","48","345816","0.0-7.0-1.0-1.0-0.0-1.19","4","4","4","4","4","4","4","3","4","4","5","5","5","5","5","5","5","5","5","5","1","1","1","1","1","1","1","1","1","0","1","0","0","0","0","0","1","0","0","0","0","1","0","1","5","1","1","1","1","1","3","1","2","1","557541487416442880","刘","37","","","","","","","","","","","","","","","","","","","","","","","","","","","","","","feedback_test","","","","","","","","","",""
"596","","j","psychophysics","49","347413","0.0-7.0-1.0-1.0-0.0-0.20","4","4","4","4","4","4","4","3","4","4","5","5","5","5","5","5","5","5","5","5","1","1","1","1","1","1","1","1","1","0","1","0","0","0","0","0","1","0","0","0","0","1","0","1","5","1","1","1","1","1","3","1","2","1","557541487416442880","刘","37","","","","match","","","","","","","","","","","","","","key","j","8.335242105263138","853.3333333333334","476","j","true","match","img/hexagon.png","六边","六边","ALT1_2","prac_ALT1_2","","","","","","","","","",""
"null","<span style='color:GreenYellow; font-size: 70px;'>正确! </span>","null","html-keyboard-response","50","347920","0.0-7.0-1.0-1.0-0.0-1.20","4","4","4","4","4","4","4","3","4","4","5","5","5","5","5","5","5","5","5","5","1","1","1","1","1","1","1","1","1","0","1","0","0","0","0","0","1","0","0","0","0","1","0","1","5","1","1","1","1","1","3","1","2","1","557541487416442880","刘","37","","","","","","","","","","","","","","","","","","","","","","","","","","","","","","feedback_test","","","","","","","","","",""
"556","","j","psychophysics","51","349477","0.0-7.0-1.0-1.0-0.0-0.21","4","4","4","4","4","4","4","3","4","4","5","5","5","5","5","5","5","5","5","5","1","1","1","1","1","1","1","1","1","0","1","0","0","0","0","0","1","0","0","0","0","1","0","1","5","1","1","1","1","1","3","1","2","1","557541487416442880","刘","37","","","","match","","","","","","","","","","","","","","key","j","8.332567567567693","853.3333333333334","476","j","true","match","img/ellipse.png","椭圆","椭圆","ALT1_2","prac_ALT1_2","","","","","","","","","",""
"null","<span style='color:GreenYellow; font-size: 70px;'>正确! </span>","null","html-keyboard-response","52","349984","0.0-7.0-1.0-1.0-0.0-1.21","4","4","4","4","4","4","4","3","4","4","5","5","5","5","5","5","5","5","5","5","1","1","1","1","1","1","1","1","1","0","1","0","0","0","0","0","1","0","0","0","0","1","0","1","5","1","1","1","1","1","3","1","2","1","557541487416442880","刘","37","","","","","","","","","","","","","","","","","","","","","","","","","","","","","","feedback_test","","","","","","","","","",""
"661","","j","psychophysics","53","351645","0.0-7.0-1.0-1.0-0.0-0.22","4","4","4","4","4","4","4","3","4","4","5","5","5","5","5","5","5","5","5","5","1","1","1","1","1","1","1","1","1","0","1","0","0","0","0","0","1","0","0","0","0","1","0","1","5","1","1","1","1","1","3","1","2","1","557541487416442880","刘","37","","","","match","","","","","","","","","","","","","","key","j","8.334813131313156","853.3333333333334","476","j","true","match","img/hexagon.png","六边","六边","ALT1_2","prac_ALT1_2","","","","","","","","","",""
"null","<span style='color:GreenYellow; font-size: 70px;'>正确! </span>","null","html-keyboard-response","54","352153","0.0-7.0-1.0-1.0-0.0-1.22","4","4","4","4","4","4","4","3","4","4","5","5","5","5","5","5","5","5","5","5","1","1","1","1","1","1","1","1","1","0","1","0","0","0","0","0","1","0","0","0","0","1","0","1","5","1","1","1","1","1","3","1","2","1","557541487416442880","刘","37","","","","","","","","","","","","","","","","","","","","","","","","","","","","","","feedback_test","","","","","","","","","",""
"876","","f","psychophysics","55","354029","0.0-7.0-1.0-1.0-0.0-0.23","4","4","4","4","4","4","4","3","4","4","5","5","5","5","5","5","5","5","5","5","1","1","1","1","1","1","1","1","1","0","1","0","0","0","0","0","1","0","0","0","0","1","0","1","5","1","1","1","1","1","3","1","2","1","557541487416442880","刘","37","","","","nonmatch","","","","","","","","","","","","","","key","f","8.334361607142844","853.3333333333334","476","f","true","nonmatch","img/square.png","梯形","方形","ALT1_2","prac_ALT1_2","","","","","","","","","",""
"null","<span style='color:GreenYellow; font-size: 70px;'>正确! </span>","null","html-keyboard-response","56","354537","0.0-7.0-1.0-1.0-0.0-1.23","4","4","4","4","4","4","4","3","4","4","5","5","5","5","5","5","5","5","5","5","1","1","1","1","1","1","1","1","1","0","1","0","0","0","0","0","1","0","0","0","0","1","0","1","5","1","1","1","1","1","3","1","2","1","557541487416442880","刘","37","","","","","","","","","","","","","","","","","","","","","","","","","","","","","","feedback_test","","","","","","","","","",""
"531","","j","psychophysics","57","356069","0.0-7.0-1.0-1.0-0.0-0.24","4","4","4","4","4","4","4","3","4","4","5","5","5","5","5","5","5","5","5","5","1","1","1","1","1","1","1","1","1","0","1","0","0","0","0","0","1","0","0","0","0","1","0","1","5","1","1","1","1","1","3","1","2","1","557541487416442880","刘","37","","","","match","","","","","","","","","","","","","","key","j","8.333065934065706","853.3333333333334","476","j","true","match","img/trapezoid.png","梯形","梯形","ALT1_2","prac_ALT1_2","","","","","","","","","",""
"null","<span style='color:GreenYellow; font-size: 70px;'>正确! </span>","null","html-keyboard-response","58","356576","0.0-7.0-1.0-1.0-0.0-1.24","4","4","4","4","4","4","4","3","4","4","5","5","5","5","5","5","5","5","5","5","1","1","1","1","1","1","1","1","1","0","1","0","0","0","0","0","1","0","0","0","0","1","0","1","5","1","1","1","1","1","3","1","2","1","557541487416442880","刘","37","","","","","","","","","","","","","","","","","","","","","","","","","","","","","","feedback_test","","","","","","","","","",""
"604","","j","psychophysics","59","358181","0.0-7.0-1.0-1.0-0.0-0.25","4","4","4","4","4","4","4","3","4","4","5","5","5","5","5","5","5","5","5","5","1","1","1","1","1","1","1","1","1","0","1","0","0","0","0","0","1","0","0","0","0","1","0","1","5","1","1","1","1","1","3","1","2","1","557541487416442880","刘","37","","","","match","","","","","","","","","","","","","","key","j","8.334303664921231","853.3333333333334","476","j","true","match","img/ellipse.png","椭圆","椭圆","ALT1_2","prac_ALT1_2","","","","","","","","","",""
"null","<span style='color:GreenYellow; font-size: 70px;'>正确! </span>","null","html-keyboard-response","60","358688","0.0-7.0-1.0-1.0-0.0-1.25","4","4","4","4","4","4","4","3","4","4","5","5","5","5","5","5","5","5","5","5","1","1","1","1","1","1","1","1","1","0","1","0","0","0","0","0","1","0","0","0","0","1","0","1","5","1","1","1","1","1","3","1","2","1","557541487416442880","刘","37","","","","","","","","","","","","","","","","","","","","","","","","","","","","","","feedback_test","","","","","","","","","",""
"564","","f","psychophysics","61","360253","0.0-7.0-1.0-1.0-0.0-0.26","4","4","4","4","4","4","4","3","4","4","5","5","5","5","5","5","5","5","5","5","1","1","1","1","1","1","1","1","1","0","1","0","0","0","0","0","1","0","0","0","0","1","0","1","5","1","1","1","1","1","3","1","2","1","557541487416442880","刘","37","","","","nonmatch","","","","","","","","","","","","","","key","f","8.334123655913963","853.3333333333334","476","f","true","nonmatch","img/square.png","六边","方形","ALT1_2","prac_ALT1_2","","","","","","","","","",""
"null","<span style='color:GreenYellow; font-size: 70px;'>正确! </span>","null","html-keyboard-response","62","360760","0.0-7.0-1.0-1.0-0.0-1.26","4","4","4","4","4","4","4","3","4","4","5","5","5","5","5","5","5","5","5","5","1","1","1","1","1","1","1","1","1","0","1","0","0","0","0","0","1","0","0","0","0","1","0","1","5","1","1","1","1","1","3","1","2","1","557541487416442880","刘","37","","","","","","","","","","","","","","","","","","","","","","","","","","","","","","feedback_test","","","","","","","","","",""
"564","","j","psychophysics","63","362325","0.0-7.0-1.0-1.0-0.0-0.27","4","4","4","4","4","4","4","3","4","4","5","5","5","5","5","5","5","5","5","5","1","1","1","1","1","1","1","1","1","0","1","0","0","0","0","0","1","0","0","0","0","1","0","1","5","1","1","1","1","1","3","1","2","1","557541487416442880","刘","37","","","","match","","","","","","","","","","","","","","key","j","8.334747311827835","853.3333333333334","476","f","false","nonmatch","img/ellipse.png","梯形","椭圆","ALT1_2","prac_ALT1_2","","","","","","","","","",""
"null","<span style='color:red; font-size: 70px;'>错误! </span>","null","html-keyboard-response","64","362832","0.0-7.0-1.0-1.0-0.0-1.27","4","4","4","4","4","4","4","3","4","4","5","5","5","5","5","5","5","5","5","5","1","1","1","1","1","1","1","1","1","0","1","0","0","0","0","0","1","0","0","0","0","1","0","1","5","1","1","1","1","1","3","1","2","1","557541487416442880","刘","37","","","","","","","","","","","","","","","","","","","","","","","","","","","","","","feedback_test","","","","","","","","","",""
"692","","f","psychophysics","65","364525","0.0-7.0-1.0-1.0-0.0-0.28","4","4","4","4","4","4","4","3","4","4","5","5","5","5","5","5","5","5","5","5","1","1","1","1","1","1","1","1","1","0","1","0","0","0","0","0","1","0","0","0","0","1","0","1","5","1","1","1","1","1","3","1","2","1","557541487416442880","刘","37","","","","nonmatch","","","","","","","","","","","","","","key","f","8.334336633663474","853.3333333333334","476","f","true","nonmatch","img/hexagon.png","方形","六边","ALT1_2","prac_ALT1_2","","","","","","","","","",""
"null","<span style='color:GreenYellow; font-size: 70px;'>正确! </span>","null","html-keyboard-response","66","365033","0.0-7.0-1.0-1.0-0.0-1.28","4","4","4","4","4","4","4","3","4","4","5","5","5","5","5","5","5","5","5","5","1","1","1","1","1","1","1","1","1","0","1","0","0","0","0","0","1","0","0","0","0","1","0","1","5","1","1","1","1","1","3","1","2","1","557541487416442880","刘","37","","","","","","","","","","","","","","","","","","","","","","","","","","","","","","feedback_test","","","","","","","","","",""
"659","","f","psychophysics","67","366693","0.0-7.0-1.0-1.0-0.0-0.29","4","4","4","4","4","4","4","3","4","4","5","5","5","5","5","5","5","5","5","5","1","1","1","1","1","1","1","1","1","0","1","0","0","0","0","0","1","0","0","0","0","1","0","1","5","1","1","1","1","1","3","1","2","1","557541487416442880","刘","37","","","","nonmatch","","","","","","","","","","","","","","key","f","8.334449494949594","853.3333333333334","476","f","true","nonmatch","img/square.png","梯形","方形","ALT1_2","prac_ALT1_2","","","","","","","","","",""
"null","<span style='color:GreenYellow; font-size: 70px;'>正确! </span>","null","html-keyboard-response","68","367200","0.0-7.0-1.0-1.0-0.0-1.29","4","4","4","4","4","4","4","3","4","4","5","5","5","5","5","5","5","5","5","5","1","1","1","1","1","1","1","1","1","0","1","0","0","0","0","0","1","0","0","0","0","1","0","1","5","1","1","1","1","1","3","1","2","1","557541487416442880","刘","37","","","","","","","","","","","","","","","","","","","","","","","","","","","","","","feedback_test","","","","","","","","","",""
"621","","j","psychophysics","69","368821","0.0-7.0-1.0-1.0-0.0-0.30","4","4","4","4","4","4","4","3","4","4","5","5","5","5","5","5","5","5","5","5","1","1","1","1","1","1","1","1","1","0","1","0","0","0","0","0","1","0","0","0","0","1","0","1","5","1","1","1","1","1","3","1","2","1","557541487416442880","刘","37","","","","match","","","","","","","","","","","","","","key","j","8.333932642487163","853.3333333333334","476","j","true","match","img/hexagon.png","六边","六边","ALT1_2","prac_ALT1_2","","","","","","","","","",""
"null","<span style='color:GreenYellow; font-size: 70px;'>正确! </span>","null","html-keyboard-response","70","369328","0.0-7.0-1.0-1.0-0.0-1.30","4","4","4","4","4","4","4","3","4","4","5","5","5","5","5","5","5","5","5","5","1","1","1","1","1","1","1","1","1","0","1","0","0","0","0","0","1","0","0","0","0","1","0","1","5","1","1","1","1","1","3","1","2","1","557541487416442880","刘","37","","","","","","","","","","","","","","","","","","","","","","","","","","","","","","feedback_test","","","","","","","","","",""
"612","","f","psychophysics","71","370941","0.0-7.0-1.0-1.0-0.0-0.31","4","4","4","4","4","4","4","3","4","4","5","5","5","5","5","5","5","5","5","5","1","1","1","1","1","1","1","1","1","0","1","0","0","0","0","0","1","0","0","0","0","1","0","1","5","1","1","1","1","1","3","1","2","1","557541487416442880","刘","37","","","","nonmatch","","","","","","","","","","","","","","key","f","8.333489583333176","853.3333333333334","476","f","true","nonmatch","img/hexagon.png","椭圆","六边","ALT1_2","prac_ALT1_2","","","","","","","","","",""
"null","<span style='color:GreenYellow; font-size: 70px;'>正确! </span>","null","html-keyboard-response","72","371447","0.0-7.0-1.0-1.0-0.0-1.31","4","4","4","4","4","4","4","3","4","4","5","5","5","5","5","5","5","5","5","5","1","1","1","1","1","1","1","1","1","0","1","0","0","0","0","0","1","0","0","0","0","1","0","1","5","1","1","1","1","1","3","1","2","1","557541487416442880","刘","37","","","","","","","","","","","","","","","","","","","","","","","","","","","","","","feedback_test","","","","","","","","","",""
"604","","j","psychophysics","73","373053","0.0-7.0-1.0-1.0-0.0-0.32","4","4","4","4","4","4","4","3","4","4","5","5","5","5","5","5","5","5","5","5","1","1","1","1","1","1","1","1","1","0","1","0","0","0","0","0","1","0","0","0","0","1","0","1","5","1","1","1","1","1","3","1","2","1","557541487416442880","刘","37","","","","match","","","","","","","","","","","","","","key","j","8.333356020942572","853.3333333333334","476","j","true","match","img/hexagon.png","六边","六边","ALT1_2","prac_ALT1_2","","","","","","","","","",""
"null","<span style='color:GreenYellow; font-size: 70px;'>正确! </span>","null","html-keyboard-response","74","373560","0.0-7.0-1.0-1.0-0.0-1.32","4","4","4","4","4","4","4","3","4","4","5","5","5","5","5","5","5","5","5","5","1","1","1","1","1","1","1","1","1","0","1","0","0","0","0","0","1","0","0","0","0","1","0","1","5","1","1","1","1","1","3","1","2","1","557541487416442880","刘","37","","","","","","","","","","","","","","","","","","","","","","","","","","","","","","feedback_test","","","","","","","","","",""
"661","","j","psychophysics","75","375220","0.0-7.0-1.0-1.0-0.0-0.33","4","4","4","4","4","4","4","3","4","4","5","5","5","5","5","5","5","5","5","5","1","1","1","1","1","1","1","1","1","0","1","0","0","0","0","0","1","0","0","0","0","1","0","1","5","1","1","1","1","1","3","1","2","1","557541487416442880","刘","37","","","","match","","","","","","","","","","","","","","key","j","8.334181818181843","853.3333333333334","476","j","true","match","img/square.png","方形","方形","ALT1_2","prac_ALT1_2","","","","","","","","","",""
"null","<span style='color:GreenYellow; font-size: 70px;'>正确! </span>","null","html-keyboard-response","76","375727","0.0-7.0-1.0-1.0-0.0-1.33","4","4","4","4","4","4","4","3","4","4","5","5","5","5","5","5","5","5","5","5","1","1","1","1","1","1","1","1","1","0","1","0","0","0","0","0","1","0","0","0","0","1","0","1","5","1","1","1","1","1","3","1","2","1","557541487416442880","刘","37","","","","","","","","","","","","","","","","","","","","","","","","","","","","","","feedback_test","","","","","","","","","",""
"580","","j","psychophysics","77","377308","0.0-7.0-1.0-1.0-0.0-0.34","4","4","4","4","4","4","4","3","4","4","5","5","5","5","5","5","5","5","5","5","1","1","1","1","1","1","1","1","1","0","1","0","0","0","0","0","1","0","0","0","0","1","0","1","5","1","1","1","1","1","3","1","2","1","557541487416442880","刘","37","","","","match","","","","","","","","","","","","","","key","j","8.332654255319094","853.3333333333334","476","j","true","match","img/ellipse.png","椭圆","椭圆","ALT1_2","prac_ALT1_2","","","","","","","","","",""
"null","<span style='color:GreenYellow; font-size: 70px;'>正确! </span>","null","html-keyboard-response","78","377816","0.0-7.0-1.0-1.0-0.0-1.34","4","4","4","4","4","4","4","3","4","4","5","5","5","5","5","5","5","5","5","5","1","1","1","1","1","1","1","1","1","0","1","0","0","0","0","0","1","0","0","0","0","1","0","1","5","1","1","1","1","1","3","1","2","1","557541487416442880","刘","37","","","","","","","","","","","","","","","","","","","","","","","","","","","","","","feedback_test","","","","","","","","","",""
"619","","f","psychophysics","79","379436","0.0-7.0-1.0-1.0-0.0-0.35","4","4","4","4","4","4","4","3","4","4","5","5","5","5","5","5","5","5","5","5","1","1","1","1","1","1","1","1","1","0","1","0","0","0","0","0","1","0","0","0","0","1","0","1","5","1","1","1","1","1","3","1","2","1","557541487416442880","刘","37","","","","nonmatch","","","","","","","","","","","","","","key","f","8.334352331606363","853.3333333333334","476","f","true","nonmatch","img/ellipse.png","方形","椭圆","ALT1_2","prac_ALT1_2","","","","","","","","","",""
"null","<span style='color:GreenYellow; font-size: 70px;'>正确! </span>","null","html-keyboard-response","80","379943","0.0-7.0-1.0-1.0-0.0-1.35","4","4","4","4","4","4","4","3","4","4","5","5","5","5","5","5","5","5","5","5","1","1","1","1","1","1","1","1","1","0","1","0","0","0","0","0","1","0","0","0","0","1","0","1","5","1","1","1","1","1","3","1","2","1","557541487416442880","刘","37","","","","","","","","","","","","","","","","","","","","","","","","","","","","","","feedback_test","","","","","","","","","",""
"573","","f","psychophysics","81","381516","0.0-7.0-1.0-1.0-0.0-0.36","4","4","4","4","4","4","4","3","4","4","5","5","5","5","5","5","5","5","5","5","1","1","1","1","1","1","1","1","1","0","1","0","0","0","0","0","1","0","0","0","0","1","0","1","5","1","1","1","1","1","3","1","2","1","557541487416442880","刘","37","","","","nonmatch","","","","","","","","","","","","","","key","f","8.335010695187151","853.3333333333334","476","f","true","nonmatch","img/trapezoid.png","椭圆","梯形","ALT1_2","prac_ALT1_2","","","","","","","","","",""
"null","<span style='color:GreenYellow; font-size: 70px;'>正确! </span>","null","html-keyboard-response","82","382024","0.0-7.0-1.0-1.0-0.0-1.36","4","4","4","4","4","4","4","3","4","4","5","5","5","5","5","5","5","5","5","5","1","1","1","1","1","1","1","1","1","0","1","0","0","0","0","0","1","0","0","0","0","1","0","1","5","1","1","1","1","1","3","1","2","1","557541487416442880","刘","37","","","","","","","","","","","","","","","","","","","","","","","","","","","","","","feedback_test","","","","","","","","","",""
"564","","j","psychophysics","83","383588","0.0-7.0-1.0-1.0-0.0-0.37","4","4","4","4","4","4","4","3","4","4","5","5","5","5","5","5","5","5","5","5","1","1","1","1","1","1","1","1","1","0","1","0","0","0","0","0","1","0","0","0","0","1","0","1","5","1","1","1","1","1","3","1","2","1","557541487416442880","刘","37","","","","match","","","","","","","","","","","","","","key","j","8.33260215053733","853.3333333333334","476","j","true","match","img/hexagon.png","六边","六边","ALT1_2","prac_ALT1_2","","","","","","","","","",""
"null","<span style='color:GreenYellow; font-size: 70px;'>正确! </span>","null","html-keyboard-response","84","384095","0.0-7.0-1.0-1.0-0.0-1.37","4","4","4","4","4","4","4","3","4","4","5","5","5","5","5","5","5","5","5","5","1","1","1","1","1","1","1","1","1","0","1","0","0","0","0","0","1","0","0","0","0","1","0","1","5","1","1","1","1","1","3","1","2","1","557541487416442880","刘","37","","","","","","","","","","","","","","","","","","","","","","","","","","","","","","feedback_test","","","","","","","","","",""
"548","","f","psychophysics","85","385644","0.0-7.0-1.0-1.0-0.0-0.38","4","4","4","4","4","4","4","3","4","4","5","5","5","5","5","5","5","5","5","5","1","1","1","1","1","1","1","1","1","0","1","0","0","0","0","0","1","0","0","0","0","1","0","1","5","1","1","1","1","1","3","1","2","1","557541487416442880","刘","37","","","","nonmatch","","","","","","","","","","","","","","key","f","8.334201086956613","853.3333333333334","476","f","true","nonmatch","img/square.png","椭圆","方形","ALT1_2","prac_ALT1_2","","","","","","","","","",""
"null","<span style='color:GreenYellow; font-size: 70px;'>正确! </span>","null","html-keyboard-response","86","386151","0.0-7.0-1.0-1.0-0.0-1.38","4","4","4","4","4","4","4","3","4","4","5","5","5","5","5","5","5","5","5","5","1","1","1","1","1","1","1","1","1","0","1","0","0","0","0","0","1","0","0","0","0","1","0","1","5","1","1","1","1","1","3","1","2","1","557541487416442880","刘","37","","","","","","","","","","","","","","","","","","","","","","","","","","","","","","feedback_test","","","","","","","","","",""
"621","","j","psychophysics","87","387772","0.0-7.0-1.0-1.0-0.0-0.39","4","4","4","4","4","4","4","3","4","4","5","5","5","5","5","5","5","5","5","5","1","1","1","1","1","1","1","1","1","0","1","0","0","0","0","0","1","0","0","0","0","1","0","1","5","1","1","1","1","1","3","1","2","1","557541487416442880","刘","37","","","","match","","","","","","","","","","","","","","key","j","8.33416580310884","853.3333333333334","476","j","true","match","img/trapezoid.png","梯形","梯形","ALT1_2","prac_ALT1_2","","","","","","","","","",""
"null","<span style='color:GreenYellow; font-size: 70px;'>正确! </span>","null","html-keyboard-response","88","388279","0.0-7.0-1.0-1.0-0.0-1.39","4","4","4","4","4","4","4","3","4","4","5","5","5","5","5","5","5","5","5","5","1","1","1","1","1","1","1","1","1","0","1","0","0","0","0","0","1","0","0","0","0","1","0","1","5","1","1","1","1","1","3","1","2","1","557541487416442880","刘","37","","","","","","","","","","","","","","","","","","","","","","","","","","","","","","feedback_test","","","","","","","","","",""
"580","","j","psychophysics","89","389860","0.0-7.0-1.0-1.0-0.0-0.40","4","4","4","4","4","4","4","3","4","4","5","5","5","5","5","5","5","5","5","5","1","1","1","1","1","1","1","1","1","0","1","0","0","0","0","0","1","0","0","0","0","1","0","1","5","1","1","1","1","1","3","1","2","1","557541487416442880","刘","37","","","","match","","","","","","","","","","","","","","key","j","8.3329893617022","853.3333333333334","476","j","true","match","img/trapezoid.png","梯形","梯形","ALT1_2","prac_ALT1_2","","","","","","","","","",""
"null","<span style='color:GreenYellow; font-size: 70px;'>正确! </span>","null","html-keyboard-response","90","390367","0.0-7.0-1.0-1.0-0.0-1.40","4","4","4","4","4","4","4","3","4","4","5","5","5","5","5","5","5","5","5","5","1","1","1","1","1","1","1","1","1","0","1","0","0","0","0","0","1","0","0","0","0","1","0","1","5","1","1","1","1","1","3","1","2","1","557541487416442880","刘","37","","","","","","","","","","","","","","","","","","","","","","","","","","","","","","feedback_test","","","","","","","","","",""
"596","","f","psychophysics","91","391964","0.0-7.0-1.0-1.0-0.0-0.41","4","4","4","4","4","4","4","3","4","4","5","5","5","5","5","5","5","5","5","5","1","1","1","1","1","1","1","1","1","0","1","0","0","0","0","0","1","0","0","0","0","1","0","1","5","1","1","1","1","1","3","1","2","1","557541487416442880","刘","37","","","","nonmatch","","","","","","","","","","","","","","key","f","8.3352368421053","853.3333333333334","476","f","true","nonmatch","img/hexagon.png","梯形","六边","ALT1_2","prac_ALT1_2","","","","","","","","","",""
"null","<span style='color:GreenYellow; font-size: 70px;'>正确! </span>","null","html-keyboard-response","92","392471","0.0-7.0-1.0-1.0-0.0-1.41","4","4","4","4","4","4","4","3","4","4","5","5","5","5","5","5","5","5","5","5","1","1","1","1","1","1","1","1","1","0","1","0","0","0","0","0","1","0","0","0","0","1","0","1","5","1","1","1","1","1","3","1","2","1","557541487416442880","刘","37","","","","","","","","","","","","","","","","","","","","","","","","","","","","","","feedback_test","","","","","","","","","",""
"949","","j","psychophysics","93","394420","0.0-7.0-1.0-1.0-0.0-0.42","4","4","4","4","4","4","4","3","4","4","5","5","5","5","5","5","5","5","5","5","1","1","1","1","1","1","1","1","1","0","1","0","0","0","0","0","1","0","0","0","0","1","0","1","5","1","1","1","1","1","3","1","2","1","557541487416442880","刘","37","","","","match","","","","","","","","","","","","","","key","j","8.333681034482714","853.3333333333334","476","j","true","match","img/square.png","方形","方形","ALT1_2","prac_ALT1_2","","","","","","","","","",""
"null","<span style='color:GreenYellow; font-size: 70px;'>正确! </span>","null","html-keyboard-response","94","394927","0.0-7.0-1.0-1.0-0.0-1.42","4","4","4","4","4","4","4","3","4","4","5","5","5","5","5","5","5","5","5","5","1","1","1","1","1","1","1","1","1","0","1","0","0","0","0","0","1","0","0","0","0","1","0","1","5","1","1","1","1","1","3","1","2","1","557541487416442880","刘","37","","","","","","","","","","","","","","","","","","","","","","","","","","","","","","feedback_test","","","","","","","","","",""
"1028","","f","psychophysics","95","396956","0.0-7.0-1.0-1.0-0.0-0.43","4","4","4","4","4","4","4","3","4","4","5","5","5","5","5","5","5","5","5","5","1","1","1","1","1","1","1","1","1","0","1","0","0","0","0","0","1","0","0","0","0","1","0","1","5","1","1","1","1","1","3","1","2","1","557541487416442880","刘","37","","","","nonmatch","","","","","","","","","","","","","","key","f","8.333260330578653","853.3333333333334","476","f","true","nonmatch","img/trapezoid.png","方形","梯形","ALT1_2","prac_ALT1_2","","","","","","","","","",""
"null","<span style='color:GreenYellow; font-size: 70px;'>正确! </span>","null","html-keyboard-response","96","397463","0.0-7.0-1.0-1.0-0.0-1.43","4","4","4","4","4","4","4","3","4","4","5","5","5","5","5","5","5","5","5","5","1","1","1","1","1","1","1","1","1","0","1","0","0","0","0","0","1","0","0","0","0","1","0","1","5","1","1","1","1","1","3","1","2","1","557541487416442880","刘","37","","","","","","","","","","","","","","","","","","","","","","","","","","","","","","feedback_test","","","","","","","","","",""
"684","","f","psychophysics","97","399148","0.0-7.0-1.0-1.0-0.0-0.44","4","4","4","4","4","4","4","3","4","4","5","5","5","5","5","5","5","5","5","5","1","1","1","1","1","1","1","1","1","0","1","0","0","0","0","0","1","0","0","0","0","1","0","1","5","1","1","1","1","1","3","1","2","1","557541487416442880","刘","37","","","","nonmatch","","","","","","","","","","","","","","key","f","8.334905472636775","853.3333333333334","476","f","true","nonmatch","img/trapezoid.png","六边","梯形","ALT1_2","prac_ALT1_2","","","","","","","","","",""
"null","<span style='color:GreenYellow; font-size: 70px;'>正确! </span>","null","html-keyboard-response","98","399655","0.0-7.0-1.0-1.0-0.0-1.44","4","4","4","4","4","4","4","3","4","4","5","5","5","5","5","5","5","5","5","5","1","1","1","1","1","1","1","1","1","0","1","0","0","0","0","0","1","0","0","0","0","1","0","1","5","1","1","1","1","1","3","1","2","1","557541487416442880","刘","37","","","","","","","","","","","","","","","","","","","","","","","","","","","","","","feedback_test","","","","","","","","","",""
"572","","j","psychophysics","99","401228","0.0-7.0-1.0-1.0-0.0-0.45","4","4","4","4","4","4","4","3","4","4","5","5","5","5","5","5","5","5","5","5","1","1","1","1","1","1","1","1","1","0","1","0","0","0","0","0","1","0","0","0","0","1","0","1","5","1","1","1","1","1","3","1","2","1","557541487416442880","刘","37","","","","match","","","","","","","","","","","","","","key","j","8.333604278074661","853.3333333333334","476","j","true","match","img/square.png","方形","方形","ALT1_2","prac_ALT1_2","","","","","","","","","",""
"null","<span style='color:GreenYellow; font-size: 70px;'>正确! </span>","null","html-keyboard-response","100","401735","0.0-7.0-1.0-1.0-0.0-1.45","4","4","4","4","4","4","4","3","4","4","5","5","5","5","5","5","5","5","5","5","1","1","1","1","1","1","1","1","1","0","1","0","0","0","0","0","1","0","0","0","0","1","0","1","5","1","1","1","1","1","3","1","2","1","557541487416442880","刘","37","","","","","","","","","","","","","","","","","","","","","","","","","","","","","","feedback_test","","","","","","","","","",""
"589","","j","psychophysics","101","403324","0.0-7.0-1.0-1.0-0.0-0.46","4","4","4","4","4","4","4","3","4","4","5","5","5","5","5","5","5","5","5","5","1","1","1","1","1","1","1","1","1","0","1","0","0","0","0","0","1","0","0","0","0","1","0","1","5","1","1","1","1","1","3","1","2","1","557541487416442880","刘","37","","","","match","","","","","","","","","","","","","","key","j","8.33459788359789","853.3333333333334","476","j","true","match","img/ellipse.png","椭圆","椭圆","ALT1_2","prac_ALT1_2","","","","","","","","","",""
"null","<span style='color:GreenYellow; font-size: 70px;'>正确! </span>","null","html-keyboard-response","102","403831","0.0-7.0-1.0-1.0-0.0-1.46","4","4","4","4","4","4","4","3","4","4","5","5","5","5","5","5","5","5","5","5","1","1","1","1","1","1","1","1","1","0","1","0","0","0","0","0","1","0","0","0","0","1","0","1","5","1","1","1","1","1","3","1","2","1","557541487416442880","刘","37","","","","","","","","","","","","","","","","","","","","","","","","","","","","","","feedback_test","","","","","","","","","",""
"749","","f","psychophysics","103","405580","0.0-7.0-1.0-1.0-0.0-0.47","4","4","4","4","4","4","4","3","4","4","5","5","5","5","5","5","5","5","5","5","1","1","1","1","1","1","1","1","1","0","1","0","0","0","0","0","1","0","0","0","0","1","0","1","5","1","1","1","1","1","3","1","2","1","557541487416442880","刘","37","","","","nonmatch","","","","","","","","","","","","","","key","f","8.334692307692212","853.3333333333334","476","f","true","nonmatch","img/ellipse.png","六边","椭圆","ALT1_2","prac_ALT1_2","","","","","","","","","",""
"null","<span style='color:GreenYellow; font-size: 70px;'>正确! </span>","null","html-keyboard-response","104","406088","0.0-7.0-1.0-1.0-0.0-1.47","4","4","4","4","4","4","4","3","4","4","5","5","5","5","5","5","5","5","5","5","1","1","1","1","1","1","1","1","1","0","1","0","0","0","0","0","1","0","0","0","0","1","0","1","5","1","1","1","1","1","3","1","2","1","557541487416442880","刘","37","","","","","","","","","","","","","","","","","","","","","","","","","","","","","","feedback_test","","","","","","","","","",""
"20995","<style>.context{color:white; font-size: 35px; line-height:40px}</style>                          <div><p class='context'>您正确回答了94% 的试次。</p><p class='context'>您的平均反应时为679毫秒。</p><p class='context'>恭喜您完成练习。按空格键进入正式实验。</p><p class='footer' style='font-size: 35px; line-height:40px;'>请在进入正式实验实验之前将您的<span style='color: lightgreen;'>食指</span>放在电脑键盘的相应键位上进行按键。</p>"," ","html-keyboard-response","105","427084","0.0-7.0-1.0-2.0","4","4","4","4","4","4","4","3","4","4","5","5","5","5","5","5","5","5","5","5","1","1","1","1","1","1","1","1","1","0","1","0","0","0","0","0","1","0","0","0","0","1","0","1","5","1","1","1","1","1","3","1","2","1","557541487416442880","刘","37","","","","","","","","","","","","","","","","","","","","","","","","","","","","","","","","","","","","","","","",""
"2598","
  <p style='color: white; font-size: 22px'>请您将手指放在按键上，准备进入正式的匹配任务。</p>
  <p> <div style = ""color: green""><按空格键进入下一阶段的匹配任务></div></p>
  "," ","html-keyboard-response","106","429684","0.0-7.0-1.0-3.0","4","4","4","4","4","4","4","3","4","4","5","5","5","5","5","5","5","5","5","5","1","1","1","1","1","1","1","1","1","0","1","0","0","0","0","0","1","0","0","0","0","1","0","1","5","1","1","1","1","1","3","1","2","1","557541487416442880","刘","37","","","","","","","","","","","","","","","","","","","","","","","","","","","","","","","","","","","","","","","",""
"655","","f","psychophysics","107","431340","0.0-7.0-1.0-4.0-0.0-0.0","4","4","4","4","4","4","4","3","4","4","5","5","5","5","5","5","5","5","5","5","1","1","1","1","1","1","1","1","1","0","1","0","0","0","0","0","1","0","0","0","0","1","0","1","5","1","1","1","1","1","3","1","2","1","557541487416442880","刘","37","","","","nonmatch","","","","","","","","","","","","","","key","f","8.39323857868017","853.3333333333334","476","f","true","nonmatch","img/ellipse.png","六边","椭圆","ALT1","formal_ALT1_2","","","","","","","","","",""
"null","<span style='color:GreenYellow; font-size: 70px;'>正确! </span>","null","html-keyboard-response","108","431848","0.0-7.0-1.0-4.0-0.0-1.0","4","4","4","4","4","4","4","3","4","4","5","5","5","5","5","5","5","5","5","5","1","1","1","1","1","1","1","1","1","0","1","0","0","0","0","0","1","0","0","0","0","1","0","1","5","1","1","1","1","1","3","1","2","1","557541487416442880","刘","37","","","","","","","","","","","","","","","","","","","","","","","","","","","","","","feedback_test","","","","","","","","","",""
"595","","f","psychophysics","109","433444","0.0-7.0-1.0-4.0-0.0-0.1","4","4","4","4","4","4","4","3","4","4","5","5","5","5","5","5","5","5","5","5","1","1","1","1","1","1","1","1","1","0","1","0","0","0","0","0","1","0","0","0","0","1","0","1","5","1","1","1","1","1","3","1","2","1","557541487416442880","刘","37","","","","nonmatch","","","","","","","","","","","","","","key","f","8.331678947368575","853.3333333333334","476","f","true","nonmatch","img/trapezoid.png","椭圆","梯形","ALT1","formal_ALT1_2","","","","","","","","","",""
"null","<span style='color:GreenYellow; font-size: 70px;'>正确! </span>","null","html-keyboard-response","110","433951","0.0-7.0-1.0-4.0-0.0-1.1","4","4","4","4","4","4","4","3","4","4","5","5","5","5","5","5","5","5","5","5","1","1","1","1","1","1","1","1","1","0","1","0","0","0","0","0","1","0","0","0","0","1","0","1","5","1","1","1","1","1","3","1","2","1","557541487416442880","刘","37","","","","","","","","","","","","","","","","","","","","","","","","","","","","","","feedback_test","","","","","","","","","",""
"604","","j","psychophysics","111","435557","0.0-7.0-1.0-4.0-0.0-0.2","4","4","4","4","4","4","4","3","4","4","5","5","5","5","5","5","5","5","5","5","1","1","1","1","1","1","1","1","1","0","1","0","0","0","0","0","1","0","0","0","0","1","0","1","5","1","1","1","1","1","3","1","2","1","557541487416442880","刘","37","","","","match","","","","","","","","","","","","","","key","j","8.333089005235578","853.3333333333334","476","j","true","match","img/hexagon.png","六边","六边","ALT1","formal_ALT1_2","","","","","","","","","",""
"null","<span style='color:GreenYellow; font-size: 70px;'>正确! </span>","null","html-keyboard-response","112","436064","0.0-7.0-1.0-4.0-0.0-1.2","4","4","4","4","4","4","4","3","4","4","5","5","5","5","5","5","5","5","5","5","1","1","1","1","1","1","1","1","1","0","1","0","0","0","0","0","1","0","0","0","0","1","0","1","5","1","1","1","1","1","3","1","2","1","557541487416442880","刘","37","","","","","","","","","","","","","","","","","","","","","","","","","","","","","","feedback_test","","","","","","","","","",""
"693","","j","psychophysics","113","437757","0.0-7.0-1.0-4.0-0.0-0.3","4","4","4","4","4","4","4","3","4","4","5","5","5","5","5","5","5","5","5","5","1","1","1","1","1","1","1","1","1","0","1","0","0","0","0","0","1","0","0","0","0","1","0","1","5","1","1","1","1","1","3","1","2","1","557541487416442880","刘","37","","","","match","","","","","","","","","","","","","","key","j","8.334257425742667","853.3333333333334","476","j","true","match","img/trapezoid.png","梯形","梯形","ALT1","formal_ALT1_2","","","","","","","","","",""
"null","<span style='color:GreenYellow; font-size: 70px;'>正确! </span>","null","html-keyboard-response","114","438264","0.0-7.0-1.0-4.0-0.0-1.3","4","4","4","4","4","4","4","3","4","4","5","5","5","5","5","5","5","5","5","5","1","1","1","1","1","1","1","1","1","0","1","0","0","0","0","0","1","0","0","0","0","1","0","1","5","1","1","1","1","1","3","1","2","1","557541487416442880","刘","37","","","","","","","","","","","","","","","","","","","","","","","","","","","","","","feedback_test","","","","","","","","","",""
"668","","f","psychophysics","115","439933","0.0-7.0-1.0-4.0-0.0-0.4","4","4","4","4","4","4","4","3","4","4","5","5","5","5","5","5","5","5","5","5","1","1","1","1","1","1","1","1","1","0","1","0","0","0","0","0","1","0","0","0","0","1","0","1","5","1","1","1","1","1","3","1","2","1","557541487416442880","刘","37","","","","nonmatch","","","","","","","","","","","","","","key","f","8.334879396984942","853.3333333333334","476","j","false","match","img/trapezoid.png","梯形","梯形","ALT1","formal_ALT1_2","","","","","","","","","",""
"null","<span style='color:red; font-size: 70px;'>错误! </span>","null","html-keyboard-response","116","440441","0.0-7.0-1.0-4.0-0.0-1.4","4","4","4","4","4","4","4","3","4","4","5","5","5","5","5","5","5","5","5","5","1","1","1","1","1","1","1","1","1","0","1","0","0","0","0","0","1","0","0","0","0","1","0","1","5","1","1","1","1","1","3","1","2","1","557541487416442880","刘","37","","","","","","","","","","","","","","","","","","","","","","","","","","","","","","feedback_test","","","","","","","","","",""
"771","","f","psychophysics","117","442213","0.0-7.0-1.0-4.0-0.0-0.5","4","4","4","4","4","4","4","3","4","4","5","5","5","5","5","5","5","5","5","5","1","1","1","1","1","1","1","1","1","0","1","0","0","0","0","0","1","0","0","0","0","1","0","1","5","1","1","1","1","1","3","1","2","1","557541487416442880","刘","37","","","","nonmatch","","","","","","","","","","","","","","key","f","8.333943127962083","853.3333333333334","476","f","true","nonmatch","img/ellipse.png","梯形","椭圆","ALT1","formal_ALT1_2","","","","","","","","","",""
"null","<span style='color:GreenYellow; font-size: 70px;'>正确! </span>","null","html-keyboard-response","118","442720","0.0-7.0-1.0-4.0-0.0-1.5","4","4","4","4","4","4","4","3","4","4","5","5","5","5","5","5","5","5","5","5","1","1","1","1","1","1","1","1","1","0","1","0","0","0","0","0","1","0","0","0","0","1","0","1","5","1","1","1","1","1","3","1","2","1","557541487416442880","刘","37","","","","","","","","","","","","","","","","","","","","","","","","","","","","","","feedback_test","","","","","","","","","",""
"549","","j","psychophysics","119","444269","0.0-7.0-1.0-4.0-0.0-0.6","4","4","4","4","4","4","4","3","4","4","5","5","5","5","5","5","5","5","5","5","1","1","1","1","1","1","1","1","1","0","1","0","0","0","0","0","1","0","0","0","0","1","0","1","5","1","1","1","1","1","3","1","2","1","557541487416442880","刘","37","","","","match","","","","","","","","","","","","","","key","j","8.334815217391144","853.3333333333334","476","j","true","match","img/hexagon.png","六边","六边","ALT1","formal_ALT1_2","","","","","","","","","",""
"null","<span style='color:GreenYellow; font-size: 70px;'>正确! </span>","null","html-keyboard-response","120","444777","0.0-7.0-1.0-4.0-0.0-1.6","4","4","4","4","4","4","4","3","4","4","5","5","5","5","5","5","5","5","5","5","1","1","1","1","1","1","1","1","1","0","1","0","0","0","0","0","1","0","0","0","0","1","0","1","5","1","1","1","1","1","3","1","2","1","557541487416442880","刘","37","","","","","","","","","","","","","","","","","","","","","","","","","","","","","","feedback_test","","","","","","","","","",""
"619","","f","psychophysics","121","446397","0.0-7.0-1.0-4.0-0.0-0.7","4","4","4","4","4","4","4","3","4","4","5","5","5","5","5","5","5","5","5","5","1","1","1","1","1","1","1","1","1","0","1","0","0","0","0","0","1","0","0","0","0","1","0","1","5","1","1","1","1","1","3","1","2","1","557541487416442880","刘","37","","","","nonmatch","","","","","","","","","","","","","","key","f","8.331689119171001","853.3333333333334","476","f","true","nonmatch","img/square.png","六边","方形","ALT1","formal_ALT1_2","","","","","","","","","",""
"null","<span style='color:GreenYellow; font-size: 70px;'>正确! </span>","null","html-keyboard-response","122","446911","0.0-7.0-1.0-4.0-0.0-1.7","4","4","4","4","4","4","4","3","4","4","5","5","5","5","5","5","5","5","5","5","1","1","1","1","1","1","1","1","1","0","1","0","0","0","0","0","1","0","0","0","0","1","0","1","5","1","1","1","1","1","3","1","2","1","557541487416442880","刘","37","","","","","","","","","","","","","","","","","","","","","","","","","","","","","","feedback_test","","","","","","","","","",""
"564","","j","psychophysics","123","448477","0.0-7.0-1.0-4.0-0.0-0.8","4","4","4","4","4","4","4","3","4","4","5","5","5","5","5","5","5","5","5","5","1","1","1","1","1","1","1","1","1","0","1","0","0","0","0","0","1","0","0","0","0","1","0","1","5","1","1","1","1","1","3","1","2","1","557541487416442880","刘","37","","","","match","","","","","","","","","","","","","","key","j","8.334586021505416","853.3333333333334","476","j","true","match","img/ellipse.png","椭圆","椭圆","ALT1","formal_ALT1_2","","","","","","","","","",""
"null","<span style='color:GreenYellow; font-size: 70px;'>正确! </span>","null","html-keyboard-response","124","448985","0.0-7.0-1.0-4.0-0.0-1.8","4","4","4","4","4","4","4","3","4","4","5","5","5","5","5","5","5","5","5","5","1","1","1","1","1","1","1","1","1","0","1","0","0","0","0","0","1","0","0","0","0","1","0","1","5","1","1","1","1","1","3","1","2","1","557541487416442880","刘","37","","","","","","","","","","","","","","","","","","","","","","","","","","","","","","feedback_test","","","","","","","","","",""
"595","","f","psychophysics","125","450581","0.0-7.0-1.0-4.0-0.0-0.9","4","4","4","4","4","4","4","3","4","4","5","5","5","5","5","5","5","5","5","5","1","1","1","1","1","1","1","1","1","0","1","0","0","0","0","0","1","0","0","0","0","1","0","1","5","1","1","1","1","1","3","1","2","1","557541487416442880","刘","37","","","","nonmatch","","","","","","","","","","","","","","key","f","8.333878947368602","853.3333333333334","476","f","true","nonmatch","img/hexagon.png","方形","六边","ALT1","formal_ALT1_2","","","","","","","","","",""
"null","<span style='color:GreenYellow; font-size: 70px;'>正确! </span>","null","html-keyboard-response","126","451089","0.0-7.0-1.0-4.0-0.0-1.9","4","4","4","4","4","4","4","3","4","4","5","5","5","5","5","5","5","5","5","5","1","1","1","1","1","1","1","1","1","0","1","0","0","0","0","0","1","0","0","0","0","1","0","1","5","1","1","1","1","1","3","1","2","1","557541487416442880","刘","37","","","","","","","","","","","","","","","","","","","","","","","","","","","","","","feedback_test","","","","","","","","","",""
"603","","f","psychophysics","127","452693","0.0-7.0-1.0-4.0-0.0-0.10","4","4","4","4","4","4","4","3","4","4","5","5","5","5","5","5","5","5","5","5","1","1","1","1","1","1","1","1","1","0","1","0","0","0","0","0","1","0","0","0","0","1","0","1","5","1","1","1","1","1","3","1","2","1","557541487416442880","刘","37","","","","nonmatch","","","","","","","","","","","","","","key","f","8.334465968586548","853.3333333333334","476","f","true","nonmatch","img/square.png","梯形","方形","ALT1","formal_ALT1_2","","","","","","","","","",""
"null","<span style='color:GreenYellow; font-size: 70px;'>正确! </span>","null","html-keyboard-response","128","453194","0.0-7.0-1.0-4.0-0.0-1.10","4","4","4","4","4","4","4","3","4","4","5","5","5","5","5","5","5","5","5","5","1","1","1","1","1","1","1","1","1","0","1","0","0","0","0","0","1","0","0","0","0","1","0","1","5","1","1","1","1","1","3","1","2","1","557541487416442880","刘","37","","","","","","","","","","","","","","","","","","","","","","","","","","","","","","feedback_test","","","","","","","","","",""
"570","","j","psychophysics","129","454765","0.0-7.0-1.0-4.0-0.0-0.11","4","4","4","4","4","4","4","3","4","4","5","5","5","5","5","5","5","5","5","5","1","1","1","1","1","1","1","1","1","0","1","0","0","0","0","0","1","0","0","0","0","1","0","1","5","1","1","1","1","1","3","1","2","1","557541487416442880","刘","37","","","","match","","","","","","","","","","","","","","key","j","8.332741935483632","853.3333333333334","476","j","true","match","img/ellipse.png","椭圆","椭圆","ALT1","formal_ALT1_2","","","","","","","","","",""
"null","<span style='color:GreenYellow; font-size: 70px;'>正确! </span>","null","html-keyboard-response","130","455272","0.0-7.0-1.0-4.0-0.0-1.11","4","4","4","4","4","4","4","3","4","4","5","5","5","5","5","5","5","5","5","5","1","1","1","1","1","1","1","1","1","0","1","0","0","0","0","0","1","0","0","0","0","1","0","1","5","1","1","1","1","1","3","1","2","1","557541487416442880","刘","37","","","","","","","","","","","","","","","","","","","","","","","","","","","","","","feedback_test","","","","","","","","","",""
"612","","f","psychophysics","131","456885","0.0-7.0-1.0-4.0-0.0-0.12","4","4","4","4","4","4","4","3","4","4","5","5","5","5","5","5","5","5","5","5","1","1","1","1","1","1","1","1","1","0","1","0","0","0","0","0","1","0","0","0","0","1","0","1","5","1","1","1","1","1","3","1","2","1","557541487416442880","刘","37","","","","nonmatch","","","","","","","","","","","","","","key","f","8.333874999999958","853.3333333333334","476","f","true","nonmatch","img/trapezoid.png","六边","梯形","ALT1","formal_ALT1_2","","","","","","","","","",""
"null","<span style='color:GreenYellow; font-size: 70px;'>正确! </span>","null","html-keyboard-response","132","457393","0.0-7.0-1.0-4.0-0.0-1.12","4","4","4","4","4","4","4","3","4","4","5","5","5","5","5","5","5","5","5","5","1","1","1","1","1","1","1","1","1","0","1","0","0","0","0","0","1","0","0","0","0","1","0","1","5","1","1","1","1","1","3","1","2","1","557541487416442880","刘","37","","","","","","","","","","","","","","","","","","","","","","","","","","","","","","feedback_test","","","","","","","","","",""
"603","","f","psychophysics","133","458997","0.0-7.0-1.0-4.0-0.0-0.13","4","4","4","4","4","4","4","3","4","4","5","5","5","5","5","5","5","5","5","5","1","1","1","1","1","1","1","1","1","0","1","0","0","0","0","0","1","0","0","0","0","1","0","1","5","1","1","1","1","1","3","1","2","1","557541487416442880","刘","37","","","","nonmatch","","","","","","","","","","","","","","key","f","8.334638743455637","853.3333333333334","476","f","true","nonmatch","img/hexagon.png","椭圆","六边","ALT1","formal_ALT1_2","","","","","","","","","",""
"null","<span style='color:GreenYellow; font-size: 70px;'>正确! </span>","null","html-keyboard-response","134","459503","0.0-7.0-1.0-4.0-0.0-1.13","4","4","4","4","4","4","4","3","4","4","5","5","5","5","5","5","5","5","5","5","1","1","1","1","1","1","1","1","1","0","1","0","0","0","0","0","1","0","0","0","0","1","0","1","5","1","1","1","1","1","3","1","2","1","557541487416442880","刘","37","","","","","","","","","","","","","","","","","","","","","","","","","","","","","","feedback_test","","","","","","","","","",""
"589","","j","psychophysics","135","461093","0.0-7.0-1.0-4.0-0.0-0.14","4","4","4","4","4","4","4","3","4","4","5","5","5","5","5","5","5","5","5","5","1","1","1","1","1","1","1","1","1","0","1","0","0","0","0","0","1","0","0","0","0","1","0","1","5","1","1","1","1","1","3","1","2","1","557541487416442880","刘","37","","","","match","","","","","","","","","","","","","","key","j","8.334433862433778","853.3333333333334","476","j","true","match","img/hexagon.png","六边","六边","ALT1","formal_ALT1_2","","","","","","","","","",""
"null","<span style='color:GreenYellow; font-size: 70px;'>正确! </span>","null","html-keyboard-response","136","461600","0.0-7.0-1.0-4.0-0.0-1.14","4","4","4","4","4","4","4","3","4","4","5","5","5","5","5","5","5","5","5","5","1","1","1","1","1","1","1","1","1","0","1","0","0","0","0","0","1","0","0","0","0","1","0","1","5","1","1","1","1","1","3","1","2","1","557541487416442880","刘","37","","","","","","","","","","","","","","","","","","","","","","","","","","","","","","feedback_test","","","","","","","","","",""
"684","","j","psychophysics","137","463285","0.0-7.0-1.0-4.0-0.0-0.15","4","4","4","4","4","4","4","3","4","4","5","5","5","5","5","5","5","5","5","5","1","1","1","1","1","1","1","1","1","0","1","0","0","0","0","0","1","0","0","0","0","1","0","1","5","1","1","1","1","1","3","1","2","1","557541487416442880","刘","37","","","","match","","","","","","","","","","","","","","key","j","8.331472636815867","853.3333333333334","476","j","true","match","img/trapezoid.png","梯形","梯形","ALT1","formal_ALT1_2","","","","","","","","","",""
"null","<span style='color:GreenYellow; font-size: 70px;'>正确! </span>","null","html-keyboard-response","138","463792","0.0-7.0-1.0-4.0-0.0-1.15","4","4","4","4","4","4","4","3","4","4","5","5","5","5","5","5","5","5","5","5","1","1","1","1","1","1","1","1","1","0","1","0","0","0","0","0","1","0","0","0","0","1","0","1","5","1","1","1","1","1","3","1","2","1","557541487416442880","刘","37","","","","","","","","","","","","","","","","","","","","","","","","","","","","","","feedback_test","","","","","","","","","",""
"572","","f","psychophysics","139","465365","0.0-7.0-1.0-4.0-0.0-0.16","4","4","4","4","4","4","4","3","4","4","5","5","5","5","5","5","5","5","5","5","1","1","1","1","1","1","1","1","1","0","1","0","0","0","0","0","1","0","0","0","0","1","0","1","5","1","1","1","1","1","3","1","2","1","557541487416442880","刘","37","","","","nonmatch","","","","","","","","","","","","","","key","f","8.334636363636312","853.3333333333334","476","f","true","nonmatch","img/square.png","椭圆","方形","ALT1","formal_ALT1_2","","","","","","","","","",""
"null","<span style='color:GreenYellow; font-size: 70px;'>正确! </span>","null","html-keyboard-response","140","465871","0.0-7.0-1.0-4.0-0.0-1.16","4","4","4","4","4","4","4","3","4","4","5","5","5","5","5","5","5","5","5","5","1","1","1","1","1","1","1","1","1","0","1","0","0","0","0","0","1","0","0","0","0","1","0","1","5","1","1","1","1","1","3","1","2","1","557541487416442880","刘","37","","","","","","","","","","","","","","","","","","","","","","","","","","","","","","feedback_test","","","","","","","","","",""
"620","","f","psychophysics","141","467493","0.0-7.0-1.0-4.0-0.0-0.17","4","4","4","4","4","4","4","3","4","4","5","5","5","5","5","5","5","5","5","5","1","1","1","1","1","1","1","1","1","0","1","0","0","0","0","0","1","0","0","0","0","1","0","1","5","1","1","1","1","1","3","1","2","1","557541487416442880","刘","37","","","","nonmatch","","","","","","","","","","","","","","key","f","8.334139896373065","853.3333333333334","476","f","true","nonmatch","img/trapezoid.png","方形","梯形","ALT1","formal_ALT1_2","","","","","","","","","",""
"null","<span style='color:GreenYellow; font-size: 70px;'>正确! </span>","null","html-keyboard-response","142","468000","0.0-7.0-1.0-4.0-0.0-1.17","4","4","4","4","4","4","4","3","4","4","5","5","5","5","5","5","5","5","5","5","1","1","1","1","1","1","1","1","1","0","1","0","0","0","0","0","1","0","0","0","0","1","0","1","5","1","1","1","1","1","3","1","2","1","557541487416442880","刘","37","","","","","","","","","","","","","","","","","","","","","","","","","","","","","","feedback_test","","","","","","","","","",""
"564","","j","psychophysics","143","469565","0.0-7.0-1.0-4.0-0.0-0.18","4","4","4","4","4","4","4","3","4","4","5","5","5","5","5","5","5","5","5","5","1","1","1","1","1","1","1","1","1","0","1","0","0","0","0","0","1","0","0","0","0","1","0","1","5","1","1","1","1","1","3","1","2","1","557541487416442880","刘","37","","","","match","","","","","","","","","","","","","","key","j","8.334220430107415","853.3333333333334","476","j","true","match","img/ellipse.png","椭圆","椭圆","ALT1","formal_ALT1_2","","","","","","","","","",""
"null","<span style='color:GreenYellow; font-size: 70px;'>正确! </span>","null","html-keyboard-response","144","470073","0.0-7.0-1.0-4.0-0.0-1.18","4","4","4","4","4","4","4","3","4","4","5","5","5","5","5","5","5","5","5","5","1","1","1","1","1","1","1","1","1","0","1","0","0","0","0","0","1","0","0","0","0","1","0","1","5","1","1","1","1","1","3","1","2","1","557541487416442880","刘","37","","","","","","","","","","","","","","","","","","","","","","","","","","","","","","feedback_test","","","","","","","","","",""
"771","","j","psychophysics","145","471845","0.0-7.0-1.0-4.0-0.0-0.19","4","4","4","4","4","4","4","3","4","4","5","5","5","5","5","5","5","5","5","5","1","1","1","1","1","1","1","1","1","0","1","0","0","0","0","0","1","0","0","0","0","1","0","1","5","1","1","1","1","1","3","1","2","1","557541487416442880","刘","37","","","","match","","","","","","","","","","","","","","key","j","8.334127962085256","853.3333333333334","476","j","true","match","img/square.png","方形","方形","ALT1","formal_ALT1_2","","","","","","","","","",""
"null","<span style='color:GreenYellow; font-size: 70px;'>正确! </span>","null","html-keyboard-response","146","472350","0.0-7.0-1.0-4.0-0.0-1.19","4","4","4","4","4","4","4","3","4","4","5","5","5","5","5","5","5","5","5","5","1","1","1","1","1","1","1","1","1","0","1","0","0","0","0","0","1","0","0","0","0","1","0","1","5","1","1","1","1","1","3","1","2","1","557541487416442880","刘","37","","","","","","","","","","","","","","","","","","","","","","","","","","","","","","feedback_test","","","","","","","","","",""
"695","","f","psychophysics","147","474045","0.0-7.0-1.0-4.0-0.0-0.20","4","4","4","4","4","4","4","3","4","4","5","5","5","5","5","5","5","5","5","5","1","1","1","1","1","1","1","1","1","0","1","0","0","0","0","0","1","0","0","0","0","1","0","1","5","1","1","1","1","1","3","1","2","1","557541487416442880","刘","37","","","","nonmatch","","","","","","","","","","","","","","key","f","8.334344827586078","853.3333333333334","476","f","true","nonmatch","img/ellipse.png","方形","椭圆","ALT1","formal_ALT1_2","","","","","","","","","",""
"null","<span style='color:GreenYellow; font-size: 70px;'>正确! </span>","null","html-keyboard-response","148","474553","0.0-7.0-1.0-4.0-0.0-1.20","4","4","4","4","4","4","4","3","4","4","5","5","5","5","5","5","5","5","5","5","1","1","1","1","1","1","1","1","1","0","1","0","0","0","0","0","1","0","0","0","0","1","0","1","5","1","1","1","1","1","3","1","2","1","557541487416442880","刘","37","","","","","","","","","","","","","","","","","","","","","","","","","","","","","","feedback_test","","","","","","","","","",""
"667","","j","psychophysics","149","476221","0.0-7.0-1.0-4.0-0.0-0.21","4","4","4","4","4","4","4","3","4","4","5","5","5","5","5","5","5","5","5","5","1","1","1","1","1","1","1","1","1","0","1","0","0","0","0","0","1","0","0","0","0","1","0","1","5","1","1","1","1","1","3","1","2","1","557541487416442880","刘","37","","","","match","","","","","","","","","","","","","","key","j","8.332814070351665","853.3333333333334","476","j","true","match","img/square.png","方形","方形","ALT1","formal_ALT1_2","","","","","","","","","",""
"null","<span style='color:GreenYellow; font-size: 70px;'>正确! </span>","null","html-keyboard-response","150","476729","0.0-7.0-1.0-4.0-0.0-1.21","4","4","4","4","4","4","4","3","4","4","5","5","5","5","5","5","5","5","5","5","1","1","1","1","1","1","1","1","1","0","1","0","0","0","0","0","1","0","0","0","0","1","0","1","5","1","1","1","1","1","3","1","2","1","557541487416442880","刘","37","","","","","","","","","","","","","","","","","","","","","","","","","","","","","","feedback_test","","","","","","","","","",""
"708","","j","psychophysics","151","478437","0.0-7.0-1.0-4.0-0.0-0.22","4","4","4","4","4","4","4","3","4","4","5","5","5","5","5","5","5","5","5","5","1","1","1","1","1","1","1","1","1","0","1","0","0","0","0","0","1","0","0","0","0","1","0","1","5","1","1","1","1","1","3","1","2","1","557541487416442880","刘","37","","","","match","","","","","","","","","","","","","","key","j","8.334532019704307","853.3333333333334","476","j","true","match","img/square.png","方形","方形","ALT1","formal_ALT1_2","","","","","","","","","",""
"null","<span style='color:GreenYellow; font-size: 70px;'>正确! </span>","null","html-keyboard-response","152","478939","0.0-7.0-1.0-4.0-0.0-1.22","4","4","4","4","4","4","4","3","4","4","5","5","5","5","5","5","5","5","5","5","1","1","1","1","1","1","1","1","1","0","1","0","0","0","0","0","1","0","0","0","0","1","0","1","5","1","1","1","1","1","3","1","2","1","557541487416442880","刘","37","","","","","","","","","","","","","","","","","","","","","","","","","","","","","","feedback_test","","","","","","","","","",""
"561","","f","psychophysics","153","480501","0.0-7.0-1.0-4.0-0.0-0.23","4","4","4","4","4","4","4","3","4","4","5","5","5","5","5","5","5","5","5","5","1","1","1","1","1","1","1","1","1","0","1","0","0","0","0","0","1","0","0","0","0","1","0","1","5","1","1","1","1","1","3","1","2","1","557541487416442880","刘","37","","","","nonmatch","","","","","","","","","","","","","","key","f","8.380596774193378","853.3333333333334","476","f","true","nonmatch","img/hexagon.png","梯形","六边","ALT1","formal_ALT1_2","","","","","","","","","",""
"null","<span style='color:GreenYellow; font-size: 70px;'>正确! </span>","null","html-keyboard-response","154","481008","0.0-7.0-1.0-4.0-0.0-1.23","4","4","4","4","4","4","4","3","4","4","5","5","5","5","5","5","5","5","5","5","1","1","1","1","1","1","1","1","1","0","1","0","0","0","0","0","1","0","0","0","0","1","0","1","5","1","1","1","1","1","3","1","2","1","557541487416442880","刘","37","","","","","","","","","","","","","","","","","","","","","","","","","","","","","","feedback_test","","","","","","","","","",""
"524","","j","psychophysics","155","482533","0.0-7.0-1.0-4.0-0.0-0.24","4","4","4","4","4","4","4","3","4","4","5","5","5","5","5","5","5","5","5","5","1","1","1","1","1","1","1","1","1","0","1","0","0","0","0","0","1","0","0","0","0","1","0","1","5","1","1","1","1","1","3","1","2","1","557541487416442880","刘","37","","","","match","","","","","","","","","","","","","","key","j","8.334580110497283","853.3333333333334","476","j","true","match","img/square.png","方形","方形","ALT1","formal_ALT1_2","","","","","","","","","",""
"null","<span style='color:GreenYellow; font-size: 70px;'>正确! </span>","null","html-keyboard-response","156","483040","0.0-7.0-1.0-4.0-0.0-1.24","4","4","4","4","4","4","4","3","4","4","5","5","5","5","5","5","5","5","5","5","1","1","1","1","1","1","1","1","1","0","1","0","0","0","0","0","1","0","0","0","0","1","0","1","5","1","1","1","1","1","3","1","2","1","557541487416442880","刘","37","","","","","","","","","","","","","","","","","","","","","","","","","","","","","","feedback_test","","","","","","","","","",""
"525","","f","psychophysics","157","484565","0.0-7.0-1.0-4.0-0.0-0.25","4","4","4","4","4","4","4","3","4","4","5","5","5","5","5","5","5","5","5","5","1","1","1","1","1","1","1","1","1","0","1","0","0","0","0","0","1","0","0","0","0","1","0","1","5","1","1","1","1","1","3","1","2","1","557541487416442880","刘","37","","","","nonmatch","","","","","","","","","","","","","","key","f","8.334392265193499","853.3333333333334","476","f","true","nonmatch","img/hexagon.png","方形","六边","ALT1","formal_ALT1_2","","","","","","","","","",""
"null","<span style='color:GreenYellow; font-size: 70px;'>正确! </span>","null","html-keyboard-response","158","485073","0.0-7.0-1.0-4.0-0.0-1.25","4","4","4","4","4","4","4","3","4","4","5","5","5","5","5","5","5","5","5","5","1","1","1","1","1","1","1","1","1","0","1","0","0","0","0","0","1","0","0","0","0","1","0","1","5","1","1","1","1","1","3","1","2","1","557541487416442880","刘","37","","","","","","","","","","","","","","","","","","","","","","","","","","","","","","feedback_test","","","","","","","","","",""
"619","","j","psychophysics","159","486693","0.0-7.0-1.0-4.0-0.0-0.26","4","4","4","4","4","4","4","3","4","4","5","5","5","5","5","5","5","5","5","5","1","1","1","1","1","1","1","1","1","0","1","0","0","0","0","0","1","0","0","0","0","1","0","1","5","1","1","1","1","1","3","1","2","1","557541487416442880","刘","37","","","","match","","","","","","","","","","","","","","key","j","8.334974093264067","853.3333333333334","476","j","true","match","img/square.png","方形","方形","ALT1","formal_ALT1_2","","","","","","","","","",""
"null","<span style='color:GreenYellow; font-size: 70px;'>正确! </span>","null","html-keyboard-response","160","487200","0.0-7.0-1.0-4.0-0.0-1.26","4","4","4","4","4","4","4","3","4","4","5","5","5","5","5","5","5","5","5","5","1","1","1","1","1","1","1","1","1","0","1","0","0","0","0","0","1","0","0","0","0","1","0","1","5","1","1","1","1","1","3","1","2","1","557541487416442880","刘","37","","","","","","","","","","","","","","","","","","","","","","","","","","","","","","feedback_test","","","","","","","","","",""
"517","","f","psychophysics","161","488717","0.0-7.0-1.0-4.0-0.0-0.27","4","4","4","4","4","4","4","3","4","4","5","5","5","5","5","5","5","5","5","5","1","1","1","1","1","1","1","1","1","0","1","0","0","0","0","0","1","0","0","0","0","1","0","1","5","1","1","1","1","1","3","1","2","1","557541487416442880","刘","37","","","","nonmatch","","","","","","","","","","","","","","key","f","8.334249999999884","853.3333333333334","476","f","true","nonmatch","img/trapezoid.png","椭圆","梯形","ALT1","formal_ALT1_2","","","","","","","","","",""
"null","<span style='color:GreenYellow; font-size: 70px;'>正确! </span>","null","html-keyboard-response","162","489225","0.0-7.0-1.0-4.0-0.0-1.27","4","4","4","4","4","4","4","3","4","4","5","5","5","5","5","5","5","5","5","5","1","1","1","1","1","1","1","1","1","0","1","0","0","0","0","0","1","0","0","0","0","1","0","1","5","1","1","1","1","1","3","1","2","1","557541487416442880","刘","37","","","","","","","","","","","","","","","","","","","","","","","","","","","","","","feedback_test","","","","","","","","","",""
"563","","f","psychophysics","163","490789","0.0-7.0-1.0-4.0-0.0-0.28","4","4","4","4","4","4","4","3","4","4","5","5","5","5","5","5","5","5","5","5","1","1","1","1","1","1","1","1","1","0","1","0","0","0","0","0","1","0","0","0","0","1","0","1","5","1","1","1","1","1","3","1","2","1","557541487416442880","刘","37","","","","nonmatch","","","","","","","","","","","","","","key","f","8.334774193548602","853.3333333333334","476","f","true","nonmatch","img/hexagon.png","椭圆","六边","ALT1","formal_ALT1_2","","","","","","","","","",""
"null","<span style='color:GreenYellow; font-size: 70px;'>正确! </span>","null","html-keyboard-response","164","491289","0.0-7.0-1.0-4.0-0.0-1.28","4","4","4","4","4","4","4","3","4","4","5","5","5","5","5","5","5","5","5","5","1","1","1","1","1","1","1","1","1","0","1","0","0","0","0","0","1","0","0","0","0","1","0","1","5","1","1","1","1","1","3","1","2","1","557541487416442880","刘","37","","","","","","","","","","","","","","","","","","","","","","","","","","","","","","feedback_test","","","","","","","","","",""
"594","","f","psychophysics","165","492885","0.0-7.0-1.0-4.0-0.0-0.29","4","4","4","4","4","4","4","3","4","4","5","5","5","5","5","5","5","5","5","5","1","1","1","1","1","1","1","1","1","0","1","0","0","0","0","0","1","0","0","0","0","1","0","1","5","1","1","1","1","1","3","1","2","1","557541487416442880","刘","37","","","","nonmatch","","","","","","","","","","","","","","key","f","8.334321052631621","853.3333333333334","476","f","true","nonmatch","img/trapezoid.png","六边","梯形","ALT1","formal_ALT1_2","","","","","","","","","",""
"null","<span style='color:GreenYellow; font-size: 70px;'>正确! </span>","null","html-keyboard-response","166","493389","0.0-7.0-1.0-4.0-0.0-1.29","4","4","4","4","4","4","4","3","4","4","5","5","5","5","5","5","5","5","5","5","1","1","1","1","1","1","1","1","1","0","1","0","0","0","0","0","1","0","0","0","0","1","0","1","5","1","1","1","1","1","3","1","2","1","557541487416442880","刘","37","","","","","","","","","","","","","","","","","","","","","","","","","","","","","","feedback_test","","","","","","","","","",""
"543","","j","psychophysics","167","494933","0.0-7.0-1.0-4.0-0.0-0.30","4","4","4","4","4","4","4","3","4","4","5","5","5","5","5","5","5","5","5","5","1","1","1","1","1","1","1","1","1","0","1","0","0","0","0","0","1","0","0","0","0","1","0","1","5","1","1","1","1","1","3","1","2","1","557541487416442880","刘","37","","","","match","","","","","","","","","","","","","","key","j","8.333907103825036","853.3333333333334","476","j","true","match","img/ellipse.png","椭圆","椭圆","ALT1","formal_ALT1_2","","","","","","","","","",""
"null","<span style='color:GreenYellow; font-size: 70px;'>正确! </span>","null","html-keyboard-response","168","495439","0.0-7.0-1.0-4.0-0.0-1.30","4","4","4","4","4","4","4","3","4","4","5","5","5","5","5","5","5","5","5","5","1","1","1","1","1","1","1","1","1","0","1","0","0","0","0","0","1","0","0","0","0","1","0","1","5","1","1","1","1","1","3","1","2","1","557541487416442880","刘","37","","","","","","","","","","","","","","","","","","","","","","","","","","","","","","feedback_test","","","","","","","","","",""
"516","","j","psychophysics","169","496956","0.0-7.0-1.0-4.0-0.0-0.31","4","4","4","4","4","4","4","3","4","4","5","5","5","5","5","5","5","5","5","5","1","1","1","1","1","1","1","1","1","0","1","0","0","0","0","0","1","0","0","0","0","1","0","1","5","1","1","1","1","1","3","1","2","1","557541487416442880","刘","37","","","","match","","","","","","","","","","","","","","key","j","8.334299999999995","853.3333333333334","476","j","true","match","img/ellipse.png","椭圆","椭圆","ALT1","formal_ALT1_2","","","","","","","","","",""
"null","<span style='color:GreenYellow; font-size: 70px;'>正确! </span>","null","html-keyboard-response","170","497465","0.0-7.0-1.0-4.0-0.0-1.31","4","4","4","4","4","4","4","3","4","4","5","5","5","5","5","5","5","5","5","5","1","1","1","1","1","1","1","1","1","0","1","0","0","0","0","0","1","0","0","0","0","1","0","1","5","1","1","1","1","1","3","1","2","1","557541487416442880","刘","37","","","","","","","","","","","","","","","","","","","","","","","","","","","","","","feedback_test","","","","","","","","","",""
"514","","f","psychophysics","171","498980","0.0-7.0-1.0-4.0-0.0-0.32","4","4","4","4","4","4","4","3","4","4","5","5","5","5","5","5","5","5","5","5","1","1","1","1","1","1","1","1","1","0","1","0","0","0","0","0","1","0","0","0","0","1","0","1","5","1","1","1","1","1","3","1","2","1","557541487416442880","刘","37","","","","nonmatch","","","","","","","","","","","","","","key","f","8.335138888888954","853.3333333333334","476","f","true","nonmatch","img/hexagon.png","梯形","六边","ALT1","formal_ALT1_2","","","","","","","","","",""
"null","<span style='color:GreenYellow; font-size: 70px;'>正确! </span>","null","html-keyboard-response","172","499487","0.0-7.0-1.0-4.0-0.0-1.32","4","4","4","4","4","4","4","3","4","4","5","5","5","5","5","5","5","5","5","5","1","1","1","1","1","1","1","1","1","0","1","0","0","0","0","0","1","0","0","0","0","1","0","1","5","1","1","1","1","1","3","1","2","1","557541487416442880","刘","37","","","","","","","","","","","","","","","","","","","","","","","","","","","","","","feedback_test","","","","","","","","","",""
"853","","f","psychophysics","173","501340","0.0-7.0-1.0-4.0-0.0-0.33","4","4","4","4","4","4","4","3","4","4","5","5","5","5","5","5","5","5","5","5","1","1","1","1","1","1","1","1","1","0","1","0","0","0","0","0","1","0","0","0","0","1","0","1","5","1","1","1","1","1","3","1","2","1","557541487416442880","刘","37","","","","nonmatch","","","","","","","","","","","","","","key","f","8.334398190045258","853.3333333333334","476","f","true","nonmatch","img/ellipse.png","六边","椭圆","ALT1","formal_ALT1_2","","","","","","","","","",""
"null","<span style='color:GreenYellow; font-size: 70px;'>正确! </span>","null","html-keyboard-response","174","501847","0.0-7.0-1.0-4.0-0.0-1.33","4","4","4","4","4","4","4","3","4","4","5","5","5","5","5","5","5","5","5","5","1","1","1","1","1","1","1","1","1","0","1","0","0","0","0","0","1","0","0","0","0","1","0","1","5","1","1","1","1","1","3","1","2","1","557541487416442880","刘","37","","","","","","","","","","","","","","","","","","","","","","","","","","","","","","feedback_test","","","","","","","","","",""
"564","","f","psychophysics","175","503412","0.0-7.0-1.0-4.0-0.0-0.34","4","4","4","4","4","4","4","3","4","4","5","5","5","5","5","5","5","5","5","5","1","1","1","1","1","1","1","1","1","0","1","0","0","0","0","0","1","0","0","0","0","1","0","1","5","1","1","1","1","1","3","1","2","1","557541487416442880","刘","37","","","","nonmatch","","","","","","","","","","","","","","key","f","8.334639784946326","853.3333333333334","476","f","true","nonmatch","img/trapezoid.png","方形","梯形","ALT1","formal_ALT1_2","","","","","","","","","",""
"null","<span style='color:GreenYellow; font-size: 70px;'>正确! </span>","null","html-keyboard-response","176","503919","0.0-7.0-1.0-4.0-0.0-1.34","4","4","4","4","4","4","4","3","4","4","5","5","5","5","5","5","5","5","5","5","1","1","1","1","1","1","1","1","1","0","1","0","0","0","0","0","1","0","0","0","0","1","0","1","5","1","1","1","1","1","3","1","2","1","557541487416442880","刘","37","","","","","","","","","","","","","","","","","","","","","","","","","","","","","","feedback_test","","","","","","","","","",""
"492","","j","psychophysics","177","505412","0.0-7.0-1.0-4.0-0.0-0.35","4","4","4","4","4","4","4","3","4","4","5","5","5","5","5","5","5","5","5","5","1","1","1","1","1","1","1","1","1","0","1","0","0","0","0","0","1","0","0","0","0","1","0","1","5","1","1","1","1","1","3","1","2","1","557541487416442880","刘","37","","","","match","","","","","","","","","","","","","","key","j","8.334471910112482","853.3333333333334","476","j","true","match","img/ellipse.png","椭圆","椭圆","ALT1","formal_ALT1_2","","","","","","","","","",""
"null","<span style='color:GreenYellow; font-size: 70px;'>正确! </span>","null","html-keyboard-response","178","505931","0.0-7.0-1.0-4.0-0.0-1.35","4","4","4","4","4","4","4","3","4","4","5","5","5","5","5","5","5","5","5","5","1","1","1","1","1","1","1","1","1","0","1","0","0","0","0","0","1","0","0","0","0","1","0","1","5","1","1","1","1","1","3","1","2","1","557541487416442880","刘","37","","","","","","","","","","","","","","","","","","","","","","","","","","","","","","feedback_test","","","","","","","","","",""
"640","","j","psychophysics","179","507572","0.0-7.0-1.0-4.0-0.0-0.36","4","4","4","4","4","4","4","3","4","4","5","5","5","5","5","5","5","5","5","5","1","1","1","1","1","1","1","1","1","0","1","0","0","0","0","0","1","0","0","0","0","1","0","1","5","1","1","1","1","1","3","1","2","1","557541487416442880","刘","37","","","","match","","","","","","","","","","","","","","key","j","8.333297435897522","853.3333333333334","476","j","true","match","img/trapezoid.png","梯形","梯形","ALT1","formal_ALT1_2","","","","","","","","","",""
"null","<span style='color:GreenYellow; font-size: 70px;'>正确! </span>","null","html-keyboard-response","180","508079","0.0-7.0-1.0-4.0-0.0-1.36","4","4","4","4","4","4","4","3","4","4","5","5","5","5","5","5","5","5","5","5","1","1","1","1","1","1","1","1","1","0","1","0","0","0","0","0","1","0","0","0","0","1","0","1","5","1","1","1","1","1","3","1","2","1","557541487416442880","刘","37","","","","","","","","","","","","","","","","","","","","","","","","","","","","","","feedback_test","","","","","","","","","",""
"533","","f","psychophysics","181","509612","0.0-7.0-1.0-4.0-0.0-0.37","4","4","4","4","4","4","4","3","4","4","5","5","5","5","5","5","5","5","5","5","1","1","1","1","1","1","1","1","1","0","1","0","0","0","0","0","1","0","0","0","0","1","0","1","5","1","1","1","1","1","3","1","2","1","557541487416442880","刘","37","","","","nonmatch","","","","","","","","","","","","","","key","f","8.3316923076924","853.3333333333334","476","f","true","nonmatch","img/square.png","梯形","方形","ALT1","formal_ALT1_2","","","","","","","","","",""
"null","<span style='color:GreenYellow; font-size: 70px;'>正确! </span>","null","html-keyboard-response","182","510119","0.0-7.0-1.0-4.0-0.0-1.37","4","4","4","4","4","4","4","3","4","4","5","5","5","5","5","5","5","5","5","5","1","1","1","1","1","1","1","1","1","0","1","0","0","0","0","0","1","0","0","0","0","1","0","1","5","1","1","1","1","1","3","1","2","1","557541487416442880","刘","37","","","","","","","","","","","","","","","","","","","","","","","","","","","","","","feedback_test","","","","","","","","","",""
"717","","f","psychophysics","183","511837","0.0-7.0-1.0-4.0-0.0-0.38","4","4","4","4","4","4","4","3","4","4","5","5","5","5","5","5","5","5","5","5","1","1","1","1","1","1","1","1","1","0","1","0","0","0","0","0","1","0","0","0","0","1","0","1","5","1","1","1","1","1","3","1","2","1","557541487416442880","刘","37","","","","nonmatch","","","","","","","","","","","","","","key","f","8.333642156862576","853.3333333333334","476","f","true","nonmatch","img/square.png","六边","方形","ALT1","formal_ALT1_2","","","","","","","","","",""
