"rt","stimulus","response","trial_type","trial_index","time_elapsed","internal_node_id","ses_1","ses_2","ses_3","ses_4","ses_5","ses_6","ses_7","ses_8","ses_9","ses_10","coreself_1","coreself_2","coreself_3","coreself_4","coreself_5","coreself_6","coreself_7","coreself_8","coreself_9","coreself_10","SGPS_1","SGPS_2","SGPS_3","SGPS_4","SGPS_5","SGPS_6","SGPS_7","SGPS_8","SGPS_9","NPI1","NPI2","NPI3","NPI4","NPI5","NPI6","NPI7","NPI8","NPI9","NPI10","NPI11","NPI12","NPI13","NPI14","NPI15","hsns_1","hsns_2","hsns_3","hsns_4","hsns_5","hsns_6","hsns_7","hsns_8","hsns_9","hsns_10","subj_idx","friend_name","ParticipantID","value","success","user_agent","responses","item_order","radio_event_ids","radio_event_times","key_event_times","mouse_event_times","straightlining","zigzagging","honeypot","timeout","failed_images","failed_audio","failed_video","version_attrib","version_target","correct","IAT","screen_id","task_id","RT","condition","word","varname","summary","version_attrib2","version_target2","time_stamp","view_history","response_type","key_press","avg_frame_time","center_x","center_y","correct_response","identity","Image","question_order"
"6905","
   <p><div style = ""color: white;font-size:25px;"">您好，欢迎参加本次实验。</div> </p>
   <p><div style = ""color: white;font-size:25px;"">为充分保障您的权利，请确保您已经知晓并同意《参与实验同意书》以及《数据公开知情同意书》。</div></p>
   <p><div style = ""color: white;font-size:25px;"">如果您未见过上述内容，请咨询实验员。</div></p>
   <p><div style = ""color: white;font-size:25px;"">如果您选择继续实验，则表示您已经清楚两份知情同意书的内容并同意。</div></p>
   <p><div style = ""color: red;font-size:30px;"">请确保您记得day0的实验编号，您将在本次实验输入该编号，若您忘记，请咨询实验员后作答。</div></p>
   <p> <div style = ""color: green;font-size:25px;""><按空格键至下页></div> </p>
   "," ","html-keyboard-response","0","6908","0.0-0.0","3","4","4","3","4","3","4","2","4","4","5","4","5","4","4","4","5","4","4","4","4","5","4","4","2","3","4","5","4","1","0","0","1","0","1","0","1","0","1","0","1","1","1","1","5","2","4","1","5","4","4","5","5","4","631127599740878848","刘","225","","","","","","","","","","","","","","","","","","","","","","","","","","","","","","","","","","","","","","","",""
"","","","call-function","1","6909","0.0-1.0-0.0","3","4","4","3","4","3","4","2","4","4","5","4","5","4","4","4","5","4","4","4","4","5","4","4","2","3","4","5","4","1","0","0","1","0","1","0","1","0","1","0","1","1","1","1","5","2","4","1","5","4","4","5","5","4","631127599740878848","刘","225","","","","","","","","","","","","","","","","","","","","","","","","","","","","","","","","","","","","","","","",""
"17757","","{""friend_name"":""刘"",""ParticipantID"":""225""}","survey-html-form","2","24669","0.0-1.0-1.0","3","4","4","3","4","3","4","2","4","4","5","4","5","4","4","4","5","4","4","4","4","5","4","4","2","3","4","5","4","1","0","0","1","0","1","0","1","0","1","0","1","1","1","1","5","2","4","1","5","4","4","5","5","4","631127599740878848","刘","225","","","","","","","","","","","","","","","","","","","","","","","","","","","","","","","","","","","","","","","",""
"","","","fullscreen","3","26345","0.0-2.0","3","4","4","3","4","3","4","2","4","4","5","4","5","4","4","4","5","4","4","4","4","5","4","4","2","3","4","5","4","1","0","0","1","0","1","0","1","0","1","0","1","1","1","1","5","2","4","1","5","4","4","5","5","4","631127599740878848","刘","225","","true","{}","","","","","","","","","","","","","","","","","","","","","","","","","","","","","","","","","","","","",""
"19319.5","","{""Q01"":""3"",""Q02"":""4"",""Q03"":""4"",""Q04"":""3"",""Q05"":""4"",""Q06"":""3"",""Q07"":""4"",""Q08"":""2"",""Q09"":""4"",""Q10"":""4""}","survey-template","4","45679","0.0-3.0","3","4","4","3","4","3","4","2","4","4","5","4","5","4","4","4","5","4","4","4","4","5","4","4","2","3","4","5","4","1","0","0","1","0","1","0","1","0","1","0","1","1","1","1","5","2","4","1","5","4","4","5","5","4","631127599740878848","刘","225","","","","{""Q01"":""3"",""Q02"":""4"",""Q03"":""4"",""Q04"":""3"",""Q05"":""4"",""Q06"":""3"",""Q07"":""4"",""Q08"":""2"",""Q09"":""4"",""Q10"":""4""}","[0,1,2,3,4,5,6,7,8,9]","[""Q01"",""Q02"",""Q03"",""Q04"",""Q05"",""Q06"",""Q07"",""Q08"",""Q09"",""Q10""]","[3945.7000000476837,6078.600000023842,8398.400000095367,9502.5,11526.800000071526,12608.5,14110.600000023842,15382.800000071526,17678.700000047684,18510.600000023842]","[]","[3945.7000000476837,6078.600000023842,8183.5,8398.400000095367,9502.5,11022.600000023842,11526.800000071526,12608.5,13854.300000071526,14110.600000023842,15382.800000071526,17678.700000047684,18239.800000071526,18510.600000023842,19311.400000095367]","0.4","0.4444444444444444","0","","","","","","","","","","","","","","","","","","","","","","","","","","","",""
"20559.100000023842","","{""Q01"":""5"",""Q02"":""4"",""Q03"":""5"",""Q04"":""4"",""Q05"":""4"",""Q06"":""4"",""Q07"":""5"",""Q08"":""4"",""Q09"":""4"",""Q10"":""4""}","survey-template","5","66250","0.0-4.0","3","4","4","3","4","3","4","2","4","4","5","4","5","4","4","4","5","4","4","4","4","5","4","4","2","3","4","5","4","1","0","0","1","0","1","0","1","0","1","0","1","1","1","1","5","2","4","1","5","4","4","5","5","4","631127599740878848","刘","225","","","","{""Q01"":""5"",""Q02"":""4"",""Q03"":""5"",""Q04"":""4"",""Q05"":""4"",""Q06"":""4"",""Q07"":""5"",""Q08"":""4"",""Q09"":""4"",""Q10"":""4""}","[0,1,2,3,4,5,6,7,8,9]","[""Q01"",""Q02"",""Q03"",""Q04"",""Q05"",""Q06"",""Q07"",""Q08"",""Q09"",""Q10""]","[1485.8999999761581,4126.799999952316,5544.299999952316,8341.700000047684,10077.299999952316,11949.5,13837.5,15246.5,18709.700000047684,19653.5]","[]","[1485.8999999761581,3293.5,3799.399999976158,4126.799999952316,5544.299999952316,6759.100000023842,7054.799999952316,7949.5,8341.700000047684,9613.399999976158,10077.299999952316,11741.5,11949.5,13554.799999952316,13837.5,15246.5,16837.5,18709.700000047684,19653.5,20557.600000023842]","0.4","0.2222222222222222","0","","","","","","","","","","","","","","","","","","","","","","","","","","","",""
"","","","preload","6","66862","0.0-5.0","3","4","4","3","4","3","4","2","4","4","5","4","5","4","4","4","5","4","4","4","4","5","4","4","2","3","4","5","4","1","0","0","1","0","1","0","1","0","1","0","1","1","1","1","5","2","4","1","5","4","4","5","5","4","631127599740878848","刘","225","","true","","","","","","","","","","","false","[]","[]","[]","","","","","","","","","","","","","","","","","","","","","","","",""
"23028","
    <h3>词语分类任务</h3>
    <p>在接下来的任务中，你需要对一系列词语进行分类。</p>
    <p>请先熟悉这些词语，这有利于你完成接下来的任务。</p>
    <table align=""center"" border=1 cellpadding=3 cellspacing=0>
    <tr> <th>类别</th> <th>词语</th> </tr>
    <tr> <td>&emsp;积极&emsp;</td> <td>&emsp;能干、全能、全才、高效、精干、天才&emsp;</td> </tr>
    <tr> <td>&emsp;消极&emsp;</td> <td>&emsp;无能、低能、废物、拙笨、愚钝、蠢笨&emsp;</td> </tr>
    <tr> <td>&emsp;自我&emsp;</td> <td>&emsp;我、我的、自己、自己的、本人、本人的&emsp;</td> </tr>
    <tr> <td>&emsp;他人&emsp;</td> <td>&emsp;他、他的、别人、别人的、他人、他人的&emsp;</td> </tr>
    </table><br/>","0","html-button-response","7","89896","0.0-6.0-0.0-0.0","3","4","4","3","4","3","4","2","4","4","5","4","5","4","4","4","5","4","4","4","4","5","4","4","2","3","4","5","4","1","0","0","1","0","1","0","1","0","1","0","1","1","1","1","5","2","4","1","5","4","4","5","5","4","631127599740878848","刘","225","","","","","","","","","","","","","","","","","1","2","","","","","","","","","","","","","","","","","","","","","",""
"3938","
    <div class=""tag-bottom"">
    <p> —— 任务1：对“他人”词和“自我”词分类 ——<p/>
    不同词语会出现在屏幕中央，类别标签将始终显示在屏幕上方<p/>   
    <span style=""color:#FFD866""><b>请根据上方标签的提示，尽可能正确并且快速地做出按键反应</b></span><p/>
    当按键错误时屏幕中会出现<span style=""color:red""> X </span>，需要按另一个键纠正才能继续<br/><p/>
    请把双手食指分别放在键盘的“E”键和“I”键上<p/>
    按<空格键>开始
    </p></div>"," ","html-keyboard-response","8","93838","0.0-6.0-0.0-1.0","3","4","4","3","4","3","4","2","4","4","5","4","5","4","4","4","5","4","4","4","4","5","4","4","2","3","4","5","4","1","0","0","1","0","1","0","1","0","1","0","1","1","1","1","5","2","4","1","5","4","4","5","5","4","631127599740878848","刘","225","","","","","","","","","","","","","","","","","","","","","","","","","","","","","","","","","","","","","","","",""
"null","","null","html-keyboard-response","9","94092","0.0-6.0-0.0-2.0-0.0","3","4","4","3","4","3","4","2","4","4","5","4","5","4","4","4","5","4","4","4","4","5","4","4","2","3","4","5","4","1","0","0","1","0","1","0","1","0","1","0","1","1","1","1","5","2","4","1","5","4","4","5","5","4","631127599740878848","刘","225","","","","","","","","","","","","","","","","","","","","","","","","","","","","","","","","","","","","","","","",""
"597","<p style=""color:rgb(150, 250, 100); font-size: 35px;"">我</p>","i","categorize-html","10","94702","0.0-6.0-0.0-2.0-1.0","3","4","4","3","4","3","4","2","4","4","5","4","5","4","4","4","5","4","4","4","4","5","4","4","2","3","4","5","4","1","0","0","1","0","1","0","1","0","1","0","1","1","1","1","5","2","4","1","5","4","4","5","5","4","631127599740878848","刘","225","","","","","","","","","","","","","","","","","","","true","1","1","ability","597","self","我","","","","","","","","","","","","","","",""
"null","","null","html-keyboard-response","11","94953","0.0-6.0-0.0-2.0-0.1","3","4","4","3","4","3","4","2","4","4","5","4","5","4","4","4","5","4","4","4","4","5","4","4","2","3","4","5","4","1","0","0","1","0","1","0","1","0","1","0","1","1","1","1","5","2","4","1","5","4","4","5","5","4","631127599740878848","刘","225","","","","","","","","","","","","","","","","","","","","","","","","","","","","","","","","","","","","","","","",""
"716","<p style=""color:rgb(150, 250, 100); font-size: 35px;"">别人的</p>","e","categorize-html","12","95677","0.0-6.0-0.0-2.0-1.1","3","4","4","3","4","3","4","2","4","4","5","4","5","4","4","4","5","4","4","4","4","5","4","4","2","3","4","5","4","1","0","0","1","0","1","0","1","0","1","0","1","1","1","1","5","2","4","1","5","4","4","5","5","4","631127599740878848","刘","225","","","","","","","","","","","","","","","","","","","true","1","1","ability","716","other","别人的","","","","","","","","","","","","","","",""
"null","","null","html-keyboard-response","13","95930","0.0-6.0-0.0-2.0-0.2","3","4","4","3","4","3","4","2","4","4","5","4","5","4","4","4","5","4","4","4","4","5","4","4","2","3","4","5","4","1","0","0","1","0","1","0","1","0","1","0","1","1","1","1","5","2","4","1","5","4","4","5","5","4","631127599740878848","刘","225","","","","","","","","","","","","","","","","","","","","","","","","","","","","","","","","","","","","","","","",""
"468","<p style=""color:rgb(150, 250, 100); font-size: 35px;"">本人</p>","i","categorize-html","14","96403","0.0-6.0-0.0-2.0-1.2","3","4","4","3","4","3","4","2","4","4","5","4","5","4","4","4","5","4","4","4","4","5","4","4","2","3","4","5","4","1","0","0","1","0","1","0","1","0","1","0","1","1","1","1","5","2","4","1","5","4","4","5","5","4","631127599740878848","刘","225","","","","","","","","","","","","","","","","","","","true","1","1","ability","468","self","本人","","","","","","","","","","","","","","",""
"null","","null","html-keyboard-response","15","96671","0.0-6.0-0.0-2.0-0.3","3","4","4","3","4","3","4","2","4","4","5","4","5","4","4","4","5","4","4","4","4","5","4","4","2","3","4","5","4","1","0","0","1","0","1","0","1","0","1","0","1","1","1","1","5","2","4","1","5","4","4","5","5","4","631127599740878848","刘","225","","","","","","","","","","","","","","","","","","","","","","","","","","","","","","","","","","","","","","","",""
"610","<p style=""color:rgb(150, 250, 100); font-size: 35px;"">别人</p>","e","categorize-html","16","97289","0.0-6.0-0.0-2.0-1.3","3","4","4","3","4","3","4","2","4","4","5","4","5","4","4","4","5","4","4","4","4","5","4","4","2","3","4","5","4","1","0","0","1","0","1","0","1","0","1","0","1","1","1","1","5","2","4","1","5","4","4","5","5","4","631127599740878848","刘","225","","","","","","","","","","","","","","","","","","","true","1","1","ability","610","other","别人","","","","","","","","","","","","","","",""
"null","","null","html-keyboard-response","17","97542","0.0-6.0-0.0-2.0-0.4","3","4","4","3","4","3","4","2","4","4","5","4","5","4","4","4","5","4","4","4","4","5","4","4","2","3","4","5","4","1","0","0","1","0","1","0","1","0","1","0","1","1","1","1","5","2","4","1","5","4","4","5","5","4","631127599740878848","刘","225","","","","","","","","","","","","","","","","","","","","","","","","","","","","","","","","","","","","","","","",""
"405","<p style=""color:rgb(150, 250, 100); font-size: 35px;"">自己</p>","i","categorize-html","18","97954","0.0-6.0-0.0-2.0-1.4","3","4","4","3","4","3","4","2","4","4","5","4","5","4","4","4","5","4","4","4","4","5","4","4","2","3","4","5","4","1","0","0","1","0","1","0","1","0","1","0","1","1","1","1","5","2","4","1","5","4","4","5","5","4","631127599740878848","刘","225","","","","","","","","","","","","","","","","","","","true","1","1","ability","405","self","自己","","","","","","","","","","","","","","",""
"null","","null","html-keyboard-response","19","98208","0.0-6.0-0.0-2.0-0.5","3","4","4","3","4","3","4","2","4","4","5","4","5","4","4","4","5","4","4","4","4","5","4","4","2","3","4","5","4","1","0","0","1","0","1","0","1","0","1","0","1","1","1","1","5","2","4","1","5","4","4","5","5","4","631127599740878848","刘","225","","","","","","","","","","","","","","","","","","","","","","","","","","","","","","","","","","","","","","","",""
"546","<p style=""color:rgb(150, 250, 100); font-size: 35px;"">他人</p>","e","categorize-html","20","98761","0.0-6.0-0.0-2.0-1.5","3","4","4","3","4","3","4","2","4","4","5","4","5","4","4","4","5","4","4","4","4","5","4","4","2","3","4","5","4","1","0","0","1","0","1","0","1","0","1","0","1","1","1","1","5","2","4","1","5","4","4","5","5","4","631127599740878848","刘","225","","","","","","","","","","","","","","","","","","","true","1","1","ability","546","other","他人","","","","","","","","","","","","","","",""
"null","","null","html-keyboard-response","21","99018","0.0-6.0-0.0-2.0-0.6","3","4","4","3","4","3","4","2","4","4","5","4","5","4","4","4","5","4","4","4","4","5","4","4","2","3","4","5","4","1","0","0","1","0","1","0","1","0","1","0","1","1","1","1","5","2","4","1","5","4","4","5","5","4","631127599740878848","刘","225","","","","","","","","","","","","","","","","","","","","","","","","","","","","","","","","","","","","","","","",""
"590","<p style=""color:rgb(150, 250, 100); font-size: 35px;"">他的</p>","e","categorize-html","22","99616","0.0-6.0-0.0-2.0-1.6","3","4","4","3","4","3","4","2","4","4","5","4","5","4","4","4","5","4","4","4","4","5","4","4","2","3","4","5","4","1","0","0","1","0","1","0","1","0","1","0","1","1","1","1","5","2","4","1","5","4","4","5","5","4","631127599740878848","刘","225","","","","","","","","","","","","","","","","","","","true","1","1","ability","590","other","他的","","","","","","","","","","","","","","",""
"null","","null","html-keyboard-response","23","99869","0.0-6.0-0.0-2.0-0.7","3","4","4","3","4","3","4","2","4","4","5","4","5","4","4","4","5","4","4","4","4","5","4","4","2","3","4","5","4","1","0","0","1","0","1","0","1","0","1","0","1","1","1","1","5","2","4","1","5","4","4","5","5","4","631127599740878848","刘","225","","","","","","","","","","","","","","","","","","","","","","","","","","","","","","","","","","","","","","","",""
"523","<p style=""color:rgb(150, 250, 100); font-size: 35px;"">本人的</p>","i","categorize-html","24","100397","0.0-6.0-0.0-2.0-1.7","3","4","4","3","4","3","4","2","4","4","5","4","5","4","4","4","5","4","4","4","4","5","4","4","2","3","4","5","4","1","0","0","1","0","1","0","1","0","1","0","1","1","1","1","5","2","4","1","5","4","4","5","5","4","631127599740878848","刘","225","","","","","","","","","","","","","","","","","","","true","1","1","ability","523","self","本人的","","","","","","","","","","","","","","",""
"null","","null","html-keyboard-response","25","100649","0.0-6.0-0.0-2.0-0.8","3","4","4","3","4","3","4","2","4","4","5","4","5","4","4","4","5","4","4","4","4","5","4","4","2","3","4","5","4","1","0","0","1","0","1","0","1","0","1","0","1","1","1","1","5","2","4","1","5","4","4","5","5","4","631127599740878848","刘","225","","","","","","","","","","","","","","","","","","","","","","","","","","","","","","","","","","","","","","","",""
"573","<p style=""color:rgb(150, 250, 100); font-size: 35px;"">他</p>","e","categorize-html","26","101229","0.0-6.0-0.0-2.0-1.8","3","4","4","3","4","3","4","2","4","4","5","4","5","4","4","4","5","4","4","4","4","5","4","4","2","3","4","5","4","1","0","0","1","0","1","0","1","0","1","0","1","1","1","1","5","2","4","1","5","4","4","5","5","4","631127599740878848","刘","225","","","","","","","","","","","","","","","","","","","true","1","1","ability","573","other","他","","","","","","","","","","","","","","",""
"null","","null","html-keyboard-response","27","101481","0.0-6.0-0.0-2.0-0.9","3","4","4","3","4","3","4","2","4","4","5","4","5","4","4","4","5","4","4","4","4","5","4","4","2","3","4","5","4","1","0","0","1","0","1","0","1","0","1","0","1","1","1","1","5","2","4","1","5","4","4","5","5","4","631127599740878848","刘","225","","","","","","","","","","","","","","","","","","","","","","","","","","","","","","","","","","","","","","","",""
"515","<p style=""color:rgb(150, 250, 100); font-size: 35px;"">自己的</p>","i","categorize-html","28","102004","0.0-6.0-0.0-2.0-1.9","3","4","4","3","4","3","4","2","4","4","5","4","5","4","4","4","5","4","4","4","4","5","4","4","2","3","4","5","4","1","0","0","1","0","1","0","1","0","1","0","1","1","1","1","5","2","4","1","5","4","4","5","5","4","631127599740878848","刘","225","","","","","","","","","","","","","","","","","","","true","1","1","ability","515","self","自己的","","","","","","","","","","","","","","",""
"null","","null","html-keyboard-response","29","102257","0.0-6.0-0.0-2.0-0.10","3","4","4","3","4","3","4","2","4","4","5","4","5","4","4","4","5","4","4","4","4","5","4","4","2","3","4","5","4","1","0","0","1","0","1","0","1","0","1","0","1","1","1","1","5","2","4","1","5","4","4","5","5","4","631127599740878848","刘","225","","","","","","","","","","","","","","","","","","","","","","","","","","","","","","","","","","","","","","","",""
"523","<p style=""color:rgb(150, 250, 100); font-size: 35px;"">我的</p>","i","categorize-html","30","102786","0.0-6.0-0.0-2.0-1.10","3","4","4","3","4","3","4","2","4","4","5","4","5","4","4","4","5","4","4","4","4","5","4","4","2","3","4","5","4","1","0","0","1","0","1","0","1","0","1","0","1","1","1","1","5","2","4","1","5","4","4","5","5","4","631127599740878848","刘","225","","","","","","","","","","","","","","","","","","","true","1","1","ability","523","self","我的","","","","","","","","","","","","","","",""
"null","","null","html-keyboard-response","31","103039","0.0-6.0-0.0-2.0-0.11","3","4","4","3","4","3","4","2","4","4","5","4","5","4","4","4","5","4","4","4","4","5","4","4","2","3","4","5","4","1","0","0","1","0","1","0","1","0","1","0","1","1","1","1","5","2","4","1","5","4","4","5","5","4","631127599740878848","刘","225","","","","","","","","","","","","","","","","","","","","","","","","","","","","","","","","","","","","","","","",""
"518","<p style=""color:rgb(150, 250, 100); font-size: 35px;"">他人的</p>","e","categorize-html","32","103563","0.0-6.0-0.0-2.0-1.11","3","4","4","3","4","3","4","2","4","4","5","4","5","4","4","4","5","4","4","4","4","5","4","4","2","3","4","5","4","1","0","0","1","0","1","0","1","0","1","0","1","1","1","1","5","2","4","1","5","4","4","5","5","4","631127599740878848","刘","225","","","","","","","","","","","","","","","","","","","true","1","1","ability","518","other","他人的","","","","","","","","","","","","","","",""
"1979","
    <div class=""tag-bottom""><p>
    —— 任务2：对“积极”词和“消极”词分类 ——<p/>   
    <span style=""color:#78DCE8""><b>注意上方，类别标签和需要分类的词语都已经改变</b></span><p/>
    <span style=""color:#FFD866""><b>请根据上方标签的提示，尽可能正确并且快速地做出按键反应</b></span><p/>
    当按键错误时屏幕中会出现<span style=""color:red""> X </span>，需要按另一个键纠正才能继续<br/><p/>
    请把双手食指分别放在键盘的“E”键和“I”键上<p/>
    按<空格键>开始
    </p></div>"," ","html-keyboard-response","33","105546","0.0-6.0-0.0-3.0","3","4","4","3","4","3","4","2","4","4","5","4","5","4","4","4","5","4","4","4","4","5","4","4","2","3","4","5","4","1","0","0","1","0","1","0","1","0","1","0","1","1","1","1","5","2","4","1","5","4","4","5","5","4","631127599740878848","刘","225","","","","","","","","","","","","","","","","","","","","","","","","","","","","","","","","","","","","","","","",""
"null","","null","html-keyboard-response","34","105798","0.0-6.0-0.0-4.0-0.0","3","4","4","3","4","3","4","2","4","4","5","4","5","4","4","4","5","4","4","4","4","5","4","4","2","3","4","5","4","1","0","0","1","0","1","0","1","0","1","0","1","1","1","1","5","2","4","1","5","4","4","5","5","4","631127599740878848","刘","225","","","","","","","","","","","","","","","","","","","","","","","","","","","","","","","","","","","","","","","",""
"725","<p style=""color:white; font-size: 35px;"">拙笨</p>","i","categorize-html","35","106529","0.0-6.0-0.0-4.0-1.0","3","4","4","3","4","3","4","2","4","4","5","4","5","4","4","4","5","4","4","4","4","5","4","4","2","3","4","5","4","1","0","0","1","0","1","0","1","0","1","0","1","1","1","1","5","2","4","1","5","4","4","5","5","4","631127599740878848","刘","225","","","","","","","","","","","","","","","","","","","true","2","2","ability","725","negative","拙笨","","","","","","","","","","","","","","",""
"null","","null","html-keyboard-response","36","106781","0.0-6.0-0.0-4.0-0.1","3","4","4","3","4","3","4","2","4","4","5","4","5","4","4","4","5","4","4","4","4","5","4","4","2","3","4","5","4","1","0","0","1","0","1","0","1","0","1","0","1","1","1","1","5","2","4","1","5","4","4","5","5","4","631127599740878848","刘","225","","","","","","","","","","","","","","","","","","","","","","","","","","","","","","","","","","","","","","","",""
"520","<p style=""color:white; font-size: 35px;"">蠢笨</p>","i","categorize-html","37","107307","0.0-6.0-0.0-4.0-1.1","3","4","4","3","4","3","4","2","4","4","5","4","5","4","4","4","5","4","4","4","4","5","4","4","2","3","4","5","4","1","0","0","1","0","1","0","1","0","1","0","1","1","1","1","5","2","4","1","5","4","4","5","5","4","631127599740878848","刘","225","","","","","","","","","","","","","","","","","","","true","2","2","ability","520","negative","蠢笨","","","","","","","","","","","","","","",""
"null","","null","html-keyboard-response","38","107559","0.0-6.0-0.0-4.0-0.2","3","4","4","3","4","3","4","2","4","4","5","4","5","4","4","4","5","4","4","4","4","5","4","4","2","3","4","5","4","1","0","0","1","0","1","0","1","0","1","0","1","1","1","1","5","2","4","1","5","4","4","5","5","4","631127599740878848","刘","225","","","","","","","","","","","","","","","","","","","","","","","","","","","","","","","","","","","","","","","",""
"591","<p style=""color:white; font-size: 35px;"">废物</p>","i","categorize-html","39","108156","0.0-6.0-0.0-4.0-1.2","3","4","4","3","4","3","4","2","4","4","5","4","5","4","4","4","5","4","4","4","4","5","4","4","2","3","4","5","4","1","0","0","1","0","1","0","1","0","1","0","1","1","1","1","5","2","4","1","5","4","4","5","5","4","631127599740878848","刘","225","","","","","","","","","","","","","","","","","","","true","2","2","ability","591","negative","废物","","","","","","","","","","","","","","",""
"null","","null","html-keyboard-response","40","108425","0.0-6.0-0.0-4.0-0.3","3","4","4","3","4","3","4","2","4","4","5","4","5","4","4","4","5","4","4","4","4","5","4","4","2","3","4","5","4","1","0","0","1","0","1","0","1","0","1","0","1","1","1","1","5","2","4","1","5","4","4","5","5","4","631127599740878848","刘","225","","","","","","","","","","","","","","","","","","","","","","","","","","","","","","","","","","","","","","","",""
"434","<p style=""color:white; font-size: 35px;"">天才</p>","e","categorize-html","41","108866","0.0-6.0-0.0-4.0-1.3","3","4","4","3","4","3","4","2","4","4","5","4","5","4","4","4","5","4","4","4","4","5","4","4","2","3","4","5","4","1","0","0","1","0","1","0","1","0","1","0","1","1","1","1","5","2","4","1","5","4","4","5","5","4","631127599740878848","刘","225","","","","","","","","","","","","","","","","","","","true","2","2","ability","434","positive","天才","","","","","","","","","","","","","","",""
"null","","null","html-keyboard-response","42","109118","0.0-6.0-0.0-4.0-0.4","3","4","4","3","4","3","4","2","4","4","5","4","5","4","4","4","5","4","4","4","4","5","4","4","2","3","4","5","4","1","0","0","1","0","1","0","1","0","1","0","1","1","1","1","5","2","4","1","5","4","4","5","5","4","631127599740878848","刘","225","","","","","","","","","","","","","","","","","","","","","","","","","","","","","","","","","","","","","","","",""
"942","<p style=""color:white; font-size: 35px;"">低能</p>","i","categorize-html","43","110068","0.0-6.0-0.0-4.0-1.4","3","4","4","3","4","3","4","2","4","4","5","4","5","4","4","4","5","4","4","4","4","5","4","4","2","3","4","5","4","1","0","0","1","0","1","0","1","0","1","0","1","1","1","1","5","2","4","1","5","4","4","5","5","4","631127599740878848","刘","225","","","","","","","","","","","","","","","","","","","true","2","2","ability","942","negative","低能","","","","","","","","","","","","","","",""
"null","","null","html-keyboard-response","44","110322","0.0-6.0-0.0-4.0-0.5","3","4","4","3","4","3","4","2","4","4","5","4","5","4","4","4","5","4","4","4","4","5","4","4","2","3","4","5","4","1","0","0","1","0","1","0","1","0","1","0","1","1","1","1","5","2","4","1","5","4","4","5","5","4","631127599740878848","刘","225","","","","","","","","","","","","","","","","","","","","","","","","","","","","","","","","","","","","","","","",""
"722","<p style=""color:white; font-size: 35px;"">精干</p>","e","categorize-html","45","111051","0.0-6.0-0.0-4.0-1.5","3","4","4","3","4","3","4","2","4","4","5","4","5","4","4","4","5","4","4","4","4","5","4","4","2","3","4","5","4","1","0","0","1","0","1","0","1","0","1","0","1","1","1","1","5","2","4","1","5","4","4","5","5","4","631127599740878848","刘","225","","","","","","","","","","","","","","","","","","","true","2","2","ability","722","positive","精干","","","","","","","","","","","","","","",""
"null","","null","html-keyboard-response","46","111306","0.0-6.0-0.0-4.0-0.6","3","4","4","3","4","3","4","2","4","4","5","4","5","4","4","4","5","4","4","4","4","5","4","4","2","3","4","5","4","1","0","0","1","0","1","0","1","0","1","0","1","1","1","1","5","2","4","1","5","4","4","5","5","4","631127599740878848","刘","225","","","","","","","","","","","","","","","","","","","","","","","","","","","","","","","","","","","","","","","",""
"439","<p style=""color:white; font-size: 35px;"">愚钝</p>","i","categorize-html","47","111751","0.0-6.0-0.0-4.0-1.6","3","4","4","3","4","3","4","2","4","4","5","4","5","4","4","4","5","4","4","4","4","5","4","4","2","3","4","5","4","1","0","0","1","0","1","0","1","0","1","0","1","1","1","1","5","2","4","1","5","4","4","5","5","4","631127599740878848","刘","225","","","","","","","","","","","","","","","","","","","true","2","2","ability","439","negative","愚钝","","","","","","","","","","","","","","",""
"null","","null","html-keyboard-response","48","112005","0.0-6.0-0.0-4.0-0.7","3","4","4","3","4","3","4","2","4","4","5","4","5","4","4","4","5","4","4","4","4","5","4","4","2","3","4","5","4","1","0","0","1","0","1","0","1","0","1","0","1","1","1","1","5","2","4","1","5","4","4","5","5","4","631127599740878848","刘","225","","","","","","","","","","","","","","","","","","","","","","","","","","","","","","","","","","","","","","","",""
"767","<p style=""color:white; font-size: 35px;"">无能</p>","i","categorize-html","49","112777","0.0-6.0-0.0-4.0-1.7","3","4","4","3","4","3","4","2","4","4","5","4","5","4","4","4","5","4","4","4","4","5","4","4","2","3","4","5","4","1","0","0","1","0","1","0","1","0","1","0","1","1","1","1","5","2","4","1","5","4","4","5","5","4","631127599740878848","刘","225","","","","","","","","","","","","","","","","","","","true","2","2","ability","767","negative","无能","","","","","","","","","","","","","","",""
"null","","null","html-keyboard-response","50","113034","0.0-6.0-0.0-4.0-0.8","3","4","4","3","4","3","4","2","4","4","5","4","5","4","4","4","5","4","4","4","4","5","4","4","2","3","4","5","4","1","0","0","1","0","1","0","1","0","1","0","1","1","1","1","5","2","4","1","5","4","4","5","5","4","631127599740878848","刘","225","","","","","","","","","","","","","","","","","","","","","","","","","","","","","","","","","","","","","","","",""
"543","<p style=""color:white; font-size: 35px;"">高效</p>","e","categorize-html","51","113582","0.0-6.0-0.0-4.0-1.8","3","4","4","3","4","3","4","2","4","4","5","4","5","4","4","4","5","4","4","4","4","5","4","4","2","3","4","5","4","1","0","0","1","0","1","0","1","0","1","0","1","1","1","1","5","2","4","1","5","4","4","5","5","4","631127599740878848","刘","225","","","","","","","","","","","","","","","","","","","true","2","2","ability","543","positive","高效","","","","","","","","","","","","","","",""
"null","","null","html-keyboard-response","52","113836","0.0-6.0-0.0-4.0-0.9","3","4","4","3","4","3","4","2","4","4","5","4","5","4","4","4","5","4","4","4","4","5","4","4","2","3","4","5","4","1","0","0","1","0","1","0","1","0","1","0","1","1","1","1","5","2","4","1","5","4","4","5","5","4","631127599740878848","刘","225","","","","","","","","","","","","","","","","","","","","","","","","","","","","","","","","","","","","","","","",""
"597","<p style=""color:white; font-size: 35px;"">全能</p>","e","categorize-html","53","114440","0.0-6.0-0.0-4.0-1.9","3","4","4","3","4","3","4","2","4","4","5","4","5","4","4","4","5","4","4","4","4","5","4","4","2","3","4","5","4","1","0","0","1","0","1","0","1","0","1","0","1","1","1","1","5","2","4","1","5","4","4","5","5","4","631127599740878848","刘","225","","","","","","","","","","","","","","","","","","","true","2","2","ability","597","positive","全能","","","","","","","","","","","","","","",""
"null","","null","html-keyboard-response","54","114698","0.0-6.0-0.0-4.0-0.10","3","4","4","3","4","3","4","2","4","4","5","4","5","4","4","4","5","4","4","4","4","5","4","4","2","3","4","5","4","1","0","0","1","0","1","0","1","0","1","0","1","1","1","1","5","2","4","1","5","4","4","5","5","4","631127599740878848","刘","225","","","","","","","","","","","","","","","","","","","","","","","","","","","","","","","","","","","","","","","",""
"600","<p style=""color:white; font-size: 35px;"">能干</p>","e","categorize-html","55","115306","0.0-6.0-0.0-4.0-1.10","3","4","4","3","4","3","4","2","4","4","5","4","5","4","4","4","5","4","4","4","4","5","4","4","2","3","4","5","4","1","0","0","1","0","1","0","1","0","1","0","1","1","1","1","5","2","4","1","5","4","4","5","5","4","631127599740878848","刘","225","","","","","","","","","","","","","","","","","","","true","2","2","ability","600","positive","能干","","","","","","","","","","","","","","",""
"null","","null","html-keyboard-response","56","115559","0.0-6.0-0.0-4.0-0.11","3","4","4","3","4","3","4","2","4","4","5","4","5","4","4","4","5","4","4","4","4","5","4","4","2","3","4","5","4","1","0","0","1","0","1","0","1","0","1","0","1","1","1","1","5","2","4","1","5","4","4","5","5","4","631127599740878848","刘","225","","","","","","","","","","","","","","","","","","","","","","","","","","","","","","","","","","","","","","","",""
"634","<p style=""color:white; font-size: 35px;"">全才</p>","e","categorize-html","57","116198","0.0-6.0-0.0-4.0-1.11","3","4","4","3","4","3","4","2","4","4","5","4","5","4","4","4","5","4","4","4","4","5","4","4","2","3","4","5","4","1","0","0","1","0","1","0","1","0","1","0","1","1","1","1","5","2","4","1","5","4","4","5","5","4","631127599740878848","刘","225","","","","","","","","","","","","","","","","","","","true","2","2","ability","634","positive","全才","","","","","","","","","","","","","","",""
"4549","
    <div class=""tag-bottom""><p>
    —— 任务3：对“他人/积极”词和“自我/消极”词分类 ——<p/>
    <span style=""color:#78DCE8""><b>注意上方，之前的四类词语将混合在一起交替呈现</b></span><p/>
    <span style=""color:#FFD866""><b>请根据上方标签的提示，尽可能正确并且快速地做出按键反应</b></span><p/>
    当按键错误时屏幕中会出现<span style=""color:red""> X </span>，需要按另一个键纠正才能继续<br/><p/>
    请把双手食指分别放在键盘的“E”键和“I”键上<p/>
    按<空格键>开始
    </p></div>"," ","html-keyboard-response","58","120749","0.0-6.0-0.0-5.0","3","4","4","3","4","3","4","2","4","4","5","4","5","4","4","4","5","4","4","4","4","5","4","4","2","3","4","5","4","1","0","0","1","0","1","0","1","0","1","0","1","1","1","1","5","2","4","1","5","4","4","5","5","4","631127599740878848","刘","225","","","","","","","","","","","","","","","","","","","","","","","","","","","","","","","","","","","","","","","",""
"null","","null","html-keyboard-response","59","121002","0.0-6.0-0.0-6.0-0.0","3","4","4","3","4","3","4","2","4","4","5","4","5","4","4","4","5","4","4","4","4","5","4","4","2","3","4","5","4","1","0","0","1","0","1","0","1","0","1","0","1","1","1","1","5","2","4","1","5","4","4","5","5","4","631127599740878848","刘","225","","","","","","","","","","","","","","","","","","","","","","","","","","","","","","","","","","","","","","","",""
"620","<p style=""color:rgb(150, 250, 100); font-size: 35px;"">别人的</p>","e","categorize-html","60","121630","0.0-6.0-0.0-6.0-1.0","3","4","4","3","4","3","4","2","4","4","5","4","5","4","4","4","5","4","4","4","4","5","4","4","2","3","4","5","4","1","0","0","1","0","1","0","1","0","1","0","1","1","1","1","5","2","4","1","5","4","4","5","5","4","631127599740878848","刘","225","","","","","","","","","","","","","","","","","","","true","3","3","ability","620","other","别人的","","","","","","","","","","","","","","",""
"null","","null","html-keyboard-response","61","121882","0.0-6.0-0.0-6.0-0.1","3","4","4","3","4","3","4","2","4","4","5","4","5","4","4","4","5","4","4","4","4","5","4","4","2","3","4","5","4","1","0","0","1","0","1","0","1","0","1","0","1","1","1","1","5","2","4","1","5","4","4","5","5","4","631127599740878848","刘","225","","","","","","","","","","","","","","","","","","","","","","","","","","","","","","","","","","","","","","","",""
"518","<p style=""color:white; font-size: 35px;"">拙笨</p>","i","categorize-html","62","122407","0.0-6.0-0.0-6.0-1.1","3","4","4","3","4","3","4","2","4","4","5","4","5","4","4","4","5","4","4","4","4","5","4","4","2","3","4","5","4","1","0","0","1","0","1","0","1","0","1","0","1","1","1","1","5","2","4","1","5","4","4","5","5","4","631127599740878848","刘","225","","","","","","","","","","","","","","","","","","","true","3","3","ability","518","negative","拙笨","","","","","","","","","","","","","","",""
"null","","null","html-keyboard-response","63","122659","0.0-6.0-0.0-6.0-0.2","3","4","4","3","4","3","4","2","4","4","5","4","5","4","4","4","5","4","4","4","4","5","4","4","2","3","4","5","4","1","0","0","1","0","1","0","1","0","1","0","1","1","1","1","5","2","4","1","5","4","4","5","5","4","631127599740878848","刘","225","","","","","","","","","","","","","","","","","","","","","","","","","","","","","","","","","","","","","","","",""
"633","<p style=""color:rgb(150, 250, 100); font-size: 35px;"">我</p>","i","categorize-html","64","123299","0.0-6.0-0.0-6.0-1.2","3","4","4","3","4","3","4","2","4","4","5","4","5","4","4","4","5","4","4","4","4","5","4","4","2","3","4","5","4","1","0","0","1","0","1","0","1","0","1","0","1","1","1","1","5","2","4","1","5","4","4","5","5","4","631127599740878848","刘","225","","","","","","","","","","","","","","","","","","","true","3","3","ability","633","self","我","","","","","","","","","","","","","","",""
"null","","null","html-keyboard-response","65","123552","0.0-6.0-0.0-6.0-0.3","3","4","4","3","4","3","4","2","4","4","5","4","5","4","4","4","5","4","4","4","4","5","4","4","2","3","4","5","4","1","0","0","1","0","1","0","1","0","1","0","1","1","1","1","5","2","4","1","5","4","4","5","5","4","631127599740878848","刘","225","","","","","","","","","","","","","","","","","","","","","","","","","","","","","","","","","","","","","","","",""
"642","<p style=""color:white; font-size: 35px;"">全能</p>","e","categorize-html","66","124199","0.0-6.0-0.0-6.0-1.3","3","4","4","3","4","3","4","2","4","4","5","4","5","4","4","4","5","4","4","4","4","5","4","4","2","3","4","5","4","1","0","0","1","0","1","0","1","0","1","0","1","1","1","1","5","2","4","1","5","4","4","5","5","4","631127599740878848","刘","225","","","","","","","","","","","","","","","","","","","true","3","3","ability","642","positive","全能","","","","","","","","","","","","","","",""
"null","","null","html-keyboard-response","67","124451","0.0-6.0-0.0-6.0-0.4","3","4","4","3","4","3","4","2","4","4","5","4","5","4","4","4","5","4","4","4","4","5","4","4","2","3","4","5","4","1","0","0","1","0","1","0","1","0","1","0","1","1","1","1","5","2","4","1","5","4","4","5","5","4","631127599740878848","刘","225","","","","","","","","","","","","","","","","","","","","","","","","","","","","","","","","","","","","","","","",""
"673","<p style=""color:rgb(150, 250, 100); font-size: 35px;"">他的</p>","i","categorize-html","68","125827","0.0-6.0-0.0-6.0-1.4","3","4","4","3","4","3","4","2","4","4","5","4","5","4","4","4","5","4","4","4","4","5","4","4","2","3","4","5","4","1","0","0","1","0","1","0","1","0","1","0","1","1","1","1","5","2","4","1","5","4","4","5","5","4","631127599740878848","刘","225","","","","","","","","","","","","","","","","","","","false","3","3","ability","1309.4347826086955","other","他的","","","","","","","","","","","","","","",""
"null","","null","html-keyboard-response","69","126079","0.0-6.0-0.0-6.0-0.5","3","4","4","3","4","3","4","2","4","4","5","4","5","4","4","4","5","4","4","4","4","5","4","4","2","3","4","5","4","1","0","0","1","0","1","0","1","0","1","0","1","1","1","1","5","2","4","1","5","4","4","5","5","4","631127599740878848","刘","225","","","","","","","","","","","","","","","","","","","","","","","","","","","","","","","","","","","","","","","",""
"601","<p style=""color:white; font-size: 35px;"">精干</p>","e","categorize-html","70","126688","0.0-6.0-0.0-6.0-1.5","3","4","4","3","4","3","4","2","4","4","5","4","5","4","4","4","5","4","4","4","4","5","4","4","2","3","4","5","4","1","0","0","1","0","1","0","1","0","1","0","1","1","1","1","5","2","4","1","5","4","4","5","5","4","631127599740878848","刘","225","","","","","","","","","","","","","","","","","","","true","3","3","ability","601","positive","精干","","","","","","","","","","","","","","",""
"null","","null","html-keyboard-response","71","126942","0.0-6.0-0.0-6.0-0.6","3","4","4","3","4","3","4","2","4","4","5","4","5","4","4","4","5","4","4","4","4","5","4","4","2","3","4","5","4","1","0","0","1","0","1","0","1","0","1","0","1","1","1","1","5","2","4","1","5","4","4","5","5","4","631127599740878848","刘","225","","","","","","","","","","","","","","","","","","","","","","","","","","","","","","","","","","","","","","","",""
"557","<p style=""color:rgb(150, 250, 100); font-size: 35px;"">本人的</p>","i","categorize-html","72","127504","0.0-6.0-0.0-6.0-1.6","3","4","4","3","4","3","4","2","4","4","5","4","5","4","4","4","5","4","4","4","4","5","4","4","2","3","4","5","4","1","0","0","1","0","1","0","1","0","1","0","1","1","1","1","5","2","4","1","5","4","4","5","5","4","631127599740878848","刘","225","","","","","","","","","","","","","","","","","","","true","3","3","ability","557","self","本人的","","","","","","","","","","","","","","",""
"null","","null","html-keyboard-response","73","127757","0.0-6.0-0.0-6.0-0.7","3","4","4","3","4","3","4","2","4","4","5","4","5","4","4","4","5","4","4","4","4","5","4","4","2","3","4","5","4","1","0","0","1","0","1","0","1","0","1","0","1","1","1","1","5","2","4","1","5","4","4","5","5","4","631127599740878848","刘","225","","","","","","","","","","","","","","","","","","","","","","","","","","","","","","","","","","","","","","","",""
"704","<p style=""color:white; font-size: 35px;"">低能</p>","i","categorize-html","74","128469","0.0-6.0-0.0-6.0-1.7","3","4","4","3","4","3","4","2","4","4","5","4","5","4","4","4","5","4","4","4","4","5","4","4","2","3","4","5","4","1","0","0","1","0","1","0","1","0","1","0","1","1","1","1","5","2","4","1","5","4","4","5","5","4","631127599740878848","刘","225","","","","","","","","","","","","","","","","","","","true","3","3","ability","704","negative","低能","","","","","","","","","","","","","","",""
"null","","null","html-keyboard-response","75","128732","0.0-6.0-0.0-6.0-0.8","3","4","4","3","4","3","4","2","4","4","5","4","5","4","4","4","5","4","4","4","4","5","4","4","2","3","4","5","4","1","0","0","1","0","1","0","1","0","1","0","1","1","1","1","5","2","4","1","5","4","4","5","5","4","631127599740878848","刘","225","","","","","","","","","","","","","","","","","","","","","","","","","","","","","","","","","","","","","","","",""
"546","<p style=""color:rgb(150, 250, 100); font-size: 35px;"">他人的</p>","e","categorize-html","76","129283","0.0-6.0-0.0-6.0-1.8","3","4","4","3","4","3","4","2","4","4","5","4","5","4","4","4","5","4","4","4","4","5","4","4","2","3","4","5","4","1","0","0","1","0","1","0","1","0","1","0","1","1","1","1","5","2","4","1","5","4","4","5","5","4","631127599740878848","刘","225","","","","","","","","","","","","","","","","","","","true","3","3","ability","546","other","他人的","","","","","","","","","","","","","","",""
"null","","null","html-keyboard-response","77","129536","0.0-6.0-0.0-6.0-0.9","3","4","4","3","4","3","4","2","4","4","5","4","5","4","4","4","5","4","4","4","4","5","4","4","2","3","4","5","4","1","0","0","1","0","1","0","1","0","1","0","1","1","1","1","5","2","4","1","5","4","4","5","5","4","631127599740878848","刘","225","","","","","","","","","","","","","","","","","","","","","","","","","","","","","","","","","","","","","","","",""
"973","<p style=""color:white; font-size: 35px;"">天才</p>","e","categorize-html","78","130518","0.0-6.0-0.0-6.0-1.9","3","4","4","3","4","3","4","2","4","4","5","4","5","4","4","4","5","4","4","4","4","5","4","4","2","3","4","5","4","1","0","0","1","0","1","0","1","0","1","0","1","1","1","1","5","2","4","1","5","4","4","5","5","4","631127599740878848","刘","225","","","","","","","","","","","","","","","","","","","true","3","3","ability","973","positive","天才","","","","","","","","","","","","","","",""
"null","","null","html-keyboard-response","79","130771","0.0-6.0-0.0-6.0-0.10","3","4","4","3","4","3","4","2","4","4","5","4","5","4","4","4","5","4","4","4","4","5","4","4","2","3","4","5","4","1","0","0","1","0","1","0","1","0","1","0","1","1","1","1","5","2","4","1","5","4","4","5","5","4","631127599740878848","刘","225","","","","","","","","","","","","","","","","","","","","","","","","","","","","","","","","","","","","","","","",""
"591","<p style=""color:rgb(150, 250, 100); font-size: 35px;"">自己的</p>","i","categorize-html","80","131371","0.0-6.0-0.0-6.0-1.10","3","4","4","3","4","3","4","2","4","4","5","4","5","4","4","4","5","4","4","4","4","5","4","4","2","3","4","5","4","1","0","0","1","0","1","0","1","0","1","0","1","1","1","1","5","2","4","1","5","4","4","5","5","4","631127599740878848","刘","225","","","","","","","","","","","","","","","","","","","true","3","3","ability","591","self","自己的","","","","","","","","","","","","","","",""
"null","","null","html-keyboard-response","81","131624","0.0-6.0-0.0-6.0-0.11","3","4","4","3","4","3","4","2","4","4","5","4","5","4","4","4","5","4","4","4","4","5","4","4","2","3","4","5","4","1","0","0","1","0","1","0","1","0","1","0","1","1","1","1","5","2","4","1","5","4","4","5","5","4","631127599740878848","刘","225","","","","","","","","","","","","","","","","","","","","","","","","","","","","","","","","","","","","","","","",""
"940","<p style=""color:white; font-size: 35px;"">蠢笨</p>","i","categorize-html","82","132570","0.0-6.0-0.0-6.0-1.11","3","4","4","3","4","3","4","2","4","4","5","4","5","4","4","4","5","4","4","4","4","5","4","4","2","3","4","5","4","1","0","0","1","0","1","0","1","0","1","0","1","1","1","1","5","2","4","1","5","4","4","5","5","4","631127599740878848","刘","225","","","","","","","","","","","","","","","","","","","true","3","3","ability","940","negative","蠢笨","","","","","","","","","","","","","","",""
"null","","null","html-keyboard-response","83","132824","0.0-6.0-0.0-6.0-0.12","3","4","4","3","4","3","4","2","4","4","5","4","5","4","4","4","5","4","4","4","4","5","4","4","2","3","4","5","4","1","0","0","1","0","1","0","1","0","1","0","1","1","1","1","5","2","4","1","5","4","4","5","5","4","631127599740878848","刘","225","","","","","","","","","","","","","","","","","","","","","","","","","","","","","","","","","","","","","","","",""
"809","<p style=""color:rgb(150, 250, 100); font-size: 35px;"">本人</p>","i","categorize-html","84","133639","0.0-6.0-0.0-6.0-1.12","3","4","4","3","4","3","4","2","4","4","5","4","5","4","4","4","5","4","4","4","4","5","4","4","2","3","4","5","4","1","0","0","1","0","1","0","1","0","1","0","1","1","1","1","5","2","4","1","5","4","4","5","5","4","631127599740878848","刘","225","","","","","","","","","","","","","","","","","","","true","3","3","ability","809","self","本人","","","","","","","","","","","","","","",""
"null","","null","html-keyboard-response","85","133892","0.0-6.0-0.0-6.0-0.13","3","4","4","3","4","3","4","2","4","4","5","4","5","4","4","4","5","4","4","4","4","5","4","4","2","3","4","5","4","1","0","0","1","0","1","0","1","0","1","0","1","1","1","1","5","2","4","1","5","4","4","5","5","4","631127599740878848","刘","225","","","","","","","","","","","","","","","","","","","","","","","","","","","","","","","","","","","","","","","",""
"745","<p style=""color:white; font-size: 35px;"">无能</p>","i","categorize-html","86","134645","0.0-6.0-0.0-6.0-1.13","3","4","4","3","4","3","4","2","4","4","5","4","5","4","4","4","5","4","4","4","4","5","4","4","2","3","4","5","4","1","0","0","1","0","1","0","1","0","1","0","1","1","1","1","5","2","4","1","5","4","4","5","5","4","631127599740878848","刘","225","","","","","","","","","","","","","","","","","","","true","3","3","ability","745","negative","无能","","","","","","","","","","","","","","",""
"null","","null","html-keyboard-response","87","134897","0.0-6.0-0.0-6.0-0.14","3","4","4","3","4","3","4","2","4","4","5","4","5","4","4","4","5","4","4","4","4","5","4","4","2","3","4","5","4","1","0","0","1","0","1","0","1","0","1","0","1","1","1","1","5","2","4","1","5","4","4","5","5","4","631127599740878848","刘","225","","","","","","","","","","","","","","","","","","","","","","","","","","","","","","","","","","","","","","","",""
"804","<p style=""color:rgb(150, 250, 100); font-size: 35px;"">他</p>","e","categorize-html","88","135709","0.0-6.0-0.0-6.0-1.14","3","4","4","3","4","3","4","2","4","4","5","4","5","4","4","4","5","4","4","4","4","5","4","4","2","3","4","5","4","1","0","0","1","0","1","0","1","0","1","0","1","1","1","1","5","2","4","1","5","4","4","5","5","4","631127599740878848","刘","225","","","","","","","","","","","","","","","","","","","true","3","3","ability","804","other","他","","","","","","","","","","","","","","",""
"null","","null","html-keyboard-response","89","135963","0.0-6.0-0.0-6.0-0.15","3","4","4","3","4","3","4","2","4","4","5","4","5","4","4","4","5","4","4","4","4","5","4","4","2","3","4","5","4","1","0","0","1","0","1","0","1","0","1","0","1","1","1","1","5","2","4","1","5","4","4","5","5","4","631127599740878848","刘","225","","","","","","","","","","","","","","","","","","","","","","","","","","","","","","","","","","","","","","","",""
"646","<p style=""color:white; font-size: 35px;"">全才</p>","e","categorize-html","90","136614","0.0-6.0-0.0-6.0-1.15","3","4","4","3","4","3","4","2","4","4","5","4","5","4","4","4","5","4","4","4","4","5","4","4","2","3","4","5","4","1","0","0","1","0","1","0","1","0","1","0","1","1","1","1","5","2","4","1","5","4","4","5","5","4","631127599740878848","刘","225","","","","","","","","","","","","","","","","","","","true","3","3","ability","646","positive","全才","","","","","","","","","","","","","","",""
"null","","null","html-keyboard-response","91","136869","0.0-6.0-0.0-6.0-0.16","3","4","4","3","4","3","4","2","4","4","5","4","5","4","4","4","5","4","4","4","4","5","4","4","2","3","4","5","4","1","0","0","1","0","1","0","1","0","1","0","1","1","1","1","5","2","4","1","5","4","4","5","5","4","631127599740878848","刘","225","","","","","","","","","","","","","","","","","","","","","","","","","","","","","","","","","","","","","","","",""
"674","<p style=""color:rgb(150, 250, 100); font-size: 35px;"">我的</p>","i","categorize-html","92","137551","0.0-6.0-0.0-6.0-1.16","3","4","4","3","4","3","4","2","4","4","5","4","5","4","4","4","5","4","4","4","4","5","4","4","2","3","4","5","4","1","0","0","1","0","1","0","1","0","1","0","1","1","1","1","5","2","4","1","5","4","4","5","5","4","631127599740878848","刘","225","","","","","","","","","","","","","","","","","","","true","3","3","ability","674","self","我的","","","","","","","","","","","","","","",""
"null","","null","html-keyboard-response","93","137806","0.0-6.0-0.0-6.0-0.17","3","4","4","3","4","3","4","2","4","4","5","4","5","4","4","4","5","4","4","4","4","5","4","4","2","3","4","5","4","1","0","0","1","0","1","0","1","0","1","0","1","1","1","1","5","2","4","1","5","4","4","5","5","4","631127599740878848","刘","225","","","","","","","","","","","","","","","","","","","","","","","","","","","","","","","","","","","","","","","",""
"1026","<p style=""color:white; font-size: 35px;"">愚钝</p>","i","categorize-html","94","138839","0.0-6.0-0.0-6.0-1.17","3","4","4","3","4","3","4","2","4","4","5","4","5","4","4","4","5","4","4","4","4","5","4","4","2","3","4","5","4","1","0","0","1","0","1","0","1","0","1","0","1","1","1","1","5","2","4","1","5","4","4","5","5","4","631127599740878848","刘","225","","","","","","","","","","","","","","","","","","","true","3","3","ability","1026","negative","愚钝","","","","","","","","","","","","","","",""
"null","","null","html-keyboard-response","95","139092","0.0-6.0-0.0-6.0-0.18","3","4","4","3","4","3","4","2","4","4","5","4","5","4","4","4","5","4","4","4","4","5","4","4","2","3","4","5","4","1","0","0","1","0","1","0","1","0","1","0","1","1","1","1","5","2","4","1","5","4","4","5","5","4","631127599740878848","刘","225","","","","","","","","","","","","","","","","","","","","","","","","","","","","","","","","","","","","","","","",""
"622","<p style=""color:rgb(150, 250, 100); font-size: 35px;"">他人</p>","e","categorize-html","96","139720","0.0-6.0-0.0-6.0-1.18","3","4","4","3","4","3","4","2","4","4","5","4","5","4","4","4","5","4","4","4","4","5","4","4","2","3","4","5","4","1","0","0","1","0","1","0","1","0","1","0","1","1","1","1","5","2","4","1","5","4","4","5","5","4","631127599740878848","刘","225","","","","","","","","","","","","","","","","","","","true","3","3","ability","622","other","他人","","","","","","","","","","","","","","",""
"null","","null","html-keyboard-response","97","139974","0.0-6.0-0.0-6.0-0.19","3","4","4","3","4","3","4","2","4","4","5","4","5","4","4","4","5","4","4","4","4","5","4","4","2","3","4","5","4","1","0","0","1","0","1","0","1","0","1","0","1","1","1","1","5","2","4","1","5","4","4","5","5","4","631127599740878848","刘","225","","","","","","","","","","","","","","","","","","","","","","","","","","","","","","","","","","","","","","","",""
"821","<p style=""color:white; font-size: 35px;"">高效</p>","e","categorize-html","98","140803","0.0-6.0-0.0-6.0-1.19","3","4","4","3","4","3","4","2","4","4","5","4","5","4","4","4","5","4","4","4","4","5","4","4","2","3","4","5","4","1","0","0","1","0","1","0","1","0","1","0","1","1","1","1","5","2","4","1","5","4","4","5","5","4","631127599740878848","刘","225","","","","","","","","","","","","","","","","","","","true","3","3","ability","821","positive","高效","","","","","","","","","","","","","","",""
"null","","null","html-keyboard-response","99","141056","0.0-6.0-0.0-6.0-0.20","3","4","4","3","4","3","4","2","4","4","5","4","5","4","4","4","5","4","4","4","4","5","4","4","2","3","4","5","4","1","0","0","1","0","1","0","1","0","1","0","1","1","1","1","5","2","4","1","5","4","4","5","5","4","631127599740878848","刘","225","","","","","","","","","","","","","","","","","","","","","","","","","","","","","","","","","","","","","","","",""
"720","<p style=""color:rgb(150, 250, 100); font-size: 35px;"">别人</p>","e","categorize-html","100","141786","0.0-6.0-0.0-6.0-1.20","3","4","4","3","4","3","4","2","4","4","5","4","5","4","4","4","5","4","4","4","4","5","4","4","2","3","4","5","4","1","0","0","1","0","1","0","1","0","1","0","1","1","1","1","5","2","4","1","5","4","4","5","5","4","631127599740878848","刘","225","","","","","","","","","","","","","","","","","","","true","3","3","ability","720","other","别人","","","","","","","","","","","","","","",""
"null","","null","html-keyboard-response","101","142038","0.0-6.0-0.0-6.0-0.21","3","4","4","3","4","3","4","2","4","4","5","4","5","4","4","4","5","4","4","4","4","5","4","4","2","3","4","5","4","1","0","0","1","0","1","0","1","0","1","0","1","1","1","1","5","2","4","1","5","4","4","5","5","4","631127599740878848","刘","225","","","","","","","","","","","","","","","","","","","","","","","","","","","","","","","","","","","","","","","",""
"857","<p style=""color:white; font-size: 35px;"">废物</p>","i","categorize-html","102","142903","0.0-6.0-0.0-6.0-1.21","3","4","4","3","4","3","4","2","4","4","5","4","5","4","4","4","5","4","4","4","4","5","4","4","2","3","4","5","4","1","0","0","1","0","1","0","1","0","1","0","1","1","1","1","5","2","4","1","5","4","4","5","5","4","631127599740878848","刘","225","","","","","","","","","","","","","","","","","","","true","3","3","ability","857","negative","废物","","","","","","","","","","","","","","",""
"null","","null","html-keyboard-response","103","143156","0.0-6.0-0.0-6.0-0.22","3","4","4","3","4","3","4","2","4","4","5","4","5","4","4","4","5","4","4","4","4","5","4","4","2","3","4","5","4","1","0","0","1","0","1","0","1","0","1","0","1","1","1","1","5","2","4","1","5","4","4","5","5","4","631127599740878848","刘","225","","","","","","","","","","","","","","","","","","","","","","","","","","","","","","","","","","","","","","","",""
"671","<p style=""color:rgb(150, 250, 100); font-size: 35px;"">自己</p>","i","categorize-html","104","143834","0.0-6.0-0.0-6.0-1.22","3","4","4","3","4","3","4","2","4","4","5","4","5","4","4","4","5","4","4","4","4","5","4","4","2","3","4","5","4","1","0","0","1","0","1","0","1","0","1","0","1","1","1","1","5","2","4","1","5","4","4","5","5","4","631127599740878848","刘","225","","","","","","","","","","","","","","","","","","","true","3","3","ability","671","self","自己","","","","","","","","","","","","","","",""
"null","","null","html-keyboard-response","105","144091","0.0-6.0-0.0-6.0-0.23","3","4","4","3","4","3","4","2","4","4","5","4","5","4","4","4","5","4","4","4","4","5","4","4","2","3","4","5","4","1","0","0","1","0","1","0","1","0","1","0","1","1","1","1","5","2","4","1","5","4","4","5","5","4","631127599740878848","刘","225","","","","","","","","","","","","","","","","","","","","","","","","","","","","","","","","","","","","","","","",""
"597","<p style=""color:white; font-size: 35px;"">能干</p>","e","categorize-html","106","144699","0.0-6.0-0.0-6.0-1.23","3","4","4","3","4","3","4","2","4","4","5","4","5","4","4","4","5","4","4","4","4","5","4","4","2","3","4","5","4","1","0","0","1","0","1","0","1","0","1","0","1","1","1","1","5","2","4","1","5","4","4","5","5","4","631127599740878848","刘","225","","","","","","","","","","","","","","","","","","","true","3","3","ability","597","positive","能干","","","","","","","","","","","","","","",""
"2249","
    <div class=""tag-bottom""><p>
    —— 任务4：对“他人/积极”词和“自我/消极”词分类 ——<p/>
    <span style=""color:#78DCE8""><b>与刚才的任务完全相同，请再次对这四类词语分类</b></span><p/>
    <span style=""color:#FFD866""><b>请根据上方标签的提示，尽可能正确并且快速地做出按键反应</b></span><p/>
    当按键错误时屏幕中会出现<span style=""color:red""> X </span>，需要按另一个键纠正才能继续<br/><p/>
    请把双手食指分别放在键盘的“E”键和“I”键上<p/>
    按<空格键>开始
    </p></div>"," ","html-keyboard-response","107","146950","0.0-6.0-0.0-7.0","3","4","4","3","4","3","4","2","4","4","5","4","5","4","4","4","5","4","4","4","4","5","4","4","2","3","4","5","4","1","0","0","1","0","1","0","1","0","1","0","1","1","1","1","5","2","4","1","5","4","4","5","5","4","631127599740878848","刘","225","","","","","","","","","","","","","","","","","","","","","","","","","","","","","","","","","","","","","","","",""
"null","","null","html-keyboard-response","108","147202","0.0-6.0-0.0-8.0-0.0","3","4","4","3","4","3","4","2","4","4","5","4","5","4","4","4","5","4","4","4","4","5","4","4","2","3","4","5","4","1","0","0","1","0","1","0","1","0","1","0","1","1","1","1","5","2","4","1","5","4","4","5","5","4","631127599740878848","刘","225","","","","","","","","","","","","","","","","","","","","","","","","","","","","","","","","","","","","","","","",""
"631","<p style=""color:rgb(150, 250, 100); font-size: 35px;"">别人的</p>","e","categorize-html","109","147843","0.0-6.0-0.0-8.0-1.0","3","4","4","3","4","3","4","2","4","4","5","4","5","4","4","4","5","4","4","4","4","5","4","4","2","3","4","5","4","1","0","0","1","0","1","0","1","0","1","0","1","1","1","1","5","2","4","1","5","4","4","5","5","4","631127599740878848","刘","225","","","","","","","","","","","","","","","","","","","true","4","4","ability","631","other","别人的","","","","","","","","","","","","","","",""
"null","","null","html-keyboard-response","110","148096","0.0-6.0-0.0-8.0-0.1","3","4","4","3","4","3","4","2","4","4","5","4","5","4","4","4","5","4","4","4","4","5","4","4","2","3","4","5","4","1","0","0","1","0","1","0","1","0","1","0","1","1","1","1","5","2","4","1","5","4","4","5","5","4","631127599740878848","刘","225","","","","","","","","","","","","","","","","","","","","","","","","","","","","","","","","","","","","","","","",""
"761","<p style=""color:white; font-size: 35px;"">能干</p>","i","categorize-html","111","149360","0.0-6.0-0.0-8.0-1.1","3","4","4","3","4","3","4","2","4","4","5","4","5","4","4","4","5","4","4","4","4","5","4","4","2","3","4","5","4","1","0","0","1","0","1","0","1","0","1","0","1","1","1","1","5","2","4","1","5","4","4","5","5","4","631127599740878848","刘","225","","","","","","","","","","","","","","","","","","","false","4","4","ability","1512.3333333333335","positive","能干","","","","","","","","","","","","","","",""
"null","","null","html-keyboard-response","112","149616","0.0-6.0-0.0-8.0-0.2","3","4","4","3","4","3","4","2","4","4","5","4","5","4","4","4","5","4","4","4","4","5","4","4","2","3","4","5","4","1","0","0","1","0","1","0","1","0","1","0","1","1","1","1","5","2","4","1","5","4","4","5","5","4","631127599740878848","刘","225","","","","","","","","","","","","","","","","","","","","","","","","","","","","","","","","","","","","","","","",""
"550","<p style=""color:rgb(150, 250, 100); font-size: 35px;"">我</p>","i","categorize-html","113","150174","0.0-6.0-0.0-8.0-1.2","3","4","4","3","4","3","4","2","4","4","5","4","5","4","4","4","5","4","4","4","4","5","4","4","2","3","4","5","4","1","0","0","1","0","1","0","1","0","1","0","1","1","1","1","5","2","4","1","5","4","4","5","5","4","631127599740878848","刘","225","","","","","","","","","","","","","","","","","","","true","4","4","ability","550","self","我","","","","","","","","","","","","","","",""
"null","","null","html-keyboard-response","114","150428","0.0-6.0-0.0-8.0-0.3","3","4","4","3","4","3","4","2","4","4","5","4","5","4","4","4","5","4","4","4","4","5","4","4","2","3","4","5","4","1","0","0","1","0","1","0","1","0","1","0","1","1","1","1","5","2","4","1","5","4","4","5","5","4","631127599740878848","刘","225","","","","","","","","","","","","","","","","","","","","","","","","","","","","","","","","","","","","","","","",""
"613","<p style=""color:white; font-size: 35px;"">愚钝</p>","i","categorize-html","115","151045","0.0-6.0-0.0-8.0-1.3","3","4","4","3","4","3","4","2","4","4","5","4","5","4","4","4","5","4","4","4","4","5","4","4","2","3","4","5","4","1","0","0","1","0","1","0","1","0","1","0","1","1","1","1","5","2","4","1","5","4","4","5","5","4","631127599740878848","刘","225","","","","","","","","","","","","","","","","","","","true","4","4","ability","613","negative","愚钝","","","","","","","","","","","","","","",""
"null","","null","html-keyboard-response","116","151299","0.0-6.0-0.0-8.0-0.4","3","4","4","3","4","3","4","2","4","4","5","4","5","4","4","4","5","4","4","4","4","5","4","4","2","3","4","5","4","1","0","0","1","0","1","0","1","0","1","0","1","1","1","1","5","2","4","1","5","4","4","5","5","4","631127599740878848","刘","225","","","","","","","","","","","","","","","","","","","","","","","","","","","","","","","","","","","","","","","",""
"1178","<p style=""color:rgb(150, 250, 100); font-size: 35px;"">自己</p>","e","categorize-html","117","153014","0.0-6.0-0.0-8.0-1.4","3","4","4","3","4","3","4","2","4","4","5","4","5","4","4","4","5","4","4","4","4","5","4","4","2","3","4","5","4","1","0","0","1","0","1","0","1","0","1","0","1","1","1","1","5","2","4","1","5","4","4","5","5","4","631127599740878848","刘","225","","","","","","","","","","","","","","","","","","","false","4","4","ability","1512.3333333333335","self","自己","","","","","","","","","","","","","","",""
"null","","null","html-keyboard-response","118","153267","0.0-6.0-0.0-8.0-0.5","3","4","4","3","4","3","4","2","4","4","5","4","5","4","4","4","5","4","4","4","4","5","4","4","2","3","4","5","4","1","0","0","1","0","1","0","1","0","1","0","1","1","1","1","5","2","4","1","5","4","4","5","5","4","631127599740878848","刘","225","","","","","","","","","","","","","","","","","","","","","","","","","","","","","","","","","","","","","","","",""
"763","<p style=""color:white; font-size: 35px;"">拙笨</p>","i","categorize-html","119","154036","0.0-6.0-0.0-8.0-1.5","3","4","4","3","4","3","4","2","4","4","5","4","5","4","4","4","5","4","4","4","4","5","4","4","2","3","4","5","4","1","0","0","1","0","1","0","1","0","1","0","1","1","1","1","5","2","4","1","5","4","4","5","5","4","631127599740878848","刘","225","","","","","","","","","","","","","","","","","","","true","4","4","ability","763","negative","拙笨","","","","","","","","","","","","","","",""
"null","","null","html-keyboard-response","120","154289","0.0-6.0-0.0-8.0-0.6","3","4","4","3","4","3","4","2","4","4","5","4","5","4","4","4","5","4","4","4","4","5","4","4","2","3","4","5","4","1","0","0","1","0","1","0","1","0","1","0","1","1","1","1","5","2","4","1","5","4","4","5","5","4","631127599740878848","刘","225","","","","","","","","","","","","","","","","","","","","","","","","","","","","","","","","","","","","","","","",""
"554","<p style=""color:rgb(150, 250, 100); font-size: 35px;"">他人</p>","e","categorize-html","121","154851","0.0-6.0-0.0-8.0-1.6","3","4","4","3","4","3","4","2","4","4","5","4","5","4","4","4","5","4","4","4","4","5","4","4","2","3","4","5","4","1","0","0","1","0","1","0","1","0","1","0","1","1","1","1","5","2","4","1","5","4","4","5","5","4","631127599740878848","刘","225","","","","","","","","","","","","","","","","","","","true","4","4","ability","554","other","他人","","","","","","","","","","","","","","",""
"null","","null","html-keyboard-response","122","155104","0.0-6.0-0.0-8.0-0.7","3","4","4","3","4","3","4","2","4","4","5","4","5","4","4","4","5","4","4","4","4","5","4","4","2","3","4","5","4","1","0","0","1","0","1","0","1","0","1","0","1","1","1","1","5","2","4","1","5","4","4","5","5","4","631127599740878848","刘","225","","","","","","","","","","","","","","","","","","","","","","","","","","","","","","","","","","","","","","","",""
"715","<p style=""color:white; font-size: 35px;"">天才</p>","e","categorize-html","123","155823","0.0-6.0-0.0-8.0-1.7","3","4","4","3","4","3","4","2","4","4","5","4","5","4","4","4","5","4","4","4","4","5","4","4","2","3","4","5","4","1","0","0","1","0","1","0","1","0","1","0","1","1","1","1","5","2","4","1","5","4","4","5","5","4","631127599740878848","刘","225","","","","","","","","","","","","","","","","","","","true","4","4","ability","715","positive","天才","","","","","","","","","","","","","","",""
"null","","null","html-keyboard-response","124","156075","0.0-6.0-0.0-8.0-0.8","3","4","4","3","4","3","4","2","4","4","5","4","5","4","4","4","5","4","4","4","4","5","4","4","2","3","4","5","4","1","0","0","1","0","1","0","1","0","1","0","1","1","1","1","5","2","4","1","5","4","4","5","5","4","631127599740878848","刘","225","","","","","","","","","","","","","","","","","","","","","","","","","","","","","","","","","","","","","","","",""
"638","<p style=""color:rgb(150, 250, 100); font-size: 35px;"">他人</p>","i","categorize-html","125","157166","0.0-6.0-0.0-8.0-1.8","3","4","4","3","4","3","4","2","4","4","5","4","5","4","4","4","5","4","4","4","4","5","4","4","2","3","4","5","4","1","0","0","1","0","1","0","1","0","1","0","1","1","1","1","5","2","4","1","5","4","4","5","5","4","631127599740878848","刘","225","","","","","","","","","","","","","","","","","","","false","4","4","ability","1512.3333333333335","other","他人","","","","","","","","","","","","","","",""
"null","","null","html-keyboard-response","126","157418","0.0-6.0-0.0-8.0-0.9","3","4","4","3","4","3","4","2","4","4","5","4","5","4","4","4","5","4","4","4","4","5","4","4","2","3","4","5","4","1","0","0","1","0","1","0","1","0","1","0","1","1","1","1","5","2","4","1","5","4","4","5","5","4","631127599740878848","刘","225","","","","","","","","","","","","","","","","","","","","","","","","","","","","","","","","","","","","","","","",""
"709","<p style=""color:white; font-size: 35px;"">蠢笨</p>","i","categorize-html","127","158134","0.0-6.0-0.0-8.0-1.9","3","4","4","3","4","3","4","2","4","4","5","4","5","4","4","4","5","4","4","4","4","5","4","4","2","3","4","5","4","1","0","0","1","0","1","0","1","0","1","0","1","1","1","1","5","2","4","1","5","4","4","5","5","4","631127599740878848","刘","225","","","","","","","","","","","","","","","","","","","true","4","4","ability","709","negative","蠢笨","","","","","","","","","","","","","","",""
"null","","null","html-keyboard-response","128","158387","0.0-6.0-0.0-8.0-0.10","3","4","4","3","4","3","4","2","4","4","5","4","5","4","4","4","5","4","4","4","4","5","4","4","2","3","4","5","4","1","0","0","1","0","1","0","1","0","1","0","1","1","1","1","5","2","4","1","5","4","4","5","5","4","631127599740878848","刘","225","","","","","","","","","","","","","","","","","","","","","","","","","","","","","","","","","","","","","","","",""
"1171","<p style=""color:rgb(150, 250, 100); font-size: 35px;"">自己的</p>","i","categorize-html","129","159563","0.0-6.0-0.0-8.0-1.10","3","4","4","3","4","3","4","2","4","4","5","4","5","4","4","4","5","4","4","4","4","5","4","4","2","3","4","5","4","1","0","0","1","0","1","0","1","0","1","0","1","1","1","1","5","2","4","1","5","4","4","5","5","4","631127599740878848","刘","225","","","","","","","","","","","","","","","","","","","true","4","4","ability","1171","self","自己的","","","","","","","","","","","","","","",""
"null","","null","html-keyboard-response","130","159815","0.0-6.0-0.0-8.0-0.11","3","4","4","3","4","3","4","2","4","4","5","4","5","4","4","4","5","4","4","4","4","5","4","4","2","3","4","5","4","1","0","0","1","0","1","0","1","0","1","0","1","1","1","1","5","2","4","1","5","4","4","5","5","4","631127599740878848","刘","225","","","","","","","","","","","","","","","","","","","","","","","","","","","","","","","","","","","","","","","",""
"605","<p style=""color:white; font-size: 35px;"">高效</p>","e","categorize-html","131","160427","0.0-6.0-0.0-8.0-1.11","3","4","4","3","4","3","4","2","4","4","5","4","5","4","4","4","5","4","4","4","4","5","4","4","2","3","4","5","4","1","0","0","1","0","1","0","1","0","1","0","1","1","1","1","5","2","4","1","5","4","4","5","5","4","631127599740878848","刘","225","","","","","","","","","","","","","","","","","","","true","4","4","ability","605","positive","高效","","","","","","","","","","","","","","",""
"null","","null","html-keyboard-response","132","160681","0.0-6.0-0.0-8.0-0.12","3","4","4","3","4","3","4","2","4","4","5","4","5","4","4","4","5","4","4","4","4","5","4","4","2","3","4","5","4","1","0","0","1","0","1","0","1","0","1","0","1","1","1","1","5","2","4","1","5","4","4","5","5","4","631127599740878848","刘","225","","","","","","","","","","","","","","","","","","","","","","","","","","","","","","","","","","","","","","","",""
"1833","<p style=""color:rgb(150, 250, 100); font-size: 35px;"">别人</p>","e","categorize-html","133","162523","0.0-6.0-0.0-8.0-1.12","3","4","4","3","4","3","4","2","4","4","5","4","5","4","4","4","5","4","4","4","4","5","4","4","2","3","4","5","4","1","0","0","1","0","1","0","1","0","1","0","1","1","1","1","5","2","4","1","5","4","4","5","5","4","631127599740878848","刘","225","","","","","","","","","","","","","","","","","","","true","4","4","ability","1833","other","别人","","","","","","","","","","","","","","",""
"null","","null","html-keyboard-response","134","162777","0.0-6.0-0.0-8.0-0.13","3","4","4","3","4","3","4","2","4","4","5","4","5","4","4","4","5","4","4","4","4","5","4","4","2","3","4","5","4","1","0","0","1","0","1","0","1","0","1","0","1","1","1","1","5","2","4","1","5","4","4","5","5","4","631127599740878848","刘","225","","","","","","","","","","","","","","","","","","","","","","","","","","","","","","","","","","","","","","","",""
"718","<p style=""color:white; font-size: 35px;"">废物</p>","i","categorize-html","135","163506","0.0-6.0-0.0-8.0-1.13","3","4","4","3","4","3","4","2","4","4","5","4","5","4","4","4","5","4","4","4","4","5","4","4","2","3","4","5","4","1","0","0","1","0","1","0","1","0","1","0","1","1","1","1","5","2","4","1","5","4","4","5","5","4","631127599740878848","刘","225","","","","","","","","","","","","","","","","","","","true","4","4","ability","718","negative","废物","","","","","","","","","","","","","","",""
"null","","null","html-keyboard-response","136","163760","0.0-6.0-0.0-8.0-0.14","3","4","4","3","4","3","4","2","4","4","5","4","5","4","4","4","5","4","4","4","4","5","4","4","2","3","4","5","4","1","0","0","1","0","1","0","1","0","1","0","1","1","1","1","5","2","4","1","5","4","4","5","5","4","631127599740878848","刘","225","","","","","","","","","","","","","","","","","","","","","","","","","","","","","","","","","","","","","","","",""
"1004","<p style=""color:rgb(150, 250, 100); font-size: 35px;"">我的</p>","i","categorize-html","137","164774","0.0-6.0-0.0-8.0-1.14","3","4","4","3","4","3","4","2","4","4","5","4","5","4","4","4","5","4","4","4","4","5","4","4","2","3","4","5","4","1","0","0","1","0","1","0","1","0","1","0","1","1","1","1","5","2","4","1","5","4","4","5","5","4","631127599740878848","刘","225","","","","","","","","","","","","","","","","","","","true","4","4","ability","1004","self","我的","","","","","","","","","","","","","","",""
"null","","null","html-keyboard-response","138","165029","0.0-6.0-0.0-8.0-0.15","3","4","4","3","4","3","4","2","4","4","5","4","5","4","4","4","5","4","4","4","4","5","4","4","2","3","4","5","4","1","0","0","1","0","1","0","1","0","1","0","1","1","1","1","5","2","4","1","5","4","4","5","5","4","631127599740878848","刘","225","","","","","","","","","","","","","","","","","","","","","","","","","","","","","","","","","","","","","","","",""
"745","<p style=""color:white; font-size: 35px;"">全能</p>","e","categorize-html","139","165782","0.0-6.0-0.0-8.0-1.15","3","4","4","3","4","3","4","2","4","4","5","4","5","4","4","4","5","4","4","4","4","5","4","4","2","3","4","5","4","1","0","0","1","0","1","0","1","0","1","0","1","1","1","1","5","2","4","1","5","4","4","5","5","4","631127599740878848","刘","225","","","","","","","","","","","","","","","","","","","true","4","4","ability","745","positive","全能","","","","","","","","","","","","","","",""
"null","","null","html-keyboard-response","140","166036","0.0-6.0-0.0-8.0-0.16","3","4","4","3","4","3","4","2","4","4","5","4","5","4","4","4","5","4","4","4","4","5","4","4","2","3","4","5","4","1","0","0","1","0","1","0","1","0","1","0","1","1","1","1","5","2","4","1","5","4","4","5","5","4","631127599740878848","刘","225","","","","","","","","","","","","","","","","","","","","","","","","","","","","","","","","","","","","","","","",""
"715","<p style=""color:rgb(150, 250, 100); font-size: 35px;"">他</p>","e","categorize-html","141","166758","0.0-6.0-0.0-8.0-1.16","3","4","4","3","4","3","4","2","4","4","5","4","5","4","4","4","5","4","4","4","4","5","4","4","2","3","4","5","4","1","0","0","1","0","1","0","1","0","1","0","1","1","1","1","5","2","4","1","5","4","4","5","5","4","631127599740878848","刘","225","","","","","","","","","","","","","","","","","","","true","4","4","ability","715","other","他","","","","","","","","","","","","","","",""
"null","","null","html-keyboard-response","142","167011","0.0-6.0-0.0-8.0-0.17","3","4","4","3","4","3","4","2","4","4","5","4","5","4","4","4","5","4","4","4","4","5","4","4","2","3","4","5","4","1","0","0","1","0","1","0","1","0","1","0","1","1","1","1","5","2","4","1","5","4","4","5","5","4","631127599740878848","刘","225","","","","","","","","","","","","","","","","","","","","","","","","","","","","","","","","","","","","","","","",""
"668","<p style=""color:white; font-size: 35px;"">全能</p>","e","categorize-html","143","167685","0.0-6.0-0.0-8.0-1.17","3","4","4","3","4","3","4","2","4","4","5","4","5","4","4","4","5","4","4","4","4","5","4","4","2","3","4","5","4","1","0","0","1","0","1","0","1","0","1","0","1","1","1","1","5","2","4","1","5","4","4","5","5","4","631127599740878848","刘","225","","","","","","","","","","","","","","","","","","","true","4","4","ability","668","positive","全能","","","","","","","","","","","","","","",""
"null","","null","html-keyboard-response","144","167939","0.0-6.0-0.0-8.0-0.18","3","4","4","3","4","3","4","2","4","4","5","4","5","4","4","4","5","4","4","4","4","5","4","4","2","3","4","5","4","1","0","0","1","0","1","0","1","0","1","0","1","1","1","1","5","2","4","1","5","4","4","5","5","4","631127599740878848","刘","225","","","","","","","","","","","","","","","","","","","","","","","","","","","","","","","","","","","","","","","",""
"757","<p style=""color:rgb(150, 250, 100); font-size: 35px;"">本人</p>","i","categorize-html","145","168702","0.0-6.0-0.0-8.0-1.18","3","4","4","3","4","3","4","2","4","4","5","4","5","4","4","4","5","4","4","4","4","5","4","4","2","3","4","5","4","1","0","0","1","0","1","0","1","0","1","0","1","1","1","1","5","2","4","1","5","4","4","5","5","4","631127599740878848","刘","225","","","","","","","","","","","","","","","","","","","true","4","4","ability","757","self","本人","","","","","","","","","","","","","","",""
"null","","null","html-keyboard-response","146","168967","0.0-6.0-0.0-8.0-0.19","3","4","4","3","4","3","4","2","4","4","5","4","5","4","4","4","5","4","4","4","4","5","4","4","2","3","4","5","4","1","0","0","1","0","1","0","1","0","1","0","1","1","1","1","5","2","4","1","5","4","4","5","5","4","631127599740878848","刘","225","","","","","","","","","","","","","","","","","","","","","","","","","","","","","","","","","","","","","","","",""
"1141","<p style=""color:white; font-size: 35px;"">无能</p>","i","categorize-html","147","170116","0.0-6.0-0.0-8.0-1.19","3","4","4","3","4","3","4","2","4","4","5","4","5","4","4","4","5","4","4","4","4","5","4","4","2","3","4","5","4","1","0","0","1","0","1","0","1","0","1","0","1","1","1","1","5","2","4","1","5","4","4","5","5","4","631127599740878848","刘","225","","","","","","","","","","","","","","","","","","","true","4","4","ability","1141","negative","无能","","","","","","","","","","","","","","",""
"null","","null","html-keyboard-response","148","170369","0.0-6.0-0.0-8.0-0.20","3","4","4","3","4","3","4","2","4","4","5","4","5","4","4","4","5","4","4","4","4","5","4","4","2","3","4","5","4","1","0","0","1","0","1","0","1","0","1","0","1","1","1","1","5","2","4","1","5","4","4","5","5","4","631127599740878848","刘","225","","","","","","","","","","","","","","","","","","","","","","","","","","","","","","","","","","","","","","","",""
"507","<p style=""color:rgb(150, 250, 100); font-size: 35px;"">我的</p>","e","categorize-html","149","171289","0.0-6.0-0.0-8.0-1.20","3","4","4","3","4","3","4","2","4","4","5","4","5","4","4","4","5","4","4","4","4","5","4","4","2","3","4","5","4","1","0","0","1","0","1","0","1","0","1","0","1","1","1","1","5","2","4","1","5","4","4","5","5","4","631127599740878848","刘","225","","","","","","","","","","","","","","","","","","","false","4","4","ability","1512.3333333333335","self","我的","","","","","","","","","","","","","","",""
"null","","null","html-keyboard-response","150","171549","0.0-6.0-0.0-8.0-0.21","3","4","4","3","4","3","4","2","4","4","5","4","5","4","4","4","5","4","4","4","4","5","4","4","2","3","4","5","4","1","0","0","1","0","1","0","1","0","1","0","1","1","1","1","5","2","4","1","5","4","4","5","5","4","631127599740878848","刘","225","","","","","","","","","","","","","","","","","","","","","","","","","","","","","","","","","","","","","","","",""
"679","<p style=""color:white; font-size: 35px;"">天才</p>","e","categorize-html","151","172235","0.0-6.0-0.0-8.0-1.21","3","4","4","3","4","3","4","2","4","4","5","4","5","4","4","4","5","4","4","4","4","5","4","4","2","3","4","5","4","1","0","0","1","0","1","0","1","0","1","0","1","1","1","1","5","2","4","1","5","4","4","5","5","4","631127599740878848","刘","225","","","","","","","","","","","","","","","","","","","true","4","4","ability","679","positive","天才","","","","","","","","","","","","","","",""
"null","","null","html-keyboard-response","152","172487","0.0-6.0-0.0-8.0-0.22","3","4","4","3","4","3","4","2","4","4","5","4","5","4","4","4","5","4","4","4","4","5","4","4","2","3","4","5","4","1","0","0","1","0","1","0","1","0","1","0","1","1","1","1","5","2","4","1","5","4","4","5","5","4","631127599740878848","刘","225","","","","","","","","","","","","","","","","","","","","","","","","","","","","","","","","","","","","","","","",""
"569","<p style=""color:rgb(150, 250, 100); font-size: 35px;"">他的</p>","e","categorize-html","153","173064","0.0-6.0-0.0-8.0-1.22","3","4","4","3","4","3","4","2","4","4","5","4","5","4","4","4","5","4","4","4","4","5","4","4","2","3","4","5","4","1","0","0","1","0","1","0","1","0","1","0","1","1","1","1","5","2","4","1","5","4","4","5","5","4","631127599740878848","刘","225","","","","","","","","","","","","","","","","","","","true","4","4","ability","569","other","他的","","","","","","","","","","","","","","",""
"null","","null","html-keyboard-response","154","173317","0.0-6.0-0.0-8.0-0.23","3","4","4","3","4","3","4","2","4","4","5","4","5","4","4","4","5","4","4","4","4","5","4","4","2","3","4","5","4","1","0","0","1","0","1","0","1","0","1","0","1","1","1","1","5","2","4","1","5","4","4","5","5","4","631127599740878848","刘","225","","","","","","","","","","","","","","","","","","","","","","","","","","","","","","","","","","","","","","","",""
"649","<p style=""color:white; font-size: 35px;"">废物</p>","i","categorize-html","155","173973","0.0-6.0-0.0-8.0-1.23","3","4","4","3","4","3","4","2","4","4","5","4","5","4","4","4","5","4","4","4","4","5","4","4","2","3","4","5","4","1","0","0","1","0","1","0","1","0","1","0","1","1","1","1","5","2","4","1","5","4","4","5","5","4","631127599740878848","刘","225","","","","","","","","","","","","","","","","","","","true","4","4","ability","649","negative","废物","","","","","","","","","","","","","","",""
"null","","null","html-keyboard-response","156","174226","0.0-6.0-0.0-8.0-0.24","3","4","4","3","4","3","4","2","4","4","5","4","5","4","4","4","5","4","4","4","4","5","4","4","2","3","4","5","4","1","0","0","1","0","1","0","1","0","1","0","1","1","1","1","5","2","4","1","5","4","4","5","5","4","631127599740878848","刘","225","","","","","","","","","","","","","","","","","","","","","","","","","","","","","","","","","","","","","","","",""
"675","<p style=""color:rgb(150, 250, 100); font-size: 35px;"">本人</p>","e","categorize-html","157","175452","0.0-6.0-0.0-8.0-1.24","3","4","4","3","4","3","4","2","4","4","5","4","5","4","4","4","5","4","4","4","4","5","4","4","2","3","4","5","4","1","0","0","1","0","1","0","1","0","1","0","1","1","1","1","5","2","4","1","5","4","4","5","5","4","631127599740878848","刘","225","","","","","","","","","","","","","","","","","","","false","4","4","ability","1512.3333333333335","self","本人","","","","","","","","","","","","","","",""
"null","","null","html-keyboard-response","158","175704","0.0-6.0-0.0-8.0-0.25","3","4","4","3","4","3","4","2","4","4","5","4","5","4","4","4","5","4","4","4","4","5","4","4","2","3","4","5","4","1","0","0","1","0","1","0","1","0","1","0","1","1","1","1","5","2","4","1","5","4","4","5","5","4","631127599740878848","刘","225","","","","","","","","","","","","","","","","","","","","","","","","","","","","","","","","","","","","","","","",""
"1933","<p style=""color:white; font-size: 35px;"">低能</p>","i","categorize-html","159","177649","0.0-6.0-0.0-8.0-1.25","3","4","4","3","4","3","4","2","4","4","5","4","5","4","4","4","5","4","4","4","4","5","4","4","2","3","4","5","4","1","0","0","1","0","1","0","1","0","1","0","1","1","1","1","5","2","4","1","5","4","4","5","5","4","631127599740878848","刘","225","","","","","","","","","","","","","","","","","","","true","4","4","ability","1933","negative","低能","","","","","","","","","","","","","","",""
"null","","null","html-keyboard-response","160","177904","0.0-6.0-0.0-8.0-0.26","3","4","4","3","4","3","4","2","4","4","5","4","5","4","4","4","5","4","4","4","4","5","4","4","2","3","4","5","4","1","0","0","1","0","1","0","1","0","1","0","1","1","1","1","5","2","4","1","5","4","4","5","5","4","631127599740878848","刘","225","","","","","","","","","","","","","","","","","","","","","","","","","","","","","","","","","","","","","","","",""
"891","<p style=""color:rgb(150, 250, 100); font-size: 35px;"">别人的</p>","e","categorize-html","161","178806","0.0-6.0-0.0-8.0-1.26","3","4","4","3","4","3","4","2","4","4","5","4","5","4","4","4","5","4","4","4","4","5","4","4","2","3","4","5","4","1","0","0","1","0","1","0","1","0","1","0","1","1","1","1","5","2","4","1","5","4","4","5","5","4","631127599740878848","刘","225","","","","","","","","","","","","","","","","","","","true","4","4","ability","891","other","别人的","","","","","","","","","","","","","","",""
"null","","null","html-keyboard-response","162","179059","0.0-6.0-0.0-8.0-0.27","3","4","4","3","4","3","4","2","4","4","5","4","5","4","4","4","5","4","4","4","4","5","4","4","2","3","4","5","4","1","0","0","1","0","1","0","1","0","1","0","1","1","1","1","5","2","4","1","5","4","4","5","5","4","631127599740878848","刘","225","","","","","","","","","","","","","","","","","","","","","","","","","","","","","","","","","","","","","","","",""
"1234","<p style=""color:white; font-size: 35px;"">精干</p>","i","categorize-html","163","180917","0.0-6.0-0.0-8.0-1.27","3","4","4","3","4","3","4","2","4","4","5","4","5","4","4","4","5","4","4","4","4","5","4","4","2","3","4","5","4","1","0","0","1","0","1","0","1","0","1","0","1","1","1","1","5","2","4","1","5","4","4","5","5","4","631127599740878848","刘","225","","","","","","","","","","","","","","","","","","","false","4","4","ability","1512.3333333333335","positive","精干","","","","","","","","","","","","","","",""
"null","","null","html-keyboard-response","164","181170","0.0-6.0-0.0-8.0-0.28","3","4","4","3","4","3","4","2","4","4","5","4","5","4","4","4","5","4","4","4","4","5","4","4","2","3","4","5","4","1","0","0","1","0","1","0","1","0","1","0","1","1","1","1","5","2","4","1","5","4","4","5","5","4","631127599740878848","刘","225","","","","","","","","","","","","","","","","","","","","","","","","","","","","","","","","","","","","","","","",""
"619","<p style=""color:rgb(150, 250, 100); font-size: 35px;"">自己</p>","i","categorize-html","165","181795","0.0-6.0-0.0-8.0-1.28","3","4","4","3","4","3","4","2","4","4","5","4","5","4","4","4","5","4","4","4","4","5","4","4","2","3","4","5","4","1","0","0","1","0","1","0","1","0","1","0","1","1","1","1","5","2","4","1","5","4","4","5","5","4","631127599740878848","刘","225","","","","","","","","","","","","","","","","","","","true","4","4","ability","619","self","自己","","","","","","","","","","","","","","",""
"null","","null","html-keyboard-response","166","182047","0.0-6.0-0.0-8.0-0.29","3","4","4","3","4","3","4","2","4","4","5","4","5","4","4","4","5","4","4","4","4","5","4","4","2","3","4","5","4","1","0","0","1","0","1","0","1","0","1","0","1","1","1","1","5","2","4","1","5","4","4","5","5","4","631127599740878848","刘","225","","","","","","","","","","","","","","","","","","","","","","","","","","","","","","","","","","","","","","","",""
"841","<p style=""color:white; font-size: 35px;"">高效</p>","e","categorize-html","167","182894","0.0-6.0-0.0-8.0-1.29","3","4","4","3","4","3","4","2","4","4","5","4","5","4","4","4","5","4","4","4","4","5","4","4","2","3","4","5","4","1","0","0","1","0","1","0","1","0","1","0","1","1","1","1","5","2","4","1","5","4","4","5","5","4","631127599740878848","刘","225","","","","","","","","","","","","","","","","","","","true","4","4","ability","841","positive","高效","","","","","","","","","","","","","","",""
"null","","null","html-keyboard-response","168","183148","0.0-6.0-0.0-8.0-0.30","3","4","4","3","4","3","4","2","4","4","5","4","5","4","4","4","5","4","4","4","4","5","4","4","2","3","4","5","4","1","0","0","1","0","1","0","1","0","1","0","1","1","1","1","5","2","4","1","5","4","4","5","5","4","631127599740878848","刘","225","","","","","","","","","","","","","","","","","","","","","","","","","","","","","","","","","","","","","","","",""
"2069","<p style=""color:rgb(150, 250, 100); font-size: 35px;"">别人</p>","e","categorize-html","169","185227","0.0-6.0-0.0-8.0-1.30","3","4","4","3","4","3","4","2","4","4","5","4","5","4","4","4","5","4","4","4","4","5","4","4","2","3","4","5","4","1","0","0","1","0","1","0","1","0","1","0","1","1","1","1","5","2","4","1","5","4","4","5","5","4","631127599740878848","刘","225","","","","","","","","","","","","","","","","","","","true","4","4","ability","2069","other","别人","","","","","","","","","","","","","","",""
"null","","null","html-keyboard-response","170","185479","0.0-6.0-0.0-8.0-0.31","3","4","4","3","4","3","4","2","4","4","5","4","5","4","4","4","5","4","4","4","4","5","4","4","2","3","4","5","4","1","0","0","1","0","1","0","1","0","1","0","1","1","1","1","5","2","4","1","5","4","4","5","5","4","631127599740878848","刘","225","","","","","","","","","","","","","","","","","","","","","","","","","","","","","","","","","","","","","","","",""
"734","<p style=""color:white; font-size: 35px;"">拙笨</p>","i","categorize-html","171","186221","0.0-6.0-0.0-8.0-1.31","3","4","4","3","4","3","4","2","4","4","5","4","5","4","4","4","5","4","4","4","4","5","4","4","2","3","4","5","4","1","0","0","1","0","1","0","1","0","1","0","1","1","1","1","5","2","4","1","5","4","4","5","5","4","631127599740878848","刘","225","","","","","","","","","","","","","","","","","","","true","4","4","ability","734","negative","拙笨","","","","","","","","","","","","","","",""
"null","","null","html-keyboard-response","172","186476","0.0-6.0-0.0-8.0-0.32","3","4","4","3","4","3","4","2","4","4","5","4","5","4","4","4","5","4","4","4","4","5","4","4","2","3","4","5","4","1","0","0","1","0","1","0","1","0","1","0","1","1","1","1","5","2","4","1","5","4","4","5","5","4","631127599740878848","刘","225","","","","","","","","","","","","","","","","","","","","","","","","","","","","","","","","","","","","","","","",""
"578","<p style=""color:rgb(150, 250, 100); font-size: 35px;"">他</p>","e","categorize-html","173","187059","0.0-6.0-0.0-8.0-1.32","3","4","4","3","4","3","4","2","4","4","5","4","5","4","4","4","5","4","4","4","4","5","4","4","2","3","4","5","4","1","0","0","1","0","1","0","1","0","1","0","1","1","1","1","5","2","4","1","5","4","4","5","5","4","631127599740878848","刘","225","","","","","","","","","","","","","","","","","","","true","4","4","ability","578","other","他","","","","","","","","","","","","","","",""
"null","","null","html-keyboard-response","174","187312","0.0-6.0-0.0-8.0-0.33","3","4","4","3","4","3","4","2","4","4","5","4","5","4","4","4","5","4","4","4","4","5","4","4","2","3","4","5","4","1","0","0","1","0","1","0","1","0","1","0","1","1","1","1","5","2","4","1","5","4","4","5","5","4","631127599740878848","刘","225","","","","","","","","","","","","","","","","","","","","","","","","","","","","","","","","","","","","","","","",""
"667","<p style=""color:white; font-size: 35px;"">愚钝</p>","i","categorize-html","175","187984","0.0-6.0-0.0-8.0-1.33","3","4","4","3","4","3","4","2","4","4","5","4","5","4","4","4","5","4","4","4","4","5","4","4","2","3","4","5","4","1","0","0","1","0","1","0","1","0","1","0","1","1","1","1","5","2","4","1","5","4","4","5","5","4","631127599740878848","刘","225","","","","","","","","","","","","","","","","","","","true","4","4","ability","667","negative","愚钝","","","","","","","","","","","","","","",""
"null","","null","html-keyboard-response","176","188239","0.0-6.0-0.0-8.0-0.34","3","4","4","3","4","3","4","2","4","4","5","4","5","4","4","4","5","4","4","4","4","5","4","4","2","3","4","5","4","1","0","0","1","0","1","0","1","0","1","0","1","1","1","1","5","2","4","1","5","4","4","5","5","4","631127599740878848","刘","225","","","","","","","","","","","","","","","","","","","","","","","","","","","","","","","","","","","","","","","",""
"2134","<p style=""color:rgb(150, 250, 100); font-size: 35px;"">自己的</p>","i","categorize-html","177","190380","0.0-6.0-0.0-8.0-1.34","3","4","4","3","4","3","4","2","4","4","5","4","5","4","4","4","5","4","4","4","4","5","4","4","2","3","4","5","4","1","0","0","1","0","1","0","1","0","1","0","1","1","1","1","5","2","4","1","5","4","4","5","5","4","631127599740878848","刘","225","","","","","","","","","","","","","","","","","","","true","4","4","ability","2134","self","自己的","","","","","","","","","","","","","","",""
"null","","null","html-keyboard-response","178","190632","0.0-6.0-0.0-8.0-0.35","3","4","4","3","4","3","4","2","4","4","5","4","5","4","4","4","5","4","4","4","4","5","4","4","2","3","4","5","4","1","0","0","1","0","1","0","1","0","1","0","1","1","1","1","5","2","4","1","5","4","4","5","5","4","631127599740878848","刘","225","","","","","","","","","","","","","","","","","","","","","","","","","","","","","","","","","","","","","","","",""
"1132","<p style=""color:white; font-size: 35px;"">全才</p>","e","categorize-html","179","191770","0.0-6.0-0.0-8.0-1.35","3","4","4","3","4","3","4","2","4","4","5","4","5","4","4","4","5","4","4","4","4","5","4","4","2","3","4","5","4","1","0","0","1","0","1","0","1","0","1","0","1","1","1","1","5","2","4","1","5","4","4","5","5","4","631127599740878848","刘","225","","","","","","","","","","","","","","","","","","","true","4","4","ability","1132","positive","全才","","","","","","","","","","","","","","",""
"null","","null","html-keyboard-response","180","192024","0.0-6.0-0.0-8.0-0.36","3","4","4","3","4","3","4","2","4","4","5","4","5","4","4","4","5","4","4","4","4","5","4","4","2","3","4","5","4","1","0","0","1","0","1","0","1","0","1","0","1","1","1","1","5","2","4","1","5","4","4","5","5","4","631127599740878848","刘","225","","","","","","","","","","","","","","","","","","","","","","","","","","","","","","","","","","","","","","","",""
"2411","<p style=""color:rgb(150, 250, 100); font-size: 35px;"">本人的</p>","i","categorize-html","181","194441","0.0-6.0-0.0-8.0-1.36","3","4","4","3","4","3","4","2","4","4","5","4","5","4","4","4","5","4","4","4","4","5","4","4","2","3","4","5","4","1","0","0","1","0","1","0","1","0","1","0","1","1","1","1","5","2","4","1","5","4","4","5","5","4","631127599740878848","刘","225","","","","","","","","","","","","","","","","","","","true","4","4","ability","2411","self","本人的","","","","","","","","","","","","","","",""
"null","","null","html-keyboard-response","182","194695","0.0-6.0-0.0-8.0-0.37","3","4","4","3","4","3","4","2","4","4","5","4","5","4","4","4","5","4","4","4","4","5","4","4","2","3","4","5","4","1","0","0","1","0","1","0","1","0","1","0","1","1","1","1","5","2","4","1","5","4","4","5","5","4","631127599740878848","刘","225","","","","","","","","","","","","","","","","","","","","","","","","","","","","","","","","","","","","","","","",""
"643","<p style=""color:white; font-size: 35px;"">能干</p>","e","categorize-html","183","195345","0.0-6.0-0.0-8.0-1.37","3","4","4","3","4","3","4","2","4","4","5","4","5","4","4","4","5","4","4","4","4","5","4","4","2","3","4","5","4","1","0","0","1","0","1","0","1","0","1","0","1","1","1","1","5","2","4","1","5","4","4","5","5","4","631127599740878848","刘","225","","","","","","","","","","","","","","","","","","","true","4","4","ability","643","positive","能干","","","","","","","","","","","","","","",""
"null","","null","html-keyboard-response","184","195600","0.0-6.0-0.0-8.0-0.38","3","4","4","3","4","3","4","2","4","4","5","4","5","4","4","4","5","4","4","4","4","5","4","4","2","3","4","5","4","1","0","0","1","0","1","0","1","0","1","0","1","1","1","1","5","2","4","1","5","4","4","5","5","4","631127599740878848","刘","225","","","","","","","","","","","","","","","","","","","","","","","","","","","","","","","","","","","","","","","",""
"744","<p style=""color:rgb(150, 250, 100); font-size: 35px;"">他人的</p>","e","categorize-html","185","196353","0.0-6.0-0.0-8.0-1.38","3","4","4","3","4","3","4","2","4","4","5","4","5","4","4","4","5","4","4","4","4","5","4","4","2","3","4","5","4","1","0","0","1","0","1","0","1","0","1","0","1","1","1","1","5","2","4","1","5","4","4","5","5","4","631127599740878848","刘","225","","","","","","","","","","","","","","","","","","","true","4","4","ability","744","other","他人的","","","","","","","","","","","","","","",""
"null","","null","html-keyboard-response","186","196605","0.0-6.0-0.0-8.0-0.39","3","4","4","3","4","3","4","2","4","4","5","4","5","4","4","4","5","4","4","4","4","5","4","4","2","3","4","5","4","1","0","0","1","0","1","0","1","0","1","0","1","1","1","1","5","2","4","1","5","4","4","5","5","4","631127599740878848","刘","225","","","","","","","","","","","","","","","","","","","","","","","","","","","","","","","","","","","","","","","",""
"580","<p style=""color:white; font-size: 35px;"">低能</p>","i","categorize-html","187","197193","0.0-6.0-0.0-8.0-1.39","3","4","4","3","4","3","4","2","4","4","5","4","5","4","4","4","5","4","4","4","4","5","4","4","2","3","4","5","4","1","0","0","1","0","1","0","1","0","1","0","1","1","1","1","5","2","4","1","5","4","4","5","5","4","631127599740878848","刘","225","","","","","","","","","","","","","","","","","","","true","4","4","ability","580","negative","低能","","","","","","","","","","","","","","",""
"null","","null","html-keyboard-response","188","197446","0.0-6.0-0.0-8.0-0.40","3","4","4","3","4","3","4","2","4","4","5","4","5","4","4","4","5","4","4","4","4","5","4","4","2","3","4","5","4","1","0","0","1","0","1","0","1","0","1","0","1","1","1","1","5","2","4","1","5","4","4","5","5","4","631127599740878848","刘","225","","","","","","","","","","","","","","","","","","","","","","","","","","","","","","","","","","","","","","","",""
"676","<p style=""color:rgb(150, 250, 100); font-size: 35px;"">我</p>","i","categorize-html","189","198130","0.0-6.0-0.0-8.0-1.40","3","4","4","3","4","3","4","2","4","4","5","4","5","4","4","4","5","4","4","4","4","5","4","4","2","3","4","5","4","1","0","0","1","0","1","0","1","0","1","0","1","1","1","1","5","2","4","1","5","4","4","5","5","4","631127599740878848","刘","225","","","","","","","","","","","","","","","","","","","true","4","4","ability","676","self","我","","","","","","","","","","","","","","",""
"null","","null","html-keyboard-response","190","198383","0.0-6.0-0.0-8.0-0.41","3","4","4","3","4","3","4","2","4","4","5","4","5","4","4","4","5","4","4","4","4","5","4","4","2","3","4","5","4","1","0","0","1","0","1","0","1","0","1","0","1","1","1","1","5","2","4","1","5","4","4","5","5","4","631127599740878848","刘","225","","","","","","","","","","","","","","","","","","","","","","","","","","","","","","","","","","","","","","","",""
"1216","<p style=""color:white; font-size: 35px;"">全才</p>","e","categorize-html","191","199606","0.0-6.0-0.0-8.0-1.41","3","4","4","3","4","3","4","2","4","4","5","4","5","4","4","4","5","4","4","4","4","5","4","4","2","3","4","5","4","1","0","0","1","0","1","0","1","0","1","0","1","1","1","1","5","2","4","1","5","4","4","5","5","4","631127599740878848","刘","225","","","","","","","","","","","","","","","","","","","true","4","4","ability","1216","positive","全才","","","","","","","","","","","","","","",""
"null","","null","html-keyboard-response","192","199868","0.0-6.0-0.0-8.0-0.42","3","4","4","3","4","3","4","2","4","4","5","4","5","4","4","4","5","4","4","4","4","5","4","4","2","3","4","5","4","1","0","0","1","0","1","0","1","0","1","0","1","1","1","1","5","2","4","1","5","4","4","5","5","4","631127599740878848","刘","225","","","","","","","","","","","","","","","","","","","","","","","","","","","","","","","","","","","","","","","",""
"709","<p style=""color:rgb(150, 250, 100); font-size: 35px;"">他的</p>","e","categorize-html","193","200586","0.0-6.0-0.0-8.0-1.42","3","4","4","3","4","3","4","2","4","4","5","4","5","4","4","4","5","4","4","4","4","5","4","4","2","3","4","5","4","1","0","0","1","0","1","0","1","0","1","0","1","1","1","1","5","2","4","1","5","4","4","5","5","4","631127599740878848","刘","225","","","","","","","","","","","","","","","","","","","true","4","4","ability","709","other","他的","","","","","","","","","","","","","","",""
"null","","null","html-keyboard-response","194","200839","0.0-6.0-0.0-8.0-0.43","3","4","4","3","4","3","4","2","4","4","5","4","5","4","4","4","5","4","4","4","4","5","4","4","2","3","4","5","4","1","0","0","1","0","1","0","1","0","1","0","1","1","1","1","5","2","4","1","5","4","4","5","5","4","631127599740878848","刘","225","","","","","","","","","","","","","","","","","","","","","","","","","","","","","","","","","","","","","","","",""
"690","<p style=""color:white; font-size: 35px;"">无能</p>","i","categorize-html","195","201535","0.0-6.0-0.0-8.0-1.43","3","4","4","3","4","3","4","2","4","4","5","4","5","4","4","4","5","4","4","4","4","5","4","4","2","3","4","5","4","1","0","0","1","0","1","0","1","0","1","0","1","1","1","1","5","2","4","1","5","4","4","5","5","4","631127599740878848","刘","225","","","","","","","","","","","","","","","","","","","true","4","4","ability","690","negative","无能","","","","","","","","","","","","","","",""
"null","","null","html-keyboard-response","196","201786","0.0-6.0-0.0-8.0-0.44","3","4","4","3","4","3","4","2","4","4","5","4","5","4","4","4","5","4","4","4","4","5","4","4","2","3","4","5","4","1","0","0","1","0","1","0","1","0","1","0","1","1","1","1","5","2","4","1","5","4","4","5","5","4","631127599740878848","刘","225","","","","","","","","","","","","","","","","","","","","","","","","","","","","","","","","","","","","","","","",""
