"rt","stimulus","response","trial_type","trial_index","time_elapsed","internal_node_id","ses_1","ses_2","ses_3","ses_4","ses_5","ses_6","ses_7","ses_8","ses_9","ses_10","coreself_1","coreself_2","coreself_3","coreself_4","coreself_5","coreself_6","coreself_7","coreself_8","coreself_9","coreself_10","SGPS_1","SGPS_2","SGPS_3","SGPS_4","SGPS_5","SGPS_6","SGPS_7","SGPS_8","SGPS_9","NPI1","NPI2","NPI3","NPI4","NPI5","NPI6","NPI7","NPI8","NPI9","NPI10","NPI11","NPI12","NPI13","NPI14","NPI15","hsns_1","hsns_2","hsns_3","hsns_4","hsns_5","trap1","hsns_6","hsns_7","hsns_8","hsns_9","hsns_10","subj_idx","friend_name","ParticipantID","value","success","user_agent","responses","item_order","radio_event_ids","radio_event_times","key_event_times","mouse_event_times","straightlining","zigzagging","honeypot","timeout","failed_images","failed_audio","failed_video","view_history","response_type","key_press","avg_frame_time","center_x","center_y","correct_response","correct","identity","Image","word","condition","task_id","screen_id","time_stamp","version_attrib2","version_target2","IAT","RT","varname","summary","version_attrib","version_target","question_order","correct_answer","trap1_item"
"43843","
   <p><div style = ""color: white;font-size:25px;"">您好，欢迎参加本次实验。</div> </p>
   <p><div style = ""color: white;font-size:25px;"">为充分保障您的权利，请确保您已经知晓并同意《参与实验同意书》以及《数据公开知情同意书》。</div></p>
   <p><div style = ""color: white;font-size:25px;"">如果您未见过上述内容，请咨询实验员。</div></p>
   <p><div style = ""color: white;font-size:25px;"">如果您选择继续实验，则表示您已经清楚两份知情同意书的内容并同意。</div></p>
   <p><div style = ""color: pink;font-size:30px;"">请确保您记得day0的实验编号，您将在本次实验输入该编号，若您忘记，请咨询实验员后作答。</div></p>
   <p><div style = ""color: lightblue;font-size:25px;"">请您尽可能认真地作答，我们将依据您在各问卷和按键任务中的作答质量发放报酬。</div></p>
   <p> <div style = ""color: green;font-size:25px;""><按空格键至下页></div> </p>
   "," ","html-keyboard-response","0","43846","0.0-0.0","3","3","4","3","2","3","3","4","4","4","4","5","5","4","4","4","4","4","4","5","2","1","2","1","2","2","1","1","1","1","1","1","0","0","1","0","0","0","0","0","0","0","0","1","4","2","2","2","2","1","4","2","1","1","2","690528419074539520","王","189","","","","","","","","","","","","","","","","","","","","","","","","","","","","","","","","","","","","","","","","","",""
"","","","call-function","1","43848","0.0-1.0-0.0","3","3","4","3","2","3","3","4","4","4","4","5","5","4","4","4","4","4","4","5","2","1","2","1","2","2","1","1","1","1","1","1","0","0","1","0","0","0","0","0","0","0","0","1","4","2","2","2","2","1","4","2","1","1","2","690528419074539520","王","189","","","","","","","","","","","","","","","","","","","","","","","","","","","","","","","","","","","","","","","","","",""
"11781","","{""friend_name"":""王"",""ParticipantID"":""189""}","survey-html-form","2","55629","0.0-1.0-1.0","3","3","4","3","2","3","3","4","4","4","4","5","5","4","4","4","4","4","4","5","2","1","2","1","2","2","1","1","1","1","1","1","0","0","1","0","0","0","0","0","0","0","0","1","4","2","2","2","2","1","4","2","1","1","2","690528419074539520","王","189","","","","","","","","","","","","","","","","","","","","","","","","","","","","","","","","","","","","","","","","","",""
"","","","fullscreen","3","64560","0.0-2.0","3","3","4","3","2","3","3","4","4","4","4","5","5","4","4","4","4","4","4","5","2","1","2","1","2","2","1","1","1","1","1","1","0","0","1","0","0","0","0","0","0","0","0","1","4","2","2","2","2","1","4","2","1","1","2","690528419074539520","王","189","","true","{}","","","","","","","","","","","","","","","","","","","","","","","","","","","","","","","","","","","","","","",""
"25563.29999999999","","{""Q01"":""3"",""Q02"":""3"",""Q03"":""4"",""Q04"":""3"",""Q05"":""2"",""Q06"":""3"",""Q07"":""3"",""Q08"":""4"",""Q09"":""4"",""Q10"":""4""}","survey-template","4","90126","0.0-3.0","3","3","4","3","2","3","3","4","4","4","4","5","5","4","4","4","4","4","4","5","2","1","2","1","2","2","1","1","1","1","1","1","0","0","1","0","0","0","0","0","0","0","0","1","4","2","2","2","2","1","4","2","1","1","2","690528419074539520","王","189","","","","{""Q01"":""3"",""Q02"":""3"",""Q03"":""4"",""Q04"":""3"",""Q05"":""2"",""Q06"":""3"",""Q07"":""3"",""Q08"":""4"",""Q09"":""4"",""Q10"":""4""}","[0,1,2,3,4,5,6,7,8,9]","[""Q01"",""Q02"",""Q03"",""Q04"",""Q05"",""Q06"",""Q07"",""Q08"",""Q09"",""Q10""]","[6328.5,8814.199999999953,10571.399999999965,11851.599999999977,13499.599999999977,15216.599999999977,16576.599999999977,20884.099999999977,22080.5,23526.399999999965]","[]","[6328.5,8814.199999999953,10571.399999999965,11851.599999999977,13499.599999999977,15216.599999999977,16576.599999999977,20884.099999999977,22080.5,23526.399999999965,25562.199999999953]","0.6","0","0","","","","","","","","","","","","","","","","","","","","","","","","","","","","","",""
"23651.199999999953","","{""Q01"":""4"",""Q02"":""5"",""Q03"":""5"",""Q04"":""4"",""Q05"":""4"",""Q06"":""4"",""Q07"":""4"",""Q08"":""4"",""Q09"":""4"",""Q10"":""5""}","survey-template","5","113781","0.0-4.0","3","3","4","3","2","3","3","4","4","4","4","5","5","4","4","4","4","4","4","5","2","1","2","1","2","2","1","1","1","1","1","1","0","0","1","0","0","0","0","0","0","0","0","1","4","2","2","2","2","1","4","2","1","1","2","690528419074539520","王","189","","","","{""Q01"":""4"",""Q02"":""5"",""Q03"":""5"",""Q04"":""4"",""Q05"":""4"",""Q06"":""4"",""Q07"":""4"",""Q08"":""4"",""Q09"":""4"",""Q10"":""5""}","[0,1,2,3,4,5,6,7,8,9]","[""Q01"",""Q02"",""Q03"",""Q04"",""Q05"",""Q06"",""Q07"",""Q08"",""Q09"",""Q10""]","[4922.199999999953,7496.399999999965,9246.399999999965,10636.399999999965,13228.099999999977,15398.299999999988,16446.29999999999,18051.5,19956.399999999965,21820.5]","[]","[4922.199999999953,7496.399999999965,9246.399999999965,10636.399999999965,13228.099999999977,15398.299999999988,16446.29999999999,18051.5,19956.399999999965,21820.5,23650.199999999953]","0.4","0","0","","","","","","","","","","","","","","","","","","","","","","","","","","","","","",""
"","","","preload","6","114084","0.0-5.0","3","3","4","3","2","3","3","4","4","4","4","5","5","4","4","4","4","4","4","5","2","1","2","1","2","2","1","1","1","1","1","1","0","0","1","0","0","0","0","0","0","0","0","1","4","2","2","2","2","1","4","2","1","1","2","690528419074539520","王","189","","true","","","","","","","","","","","false","[]","[]","[]","","","","","","","","","","","","","","","","","","","","","","","","","",""
"45648","","","instructions","7","159734","0.0-6.0","3","3","4","3","2","3","3","4","4","4","4","5","5","4","4","4","4","4","4","5","2","1","2","1","2","2","1","1","1","1","1","1","0","0","1","0","0","0","0","0","0","0","0","1","4","2","2","2","2","1","4","2","1","1","2","690528419074539520","王","189","","","","","","","","","","","","","","","","","[{""page_index"":0,""viewing_time"":45648}]","","","","","","","","","","","","","","","","","","","","","","","","",""
"23215","","","instructions","8","182950","0.0-7.0-0.0-0.0","3","3","4","3","2","3","3","4","4","4","4","5","5","4","4","4","4","4","4","5","2","1","2","1","2","2","1","1","1","1","1","1","0","0","1","0","0","0","0","0","0","0","0","1","4","2","2","2","2","1","4","2","1","1","2","690528419074539520","王","189","","","","","","","","","","","","","","","","","[{""page_index"":0,""viewing_time"":15278},{""page_index"":1,""viewing_time"":6108},{""page_index"":2,""viewing_time"":1828}]","","","","","","","","","","","","","","","","","","","","","","","","",""
"null","","null","psychophysics","9","185155","0.0-7.0-0.0-1.0-0.0-0.0","3","3","4","3","2","3","3","4","4","4","4","5","5","4","4","4","4","4","4","5","2","1","2","1","2","2","1","1","1","1","1","1","0","0","1","0","0","0","0","0","0","0","0","1","4","2","2","2","2","1","4","2","1","1","2","690528419074539520","王","189","","","","null","","","","","","","","","","","","","","key","null","16.66335877862591","640","356","j","false","match","img/ellipse.png","椭圆","椭圆","ALT1_1","prac_ALT1_1","","","","","","","","","","","",""
"null","<span class='add_' style='color:yellow; font-size: 70px;'> 太慢! </span>","null","html-keyboard-response","10","185657","0.0-7.0-0.0-1.0-0.0-1.0","3","3","4","3","2","3","3","4","4","4","4","5","5","4","4","4","4","4","4","5","2","1","2","1","2","2","1","1","1","1","1","1","0","0","1","0","0","0","0","0","0","0","0","1","4","2","2","2","2","1","4","2","1","1","2","690528419074539520","王","189","","","","","","","","","","","","","","","","","","","","","","","","","","","","","","feedback_test","","","","","","","","","","","",""
"942","","f","psychophysics","11","187600","0.0-7.0-0.0-1.0-0.0-0.1","3","3","4","3","2","3","3","4","4","4","4","5","5","4","4","4","4","4","4","5","2","1","2","1","2","2","1","1","1","1","1","1","0","0","1","0","0","0","0","0","0","0","0","1","4","2","2","2","2","1","4","2","1","1","2","690528419074539520","王","189","","","","nonmatch","","","","","","","","","","","","","","key","f","16.661206896551825","640","356","f","true","nonmatch","img/trapezoid.png","菱形","梯形","ALT1_1","prac_ALT1_1","","","","","","","","","","","",""
"null","<span style='color:GreenYellow; font-size: 70px;'>正确! </span>","null","html-keyboard-response","12","188102","0.0-7.0-0.0-1.0-0.0-1.1","3","3","4","3","2","3","3","4","4","4","4","5","5","4","4","4","4","4","4","5","2","1","2","1","2","2","1","1","1","1","1","1","0","0","1","0","0","0","0","0","0","0","0","1","4","2","2","2","2","1","4","2","1","1","2","690528419074539520","王","189","","","","","","","","","","","","","","","","","","","","","","","","","","","","","","feedback_test","","","","","","","","","","","",""
"777","","f","psychophysics","13","189890","0.0-7.0-0.0-1.0-0.0-0.2","3","3","4","3","2","3","3","4","4","4","4","5","5","4","4","4","4","4","4","5","2","1","2","1","2","2","1","1","1","1","1","1","0","0","1","0","0","0","0","0","0","0","0","1","4","2","2","2","2","1","4","2","1","1","2","690528419074539520","王","189","","","","nonmatch","","","","","","","","","","","","","","key","f","16.6584905660379","640","356","f","true","nonmatch","img/trapezoid.png","椭圆","梯形","ALT1_1","prac_ALT1_1","","","","","","","","","","","",""
"null","<span style='color:GreenYellow; font-size: 70px;'>正确! </span>","null","html-keyboard-response","14","190391","0.0-7.0-0.0-1.0-0.0-1.2","3","3","4","3","2","3","3","4","4","4","4","5","5","4","4","4","4","4","4","5","2","1","2","1","2","2","1","1","1","1","1","1","0","0","1","0","0","0","0","0","0","0","0","1","4","2","2","2","2","1","4","2","1","1","2","690528419074539520","王","189","","","","","","","","","","","","","","","","","","","","","","","","","","","","","","feedback_test","","","","","","","","","","","",""
"795","","f","psychophysics","15","192188","0.0-7.0-0.0-1.0-0.0-0.3","3","3","4","3","2","3","3","4","4","4","4","5","5","4","4","4","4","4","4","5","2","1","2","1","2","2","1","1","1","1","1","1","0","0","1","0","0","0","0","0","0","0","0","1","4","2","2","2","2","1","4","2","1","1","2","690528419074539520","王","189","","","","nonmatch","","","","","","","","","","","","","","key","f","16.666355140186806","640","356","f","true","nonmatch","img/pentagon.png","椭圆","五边","ALT1_1","prac_ALT1_1","","","","","","","","","","","",""
"null","<span style='color:GreenYellow; font-size: 70px;'>正确! </span>","null","html-keyboard-response","16","192689","0.0-7.0-0.0-1.0-0.0-1.3","3","3","4","3","2","3","3","4","4","4","4","5","5","4","4","4","4","4","4","5","2","1","2","1","2","2","1","1","1","1","1","1","0","0","1","0","0","0","0","0","0","0","0","1","4","2","2","2","2","1","4","2","1","1","2","690528419074539520","王","189","","","","","","","","","","","","","","","","","","","","","","","","","","","","","","feedback_test","","","","","","","","","","","",""
"876","","j","psychophysics","17","194565","0.0-7.0-0.0-1.0-0.0-0.4","3","3","4","3","2","3","3","4","4","4","4","5","5","4","4","4","4","4","4","5","2","1","2","1","2","2","1","1","1","1","1","1","0","0","1","0","0","0","0","0","0","0","0","1","4","2","2","2","2","1","4","2","1","1","2","690528419074539520","王","189","","","","match","","","","","","","","","","","","","","key","j","16.66607142857148","640","356","j","true","match","img/pentagon.png","五边","五边","ALT1_1","prac_ALT1_1","","","","","","","","","","","",""
"null","<span style='color:GreenYellow; font-size: 70px;'>正确! </span>","null","html-keyboard-response","18","195067","0.0-7.0-0.0-1.0-0.0-1.4","3","3","4","3","2","3","3","4","4","4","4","5","5","4","4","4","4","4","4","5","2","1","2","1","2","2","1","1","1","1","1","1","0","0","1","0","0","0","0","0","0","0","0","1","4","2","2","2","2","1","4","2","1","1","2","690528419074539520","王","189","","","","","","","","","","","","","","","","","","","","","","","","","","","","","","feedback_test","","","","","","","","","","","",""
"884","","j","psychophysics","19","196953","0.0-7.0-0.0-1.0-0.0-0.5","3","3","4","3","2","3","3","4","4","4","4","5","5","4","4","4","4","4","4","5","2","1","2","1","2","2","1","1","1","1","1","1","0","0","1","0","0","0","0","0","0","0","0","1","4","2","2","2","2","1","4","2","1","1","2","690528419074539520","王","189","","","","match","","","","","","","","","","","","","","key","j","16.660714285714285","640","356","j","true","match","img/trapezoid.png","梯形","梯形","ALT1_1","prac_ALT1_1","","","","","","","","","","","",""
"null","<span style='color:GreenYellow; font-size: 70px;'>正确! </span>","null","html-keyboard-response","20","197455","0.0-7.0-0.0-1.0-0.0-1.5","3","3","4","3","2","3","3","4","4","4","4","5","5","4","4","4","4","4","4","5","2","1","2","1","2","2","1","1","1","1","1","1","0","0","1","0","0","0","0","0","0","0","0","1","4","2","2","2","2","1","4","2","1","1","2","690528419074539520","王","189","","","","","","","","","","","","","","","","","","","","","","","","","","","","","","feedback_test","","","","","","","","","","","",""
"711","","j","psychophysics","21","199167","0.0-7.0-0.0-1.0-0.0-0.6","3","3","4","3","2","3","3","4","4","4","4","5","5","4","4","4","4","4","4","5","2","1","2","1","2","2","1","1","1","1","1","1","0","0","1","0","0","0","0","0","0","0","0","1","4","2","2","2","2","1","4","2","1","1","2","690528419074539520","王","189","","","","match","","","","","","","","","","","","","","key","j","16.667647058823587","640","356","j","true","match","img/trapezoid.png","梯形","梯形","ALT1_1","prac_ALT1_1","","","","","","","","","","","",""
"null","<span style='color:GreenYellow; font-size: 70px;'>正确! </span>","null","html-keyboard-response","22","199669","0.0-7.0-0.0-1.0-0.0-1.6","3","3","4","3","2","3","3","4","4","4","4","5","5","4","4","4","4","4","4","5","2","1","2","1","2","2","1","1","1","1","1","1","0","0","1","0","0","0","0","0","0","0","0","1","4","2","2","2","2","1","4","2","1","1","2","690528419074539520","王","189","","","","","","","","","","","","","","","","","","","","","","","","","","","","","","feedback_test","","","","","","","","","","","",""
"698","","j","psychophysics","23","201367","0.0-7.0-0.0-1.0-0.0-0.7","3","3","4","3","2","3","3","4","4","4","4","5","5","4","4","4","4","4","4","5","2","1","2","1","2","2","1","1","1","1","1","1","0","0","1","0","0","0","0","0","0","0","0","1","4","2","2","2","2","1","4","2","1","1","2","690528419074539520","王","189","","","","match","","","","","","","","","","","","","","key","j","16.664356435643334","640","356","j","true","match","img/trapezoid.png","梯形","梯形","ALT1_1","prac_ALT1_1","","","","","","","","","","","",""
"null","<span style='color:GreenYellow; font-size: 70px;'>正确! </span>","null","html-keyboard-response","24","201868","0.0-7.0-0.0-1.0-0.0-1.7","3","3","4","3","2","3","3","4","4","4","4","5","5","4","4","4","4","4","4","5","2","1","2","1","2","2","1","1","1","1","1","1","0","0","1","0","0","0","0","0","0","0","0","1","4","2","2","2","2","1","4","2","1","1","2","690528419074539520","王","189","","","","","","","","","","","","","","","","","","","","","","","","","","","","","","feedback_test","","","","","","","","","","","",""
"null","","null","psychophysics","25","204071","0.0-7.0-0.0-1.0-0.0-0.8","3","3","4","3","2","3","3","4","4","4","4","5","5","4","4","4","4","4","4","5","2","1","2","1","2","2","1","1","1","1","1","1","0","0","1","0","0","0","0","0","0","0","0","1","4","2","2","2","2","1","4","2","1","1","2","690528419074539520","王","189","","","","null","","","","","","","","","","","","","","key","null","16.66412213740458","640","356","j","false","match","img/diamond.png","菱形","菱形","ALT1_1","prac_ALT1_1","","","","","","","","","","","",""
"null","<span class='add_' style='color:yellow; font-size: 70px;'> 太慢! </span>","null","html-keyboard-response","26","204572","0.0-7.0-0.0-1.0-0.0-1.8","3","3","4","3","2","3","3","4","4","4","4","5","5","4","4","4","4","4","4","5","2","1","2","1","2","2","1","1","1","1","1","1","0","0","1","0","0","0","0","0","0","0","0","1","4","2","2","2","2","1","4","2","1","1","2","690528419074539520","王","189","","","","","","","","","","","","","","","","","","","","","","","","","","","","","","feedback_test","","","","","","","","","","","",""
"720","","f","psychophysics","27","206293","0.0-7.0-0.0-1.0-0.0-0.9","3","3","4","3","2","3","3","4","4","4","4","5","5","4","4","4","4","4","4","5","2","1","2","1","2","2","1","1","1","1","1","1","0","0","1","0","0","0","0","0","0","0","0","1","4","2","2","2","2","1","4","2","1","1","2","690528419074539520","王","189","","","","nonmatch","","","","","","","","","","","","","","key","f","16.666019417475784","640","356","f","true","nonmatch","img/ellipse.png","菱形","椭圆","ALT1_1","prac_ALT1_1","","","","","","","","","","","",""
"null","<span style='color:GreenYellow; font-size: 70px;'>正确! </span>","null","html-keyboard-response","28","206794","0.0-7.0-0.0-1.0-0.0-1.9","3","3","4","3","2","3","3","4","4","4","4","5","5","4","4","4","4","4","4","5","2","1","2","1","2","2","1","1","1","1","1","1","0","0","1","0","0","0","0","0","0","0","0","1","4","2","2","2","2","1","4","2","1","1","2","690528419074539520","王","189","","","","","","","","","","","","","","","","","","","","","","","","","","","","","","feedback_test","","","","","","","","","","","",""
"744","","f","psychophysics","29","208540","0.0-7.0-0.0-1.0-0.0-0.10","3","3","4","3","2","3","3","4","4","4","4","5","5","4","4","4","4","4","4","5","2","1","2","1","2","2","1","1","1","1","1","1","0","0","1","0","0","0","0","0","0","0","0","1","4","2","2","2","2","1","4","2","1","1","2","690528419074539520","王","189","","","","nonmatch","","","","","","","","","","","","","","key","f","16.65922330097082","640","356","f","true","nonmatch","img/ellipse.png","梯形","椭圆","ALT1_1","prac_ALT1_1","","","","","","","","","","","",""
"null","<span style='color:GreenYellow; font-size: 70px;'>正确! </span>","null","html-keyboard-response","30","209041","0.0-7.0-0.0-1.0-0.0-1.10","3","3","4","3","2","3","3","4","4","4","4","5","5","4","4","4","4","4","4","5","2","1","2","1","2","2","1","1","1","1","1","1","0","0","1","0","0","0","0","0","0","0","0","1","4","2","2","2","2","1","4","2","1","1","2","690528419074539520","王","189","","","","","","","","","","","","","","","","","","","","","","","","","","","","","","feedback_test","","","","","","","","","","","",""
"663","","f","psychophysics","31","210706","0.0-7.0-0.0-1.0-0.0-0.11","3","3","4","3","2","3","3","4","4","4","4","5","5","4","4","4","4","4","4","5","2","1","2","1","2","2","1","1","1","1","1","1","0","0","1","0","0","0","0","0","0","0","0","1","4","2","2","2","2","1","4","2","1","1","2","690528419074539520","王","189","","","","nonmatch","","","","","","","","","","","","","","key","f","16.662244897959123","640","356","f","true","nonmatch","img/pentagon.png","梯形","五边","ALT1_1","prac_ALT1_1","","","","","","","","","","","",""
"null","<span style='color:GreenYellow; font-size: 70px;'>正确! </span>","null","html-keyboard-response","32","211207","0.0-7.0-0.0-1.0-0.0-1.11","3","3","4","3","2","3","3","4","4","4","4","5","5","4","4","4","4","4","4","5","2","1","2","1","2","2","1","1","1","1","1","1","0","0","1","0","0","0","0","0","0","0","0","1","4","2","2","2","2","1","4","2","1","1","2","690528419074539520","王","189","","","","","","","","","","","","","","","","","","","","","","","","","","","","","","feedback_test","","","","","","","","","","","",""
"857","","j","psychophysics","33","213065","0.0-7.0-0.0-1.0-0.0-0.12","3","3","4","3","2","3","3","4","4","4","4","5","5","4","4","4","4","4","4","5","2","1","2","1","2","2","1","1","1","1","1","1","0","0","1","0","0","0","0","0","0","0","0","1","4","2","2","2","2","1","4","2","1","1","2","690528419074539520","王","189","","","","match","","","","","","","","","","","","","","key","j","16.663636363636364","640","356","j","true","match","img/ellipse.png","椭圆","椭圆","ALT1_1","prac_ALT1_1","","","","","","","","","","","",""
"null","<span style='color:GreenYellow; font-size: 70px;'>正确! </span>","null","html-keyboard-response","34","213567","0.0-7.0-0.0-1.0-0.0-1.12","3","3","4","3","2","3","3","4","4","4","4","5","5","4","4","4","4","4","4","5","2","1","2","1","2","2","1","1","1","1","1","1","0","0","1","0","0","0","0","0","0","0","0","1","4","2","2","2","2","1","4","2","1","1","2","690528419074539520","王","189","","","","","","","","","","","","","","","","","","","","","","","","","","","","","","feedback_test","","","","","","","","","","","",""
"903","","j","psychophysics","35","215471","0.0-7.0-0.0-1.0-0.0-0.13","3","3","4","3","2","3","3","4","4","4","4","5","5","4","4","4","4","4","4","5","2","1","2","1","2","2","1","1","1","1","1","1","0","0","1","0","0","0","0","0","0","0","0","1","4","2","2","2","2","1","4","2","1","1","2","690528419074539520","王","189","","","","match","","","","","","","","","","","","","","key","j","16.666371681415825","640","356","f","false","nonmatch","img/pentagon.png","菱形","五边","ALT1_1","prac_ALT1_1","","","","","","","","","","","",""
"null","<span style='color:red; font-size: 70px;'>错误! </span>","null","html-keyboard-response","36","215972","0.0-7.0-0.0-1.0-0.0-1.13","3","3","4","3","2","3","3","4","4","4","4","5","5","4","4","4","4","4","4","5","2","1","2","1","2","2","1","1","1","1","1","1","0","0","1","0","0","0","0","0","0","0","0","1","4","2","2","2","2","1","4","2","1","1","2","690528419074539520","王","189","","","","","","","","","","","","","","","","","","","","","","","","","","","","","","feedback_test","","","","","","","","","","","",""
"1074","","j","psychophysics","37","218047","0.0-7.0-0.0-1.0-0.0-0.14","3","3","4","3","2","3","3","4","4","4","4","5","5","4","4","4","4","4","4","5","2","1","2","1","2","2","1","1","1","1","1","1","0","0","1","0","0","0","0","0","0","0","0","1","4","2","2","2","2","1","4","2","1","1","2","690528419074539520","王","189","","","","match","","","","","","","","","","","","","","key","j","16.660975609756004","640","356","j","true","match","img/diamond.png","菱形","菱形","ALT1_1","prac_ALT1_1","","","","","","","","","","","",""
"null","<span style='color:GreenYellow; font-size: 70px;'>正确! </span>","null","html-keyboard-response","38","218549","0.0-7.0-0.0-1.0-0.0-1.14","3","3","4","3","2","3","3","4","4","4","4","5","5","4","4","4","4","4","4","5","2","1","2","1","2","2","1","1","1","1","1","1","0","0","1","0","0","0","0","0","0","0","0","1","4","2","2","2","2","1","4","2","1","1","2","690528419074539520","王","189","","","","","","","","","","","","","","","","","","","","","","","","","","","","","","feedback_test","","","","","","","","","","","",""
"647","","f","psychophysics","39","220198","0.0-7.0-0.0-1.0-0.0-0.15","3","3","4","3","2","3","3","4","4","4","4","5","5","4","4","4","4","4","4","5","2","1","2","1","2","2","1","1","1","1","1","1","0","0","1","0","0","0","0","0","0","0","0","1","4","2","2","2","2","1","4","2","1","1","2","690528419074539520","王","189","","","","nonmatch","","","","","","","","","","","","","","key","f","16.6653061224491","640","356","f","true","nonmatch","img/ellipse.png","五边","椭圆","ALT1_1","prac_ALT1_1","","","","","","","","","","","",""
"null","<span style='color:GreenYellow; font-size: 70px;'>正确! </span>","null","html-keyboard-response","40","220699","0.0-7.0-0.0-1.0-0.0-1.15","3","3","4","3","2","3","3","4","4","4","4","5","5","4","4","4","4","4","4","5","2","1","2","1","2","2","1","1","1","1","1","1","0","0","1","0","0","0","0","0","0","0","0","1","4","2","2","2","2","1","4","2","1","1","2","690528419074539520","王","189","","","","","","","","","","","","","","","","","","","","","","","","","","","","","","feedback_test","","","","","","","","","","","",""
"802","","f","psychophysics","41","222503","0.0-7.0-0.0-1.0-0.0-0.16","3","3","4","3","2","3","3","4","4","4","4","5","5","4","4","4","4","4","4","5","2","1","2","1","2","2","1","1","1","1","1","1","0","0","1","0","0","0","0","0","0","0","0","1","4","2","2","2","2","1","4","2","1","1","2","690528419074539520","王","189","","","","nonmatch","","","","","","","","","","","","","","key","f","16.661111111111058","640","356","j","false","match","img/pentagon.png","五边","五边","ALT1_1","prac_ALT1_1","","","","","","","","","","","",""
"null","<span style='color:red; font-size: 70px;'>错误! </span>","null","html-keyboard-response","42","223005","0.0-7.0-0.0-1.0-0.0-1.16","3","3","4","3","2","3","3","4","4","4","4","5","5","4","4","4","4","4","4","5","2","1","2","1","2","2","1","1","1","1","1","1","0","0","1","0","0","0","0","0","0","0","0","1","4","2","2","2","2","1","4","2","1","1","2","690528419074539520","王","189","","","","","","","","","","","","","","","","","","","","","","","","","","","","","","feedback_test","","","","","","","","","","","",""
"763","","f","psychophysics","43","224769","0.0-7.0-0.0-1.0-0.0-0.17","3","3","4","3","2","3","3","4","4","4","4","5","5","4","4","4","4","4","4","5","2","1","2","1","2","2","1","1","1","1","1","1","0","0","1","0","0","0","0","0","0","0","0","1","4","2","2","2","2","1","4","2","1","1","2","690528419074539520","王","189","","","","nonmatch","","","","","","","","","","","","","","key","f","16.66571428571423","640","356","f","true","nonmatch","img/diamond.png","五边","菱形","ALT1_1","prac_ALT1_1","","","","","","","","","","","",""
"null","<span style='color:GreenYellow; font-size: 70px;'>正确! </span>","null","html-keyboard-response","44","225270","0.0-7.0-0.0-1.0-0.0-1.17","3","3","4","3","2","3","3","4","4","4","4","5","5","4","4","4","4","4","4","5","2","1","2","1","2","2","1","1","1","1","1","1","0","0","1","0","0","0","0","0","0","0","0","1","4","2","2","2","2","1","4","2","1","1","2","690528419074539520","王","189","","","","","","","","","","","","","","","","","","","","","","","","","","","","","","feedback_test","","","","","","","","","","","",""
"701","","j","psychophysics","45","226971","0.0-7.0-0.0-1.0-0.0-0.18","3","3","4","3","2","3","3","4","4","4","4","5","5","4","4","4","4","4","4","5","2","1","2","1","2","2","1","1","1","1","1","1","0","0","1","0","0","0","0","0","0","0","0","1","4","2","2","2","2","1","4","2","1","1","2","690528419074539520","王","189","","","","match","","","","","","","","","","","","","","key","j","16.6574257425742","640","356","j","true","match","img/diamond.png","菱形","菱形","ALT1_1","prac_ALT1_1","","","","","","","","","","","",""
"null","<span style='color:GreenYellow; font-size: 70px;'>正确! </span>","null","html-keyboard-response","46","227472","0.0-7.0-0.0-1.0-0.0-1.18","3","3","4","3","2","3","3","4","4","4","4","5","5","4","4","4","4","4","4","5","2","1","2","1","2","2","1","1","1","1","1","1","0","0","1","0","0","0","0","0","0","0","0","1","4","2","2","2","2","1","4","2","1","1","2","690528419074539520","王","189","","","","","","","","","","","","","","","","","","","","","","","","","","","","","","feedback_test","","","","","","","","","","","",""
"788","","j","psychophysics","47","229262","0.0-7.0-0.0-1.0-0.0-0.19","3","3","4","3","2","3","3","4","4","4","4","5","5","4","4","4","4","4","4","5","2","1","2","1","2","2","1","1","1","1","1","1","0","0","1","0","0","0","0","0","0","0","0","1","4","2","2","2","2","1","4","2","1","1","2","690528419074539520","王","189","","","","match","","","","","","","","","","","","","","key","j","16.660377358490567","640","356","j","true","match","img/pentagon.png","五边","五边","ALT1_1","prac_ALT1_1","","","","","","","","","","","",""
"null","<span style='color:GreenYellow; font-size: 70px;'>正确! </span>","null","html-keyboard-response","48","229764","0.0-7.0-0.0-1.0-0.0-1.19","3","3","4","3","2","3","3","4","4","4","4","5","5","4","4","4","4","4","4","5","2","1","2","1","2","2","1","1","1","1","1","1","0","0","1","0","0","0","0","0","0","0","0","1","4","2","2","2","2","1","4","2","1","1","2","690528419074539520","王","189","","","","","","","","","","","","","","","","","","","","","","","","","","","","","","feedback_test","","","","","","","","","","","",""
"631","","j","psychophysics","49","231397","0.0-7.0-0.0-1.0-0.0-0.20","3","3","4","3","2","3","3","4","4","4","4","5","5","4","4","4","4","4","4","5","2","1","2","1","2","2","1","1","1","1","1","1","0","0","1","0","0","0","0","0","0","0","0","1","4","2","2","2","2","1","4","2","1","1","2","690528419074539520","王","189","","","","match","","","","","","","","","","","","","","key","j","16.662886597938023","640","356","f","false","nonmatch","img/trapezoid.png","五边","梯形","ALT1_1","prac_ALT1_1","","","","","","","","","","","",""
"null","<span style='color:red; font-size: 70px;'>错误! </span>","null","html-keyboard-response","50","231898","0.0-7.0-0.0-1.0-0.0-1.20","3","3","4","3","2","3","3","4","4","4","4","5","5","4","4","4","4","4","4","5","2","1","2","1","2","2","1","1","1","1","1","1","0","0","1","0","0","0","0","0","0","0","0","1","4","2","2","2","2","1","4","2","1","1","2","690528419074539520","王","189","","","","","","","","","","","","","","","","","","","","","","","","","","","","","","feedback_test","","","","","","","","","","","",""
"819","","j","psychophysics","51","233719","0.0-7.0-0.0-1.0-0.0-0.21","3","3","4","3","2","3","3","4","4","4","4","5","5","4","4","4","4","4","4","5","2","1","2","1","2","2","1","1","1","1","1","1","0","0","1","0","0","0","0","0","0","0","0","1","4","2","2","2","2","1","4","2","1","1","2","690528419074539520","王","189","","","","match","","","","","","","","","","","","","","key","j","16.661111111111058","640","356","j","true","match","img/ellipse.png","椭圆","椭圆","ALT1_1","prac_ALT1_1","","","","","","","","","","","",""
"null","<span style='color:GreenYellow; font-size: 70px;'>正确! </span>","null","html-keyboard-response","52","234220","0.0-7.0-0.0-1.0-0.0-1.21","3","3","4","3","2","3","3","4","4","4","4","5","5","4","4","4","4","4","4","5","2","1","2","1","2","2","1","1","1","1","1","1","0","0","1","0","0","0","0","0","0","0","0","1","4","2","2","2","2","1","4","2","1","1","2","690528419074539520","王","189","","","","","","","","","","","","","","","","","","","","","","","","","","","","","","feedback_test","","","","","","","","","","","",""
"872","","j","psychophysics","53","236093","0.0-7.0-0.0-1.0-0.0-0.22","3","3","4","3","2","3","3","4","4","4","4","5","5","4","4","4","4","4","4","5","2","1","2","1","2","2","1","1","1","1","1","1","0","0","1","0","0","0","0","0","0","0","0","1","4","2","2","2","2","1","4","2","1","1","2","690528419074539520","王","189","","","","match","","","","","","","","","","","","","","key","j","16.665765765765713","640","356","f","false","nonmatch","img/diamond.png","梯形","菱形","ALT1_1","prac_ALT1_1","","","","","","","","","","","",""
"null","<span style='color:red; font-size: 70px;'>错误! </span>","null","html-keyboard-response","54","236594","0.0-7.0-0.0-1.0-0.0-1.22","3","3","4","3","2","3","3","4","4","4","4","5","5","4","4","4","4","4","4","5","2","1","2","1","2","2","1","1","1","1","1","1","0","0","1","0","0","0","0","0","0","0","0","1","4","2","2","2","2","1","4","2","1","1","2","690528419074539520","王","189","","","","","","","","","","","","","","","","","","","","","","","","","","","","","","feedback_test","","","","","","","","","","","",""
"733","","f","psychophysics","55","238329","0.0-7.0-0.0-1.0-0.0-0.23","3","3","4","3","2","3","3","4","4","4","4","5","5","4","4","4","4","4","4","5","2","1","2","1","2","2","1","1","1","1","1","1","0","0","1","0","0","0","0","0","0","0","0","1","4","2","2","2","2","1","4","2","1","1","2","690528419074539520","王","189","","","","nonmatch","","","","","","","","","","","","","","key","f","16.66504854368932","640","356","f","true","nonmatch","img/diamond.png","椭圆","菱形","ALT1_1","prac_ALT1_1","","","","","","","","","","","",""
"null","<span style='color:GreenYellow; font-size: 70px;'>正确! </span>","null","html-keyboard-response","56","238830","0.0-7.0-0.0-1.0-0.0-1.23","3","3","4","3","2","3","3","4","4","4","4","5","5","4","4","4","4","4","4","5","2","1","2","1","2","2","1","1","1","1","1","1","0","0","1","0","0","0","0","0","0","0","0","1","4","2","2","2","2","1","4","2","1","1","2","690528419074539520","王","189","","","","","","","","","","","","","","","","","","","","","","","","","","","","","","feedback_test","","","","","","","","","","","",""
"660","","f","psychophysics","57","240491","0.0-7.0-0.0-1.0-0.0-0.24","3","3","4","3","2","3","3","4","4","4","4","5","5","4","4","4","4","4","4","5","2","1","2","1","2","2","1","1","1","1","1","1","0","0","1","0","0","0","0","0","0","0","0","1","4","2","2","2","2","1","4","2","1","1","2","690528419074539520","王","189","","","","nonmatch","","","","","","","","","","","","","","key","f","16.662244897959123","640","356","j","false","match","img/ellipse.png","椭圆","椭圆","ALT1_1","prac_ALT1_1","","","","","","","","","","","",""
"null","<span style='color:red; font-size: 70px;'>错误! </span>","null","html-keyboard-response","58","240994","0.0-7.0-0.0-1.0-0.0-1.24","3","3","4","3","2","3","3","4","4","4","4","5","5","4","4","4","4","4","4","5","2","1","2","1","2","2","1","1","1","1","1","1","0","0","1","0","0","0","0","0","0","0","0","1","4","2","2","2","2","1","4","2","1","1","2","690528419074539520","王","189","","","","","","","","","","","","","","","","","","","","","","","","","","","","","","feedback_test","","","","","","","","","","","",""
"880","","f","psychophysics","59","242875","0.0-7.0-0.0-1.0-0.0-0.25","3","3","4","3","2","3","3","4","4","4","4","5","5","4","4","4","4","4","4","5","2","1","2","1","2","2","1","1","1","1","1","1","0","0","1","0","0","0","0","0","0","0","0","1","4","2","2","2","2","1","4","2","1","1","2","690528419074539520","王","189","","","","nonmatch","","","","","","","","","","","","","","key","f","16.663392857142753","640","356","f","true","nonmatch","img/diamond.png","五边","菱形","ALT1_1","prac_ALT1_1","","","","","","","","","","","",""
"null","<span style='color:GreenYellow; font-size: 70px;'>正确! </span>","null","html-keyboard-response","60","243377","0.0-7.0-0.0-1.0-0.0-1.25","3","3","4","3","2","3","3","4","4","4","4","5","5","4","4","4","4","4","4","5","2","1","2","1","2","2","1","1","1","1","1","1","0","0","1","0","0","0","0","0","0","0","0","1","4","2","2","2","2","1","4","2","1","1","2","690528419074539520","王","189","","","","","","","","","","","","","","","","","","","","","","","","","","","","","","feedback_test","","","","","","","","","","","",""
"912","","j","psychophysics","61","245290","0.0-7.0-0.0-1.0-0.0-0.26","3","3","4","3","2","3","3","4","4","4","4","5","5","4","4","4","4","4","4","5","2","1","2","1","2","2","1","1","1","1","1","1","0","0","1","0","0","0","0","0","0","0","0","1","4","2","2","2","2","1","4","2","1","1","2","690528419074539520","王","189","","","","match","","","","","","","","","","","","","","key","j","16.66578947368416","640","356","j","true","match","img/pentagon.png","五边","五边","ALT1_1","prac_ALT1_1","","","","","","","","","","","",""
"null","<span style='color:GreenYellow; font-size: 70px;'>正确! </span>","null","html-keyboard-response","62","245790","0.0-7.0-0.0-1.0-0.0-1.26","3","3","4","3","2","3","3","4","4","4","4","5","5","4","4","4","4","4","4","5","2","1","2","1","2","2","1","1","1","1","1","1","0","0","1","0","0","0","0","0","0","0","0","1","4","2","2","2","2","1","4","2","1","1","2","690528419074539520","王","189","","","","","","","","","","","","","","","","","","","","","","","","","","","","","","feedback_test","","","","","","","","","","","",""
"1112","","j","psychophysics","63","247904","0.0-7.0-0.0-1.0-0.0-0.27","3","3","4","3","2","3","3","4","4","4","4","5","5","4","4","4","4","4","4","5","2","1","2","1","2","2","1","1","1","1","1","1","0","0","1","0","0","0","0","0","0","0","0","1","4","2","2","2","2","1","4","2","1","1","2","690528419074539520","王","189","","","","match","","","","","","","","","","","","","","key","j","16.664285714285576","640","356","f","false","nonmatch","img/trapezoid.png","菱形","梯形","ALT1_1","prac_ALT1_1","","","","","","","","","","","",""
"null","<span style='color:red; font-size: 70px;'>错误! </span>","null","html-keyboard-response","64","248404","0.0-7.0-0.0-1.0-0.0-1.27","3","3","4","3","2","3","3","4","4","4","4","5","5","4","4","4","4","4","4","5","2","1","2","1","2","2","1","1","1","1","1","1","0","0","1","0","0","0","0","0","0","0","0","1","4","2","2","2","2","1","4","2","1","1","2","690528419074539520","王","189","","","","","","","","","","","","","","","","","","","","","","","","","","","","","","feedback_test","","","","","","","","","","","",""
"682","","j","psychophysics","65","250088","0.0-7.0-0.0-1.0-0.0-0.28","3","3","4","3","2","3","3","4","4","4","4","5","5","4","4","4","4","4","4","5","2","1","2","1","2","2","1","1","1","1","1","1","0","0","1","0","0","0","0","0","0","0","0","1","4","2","2","2","2","1","4","2","1","1","2","690528419074539520","王","189","","","","match","","","","","","","","","","","","","","key","j","16.666000000000057","640","356","f","false","nonmatch","img/ellipse.png","五边","椭圆","ALT1_1","prac_ALT1_1","","","","","","","","","","","",""
"null","<span style='color:red; font-size: 70px;'>错误! </span>","null","html-keyboard-response","66","250589","0.0-7.0-0.0-1.0-0.0-1.28","3","3","4","3","2","3","3","4","4","4","4","5","5","4","4","4","4","4","4","5","2","1","2","1","2","2","1","1","1","1","1","1","0","0","1","0","0","0","0","0","0","0","0","1","4","2","2","2","2","1","4","2","1","1","2","690528419074539520","王","189","","","","","","","","","","","","","","","","","","","","","","","","","","","","","","feedback_test","","","","","","","","","","","",""
"779","","f","psychophysics","67","252369","0.0-7.0-0.0-1.0-0.0-0.29","3","3","4","3","2","3","3","4","4","4","4","5","5","4","4","4","4","4","4","5","2","1","2","1","2","2","1","1","1","1","1","1","0","0","1","0","0","0","0","0","0","0","0","1","4","2","2","2","2","1","4","2","1","1","2","690528419074539520","王","189","","","","nonmatch","","","","","","","","","","","","","","key","f","16.66698113207558","640","356","f","true","nonmatch","img/diamond.png","梯形","菱形","ALT1_1","prac_ALT1_1","","","","","","","","","","","",""
"null","<span style='color:GreenYellow; font-size: 70px;'>正确! </span>","null","html-keyboard-response","68","252869","0.0-7.0-0.0-1.0-0.0-1.29","3","3","4","3","2","3","3","4","4","4","4","5","5","4","4","4","4","4","4","5","2","1","2","1","2","2","1","1","1","1","1","1","0","0","1","0","0","0","0","0","0","0","0","1","4","2","2","2","2","1","4","2","1","1","2","690528419074539520","王","189","","","","","","","","","","","","","","","","","","","","","","","","","","","","","","feedback_test","","","","","","","","","","","",""
"698","","f","psychophysics","69","254570","0.0-7.0-0.0-1.0-0.0-0.30","3","3","4","3","2","3","3","4","4","4","4","5","5","4","4","4","4","4","4","5","2","1","2","1","2","2","1","1","1","1","1","1","0","0","1","0","0","0","0","0","0","0","0","1","4","2","2","2","2","1","4","2","1","1","2","690528419074539520","王","189","","","","nonmatch","","","","","","","","","","","","","","key","f","16.66534653465358","640","356","f","true","nonmatch","img/pentagon.png","菱形","五边","ALT1_1","prac_ALT1_1","","","","","","","","","","","",""
"null","<span style='color:GreenYellow; font-size: 70px;'>正确! </span>","null","html-keyboard-response","70","255071","0.0-7.0-0.0-1.0-0.0-1.30","3","3","4","3","2","3","3","4","4","4","4","5","5","4","4","4","4","4","4","5","2","1","2","1","2","2","1","1","1","1","1","1","0","0","1","0","0","0","0","0","0","0","0","1","4","2","2","2","2","1","4","2","1","1","2","690528419074539520","王","189","","","","","","","","","","","","","","","","","","","","","","","","","","","","","","feedback_test","","","","","","","","","","","",""
"571","","f","psychophysics","71","256644","0.0-7.0-0.0-1.0-0.0-0.31","3","3","4","3","2","3","3","4","4","4","4","5","5","4","4","4","4","4","4","5","2","1","2","1","2","2","1","1","1","1","1","1","0","0","1","0","0","0","0","0","0","0","0","1","4","2","2","2","2","1","4","2","1","1","2","690528419074539520","王","189","","","","nonmatch","","","","","","","","","","","","","","key","f","16.661702127659698","640","356","j","false","match","img/pentagon.png","五边","五边","ALT1_1","prac_ALT1_1","","","","","","","","","","","",""
"null","<span style='color:red; font-size: 70px;'>错误! </span>","null","html-keyboard-response","72","257145","0.0-7.0-0.0-1.0-0.0-1.31","3","3","4","3","2","3","3","4","4","4","4","5","5","4","4","4","4","4","4","5","2","1","2","1","2","2","1","1","1","1","1","1","0","0","1","0","0","0","0","0","0","0","0","1","4","2","2","2","2","1","4","2","1","1","2","690528419074539520","王","189","","","","","","","","","","","","","","","","","","","","","","","","","","","","","","feedback_test","","","","","","","","","","","",""
"786","","f","psychophysics","73","258932","0.0-7.0-0.0-1.0-0.0-0.32","3","3","4","3","2","3","3","4","4","4","4","5","5","4","4","4","4","4","4","5","2","1","2","1","2","2","1","1","1","1","1","1","0","0","1","0","0","0","0","0","0","0","0","1","4","2","2","2","2","1","4","2","1","1","2","690528419074539520","王","189","","","","nonmatch","","","","","","","","","","","","","","key","f","16.660377358490567","640","356","f","true","nonmatch","img/ellipse.png","菱形","椭圆","ALT1_1","prac_ALT1_1","","","","","","","","","","","",""
"null","<span style='color:GreenYellow; font-size: 70px;'>正确! </span>","null","html-keyboard-response","74","259432","0.0-7.0-0.0-1.0-0.0-1.32","3","3","4","3","2","3","3","4","4","4","4","5","5","4","4","4","4","4","4","5","2","1","2","1","2","2","1","1","1","1","1","1","0","0","1","0","0","0","0","0","0","0","0","1","4","2","2","2","2","1","4","2","1","1","2","690528419074539520","王","189","","","","","","","","","","","","","","","","","","","","","","","","","","","","","","feedback_test","","","","","","","","","","","",""
"723","","f","psychophysics","75","261156","0.0-7.0-0.0-1.0-0.0-0.33","3","3","4","3","2","3","3","4","4","4","4","5","5","4","4","4","4","4","4","5","2","1","2","1","2","2","1","1","1","1","1","1","0","0","1","0","0","0","0","0","0","0","0","1","4","2","2","2","2","1","4","2","1","1","2","690528419074539520","王","189","","","","nonmatch","","","","","","","","","","","","","","key","f","16.66176470588235","640","356","f","true","nonmatch","img/pentagon.png","梯形","五边","ALT1_1","prac_ALT1_1","","","","","","","","","","","",""
"null","<span style='color:GreenYellow; font-size: 70px;'>正确! </span>","null","html-keyboard-response","76","261659","0.0-7.0-0.0-1.0-0.0-1.33","3","3","4","3","2","3","3","4","4","4","4","5","5","4","4","4","4","4","4","5","2","1","2","1","2","2","1","1","1","1","1","1","0","0","1","0","0","0","0","0","0","0","0","1","4","2","2","2","2","1","4","2","1","1","2","690528419074539520","王","189","","","","","","","","","","","","","","","","","","","","","","","","","","","","","","feedback_test","","","","","","","","","","","",""
"709","","f","psychophysics","77","263368","0.0-7.0-0.0-1.0-0.0-0.34","3","3","4","3","2","3","3","4","4","4","4","5","5","4","4","4","4","4","4","5","2","1","2","1","2","2","1","1","1","1","1","1","0","0","1","0","0","0","0","0","0","0","0","1","4","2","2","2","2","1","4","2","1","1","2","690528419074539520","王","189","","","","nonmatch","","","","","","","","","","","","","","key","f","16.661386138613747","640","356","f","true","nonmatch","img/diamond.png","椭圆","菱形","ALT1_1","prac_ALT1_1","","","","","","","","","","","",""
"null","<span style='color:GreenYellow; font-size: 70px;'>正确! </span>","null","html-keyboard-response","78","263869","0.0-7.0-0.0-1.0-0.0-1.34","3","3","4","3","2","3","3","4","4","4","4","5","5","4","4","4","4","4","4","5","2","1","2","1","2","2","1","1","1","1","1","1","0","0","1","0","0","0","0","0","0","0","0","1","4","2","2","2","2","1","4","2","1","1","2","690528419074539520","王","189","","","","","","","","","","","","","","","","","","","","","","","","","","","","","","feedback_test","","","","","","","","","","","",""
"811","","j","psychophysics","79","265681","0.0-7.0-0.0-1.0-0.0-0.35","3","3","4","3","2","3","3","4","4","4","4","5","5","4","4","4","4","4","4","5","2","1","2","1","2","2","1","1","1","1","1","1","0","0","1","0","0","0","0","0","0","0","0","1","4","2","2","2","2","1","4","2","1","1","2","690528419074539520","王","189","","","","match","","","","","","","","","","","","","","key","j","16.662037037037038","640","356","j","true","match","img/trapezoid.png","梯形","梯形","ALT1_1","prac_ALT1_1","","","","","","","","","","","",""
"null","<span style='color:GreenYellow; font-size: 70px;'>正确! </span>","null","html-keyboard-response","80","266182","0.0-7.0-0.0-1.0-0.0-1.35","3","3","4","3","2","3","3","4","4","4","4","5","5","4","4","4","4","4","4","5","2","1","2","1","2","2","1","1","1","1","1","1","0","0","1","0","0","0","0","0","0","0","0","1","4","2","2","2","2","1","4","2","1","1","2","690528419074539520","王","189","","","","","","","","","","","","","","","","","","","","","","","","","","","","","","feedback_test","","","","","","","","","","","",""
"610","","f","psychophysics","81","267794","0.0-7.0-0.0-1.0-0.0-0.36","3","3","4","3","2","3","3","4","4","4","4","5","5","4","4","4","4","4","4","5","2","1","2","1","2","2","1","1","1","1","1","1","0","0","1","0","0","0","0","0","0","0","0","1","4","2","2","2","2","1","4","2","1","1","2","690528419074539520","王","189","","","","nonmatch","","","","","","","","","","","","","","key","f","16.662499999999756","640","356","f","true","nonmatch","img/pentagon.png","椭圆","五边","ALT1_1","prac_ALT1_1","","","","","","","","","","","",""
"null","<span style='color:GreenYellow; font-size: 70px;'>正确! </span>","null","html-keyboard-response","82","268297","0.0-7.0-0.0-1.0-0.0-1.36","3","3","4","3","2","3","3","4","4","4","4","5","5","4","4","4","4","4","4","5","2","1","2","1","2","2","1","1","1","1","1","1","0","0","1","0","0","0","0","0","0","0","0","1","4","2","2","2","2","1","4","2","1","1","2","690528419074539520","王","189","","","","","","","","","","","","","","","","","","","","","","","","","","","","","","feedback_test","","","","","","","","","","","",""
"640","","j","psychophysics","83","269939","0.0-7.0-0.0-1.0-0.0-0.37","3","3","4","3","2","3","3","4","4","4","4","5","5","4","4","4","4","4","4","5","2","1","2","1","2","2","1","1","1","1","1","1","0","0","1","0","0","0","0","0","0","0","0","1","4","2","2","2","2","1","4","2","1","1","2","690528419074539520","王","189","","","","match","","","","","","","","","","","","","","key","j","16.6612244897958","640","356","j","true","match","img/diamond.png","菱形","菱形","ALT1_1","prac_ALT1_1","","","","","","","","","","","",""
"null","<span style='color:GreenYellow; font-size: 70px;'>正确! </span>","null","html-keyboard-response","84","270440","0.0-7.0-0.0-1.0-0.0-1.37","3","3","4","3","2","3","3","4","4","4","4","5","5","4","4","4","4","4","4","5","2","1","2","1","2","2","1","1","1","1","1","1","0","0","1","0","0","0","0","0","0","0","0","1","4","2","2","2","2","1","4","2","1","1","2","690528419074539520","王","189","","","","","","","","","","","","","","","","","","","","","","","","","","","","","","feedback_test","","","","","","","","","","","",""
"640","","f","psychophysics","85","272082","0.0-7.0-0.0-1.0-0.0-0.38","3","3","4","3","2","3","3","4","4","4","4","5","5","4","4","4","4","4","4","5","2","1","2","1","2","2","1","1","1","1","1","1","0","0","1","0","0","0","0","0","0","0","0","1","4","2","2","2","2","1","4","2","1","1","2","690528419074539520","王","189","","","","nonmatch","","","","","","","","","","","","","","key","f","16.66701030927847","640","356","f","true","nonmatch","img/trapezoid.png","椭圆","梯形","ALT1_1","prac_ALT1_1","","","","","","","","","","","",""
"null","<span style='color:GreenYellow; font-size: 70px;'>正确! </span>","null","html-keyboard-response","86","272589","0.0-7.0-0.0-1.0-0.0-1.38","3","3","4","3","2","3","3","4","4","4","4","5","5","4","4","4","4","4","4","5","2","1","2","1","2","2","1","1","1","1","1","1","0","0","1","0","0","0","0","0","0","0","0","1","4","2","2","2","2","1","4","2","1","1","2","690528419074539520","王","189","","","","","","","","","","","","","","","","","","","","","","","","","","","","","","feedback_test","","","","","","","","","","","",""
"647","","f","psychophysics","87","274238","0.0-7.0-0.0-1.0-0.0-0.39","3","3","4","3","2","3","3","4","4","4","4","5","5","4","4","4","4","4","4","5","2","1","2","1","2","2","1","1","1","1","1","1","0","0","1","0","0","0","0","0","0","0","0","1","4","2","2","2","2","1","4","2","1","1","2","690528419074539520","王","189","","","","nonmatch","","","","","","","","","","","","","","key","f","16.66224489795883","640","356","j","false","match","img/diamond.png","菱形","菱形","ALT1_1","prac_ALT1_1","","","","","","","","","","","",""
"null","<span style='color:red; font-size: 70px;'>错误! </span>","null","html-keyboard-response","88","274739","0.0-7.0-0.0-1.0-0.0-1.39","3","3","4","3","2","3","3","4","4","4","4","5","5","4","4","4","4","4","4","5","2","1","2","1","2","2","1","1","1","1","1","1","0","0","1","0","0","0","0","0","0","0","0","1","4","2","2","2","2","1","4","2","1","1","2","690528419074539520","王","189","","","","","","","","","","","","","","","","","","","","","","","","","","","","","","feedback_test","","","","","","","","","","","",""
"780","","j","psychophysics","89","276521","0.0-7.0-0.0-1.0-0.0-0.40","3","3","4","3","2","3","3","4","4","4","4","5","5","4","4","4","4","4","4","5","2","1","2","1","2","2","1","1","1","1","1","1","0","0","1","0","0","0","0","0","0","0","0","1","4","2","2","2","2","1","4","2","1","1","2","690528419074539520","王","189","","","","match","","","","","","","","","","","","","","key","j","16.6632075471697","640","356","j","true","match","img/ellipse.png","椭圆","椭圆","ALT1_1","prac_ALT1_1","","","","","","","","","","","",""
"null","<span style='color:GreenYellow; font-size: 70px;'>正确! </span>","null","html-keyboard-response","90","277022","0.0-7.0-0.0-1.0-0.0-1.40","3","3","4","3","2","3","3","4","4","4","4","5","5","4","4","4","4","4","4","5","2","1","2","1","2","2","1","1","1","1","1","1","0","0","1","0","0","0","0","0","0","0","0","1","4","2","2","2","2","1","4","2","1","1","2","690528419074539520","王","189","","","","","","","","","","","","","","","","","","","","","","","","","","","","","","feedback_test","","","","","","","","","","","",""
"560","","j","psychophysics","91","278591","0.0-7.0-0.0-1.0-0.0-0.41","3","3","4","3","2","3","3","4","4","4","4","5","5","4","4","4","4","4","4","5","2","1","2","1","2","2","1","1","1","1","1","1","0","0","1","0","0","0","0","0","0","0","0","1","4","2","2","2","2","1","4","2","1","1","2","690528419074539520","王","189","","","","match","","","","","","","","","","","","","","key","j","16.661290322580644","640","356","j","true","match","img/pentagon.png","五边","五边","ALT1_1","prac_ALT1_1","","","","","","","","","","","",""
"null","<span style='color:GreenYellow; font-size: 70px;'>正确! </span>","null","html-keyboard-response","92","279092","0.0-7.0-0.0-1.0-0.0-1.41","3","3","4","3","2","3","3","4","4","4","4","5","5","4","4","4","4","4","4","5","2","1","2","1","2","2","1","1","1","1","1","1","0","0","1","0","0","0","0","0","0","0","0","1","4","2","2","2","2","1","4","2","1","1","2","690528419074539520","王","189","","","","","","","","","","","","","","","","","","","","","","","","","","","","","","feedback_test","","","","","","","","","","","",""
"581","","f","psychophysics","93","280675","0.0-7.0-0.0-1.0-0.0-0.42","3","3","4","3","2","3","3","4","4","4","4","5","5","4","4","4","4","4","4","5","2","1","2","1","2","2","1","1","1","1","1","1","0","0","1","0","0","0","0","0","0","0","0","1","4","2","2","2","2","1","4","2","1","1","2","690528419074539520","王","189","","","","nonmatch","","","","","","","","","","","","","","key","f","16.66382978723367","640","356","f","true","nonmatch","img/ellipse.png","梯形","椭圆","ALT1_1","prac_ALT1_1","","","","","","","","","","","",""
"null","<span style='color:GreenYellow; font-size: 70px;'>正确! </span>","null","html-keyboard-response","94","281175","0.0-7.0-0.0-1.0-0.0-1.42","3","3","4","3","2","3","3","4","4","4","4","5","5","4","4","4","4","4","4","5","2","1","2","1","2","2","1","1","1","1","1","1","0","0","1","0","0","0","0","0","0","0","0","1","4","2","2","2","2","1","4","2","1","1","2","690528419074539520","王","189","","","","","","","","","","","","","","","","","","","","","","","","","","","","","","feedback_test","","","","","","","","","","","",""
"802","","j","psychophysics","95","282979","0.0-7.0-0.0-1.0-0.0-0.43","3","3","4","3","2","3","3","4","4","4","4","5","5","4","4","4","4","4","4","5","2","1","2","1","2","2","1","1","1","1","1","1","0","0","1","0","0","0","0","0","0","0","0","1","4","2","2","2","2","1","4","2","1","1","2","690528419074539520","王","189","","","","match","","","","","","","","","","","","","","key","j","16.665420560747773","640","356","j","true","match","img/trapezoid.png","梯形","梯形","ALT1_1","prac_ALT1_1","","","","","","","","","","","",""
"null","<span style='color:GreenYellow; font-size: 70px;'>正确! </span>","null","html-keyboard-response","96","283479","0.0-7.0-0.0-1.0-0.0-1.43","3","3","4","3","2","3","3","4","4","4","4","5","5","4","4","4","4","4","4","5","2","1","2","1","2","2","1","1","1","1","1","1","0","0","1","0","0","0","0","0","0","0","0","1","4","2","2","2","2","1","4","2","1","1","2","690528419074539520","王","189","","","","","","","","","","","","","","","","","","","","","","","","","","","","","","feedback_test","","","","","","","","","","","",""
"519","","j","psychophysics","97","285000","0.0-7.0-0.0-1.0-0.0-0.44","3","3","4","3","2","3","3","4","4","4","4","5","5","4","4","4","4","4","4","5","2","1","2","1","2","2","1","1","1","1","1","1","0","0","1","0","0","0","0","0","0","0","0","1","4","2","2","2","2","1","4","2","1","1","2","690528419074539520","王","189","","","","match","","","","","","","","","","","","","","key","j","16.662222222221963","640","356","j","true","match","img/ellipse.png","椭圆","椭圆","ALT1_1","prac_ALT1_1","","","","","","","","","","","",""
"null","<span style='color:GreenYellow; font-size: 70px;'>正确! </span>","null","html-keyboard-response","98","285500","0.0-7.0-0.0-1.0-0.0-1.44","3","3","4","3","2","3","3","4","4","4","4","5","5","4","4","4","4","4","4","5","2","1","2","1","2","2","1","1","1","1","1","1","0","0","1","0","0","0","0","0","0","0","0","1","4","2","2","2","2","1","4","2","1","1","2","690528419074539520","王","189","","","","","","","","","","","","","","","","","","","","","","","","","","","","","","feedback_test","","","","","","","","","","","",""
"686","","j","psychophysics","99","287187","0.0-7.0-0.0-1.0-0.0-0.45","3","3","4","3","2","3","3","4","4","4","4","5","5","4","4","4","4","4","4","5","2","1","2","1","2","2","1","1","1","1","1","1","0","0","1","0","0","0","0","0","0","0","0","1","4","2","2","2","2","1","4","2","1","1","2","690528419074539520","王","189","","","","match","","","","","","","","","","","","","","key","j","16.662999999999883","640","356","j","true","match","img/diamond.png","菱形","菱形","ALT1_1","prac_ALT1_1","","","","","","","","","","","",""
"null","<span style='color:GreenYellow; font-size: 70px;'>正确! </span>","null","html-keyboard-response","100","287688","0.0-7.0-0.0-1.0-0.0-1.45","3","3","4","3","2","3","3","4","4","4","4","5","5","4","4","4","4","4","4","5","2","1","2","1","2","2","1","1","1","1","1","1","0","0","1","0","0","0","0","0","0","0","0","1","4","2","2","2","2","1","4","2","1","1","2","690528419074539520","王","189","","","","","","","","","","","","","","","","","","","","","","","","","","","","","","feedback_test","","","","","","","","","","","",""
"633","","f","psychophysics","101","289323","0.0-7.0-0.0-1.0-0.0-0.46","3","3","4","3","2","3","3","4","4","4","4","5","5","4","4","4","4","4","4","5","2","1","2","1","2","2","1","1","1","1","1","1","0","0","1","0","0","0","0","0","0","0","0","1","4","2","2","2","2","1","4","2","1","1","2","690528419074539520","王","189","","","","nonmatch","","","","","","","","","","","","","","key","f","16.65979381443299","640","356","f","true","nonmatch","img/trapezoid.png","五边","梯形","ALT1_1","prac_ALT1_1","","","","","","","","","","","",""
"null","<span style='color:GreenYellow; font-size: 70px;'>正确! </span>","null","html-keyboard-response","102","289832","0.0-7.0-0.0-1.0-0.0-1.46","3","3","4","3","2","3","3","4","4","4","4","5","5","4","4","4","4","4","4","5","2","1","2","1","2","2","1","1","1","1","1","1","0","0","1","0","0","0","0","0","0","0","0","1","4","2","2","2","2","1","4","2","1","1","2","690528419074539520","王","189","","","","","","","","","","","","","","","","","","","","","","","","","","","","","","feedback_test","","","","","","","","","","","",""
"633","","j","psychophysics","103","291467","0.0-7.0-0.0-1.0-0.0-0.47","3","3","4","3","2","3","3","4","4","4","4","5","5","4","4","4","4","4","4","5","2","1","2","1","2","2","1","1","1","1","1","1","0","0","1","0","0","0","0","0","0","0","0","1","4","2","2","2","2","1","4","2","1","1","2","690528419074539520","王","189","","","","match","","","","","","","","","","","","","","key","j","16.664948453608247","640","356","j","true","match","img/trapezoid.png","梯形","梯形","ALT1_1","prac_ALT1_1","","","","","","","","","","","",""
"null","<span style='color:GreenYellow; font-size: 70px;'>正确! </span>","null","html-keyboard-response","104","291968","0.0-7.0-0.0-1.0-0.0-1.47","3","3","4","3","2","3","3","4","4","4","4","5","5","4","4","4","4","4","4","5","2","1","2","1","2","2","1","1","1","1","1","1","0","0","1","0","0","0","0","0","0","0","0","1","4","2","2","2","2","1","4","2","1","1","2","690528419074539520","王","189","","","","","","","","","","","","","","","","","","","","","","","","","","","","","","feedback_test","","","","","","","","","","","",""
"33967","<style>.context{color:white; font-size: 35px; line-height:40px}</style>                            <div><p class='context'>您正确回答了77% 的试次。</p><p class='context'>您的平均反应时为745毫秒。</p><p class='context'>恭喜您完成练习。按空格键进入正式实验。</p><p class='footer' style='font-size: 35px; line-height:40px;'>请在进入正式实验之前将您的<span style='color: lightgreen;'>食指</span>放在电脑键盘的相应键位上进行按键。</p>"," ","html-keyboard-response","105","325936","0.0-7.0-0.0-2.0","3","3","4","3","2","3","3","4","4","4","4","5","5","4","4","4","4","4","4","5","2","1","2","1","2","2","1","1","1","1","1","1","0","0","1","0","0","0","0","0","0","0","0","1","4","2","2","2","2","1","4","2","1","1","2","690528419074539520","王","189","","","","","","","","","","","","","","","","","","","","","","","","","","","","","","","","","","","","","","","","","",""
"2260","
    <p style='color: white; font-size: 22px'>请您将手指放在按键上，准备进入正式的匹配任务。</p>
    <p> <div style = ""color: green""><按空格键进入下一阶段的匹配任务></div></p>
    "," ","html-keyboard-response","106","328199","0.0-7.0-0.0-3.0","3","3","4","3","2","3","3","4","4","4","4","5","5","4","4","4","4","4","4","5","2","1","2","1","2","2","1","1","1","1","1","1","0","0","1","0","0","0","0","0","0","0","0","1","4","2","2","2","2","1","4","2","1","1","2","690528419074539520","王","189","","","","","","","","","","","","","","","","","","","","","","","","","","","","","","","","","","","","","","","","","",""
"699","","j","psychophysics","107","329898","0.0-7.0-0.0-4.0-0.0-0.0","3","3","4","3","2","3","3","4","4","4","4","5","5","4","4","4","4","4","4","5","2","1","2","1","2","2","1","1","1","1","1","1","0","0","1","0","0","0","0","0","0","0","0","1","4","2","2","2","2","1","4","2","1","1","2","690528419074539520","王","189","","","","match","","","","","","","","","","","","","","key","j","16.667326732672922","640","356","j","true","match","img/trapezoid.png","梯形","梯形","ALT1","formal_ALT1_1","","","","","","","","","","","",""
"null","<span style='color:GreenYellow; font-size: 70px;'>正确! </span>","null","html-keyboard-response","108","330400","0.0-7.0-0.0-4.0-0.0-1.0","3","3","4","3","2","3","3","4","4","4","4","5","5","4","4","4","4","4","4","5","2","1","2","1","2","2","1","1","1","1","1","1","0","0","1","0","0","0","0","0","0","0","0","1","4","2","2","2","2","1","4","2","1","1","2","690528419074539520","王","189","","","","","","","","","","","","","","","","","","","","","","","","","","","","","","feedback_test","","","","","","","","","","","",""
"768","","j","psychophysics","109","332170","0.0-7.0-0.0-4.0-0.0-0.1","3","3","4","3","2","3","3","4","4","4","4","5","5","4","4","4","4","4","4","5","2","1","2","1","2","2","1","1","1","1","1","1","0","0","1","0","0","0","0","0","0","0","0","1","4","2","2","2","2","1","4","2","1","1","2","690528419074539520","王","189","","","","match","","","","","","","","","","","","","","key","j","16.66509433962264","640","356","j","true","match","img/trapezoid.png","梯形","梯形","ALT1","formal_ALT1_1","","","","","","","","","","","",""
"null","<span style='color:GreenYellow; font-size: 70px;'>正确! </span>","null","html-keyboard-response","110","332670","0.0-7.0-0.0-4.0-0.0-1.1","3","3","4","3","2","3","3","4","4","4","4","5","5","4","4","4","4","4","4","5","2","1","2","1","2","2","1","1","1","1","1","1","0","0","1","0","0","0","0","0","0","0","0","1","4","2","2","2","2","1","4","2","1","1","2","690528419074539520","王","189","","","","","","","","","","","","","","","","","","","","","","","","","","","","","","feedback_test","","","","","","","","","","","",""
"632","","f","psychophysics","111","334305","0.0-7.0-0.0-4.0-0.0-0.2","3","3","4","3","2","3","3","4","4","4","4","5","5","4","4","4","4","4","4","5","2","1","2","1","2","2","1","1","1","1","1","1","0","0","1","0","0","0","0","0","0","0","0","1","4","2","2","2","2","1","4","2","1","1","2","690528419074539520","王","189","","","","nonmatch","","","","","","","","","","","","","","key","f","16.664948453608247","640","356","f","true","nonmatch","img/trapezoid.png","椭圆","梯形","ALT1","formal_ALT1_1","","","","","","","","","","","",""
"null","<span style='color:GreenYellow; font-size: 70px;'>正确! </span>","null","html-keyboard-response","112","334806","0.0-7.0-0.0-4.0-0.0-1.2","3","3","4","3","2","3","3","4","4","4","4","5","5","4","4","4","4","4","4","5","2","1","2","1","2","2","1","1","1","1","1","1","0","0","1","0","0","0","0","0","0","0","0","1","4","2","2","2","2","1","4","2","1","1","2","690528419074539520","王","189","","","","","","","","","","","","","","","","","","","","","","","","","","","","","","feedback_test","","","","","","","","","","","",""
"689","","j","psychophysics","113","336497","0.0-7.0-0.0-4.0-0.0-0.3","3","3","4","3","2","3","3","4","4","4","4","5","5","4","4","4","4","4","4","5","2","1","2","1","2","2","1","1","1","1","1","1","0","0","1","0","0","0","0","0","0","0","0","1","4","2","2","2","2","1","4","2","1","1","2","690528419074539520","王","189","","","","match","","","","","","","","","","","","","","key","j","16.66","640","356","f","false","nonmatch","img/pentagon.png","椭圆","五边","ALT1","formal_ALT1_1","","","","","","","","","","","",""
"null","<span style='color:red; font-size: 70px;'>错误! </span>","null","html-keyboard-response","114","336998","0.0-7.0-0.0-4.0-0.0-1.3","3","3","4","3","2","3","3","4","4","4","4","5","5","4","4","4","4","4","4","5","2","1","2","1","2","2","1","1","1","1","1","1","0","0","1","0","0","0","0","0","0","0","0","1","4","2","2","2","2","1","4","2","1","1","2","690528419074539520","王","189","","","","","","","","","","","","","","","","","","","","","","","","","","","","","","feedback_test","","","","","","","","","","","",""
"653","","f","psychophysics","115","338653","0.0-7.0-0.0-4.0-0.0-0.4","3","3","4","3","2","3","3","4","4","4","4","5","5","4","4","4","4","4","4","5","2","1","2","1","2","2","1","1","1","1","1","1","0","0","1","0","0","0","0","0","0","0","0","1","4","2","2","2","2","1","4","2","1","1","2","690528419074539520","王","189","","","","nonmatch","","","","","","","","","","","","","","key","f","16.664646464646935","640","356","f","true","nonmatch","img/ellipse.png","五边","椭圆","ALT1","formal_ALT1_1","","","","","","","","","","","",""
"null","<span style='color:GreenYellow; font-size: 70px;'>正确! </span>","null","html-keyboard-response","116","339154","0.0-7.0-0.0-4.0-0.0-1.4","3","3","4","3","2","3","3","4","4","4","4","5","5","4","4","4","4","4","4","5","2","1","2","1","2","2","1","1","1","1","1","1","0","0","1","0","0","0","0","0","0","0","0","1","4","2","2","2","2","1","4","2","1","1","2","690528419074539520","王","189","","","","","","","","","","","","","","","","","","","","","","","","","","","","","","feedback_test","","","","","","","","","","","",""
"711","","j","psychophysics","117","340867","0.0-7.0-0.0-4.0-0.0-0.5","3","3","4","3","2","3","3","4","4","4","4","5","5","4","4","4","4","4","4","5","2","1","2","1","2","2","1","1","1","1","1","1","0","0","1","0","0","0","0","0","0","0","0","1","4","2","2","2","2","1","4","2","1","1","2","690528419074539520","王","189","","","","match","","","","","","","","","","","","","","key","j","16.66176470588235","640","356","j","true","match","img/pentagon.png","五边","五边","ALT1","formal_ALT1_1","","","","","","","","","","","",""
"null","<span style='color:GreenYellow; font-size: 70px;'>正确! </span>","null","html-keyboard-response","118","341368","0.0-7.0-0.0-4.0-0.0-1.5","3","3","4","3","2","3","3","4","4","4","4","5","5","4","4","4","4","4","4","5","2","1","2","1","2","2","1","1","1","1","1","1","0","0","1","0","0","0","0","0","0","0","0","1","4","2","2","2","2","1","4","2","1","1","2","690528419074539520","王","189","","","","","","","","","","","","","","","","","","","","","","","","","","","","","","feedback_test","","","","","","","","","","","",""
"698","","f","psychophysics","119","343069","0.0-7.0-0.0-4.0-0.0-0.6","3","3","4","3","2","3","3","4","4","4","4","5","5","4","4","4","4","4","4","5","2","1","2","1","2","2","1","1","1","1","1","1","0","0","1","0","0","0","0","0","0","0","0","1","4","2","2","2","2","1","4","2","1","1","2","690528419074539520","王","189","","","","nonmatch","","","","","","","","","","","","","","key","f","16.661386138613747","640","356","f","true","nonmatch","img/pentagon.png","菱形","五边","ALT1","formal_ALT1_1","","","","","","","","","","","",""
"null","<span style='color:GreenYellow; font-size: 70px;'>正确! </span>","null","html-keyboard-response","120","343570","0.0-7.0-0.0-4.0-0.0-1.6","3","3","4","3","2","3","3","4","4","4","4","5","5","4","4","4","4","4","4","5","2","1","2","1","2","2","1","1","1","1","1","1","0","0","1","0","0","0","0","0","0","0","0","1","4","2","2","2","2","1","4","2","1","1","2","690528419074539520","王","189","","","","","","","","","","","","","","","","","","","","","","","","","","","","","","feedback_test","","","","","","","","","","","",""
"770","","j","psychophysics","121","345342","0.0-7.0-0.0-4.0-0.0-0.7","3","3","4","3","2","3","3","4","4","4","4","5","5","4","4","4","4","4","4","5","2","1","2","1","2","2","1","1","1","1","1","1","0","0","1","0","0","0","0","0","0","0","0","1","4","2","2","2","2","1","4","2","1","1","2","690528419074539520","王","189","","","","match","","","","","","","","","","","","","","key","j","16.66285714285692","640","356","j","true","match","img/ellipse.png","椭圆","椭圆","ALT1","formal_ALT1_1","","","","","","","","","","","",""
"null","<span style='color:GreenYellow; font-size: 70px;'>正确! </span>","null","html-keyboard-response","122","345843","0.0-7.0-0.0-4.0-0.0-1.7","3","3","4","3","2","3","3","4","4","4","4","5","5","4","4","4","4","4","4","5","2","1","2","1","2","2","1","1","1","1","1","1","0","0","1","0","0","0","0","0","0","0","0","1","4","2","2","2","2","1","4","2","1","1","2","690528419074539520","王","189","","","","","","","","","","","","","","","","","","","","","","","","","","","","","","feedback_test","","","","","","","","","","","",""
"697","","j","psychophysics","123","347546","0.0-7.0-0.0-4.0-0.0-0.8","3","3","4","3","2","3","3","4","4","4","4","5","5","4","4","4","4","4","4","5","2","1","2","1","2","2","1","1","1","1","1","1","0","0","1","0","0","0","0","0","0","0","0","1","4","2","2","2","2","1","4","2","1","1","2","690528419074539520","王","189","","","","match","","","","","","","","","","","","","","key","j","16.666336633663253","640","356","j","true","match","img/diamond.png","菱形","菱形","ALT1","formal_ALT1_1","","","","","","","","","","","",""
"null","<span style='color:GreenYellow; font-size: 70px;'>正确! </span>","null","html-keyboard-response","124","348047","0.0-7.0-0.0-4.0-0.0-1.8","3","3","4","3","2","3","3","4","4","4","4","5","5","4","4","4","4","4","4","5","2","1","2","1","2","2","1","1","1","1","1","1","0","0","1","0","0","0","0","0","0","0","0","1","4","2","2","2","2","1","4","2","1","1","2","690528419074539520","王","189","","","","","","","","","","","","","","","","","","","","","","","","","","","","","","feedback_test","","","","","","","","","","","",""
"695","","f","psychophysics","125","349743","0.0-7.0-0.0-4.0-0.0-0.9","3","3","4","3","2","3","3","4","4","4","4","5","5","4","4","4","4","4","4","5","2","1","2","1","2","2","1","1","1","1","1","1","0","0","1","0","0","0","0","0","0","0","0","1","4","2","2","2","2","1","4","2","1","1","2","690528419074539520","王","189","","","","nonmatch","","","","","","","","","","","","","","key","f","16.664000000000232","640","356","f","true","nonmatch","img/diamond.png","梯形","菱形","ALT1","formal_ALT1_1","","","","","","","","","","","",""
"null","<span style='color:GreenYellow; font-size: 70px;'>正确! </span>","null","html-keyboard-response","126","350244","0.0-7.0-0.0-4.0-0.0-1.9","3","3","4","3","2","3","3","4","4","4","4","5","5","4","4","4","4","4","4","5","2","1","2","1","2","2","1","1","1","1","1","1","0","0","1","0","0","0","0","0","0","0","0","1","4","2","2","2","2","1","4","2","1","1","2","690528419074539520","王","189","","","","","","","","","","","","","","","","","","","","","","","","","","","","","","feedback_test","","","","","","","","","","","",""
"759","","f","psychophysics","127","352005","0.0-7.0-0.0-4.0-0.0-0.10","3","3","4","3","2","3","3","4","4","4","4","5","5","4","4","4","4","4","4","5","2","1","2","1","2","2","1","1","1","1","1","1","0","0","1","0","0","0","0","0","0","0","0","1","4","2","2","2","2","1","4","2","1","1","2","690528419074539520","王","189","","","","nonmatch","","","","","","","","","","","","","","key","f","16.665714285713953","640","356","f","true","nonmatch","img/pentagon.png","梯形","五边","ALT1","formal_ALT1_1","","","","","","","","","","","",""
"null","<span style='color:GreenYellow; font-size: 70px;'>正确! </span>","null","html-keyboard-response","128","352506","0.0-7.0-0.0-4.0-0.0-1.10","3","3","4","3","2","3","3","4","4","4","4","5","5","4","4","4","4","4","4","5","2","1","2","1","2","2","1","1","1","1","1","1","0","0","1","0","0","0","0","0","0","0","0","1","4","2","2","2","2","1","4","2","1","1","2","690528419074539520","王","189","","","","","","","","","","","","","","","","","","","","","","","","","","","","","","feedback_test","","","","","","","","","","","",""
"584","","j","psychophysics","129","354090","0.0-7.0-0.0-4.0-0.0-0.11","3","3","4","3","2","3","3","4","4","4","4","5","5","4","4","4","4","4","4","5","2","1","2","1","2","2","1","1","1","1","1","1","0","0","1","0","0","0","0","0","0","0","0","1","4","2","2","2","2","1","4","2","1","1","2","690528419074539520","王","189","","","","match","","","","","","","","","","","","","","key","j","16.665957446808264","640","356","f","false","nonmatch","img/diamond.png","五边","菱形","ALT1","formal_ALT1_1","","","","","","","","","","","",""
"null","<span style='color:red; font-size: 70px;'>错误! </span>","null","html-keyboard-response","130","354592","0.0-7.0-0.0-4.0-0.0-1.11","3","3","4","3","2","3","3","4","4","4","4","5","5","4","4","4","4","4","4","5","2","1","2","1","2","2","1","1","1","1","1","1","0","0","1","0","0","0","0","0","0","0","0","1","4","2","2","2","2","1","4","2","1","1","2","690528419074539520","王","189","","","","","","","","","","","","","","","","","","","","","","","","","","","","","","feedback_test","","","","","","","","","","","",""
"789","","f","psychophysics","131","356383","0.0-7.0-0.0-4.0-0.0-0.12","3","3","4","3","2","3","3","4","4","4","4","5","5","4","4","4","4","4","4","5","2","1","2","1","2","2","1","1","1","1","1","1","0","0","1","0","0","0","0","0","0","0","0","1","4","2","2","2","2","1","4","2","1","1","2","690528419074539520","王","189","","","","nonmatch","","","","","","","","","","","","","","key","f","16.666355140186806","640","356","f","true","nonmatch","img/ellipse.png","梯形","椭圆","ALT1","formal_ALT1_1","","","","","","","","","","","",""
"null","<span style='color:GreenYellow; font-size: 70px;'>正确! </span>","null","html-keyboard-response","132","356884","0.0-7.0-0.0-4.0-0.0-1.12","3","3","4","3","2","3","3","4","4","4","4","5","5","4","4","4","4","4","4","5","2","1","2","1","2","2","1","1","1","1","1","1","0","0","1","0","0","0","0","0","0","0","0","1","4","2","2","2","2","1","4","2","1","1","2","690528419074539520","王","189","","","","","","","","","","","","","","","","","","","","","","","","","","","","","","feedback_test","","","","","","","","","","","",""
"663","","j","psychophysics","133","358548","0.0-7.0-0.0-4.0-0.0-0.13","3","3","4","3","2","3","3","4","4","4","4","5","5","4","4","4","4","4","4","5","2","1","2","1","2","2","1","1","1","1","1","1","0","0","1","0","0","0","0","0","0","0","0","1","4","2","2","2","2","1","4","2","1","1","2","690528419074539520","王","189","","","","match","","","","","","","","","","","","","","key","j","16.66060606060571","640","356","j","true","match","img/diamond.png","菱形","菱形","ALT1","formal_ALT1_1","","","","","","","","","","","",""
"null","<span style='color:GreenYellow; font-size: 70px;'>正确! </span>","null","html-keyboard-response","134","359049","0.0-7.0-0.0-4.0-0.0-1.13","3","3","4","3","2","3","3","4","4","4","4","5","5","4","4","4","4","4","4","5","2","1","2","1","2","2","1","1","1","1","1","1","0","0","1","0","0","0","0","0","0","0","0","1","4","2","2","2","2","1","4","2","1","1","2","690528419074539520","王","189","","","","","","","","","","","","","","","","","","","","","","","","","","","","","","feedback_test","","","","","","","","","","","",""
"627","","j","psychophysics","135","360677","0.0-7.0-0.0-4.0-0.0-0.14","3","3","4","3","2","3","3","4","4","4","4","5","5","4","4","4","4","4","4","5","2","1","2","1","2","2","1","1","1","1","1","1","0","0","1","0","0","0","0","0","0","0","0","1","4","2","2","2","2","1","4","2","1","1","2","690528419074539520","王","189","","","","match","","","","","","","","","","","","","","key","j","16.66185567010321","640","356","j","true","match","img/diamond.png","菱形","菱形","ALT1","formal_ALT1_1","","","","","","","","","","","",""
"null","<span style='color:GreenYellow; font-size: 70px;'>正确! </span>","null","html-keyboard-response","136","361179","0.0-7.0-0.0-4.0-0.0-1.14","3","3","4","3","2","3","3","4","4","4","4","5","5","4","4","4","4","4","4","5","2","1","2","1","2","2","1","1","1","1","1","1","0","0","1","0","0","0","0","0","0","0","0","1","4","2","2","2","2","1","4","2","1","1","2","690528419074539520","王","189","","","","","","","","","","","","","","","","","","","","","","","","","","","","","","feedback_test","","","","","","","","","","","",""
"616","","j","psychophysics","137","362796","0.0-7.0-0.0-4.0-0.0-0.15","3","3","4","3","2","3","3","4","4","4","4","5","5","4","4","4","4","4","4","5","2","1","2","1","2","2","1","1","1","1","1","1","0","0","1","0","0","0","0","0","0","0","0","1","4","2","2","2","2","1","4","2","1","1","2","690528419074539520","王","189","","","","match","","","","","","","","","","","","","","key","j","16.666666666666668","640","356","j","true","match","img/pentagon.png","五边","五边","ALT1","formal_ALT1_1","","","","","","","","","","","",""
"null","<span style='color:GreenYellow; font-size: 70px;'>正确! </span>","null","html-keyboard-response","138","363298","0.0-7.0-0.0-4.0-0.0-1.15","3","3","4","3","2","3","3","4","4","4","4","5","5","4","4","4","4","4","4","5","2","1","2","1","2","2","1","1","1","1","1","1","0","0","1","0","0","0","0","0","0","0","0","1","4","2","2","2","2","1","4","2","1","1","2","690528419074539520","王","189","","","","","","","","","","","","","","","","","","","","","","","","","","","","","","feedback_test","","","","","","","","","","","",""
"653","","f","psychophysics","139","364951","0.0-7.0-0.0-4.0-0.0-0.16","3","3","4","3","2","3","3","4","4","4","4","5","5","4","4","4","4","4","4","5","2","1","2","1","2","2","1","1","1","1","1","1","0","0","1","0","0","0","0","0","0","0","0","1","4","2","2","2","2","1","4","2","1","1","2","690528419074539520","王","189","","","","nonmatch","","","","","","","","","","","","","","key","f","16.66632653061272","640","356","f","true","nonmatch","img/ellipse.png","菱形","椭圆","ALT1","formal_ALT1_1","","","","","","","","","","","",""
"null","<span style='color:GreenYellow; font-size: 70px;'>正确! </span>","null","html-keyboard-response","140","365452","0.0-7.0-0.0-4.0-0.0-1.16","3","3","4","3","2","3","3","4","4","4","4","5","5","4","4","4","4","4","4","5","2","1","2","1","2","2","1","1","1","1","1","1","0","0","1","0","0","0","0","0","0","0","0","1","4","2","2","2","2","1","4","2","1","1","2","690528419074539520","王","189","","","","","","","","","","","","","","","","","","","","","","","","","","","","","","feedback_test","","","","","","","","","","","",""
"595","","j","psychophysics","141","367049","0.0-7.0-0.0-4.0-0.0-0.17","3","3","4","3","2","3","3","4","4","4","4","5","5","4","4","4","4","4","4","5","2","1","2","1","2","2","1","1","1","1","1","1","0","0","1","0","0","0","0","0","0","0","0","1","4","2","2","2","2","1","4","2","1","1","2","690528419074539520","王","189","","","","match","","","","","","","","","","","","","","key","j","16.66631578947356","640","356","j","true","match","img/pentagon.png","五边","五边","ALT1","formal_ALT1_1","","","","","","","","","","","",""
"null","<span style='color:GreenYellow; font-size: 70px;'>正确! </span>","null","html-keyboard-response","142","367550","0.0-7.0-0.0-4.0-0.0-1.17","3","3","4","3","2","3","3","4","4","4","4","5","5","4","4","4","4","4","4","5","2","1","2","1","2","2","1","1","1","1","1","1","0","0","1","0","0","0","0","0","0","0","0","1","4","2","2","2","2","1","4","2","1","1","2","690528419074539520","王","189","","","","","","","","","","","","","","","","","","","","","","","","","","","","","","feedback_test","","","","","","","","","","","",""
"615","","j","psychophysics","143","369167","0.0-7.0-0.0-4.0-0.0-0.18","3","3","4","3","2","3","3","4","4","4","4","5","5","4","4","4","4","4","4","5","2","1","2","1","2","2","1","1","1","1","1","1","0","0","1","0","0","0","0","0","0","0","0","1","4","2","2","2","2","1","4","2","1","1","2","690528419074539520","王","189","","","","match","","","","","","","","","","","","","","key","j","16.663541666666788","640","356","f","false","nonmatch","img/trapezoid.png","五边","梯形","ALT1","formal_ALT1_1","","","","","","","","","","","",""
"null","<span style='color:red; font-size: 70px;'>错误! </span>","null","html-keyboard-response","144","369668","0.0-7.0-0.0-4.0-0.0-1.18","3","3","4","3","2","3","3","4","4","4","4","5","5","4","4","4","4","4","4","5","2","1","2","1","2","2","1","1","1","1","1","1","0","0","1","0","0","0","0","0","0","0","0","1","4","2","2","2","2","1","4","2","1","1","2","690528419074539520","王","189","","","","","","","","","","","","","","","","","","","","","","","","","","","","","","feedback_test","","","","","","","","","","","",""
"712","","j","psychophysics","145","371382","0.0-7.0-0.0-4.0-0.0-0.19","3","3","4","3","2","3","3","4","4","4","4","5","5","4","4","4","4","4","4","5","2","1","2","1","2","2","1","1","1","1","1","1","0","0","1","0","0","0","0","0","0","0","0","1","4","2","2","2","2","1","4","2","1","1","2","690528419074539520","王","189","","","","match","","","","","","","","","","","","","","key","j","16.66568627450946","640","356","j","true","match","img/ellipse.png","椭圆","椭圆","ALT1","formal_ALT1_1","","","","","","","","","","","",""
"null","<span style='color:GreenYellow; font-size: 70px;'>正确! </span>","null","html-keyboard-response","146","371884","0.0-7.0-0.0-4.0-0.0-1.19","3","3","4","3","2","3","3","4","4","4","4","5","5","4","4","4","4","4","4","5","2","1","2","1","2","2","1","1","1","1","1","1","0","0","1","0","0","0","0","0","0","0","0","1","4","2","2","2","2","1","4","2","1","1","2","690528419074539520","王","189","","","","","","","","","","","","","","","","","","","","","","","","","","","","","","feedback_test","","","","","","","","","","","",""
"793","","f","psychophysics","147","373678","0.0-7.0-0.0-4.0-0.0-0.20","3","3","4","3","2","3","3","4","4","4","4","5","5","4","4","4","4","4","4","5","2","1","2","1","2","2","1","1","1","1","1","1","0","0","1","0","0","0","0","0","0","0","0","1","4","2","2","2","2","1","4","2","1","1","2","690528419074539520","王","189","","","","nonmatch","","","","","","","","","","","","","","key","f","16.664485981308736","640","356","f","true","nonmatch","img/trapezoid.png","菱形","梯形","ALT1","formal_ALT1_1","","","","","","","","","","","",""
"null","<span style='color:GreenYellow; font-size: 70px;'>正确! </span>","null","html-keyboard-response","148","374179","0.0-7.0-0.0-4.0-0.0-1.20","3","3","4","3","2","3","3","4","4","4","4","5","5","4","4","4","4","4","4","5","2","1","2","1","2","2","1","1","1","1","1","1","0","0","1","0","0","0","0","0","0","0","0","1","4","2","2","2","2","1","4","2","1","1","2","690528419074539520","王","189","","","","","","","","","","","","","","","","","","","","","","","","","","","","","","feedback_test","","","","","","","","","","","",""
"624","","j","psychophysics","149","375805","0.0-7.0-0.0-4.0-0.0-0.21","3","3","4","3","2","3","3","4","4","4","4","5","5","4","4","4","4","4","4","5","2","1","2","1","2","2","1","1","1","1","1","1","0","0","1","0","0","0","0","0","0","0","0","1","4","2","2","2","2","1","4","2","1","1","2","690528419074539520","王","189","","","","match","","","","","","","","","","","","","","key","j","16.662499999999756","640","356","j","true","match","img/trapezoid.png","梯形","梯形","ALT1","formal_ALT1_1","","","","","","","","","","","",""
"null","<span style='color:GreenYellow; font-size: 70px;'>正确! </span>","null","html-keyboard-response","150","376306","0.0-7.0-0.0-4.0-0.0-1.21","3","3","4","3","2","3","3","4","4","4","4","5","5","4","4","4","4","4","4","5","2","1","2","1","2","2","1","1","1","1","1","1","0","0","1","0","0","0","0","0","0","0","0","1","4","2","2","2","2","1","4","2","1","1","2","690528419074539520","王","189","","","","","","","","","","","","","","","","","","","","","","","","","","","","","","feedback_test","","","","","","","","","","","",""
"559","","f","psychophysics","151","377866","0.0-7.0-0.0-4.0-0.0-0.22","3","3","4","3","2","3","3","4","4","4","4","5","5","4","4","4","4","4","4","5","2","1","2","1","2","2","1","1","1","1","1","1","0","0","1","0","0","0","0","0","0","0","0","1","4","2","2","2","2","1","4","2","1","1","2","690528419074539520","王","189","","","","nonmatch","","","","","","","","","","","","","","key","f","16.660869565217897","640","356","j","false","match","img/ellipse.png","椭圆","椭圆","ALT1","formal_ALT1_1","","","","","","","","","","","",""
"null","<span style='color:red; font-size: 70px;'>错误! </span>","null","html-keyboard-response","152","378367","0.0-7.0-0.0-4.0-0.0-1.22","3","3","4","3","2","3","3","4","4","4","4","5","5","4","4","4","4","4","4","5","2","1","2","1","2","2","1","1","1","1","1","1","0","0","1","0","0","0","0","0","0","0","0","1","4","2","2","2","2","1","4","2","1","1","2","690528419074539520","王","189","","","","","","","","","","","","","","","","","","","","","","","","","","","","","","feedback_test","","","","","","","","","","","",""
"687","","f","psychophysics","153","380056","0.0-7.0-0.0-4.0-0.0-0.23","3","3","4","3","2","3","3","4","4","4","4","5","5","4","4","4","4","4","4","5","2","1","2","1","2","2","1","1","1","1","1","1","0","0","1","0","0","0","0","0","0","0","0","1","4","2","2","2","2","1","4","2","1","1","2","690528419074539520","王","189","","","","nonmatch","","","","","","","","","","","","","","key","f","16.66237623762399","640","356","f","true","nonmatch","img/diamond.png","椭圆","菱形","ALT1","formal_ALT1_1","","","","","","","","","","","",""
"null","<span style='color:GreenYellow; font-size: 70px;'>正确! </span>","null","html-keyboard-response","154","380558","0.0-7.0-0.0-4.0-0.0-1.23","3","3","4","3","2","3","3","4","4","4","4","5","5","4","4","4","4","4","4","5","2","1","2","1","2","2","1","1","1","1","1","1","0","0","1","0","0","0","0","0","0","0","0","1","4","2","2","2","2","1","4","2","1","1","2","690528419074539520","王","189","","","","","","","","","","","","","","","","","","","","","","","","","","","","","","feedback_test","","","","","","","","","","","",""
"553","","j","psychophysics","155","382114","0.0-7.0-0.0-4.0-0.0-0.24","3","3","4","3","2","3","3","4","4","4","4","5","5","4","4","4","4","4","4","5","2","1","2","1","2","2","1","1","1","1","1","1","0","0","1","0","0","0","0","0","0","0","0","1","4","2","2","2","2","1","4","2","1","1","2","690528419074539520","王","189","","","","match","","","","","","","","","","","","","","key","j","16.660869565217265","640","356","j","true","match","img/pentagon.png","五边","五边","ALT1","formal_ALT1_1","","","","","","","","","","","",""
"null","<span style='color:GreenYellow; font-size: 70px;'>正确! </span>","null","html-keyboard-response","156","382614","0.0-7.0-0.0-4.0-0.0-1.24","3","3","4","3","2","3","3","4","4","4","4","5","5","4","4","4","4","4","4","5","2","1","2","1","2","2","1","1","1","1","1","1","0","0","1","0","0","0","0","0","0","0","0","1","4","2","2","2","2","1","4","2","1","1","2","690528419074539520","王","189","","","","","","","","","","","","","","","","","","","","","","","","","","","","","","feedback_test","","","","","","","","","","","",""
"603","","f","psychophysics","157","384218","0.0-7.0-0.0-4.0-0.0-0.25","3","3","4","3","2","3","3","4","4","4","4","5","5","4","4","4","4","4","4","5","2","1","2","1","2","2","1","1","1","1","1","1","0","0","1","0","0","0","0","0","0","0","0","1","4","2","2","2","2","1","4","2","1","1","2","690528419074539520","王","189","","","","nonmatch","","","","","","","","","","","","","","key","f","16.66842105263158","640","356","f","true","nonmatch","img/pentagon.png","椭圆","五边","ALT1","formal_ALT1_1","","","","","","","","","","","",""
"null","<span style='color:GreenYellow; font-size: 70px;'>正确! </span>","null","html-keyboard-response","158","384719","0.0-7.0-0.0-4.0-0.0-1.25","3","3","4","3","2","3","3","4","4","4","4","5","5","4","4","4","4","4","4","5","2","1","2","1","2","2","1","1","1","1","1","1","0","0","1","0","0","0","0","0","0","0","0","1","4","2","2","2","2","1","4","2","1","1","2","690528419074539520","王","189","","","","","","","","","","","","","","","","","","","","","","","","","","","","","","feedback_test","","","","","","","","","","","",""
"674","","j","psychophysics","159","386395","0.0-7.0-0.0-4.0-0.0-0.26","3","3","4","3","2","3","3","4","4","4","4","5","5","4","4","4","4","4","4","5","2","1","2","1","2","2","1","1","1","1","1","1","0","0","1","0","0","0","0","0","0","0","0","1","4","2","2","2","2","1","4","2","1","1","2","690528419074539520","王","189","","","","match","","","","","","","","","","","","","","key","j","16.661616161616163","640","356","j","true","match","img/trapezoid.png","梯形","梯形","ALT1","formal_ALT1_1","","","","","","","","","","","",""
"null","<span style='color:GreenYellow; font-size: 70px;'>正确! </span>","null","html-keyboard-response","160","386895","0.0-7.0-0.0-4.0-0.0-1.26","3","3","4","3","2","3","3","4","4","4","4","5","5","4","4","4","4","4","4","5","2","1","2","1","2","2","1","1","1","1","1","1","0","0","1","0","0","0","0","0","0","0","0","1","4","2","2","2","2","1","4","2","1","1","2","690528419074539520","王","189","","","","","","","","","","","","","","","","","","","","","","","","","","","","","","feedback_test","","","","","","","","","","","",""
"535","","f","psychophysics","161","388432","0.0-7.0-0.0-4.0-0.0-0.27","3","3","4","3","2","3","3","4","4","4","4","5","5","4","4","4","4","4","4","5","2","1","2","1","2","2","1","1","1","1","1","1","0","0","1","0","0","0","0","0","0","0","0","1","4","2","2","2","2","1","4","2","1","1","2","690528419074539520","王","189","","","","nonmatch","","","","","","","","","","","","","","key","f","16.66153846153859","640","356","f","true","nonmatch","img/diamond.png","五边","菱形","ALT1","formal_ALT1_1","","","","","","","","","","","",""
"null","<span style='color:GreenYellow; font-size: 70px;'>正确! </span>","null","html-keyboard-response","162","388933","0.0-7.0-0.0-4.0-0.0-1.27","3","3","4","3","2","3","3","4","4","4","4","5","5","4","4","4","4","4","4","5","2","1","2","1","2","2","1","1","1","1","1","1","0","0","1","0","0","0","0","0","0","0","0","1","4","2","2","2","2","1","4","2","1","1","2","690528419074539520","王","189","","","","","","","","","","","","","","","","","","","","","","","","","","","","","","feedback_test","","","","","","","","","","","",""
"638","","f","psychophysics","163","390572","0.0-7.0-0.0-4.0-0.0-0.28","3","3","4","3","2","3","3","4","4","4","4","5","5","4","4","4","4","4","4","5","2","1","2","1","2","2","1","1","1","1","1","1","0","0","1","0","0","0","0","0","0","0","0","1","4","2","2","2","2","1","4","2","1","1","2","690528419074539520","王","189","","","","nonmatch","","","","","","","","","","","","","","key","f","16.666326530612125","640","356","f","true","nonmatch","img/diamond.png","椭圆","菱形","ALT1","formal_ALT1_1","","","","","","","","","","","",""
"null","<span style='color:GreenYellow; font-size: 70px;'>正确! </span>","null","html-keyboard-response","164","391074","0.0-7.0-0.0-4.0-0.0-1.28","3","3","4","3","2","3","3","4","4","4","4","5","5","4","4","4","4","4","4","5","2","1","2","1","2","2","1","1","1","1","1","1","0","0","1","0","0","0","0","0","0","0","0","1","4","2","2","2","2","1","4","2","1","1","2","690528419074539520","王","189","","","","","","","","","","","","","","","","","","","","","","","","","","","","","","feedback_test","","","","","","","","","","","",""
"808","","f","psychophysics","165","392883","0.0-7.0-0.0-4.0-0.0-0.29","3","3","4","3","2","3","3","4","4","4","4","5","5","4","4","4","4","4","4","5","2","1","2","1","2","2","1","1","1","1","1","1","0","0","1","0","0","0","0","0","0","0","0","1","4","2","2","2","2","1","4","2","1","1","2","690528419074539520","王","189","","","","nonmatch","","","","","","","","","","","","","","key","f","16.65925925925937","640","356","f","true","nonmatch","img/pentagon.png","梯形","五边","ALT1","formal_ALT1_1","","","","","","","","","","","",""
"null","<span style='color:GreenYellow; font-size: 70px;'>正确! </span>","null","html-keyboard-response","166","393384","0.0-7.0-0.0-4.0-0.0-1.29","3","3","4","3","2","3","3","4","4","4","4","5","5","4","4","4","4","4","4","5","2","1","2","1","2","2","1","1","1","1","1","1","0","0","1","0","0","0","0","0","0","0","0","1","4","2","2","2","2","1","4","2","1","1","2","690528419074539520","王","189","","","","","","","","","","","","","","","","","","","","","","","","","","","","","","feedback_test","","","","","","","","","","","",""
"729","","f","psychophysics","167","395114","0.0-7.0-0.0-4.0-0.0-0.30","3","3","4","3","2","3","3","4","4","4","4","5","5","4","4","4","4","4","4","5","2","1","2","1","2","2","1","1","1","1","1","1","0","0","1","0","0","0","0","0","0","0","0","1","4","2","2","2","2","1","4","2","1","1","2","690528419074539520","王","189","","","","nonmatch","","","","","","","","","","","","","","key","f","16.66176470588235","640","356","f","true","nonmatch","img/ellipse.png","梯形","椭圆","ALT1","formal_ALT1_1","","","","","","","","","","","",""
"null","<span style='color:GreenYellow; font-size: 70px;'>正确! </span>","null","html-keyboard-response","168","395615","0.0-7.0-0.0-4.0-0.0-1.30","3","3","4","3","2","3","3","4","4","4","4","5","5","4","4","4","4","4","4","5","2","1","2","1","2","2","1","1","1","1","1","1","0","0","1","0","0","0","0","0","0","0","0","1","4","2","2","2","2","1","4","2","1","1","2","690528419074539520","王","189","","","","","","","","","","","","","","","","","","","","","","","","","","","","","","feedback_test","","","","","","","","","","","",""
"764","","f","psychophysics","169","397381","0.0-7.0-0.0-4.0-0.0-0.31","3","3","4","3","2","3","3","4","4","4","4","5","5","4","4","4","4","4","4","5","2","1","2","1","2","2","1","1","1","1","1","1","0","0","1","0","0","0","0","0","0","0","0","1","4","2","2","2","2","1","4","2","1","1","2","690528419074539520","王","189","","","","nonmatch","","","","","","","","","","","","","","key","f","16.660576923077034","640","356","f","true","nonmatch","img/trapezoid.png","五边","梯形","ALT1","formal_ALT1_1","","","","","","","","","","","",""
"null","<span style='color:GreenYellow; font-size: 70px;'>正确! </span>","null","html-keyboard-response","170","397883","0.0-7.0-0.0-4.0-0.0-1.31","3","3","4","3","2","3","3","4","4","4","4","5","5","4","4","4","4","4","4","5","2","1","2","1","2","2","1","1","1","1","1","1","0","0","1","0","0","0","0","0","0","0","0","1","4","2","2","2","2","1","4","2","1","1","2","690528419074539520","王","189","","","","","","","","","","","","","","","","","","","","","","","","","","","","","","feedback_test","","","","","","","","","","","",""
"613","","f","psychophysics","171","399498","0.0-7.0-0.0-4.0-0.0-0.32","3","3","4","3","2","3","3","4","4","4","4","5","5","4","4","4","4","4","4","5","2","1","2","1","2","2","1","1","1","1","1","1","0","0","1","0","0","0","0","0","0","0","0","1","4","2","2","2","2","1","4","2","1","1","2","690528419074539520","王","189","","","","nonmatch","","","","","","","","","","","","","","key","f","16.657291666666424","640","356","f","true","nonmatch","img/ellipse.png","菱形","椭圆","ALT1","formal_ALT1_1","","","","","","","","","","","",""
"null","<span style='color:GreenYellow; font-size: 70px;'>正确! </span>","null","html-keyboard-response","172","399999","0.0-7.0-0.0-4.0-0.0-1.32","3","3","4","3","2","3","3","4","4","4","4","5","5","4","4","4","4","4","4","5","2","1","2","1","2","2","1","1","1","1","1","1","0","0","1","0","0","0","0","0","0","0","0","1","4","2","2","2","2","1","4","2","1","1","2","690528419074539520","王","189","","","","","","","","","","","","","","","","","","","","","","","","","","","","","","feedback_test","","","","","","","","","","","",""
"629","","f","psychophysics","173","401630","0.0-7.0-0.0-4.0-0.0-0.33","3","3","4","3","2","3","3","4","4","4","4","5","5","4","4","4","4","4","4","5","2","1","2","1","2","2","1","1","1","1","1","1","0","0","1","0","0","0","0","0","0","0","0","1","4","2","2","2","2","1","4","2","1","1","2","690528419074539520","王","189","","","","nonmatch","","","","","","","","","","","","","","key","f","16.661458333333332","640","356","f","true","nonmatch","img/diamond.png","梯形","菱形","ALT1","formal_ALT1_1","","","","","","","","","","","",""
"null","<span style='color:GreenYellow; font-size: 70px;'>正确! </span>","null","html-keyboard-response","174","402131","0.0-7.0-0.0-4.0-0.0-1.33","3","3","4","3","2","3","3","4","4","4","4","5","5","4","4","4","4","4","4","5","2","1","2","1","2","2","1","1","1","1","1","1","0","0","1","0","0","0","0","0","0","0","0","1","4","2","2","2","2","1","4","2","1","1","2","690528419074539520","王","189","","","","","","","","","","","","","","","","","","","","","","","","","","","","","","feedback_test","","","","","","","","","","","",""
"554","","f","psychophysics","175","403687","0.0-7.0-0.0-4.0-0.0-0.34","3","3","4","3","2","3","3","4","4","4","4","5","5","4","4","4","4","4","4","5","2","1","2","1","2","2","1","1","1","1","1","1","0","0","1","0","0","0","0","0","0","0","0","1","4","2","2","2","2","1","4","2","1","1","2","690528419074539520","王","189","","","","nonmatch","","","","","","","","","","","","","","key","f","16.66195652173875","640","356","f","true","nonmatch","img/ellipse.png","五边","椭圆","ALT1","formal_ALT1_1","","","","","","","","","","","",""
"null","<span style='color:GreenYellow; font-size: 70px;'>正确! </span>","null","html-keyboard-response","176","404187","0.0-7.0-0.0-4.0-0.0-1.34","3","3","4","3","2","3","3","4","4","4","4","5","5","4","4","4","4","4","4","5","2","1","2","1","2","2","1","1","1","1","1","1","0","0","1","0","0","0","0","0","0","0","0","1","4","2","2","2","2","1","4","2","1","1","2","690528419074539520","王","189","","","","","","","","","","","","","","","","","","","","","","","","","","","","","","feedback_test","","","","","","","","","","","",""
"605","","f","psychophysics","177","405794","0.0-7.0-0.0-4.0-0.0-0.35","3","3","4","3","2","3","3","4","4","4","4","5","5","4","4","4","4","4","4","5","2","1","2","1","2","2","1","1","1","1","1","1","0","0","1","0","0","0","0","0","0","0","0","1","4","2","2","2","2","1","4","2","1","1","2","690528419074539520","王","189","","","","nonmatch","","","","","","","","","","","","","","key","f","16.667368421052878","640","356","f","true","nonmatch","img/pentagon.png","菱形","五边","ALT1","formal_ALT1_1","","","","","","","","","","","",""
"null","<span style='color:GreenYellow; font-size: 70px;'>正确! </span>","null","html-keyboard-response","178","406295","0.0-7.0-0.0-4.0-0.0-1.35","3","3","4","3","2","3","3","4","4","4","4","5","5","4","4","4","4","4","4","5","2","1","2","1","2","2","1","1","1","1","1","1","0","0","1","0","0","0","0","0","0","0","0","1","4","2","2","2","2","1","4","2","1","1","2","690528419074539520","王","189","","","","","","","","","","","","","","","","","","","","","","","","","","","","","","feedback_test","","","","","","","","","","","",""
"708","","j","psychophysics","179","408005","0.0-7.0-0.0-4.0-0.0-0.36","3","3","4","3","2","3","3","4","4","4","4","5","5","4","4","4","4","4","4","5","2","1","2","1","2","2","1","1","1","1","1","1","0","0","1","0","0","0","0","0","0","0","0","1","4","2","2","2","2","1","4","2","1","1","2","690528419074539520","王","189","","","","match","","","","","","","","","","","","","","key","j","16.659405940593828","640","356","j","true","match","img/ellipse.png","椭圆","椭圆","ALT1","formal_ALT1_1","","","","","","","","","","","",""
"null","<span style='color:GreenYellow; font-size: 70px;'>正确! </span>","null","html-keyboard-response","180","408506","0.0-7.0-0.0-4.0-0.0-1.36","3","3","4","3","2","3","3","4","4","4","4","5","5","4","4","4","4","4","4","5","2","1","2","1","2","2","1","1","1","1","1","1","0","0","1","0","0","0","0","0","0","0","0","1","4","2","2","2","2","1","4","2","1","1","2","690528419074539520","王","189","","","","","","","","","","","","","","","","","","","","","","","","","","","","","","feedback_test","","","","","","","","","","","",""
"519","","j","psychophysics","181","410028","0.0-7.0-0.0-4.0-0.0-0.37","3","3","4","3","2","3","3","4","4","4","4","5","5","4","4","4","4","4","4","5","2","1","2","1","2","2","1","1","1","1","1","1","0","0","1","0","0","0","0","0","0","0","0","1","4","2","2","2","2","1","4","2","1","1","2","690528419074539520","王","189","","","","match","","","","","","","","","","","","","","key","j","16.662222222221963","640","356","j","true","match","img/diamond.png","菱形","菱形","ALT1","formal_ALT1_1","","","","","","","","","","","",""
