"rt","stimulus","response","trial_type","trial_index","time_elapsed","internal_node_id","ses_1","ses_2","ses_3","ses_4","ses_5","ses_6","ses_7","ses_8","ses_9","ses_10","coreself_1","coreself_2","coreself_3","coreself_4","coreself_5","coreself_6","coreself_7","coreself_8","coreself_9","coreself_10","SGPS_1","SGPS_2","SGPS_3","SGPS_4","SGPS_5","SGPS_6","SGPS_7","SGPS_8","SGPS_9","NPI1","NPI2","NPI3","NPI4","NPI5","NPI6","NPI7","NPI8","NPI9","NPI10","NPI11","NPI12","NPI13","NPI14","NPI15","hsns_1","hsns_2","hsns_3","hsns_4","hsns_5","trap1","hsns_6","hsns_7","hsns_8","hsns_9","hsns_10","subj_idx","friend_name","ParticipantID","value","success","user_agent","responses","item_order","radio_event_ids","radio_event_times","key_event_times","mouse_event_times","straightlining","zigzagging","honeypot","timeout","failed_images","failed_audio","failed_video","version_attrib2","version_target2","correct","IAT","screen_id","task_id","RT","condition","word","varname","summary","version_attrib","version_target","time_stamp","view_history","response_type","key_press","avg_frame_time","center_x","center_y","correct_response","identity","Image","question_order","correct_answer","trap1_item"
"16836","
   <p><div style = ""color: white;font-size:25px;"">您好，欢迎参加本次实验。</div> </p>
   <p><div style = ""color: white;font-size:25px;"">为充分保障您的权利，请确保您已经知晓并同意《参与实验同意书》以及《数据公开知情同意书》。</div></p>
   <p><div style = ""color: white;font-size:25px;"">如果您未见过上述内容，请咨询实验员。</div></p>
   <p><div style = ""color: white;font-size:25px;"">如果您选择继续实验，则表示您已经清楚两份知情同意书的内容并同意。</div></p>
   <p><div style = ""color: pink;font-size:30px;"">请确保您记得day0的实验编号，您将在本次实验输入该编号，若您忘记，请咨询实验员后作答。</div></p>
   <p><div style = ""color: lightblue;font-size:25px;"">请您尽可能认真地作答，我们将依据您在各问卷和按键任务中的作答质量发放报酬。</div></p>
   <p> <div style = ""color: green;font-size:25px;""><按空格键至下页></div> </p>
   "," ","html-keyboard-response","0","16839","0.0-0.0","4","4","4","3","4","4","4","3","4","4","5","3","4","4","4","5","5","5","4","5","5","3","5","3","2","4","4","1","5","0","0","0","1","1","1","0","0","0","1","1","0","0","0","1","4","1","2","2","4","5","4","5","4","5","3","759925175528722434","林","399","","","","","","","","","","","","","","","","","","","","","","","","","","","","","","","","","","","","","","","","","",""
"","","","call-function","1","16841","0.0-1.0-0.0","4","4","4","3","4","4","4","3","4","4","5","3","4","4","4","5","5","5","4","5","5","3","5","3","2","4","4","1","5","0","0","0","1","1","1","0","0","0","1","1","0","0","0","1","4","1","2","2","4","5","4","5","4","5","3","759925175528722434","林","399","","","","","","","","","","","","","","","","","","","","","","","","","","","","","","","","","","","","","","","","","",""
"17223","","{""friend_name"":""林"",""ParticipantID"":""399""}","survey-html-form","2","34066","0.0-1.0-1.0","4","4","4","3","4","4","4","3","4","4","5","3","4","4","4","5","5","5","4","5","5","3","5","3","2","4","4","1","5","0","0","0","1","1","1","0","0","0","1","1","0","0","0","1","4","1","2","2","4","5","4","5","4","5","3","759925175528722434","林","399","","","","","","","","","","","","","","","","","","","","","","","","","","","","","","","","","","","","","","","","","",""
"","","","fullscreen","3","47958","0.0-2.0","4","4","4","3","4","4","4","3","4","4","5","3","4","4","4","5","5","5","4","5","5","3","5","3","2","4","4","1","5","0","0","0","1","1","1","0","0","0","1","1","0","0","0","1","4","1","2","2","4","5","4","5","4","5","3","759925175528722434","林","399","","true","{}","","","","","","","","","","","","","","","","","","","","","","","","","","","","","","","","","","","","","","",""
"28409.5","","{""Q01"":""4"",""Q02"":""4"",""Q03"":""4"",""Q04"":""3"",""Q05"":""4"",""Q06"":""4"",""Q07"":""4"",""Q08"":""3"",""Q09"":""4"",""Q10"":""4""}","survey-template","4","76371","0.0-3.0","4","4","4","3","4","4","4","3","4","4","5","3","4","4","4","5","5","5","4","5","5","3","5","3","2","4","4","1","5","0","0","0","1","1","1","0","0","0","1","1","0","0","0","1","4","1","2","2","4","5","4","5","4","5","3","759925175528722434","林","399","","","","{""Q01"":""4"",""Q02"":""4"",""Q03"":""4"",""Q04"":""3"",""Q05"":""4"",""Q06"":""4"",""Q07"":""4"",""Q08"":""3"",""Q09"":""4"",""Q10"":""4""}","[0,1,2,3,4,5,6,7,8,9]","[""Q01"",""Q02"",""Q03"",""Q04"",""Q05"",""Q06"",""Q07"",""Q08"",""Q09"",""Q10""]","[3346.300000190735,6434.100000143051,7442.5,9264.300000190735,11412.100000143051,12884.200000047684,15209.900000095367,22395.60000014305,24856.200000047684,25867.400000095367]","[]","[3346.300000190735,4719.100000143051,5057.900000095367,6434.100000143051,7442.5,9264.300000190735,11412.100000143051,12884.200000047684,13912.400000095367,15209.900000095367,16733.5,22395.60000014305,24856.200000047684,25867.400000095367,28407.900000095367]","0.4","0.3333333333333333","0","","","","","","","","","","","","","","","","","","","","","","","","","","","","","",""
"41462.40000009537","","{""Q01"":""5"",""Q02"":""3"",""Q03"":""4"",""Q04"":""4"",""Q05"":""4"",""Q06"":""5"",""Q07"":""5"",""Q08"":""5"",""Q09"":""4"",""Q10"":""5""}","survey-template","5","117840","0.0-4.0","4","4","4","3","4","4","4","3","4","4","5","3","4","4","4","5","5","5","4","5","5","3","5","3","2","4","4","1","5","0","0","0","1","1","1","0","0","0","1","1","0","0","0","1","4","1","2","2","4","5","4","5","4","5","3","759925175528722434","林","399","","","","{""Q01"":""5"",""Q02"":""3"",""Q03"":""4"",""Q04"":""4"",""Q05"":""4"",""Q06"":""5"",""Q07"":""5"",""Q08"":""5"",""Q09"":""4"",""Q10"":""5""}","[0,1,2,3,4,5,6,7,8,9]","[""Q01"",""Q02"",""Q02"",""Q03"",""Q03"",""Q04"",""Q05"",""Q06"",""Q07"",""Q07"",""Q08"",""Q09"",""Q10"",""Q09"",""Q10"",""Q10""]","[2356,3402.2000000476837,7294.400000095367,10876.200000047684,13144.200000047684,15123.800000190735,17594.200000047684,20693.5,22726.10000014305,24652,25040,30016.10000014305,31902.10000014305,32866.200000047684,38592.10000014305,40475.700000047684]","[]","[2356,3402.2000000476837,5107,6438.200000047684,7294.400000095367,10876.200000047684,13144.200000047684,15123.800000190735,17594.200000047684,19554,20693.5,22726.10000014305,24652,25040,30016.10000014305,31902.10000014305,32866.200000047684,38592.10000014305,39276.300000190735,40475.700000047684,41460.300000190735]","0.3","0.2222222222222222","0","","","","","","","","","","","","","","","","","","","","","","","","","","","","","",""
"","","","preload","6","118140","0.0-5.0","4","4","4","3","4","4","4","3","4","4","5","3","4","4","4","5","5","5","4","5","5","3","5","3","2","4","4","1","5","0","0","0","1","1","1","0","0","0","1","1","0","0","0","1","4","1","2","2","4","5","4","5","4","5","3","759925175528722434","林","399","","true","","","","","","","","","","","false","[]","[]","[]","","","","","","","","","","","","","","","","","","","","","","","","","",""
"16988","
    <h3>词语分类任务</h3>
    <p>在接下来的任务中，你需要对一系列词语进行分类。<p/>
    请先熟悉这些词语，这有利于你完成接下来的任务。</p>
    <table align=""center"" border=1 cellpadding=3 cellspacing=0>
    <tr> <th>类别</th> <th>词语</th> </tr>
    <tr> <td>&emsp;积极&emsp;</td> <td>&emsp;高尚、诚信、善良、君子、廉正、正直&emsp;</td> </tr>
    <tr> <td>&emsp;消极&emsp;</td> <td>&emsp;缺德、卑鄙、不孝、不仁、小人、黑心&emsp;</td> </tr>
    <tr> <td>&emsp;自我&emsp;</td> <td>&emsp;我、我的、自己、自己的、本人、本人的&emsp;</td> </tr>
    <tr> <td>&emsp;他人&emsp;</td> <td>&emsp;他、他的、别人、别人的、他人、他人的&emsp;</td> </tr>
    </table><br/>","0","html-button-response","7","135129","0.0-6.0-1.0-0.0","4","4","4","3","4","4","4","3","4","4","5","3","4","4","4","5","5","5","4","5","5","3","5","3","2","4","4","1","5","0","0","0","1","1","1","0","0","0","1","1","0","0","0","1","4","1","2","2","4","5","4","5","4","5","3","759925175528722434","林","399","","","","","","","","","","","","","","","","","2","1","","","","","","","","","","","","","","","","","","","","","","","",""
"18411","
    <div class=""tag-bottom""><p>
    —— 任务1：对“自我”词和“他人”词分类 ——<p/>
    不同词语会出现在屏幕中央，类别标签将始终显示在屏幕上方<p/>   
    <span style=""color:#FFD866""><b>请根据上方标签的提示，尽可能正确并且快速地做出按键反应</b></span><p/>
    当按键错误时屏幕中会出现<span style=""color:red""> X </span>，需要按另一个键纠正才能继续<br/><p/>
    请把双手食指分别放在键盘的“E”键和“I”键上<p/>
    按<空格键>开始
    </p></div>"," ","html-keyboard-response","8","153543","0.0-6.0-1.0-1.0","4","4","4","3","4","4","4","3","4","4","5","3","4","4","4","5","5","5","4","5","5","3","5","3","2","4","4","1","5","0","0","0","1","1","1","0","0","0","1","1","0","0","0","1","4","1","2","2","4","5","4","5","4","5","3","759925175528722434","林","399","","","","","","","","","","","","","","","","","","","","","","","","","","","","","","","","","","","","","","","","","",""
"null","","null","html-keyboard-response","9","153795","0.0-6.0-1.0-2.0-0.0","4","4","4","3","4","4","4","3","4","4","5","3","4","4","4","5","5","5","4","5","5","3","5","3","2","4","4","1","5","0","0","0","1","1","1","0","0","0","1","1","0","0","0","1","4","1","2","2","4","5","4","5","4","5","3","759925175528722434","林","399","","","","","","","","","","","","","","","","","","","","","","","","","","","","","","","","","","","","","","","","","",""
"822","<p style=""color:rgb(150, 250, 100); font-size: 35px;"">他人</p>","e","categorize-html","10","155305","0.0-6.0-1.0-2.0-1.0","4","4","4","3","4","4","4","3","4","4","5","3","4","4","4","5","5","5","4","5","5","3","5","3","2","4","4","1","5","0","0","0","1","1","1","0","0","0","1","1","0","0","0","1","4","1","2","2","4","5","4","5","4","5","3","759925175528722434","林","399","","","","","","","","","","","","","","","","","","","false","11","1","moral","822","other","他人","","","","","","","","","","","","","","","","",""
"null","","null","html-keyboard-response","11","155556","0.0-6.0-1.0-2.0-0.1","4","4","4","3","4","4","4","3","4","4","5","3","4","4","4","5","5","5","4","5","5","3","5","3","2","4","4","1","5","0","0","0","1","1","1","0","0","0","1","1","0","0","0","1","4","1","2","2","4","5","4","5","4","5","3","759925175528722434","林","399","","","","","","","","","","","","","","","","","","","","","","","","","","","","","","","","","","","","","","","","","",""
"1777","<p style=""color:rgb(150, 250, 100); font-size: 35px;"">本人</p>","e","categorize-html","12","157334","0.0-6.0-1.0-2.0-1.1","4","4","4","3","4","4","4","3","4","4","5","3","4","4","4","5","5","5","4","5","5","3","5","3","2","4","4","1","5","0","0","0","1","1","1","0","0","0","1","1","0","0","0","1","4","1","2","2","4","5","4","5","4","5","3","759925175528722434","林","399","","","","","","","","","","","","","","","","","","","true","11","1","moral","1777","self","本人","","","","","","","","","","","","","","","","",""
"null","","null","html-keyboard-response","13","157594","0.0-6.0-1.0-2.0-0.2","4","4","4","3","4","4","4","3","4","4","5","3","4","4","4","5","5","5","4","5","5","3","5","3","2","4","4","1","5","0","0","0","1","1","1","0","0","0","1","1","0","0","0","1","4","1","2","2","4","5","4","5","4","5","3","759925175528722434","林","399","","","","","","","","","","","","","","","","","","","","","","","","","","","","","","","","","","","","","","","","","",""
"809","<p style=""color:rgb(150, 250, 100); font-size: 35px;"">我的</p>","e","categorize-html","14","158404","0.0-6.0-1.0-2.0-1.2","4","4","4","3","4","4","4","3","4","4","5","3","4","4","4","5","5","5","4","5","5","3","5","3","2","4","4","1","5","0","0","0","1","1","1","0","0","0","1","1","0","0","0","1","4","1","2","2","4","5","4","5","4","5","3","759925175528722434","林","399","","","","","","","","","","","","","","","","","","","true","11","1","moral","809","self","我的","","","","","","","","","","","","","","","","",""
"null","","null","html-keyboard-response","15","158656","0.0-6.0-1.0-2.0-0.3","4","4","4","3","4","4","4","3","4","4","5","3","4","4","4","5","5","5","4","5","5","3","5","3","2","4","4","1","5","0","0","0","1","1","1","0","0","0","1","1","0","0","0","1","4","1","2","2","4","5","4","5","4","5","3","759925175528722434","林","399","","","","","","","","","","","","","","","","","","","","","","","","","","","","","","","","","","","","","","","","","",""
"663","<p style=""color:rgb(150, 250, 100); font-size: 35px;"">别人</p>","i","categorize-html","16","159323","0.0-6.0-1.0-2.0-1.3","4","4","4","3","4","4","4","3","4","4","5","3","4","4","4","5","5","5","4","5","5","3","5","3","2","4","4","1","5","0","0","0","1","1","1","0","0","0","1","1","0","0","0","1","4","1","2","2","4","5","4","5","4","5","3","759925175528722434","林","399","","","","","","","","","","","","","","","","","","","true","11","1","moral","663","other","别人","","","","","","","","","","","","","","","","",""
"null","","null","html-keyboard-response","17","159574","0.0-6.0-1.0-2.0-0.4","4","4","4","3","4","4","4","3","4","4","5","3","4","4","4","5","5","5","4","5","5","3","5","3","2","4","4","1","5","0","0","0","1","1","1","0","0","0","1","1","0","0","0","1","4","1","2","2","4","5","4","5","4","5","3","759925175528722434","林","399","","","","","","","","","","","","","","","","","","","","","","","","","","","","","","","","","","","","","","","","","",""
"1390","<p style=""color:rgb(150, 250, 100); font-size: 35px;"">本人的</p>","e","categorize-html","18","160968","0.0-6.0-1.0-2.0-1.4","4","4","4","3","4","4","4","3","4","4","5","3","4","4","4","5","5","5","4","5","5","3","5","3","2","4","4","1","5","0","0","0","1","1","1","0","0","0","1","1","0","0","0","1","4","1","2","2","4","5","4","5","4","5","3","759925175528722434","林","399","","","","","","","","","","","","","","","","","","","true","11","1","moral","1390","self","本人的","","","","","","","","","","","","","","","","",""
"null","","null","html-keyboard-response","19","161220","0.0-6.0-1.0-2.0-0.5","4","4","4","3","4","4","4","3","4","4","5","3","4","4","4","5","5","5","4","5","5","3","5","3","2","4","4","1","5","0","0","0","1","1","1","0","0","0","1","1","0","0","0","1","4","1","2","2","4","5","4","5","4","5","3","759925175528722434","林","399","","","","","","","","","","","","","","","","","","","","","","","","","","","","","","","","","","","","","","","","","",""
"610","<p style=""color:rgb(150, 250, 100); font-size: 35px;"">他的</p>","i","categorize-html","20","161831","0.0-6.0-1.0-2.0-1.5","4","4","4","3","4","4","4","3","4","4","5","3","4","4","4","5","5","5","4","5","5","3","5","3","2","4","4","1","5","0","0","0","1","1","1","0","0","0","1","1","0","0","0","1","4","1","2","2","4","5","4","5","4","5","3","759925175528722434","林","399","","","","","","","","","","","","","","","","","","","true","11","1","moral","610","other","他的","","","","","","","","","","","","","","","","",""
"null","","null","html-keyboard-response","21","162082","0.0-6.0-1.0-2.0-0.6","4","4","4","3","4","4","4","3","4","4","5","3","4","4","4","5","5","5","4","5","5","3","5","3","2","4","4","1","5","0","0","0","1","1","1","0","0","0","1","1","0","0","0","1","4","1","2","2","4","5","4","5","4","5","3","759925175528722434","林","399","","","","","","","","","","","","","","","","","","","","","","","","","","","","","","","","","","","","","","","","","",""
"606","<p style=""color:rgb(150, 250, 100); font-size: 35px;"">他</p>","i","categorize-html","22","162690","0.0-6.0-1.0-2.0-1.6","4","4","4","3","4","4","4","3","4","4","5","3","4","4","4","5","5","5","4","5","5","3","5","3","2","4","4","1","5","0","0","0","1","1","1","0","0","0","1","1","0","0","0","1","4","1","2","2","4","5","4","5","4","5","3","759925175528722434","林","399","","","","","","","","","","","","","","","","","","","true","11","1","moral","606","other","他","","","","","","","","","","","","","","","","",""
"null","","null","html-keyboard-response","23","162940","0.0-6.0-1.0-2.0-0.7","4","4","4","3","4","4","4","3","4","4","5","3","4","4","4","5","5","5","4","5","5","3","5","3","2","4","4","1","5","0","0","0","1","1","1","0","0","0","1","1","0","0","0","1","4","1","2","2","4","5","4","5","4","5","3","759925175528722434","林","399","","","","","","","","","","","","","","","","","","","","","","","","","","","","","","","","","","","","","","","","","",""
"590","<p style=""color:rgb(150, 250, 100); font-size: 35px;"">自己的</p>","e","categorize-html","24","163534","0.0-6.0-1.0-2.0-1.7","4","4","4","3","4","4","4","3","4","4","5","3","4","4","4","5","5","5","4","5","5","3","5","3","2","4","4","1","5","0","0","0","1","1","1","0","0","0","1","1","0","0","0","1","4","1","2","2","4","5","4","5","4","5","3","759925175528722434","林","399","","","","","","","","","","","","","","","","","","","true","11","1","moral","590","self","自己的","","","","","","","","","","","","","","","","",""
"null","","null","html-keyboard-response","25","163786","0.0-6.0-1.0-2.0-0.8","4","4","4","3","4","4","4","3","4","4","5","3","4","4","4","5","5","5","4","5","5","3","5","3","2","4","4","1","5","0","0","0","1","1","1","0","0","0","1","1","0","0","0","1","4","1","2","2","4","5","4","5","4","5","3","759925175528722434","林","399","","","","","","","","","","","","","","","","","","","","","","","","","","","","","","","","","","","","","","","","","",""
"557","<p style=""color:rgb(150, 250, 100); font-size: 35px;"">自己</p>","e","categorize-html","26","164348","0.0-6.0-1.0-2.0-1.8","4","4","4","3","4","4","4","3","4","4","5","3","4","4","4","5","5","5","4","5","5","3","5","3","2","4","4","1","5","0","0","0","1","1","1","0","0","0","1","1","0","0","0","1","4","1","2","2","4","5","4","5","4","5","3","759925175528722434","林","399","","","","","","","","","","","","","","","","","","","true","11","1","moral","557","self","自己","","","","","","","","","","","","","","","","",""
"null","","null","html-keyboard-response","27","164599","0.0-6.0-1.0-2.0-0.9","4","4","4","3","4","4","4","3","4","4","5","3","4","4","4","5","5","5","4","5","5","3","5","3","2","4","4","1","5","0","0","0","1","1","1","0","0","0","1","1","0","0","0","1","4","1","2","2","4","5","4","5","4","5","3","759925175528722434","林","399","","","","","","","","","","","","","","","","","","","","","","","","","","","","","","","","","","","","","","","","","",""
"1118","<p style=""color:rgb(150, 250, 100); font-size: 35px;"">别人的</p>","i","categorize-html","28","165719","0.0-6.0-1.0-2.0-1.9","4","4","4","3","4","4","4","3","4","4","5","3","4","4","4","5","5","5","4","5","5","3","5","3","2","4","4","1","5","0","0","0","1","1","1","0","0","0","1","1","0","0","0","1","4","1","2","2","4","5","4","5","4","5","3","759925175528722434","林","399","","","","","","","","","","","","","","","","","","","true","11","1","moral","1118","other","别人的","","","","","","","","","","","","","","","","",""
"null","","null","html-keyboard-response","29","165970","0.0-6.0-1.0-2.0-0.10","4","4","4","3","4","4","4","3","4","4","5","3","4","4","4","5","5","5","4","5","5","3","5","3","2","4","4","1","5","0","0","0","1","1","1","0","0","0","1","1","0","0","0","1","4","1","2","2","4","5","4","5","4","5","3","759925175528722434","林","399","","","","","","","","","","","","","","","","","","","","","","","","","","","","","","","","","","","","","","","","","",""
"628","<p style=""color:rgb(150, 250, 100); font-size: 35px;"">我</p>","e","categorize-html","30","166601","0.0-6.0-1.0-2.0-1.10","4","4","4","3","4","4","4","3","4","4","5","3","4","4","4","5","5","5","4","5","5","3","5","3","2","4","4","1","5","0","0","0","1","1","1","0","0","0","1","1","0","0","0","1","4","1","2","2","4","5","4","5","4","5","3","759925175528722434","林","399","","","","","","","","","","","","","","","","","","","true","11","1","moral","628","self","我","","","","","","","","","","","","","","","","",""
"null","","null","html-keyboard-response","31","166853","0.0-6.0-1.0-2.0-0.11","4","4","4","3","4","4","4","3","4","4","5","3","4","4","4","5","5","5","4","5","5","3","5","3","2","4","4","1","5","0","0","0","1","1","1","0","0","0","1","1","0","0","0","1","4","1","2","2","4","5","4","5","4","5","3","759925175528722434","林","399","","","","","","","","","","","","","","","","","","","","","","","","","","","","","","","","","","","","","","","","","",""
"1098","<p style=""color:rgb(150, 250, 100); font-size: 35px;"">他人的</p>","e","categorize-html","32","168335","0.0-6.0-1.0-2.0-1.11","4","4","4","3","4","4","4","3","4","4","5","3","4","4","4","5","5","5","4","5","5","3","5","3","2","4","4","1","5","0","0","0","1","1","1","0","0","0","1","1","0","0","0","1","4","1","2","2","4","5","4","5","4","5","3","759925175528722434","林","399","","","","","","","","","","","","","","","","","","","false","11","1","moral","1098","other","他人的","","","","","","","","","","","","","","","","",""
"20804","
    <div class=""tag-bottom""><p>
    —— 任务2：对“消极”词和“积极”词分类 ——<p/>   
    <span style=""color:#78DCE8""><b>注意上方，类别标签和需要分类的词语都已经改变</b></span><p/>
    <span style=""color:#FFD866""><b>请根据上方标签的提示，尽可能正确并且快速地做出按键反应</b></span><p/>
    当按键错误时屏幕中会出现<span style=""color:red""> X </span>，需要按另一个键纠正才能继续<br/><p/>
    请把双手食指分别放在键盘的“E”键和“I”键上<p/>
    按<空格键>开始
    </p></div>"," ","html-keyboard-response","33","189140","0.0-6.0-1.0-3.0","4","4","4","3","4","4","4","3","4","4","5","3","4","4","4","5","5","5","4","5","5","3","5","3","2","4","4","1","5","0","0","0","1","1","1","0","0","0","1","1","0","0","0","1","4","1","2","2","4","5","4","5","4","5","3","759925175528722434","林","399","","","","","","","","","","","","","","","","","","","","","","","","","","","","","","","","","","","","","","","","","",""
"null","","null","html-keyboard-response","34","189391","0.0-6.0-1.0-4.0-0.0","4","4","4","3","4","4","4","3","4","4","5","3","4","4","4","5","5","5","4","5","5","3","5","3","2","4","4","1","5","0","0","0","1","1","1","0","0","0","1","1","0","0","0","1","4","1","2","2","4","5","4","5","4","5","3","759925175528722434","林","399","","","","","","","","","","","","","","","","","","","","","","","","","","","","","","","","","","","","","","","","","",""
"700","<p style=""color:white; font-size: 35px;"">廉正</p>","i","categorize-html","35","190094","0.0-6.0-1.0-4.0-1.0","4","4","4","3","4","4","4","3","4","4","5","3","4","4","4","5","5","5","4","5","5","3","5","3","2","4","4","1","5","0","0","0","1","1","1","0","0","0","1","1","0","0","0","1","4","1","2","2","4","5","4","5","4","5","3","759925175528722434","林","399","","","","","","","","","","","","","","","","","","","true","12","2","moral","700","positive","廉正","","","","","","","","","","","","","","","","",""
"null","","null","html-keyboard-response","36","190346","0.0-6.0-1.0-4.0-0.1","4","4","4","3","4","4","4","3","4","4","5","3","4","4","4","5","5","5","4","5","5","3","5","3","2","4","4","1","5","0","0","0","1","1","1","0","0","0","1","1","0","0","0","1","4","1","2","2","4","5","4","5","4","5","3","759925175528722434","林","399","","","","","","","","","","","","","","","","","","","","","","","","","","","","","","","","","","","","","","","","","",""
"632","<p style=""color:white; font-size: 35px;"">不仁</p>","e","categorize-html","37","190980","0.0-6.0-1.0-4.0-1.1","4","4","4","3","4","4","4","3","4","4","5","3","4","4","4","5","5","5","4","5","5","3","5","3","2","4","4","1","5","0","0","0","1","1","1","0","0","0","1","1","0","0","0","1","4","1","2","2","4","5","4","5","4","5","3","759925175528722434","林","399","","","","","","","","","","","","","","","","","","","true","12","2","moral","632","negative","不仁","","","","","","","","","","","","","","","","",""
"null","","null","html-keyboard-response","38","191231","0.0-6.0-1.0-4.0-0.2","4","4","4","3","4","4","4","3","4","4","5","3","4","4","4","5","5","5","4","5","5","3","5","3","2","4","4","1","5","0","0","0","1","1","1","0","0","0","1","1","0","0","0","1","4","1","2","2","4","5","4","5","4","5","3","759925175528722434","林","399","","","","","","","","","","","","","","","","","","","","","","","","","","","","","","","","","","","","","","","","","",""
"640","<p style=""color:white; font-size: 35px;"">善良</p>","i","categorize-html","39","191872","0.0-6.0-1.0-4.0-1.2","4","4","4","3","4","4","4","3","4","4","5","3","4","4","4","5","5","5","4","5","5","3","5","3","2","4","4","1","5","0","0","0","1","1","1","0","0","0","1","1","0","0","0","1","4","1","2","2","4","5","4","5","4","5","3","759925175528722434","林","399","","","","","","","","","","","","","","","","","","","true","12","2","moral","640","positive","善良","","","","","","","","","","","","","","","","",""
"null","","null","html-keyboard-response","40","192124","0.0-6.0-1.0-4.0-0.3","4","4","4","3","4","4","4","3","4","4","5","3","4","4","4","5","5","5","4","5","5","3","5","3","2","4","4","1","5","0","0","0","1","1","1","0","0","0","1","1","0","0","0","1","4","1","2","2","4","5","4","5","4","5","3","759925175528722434","林","399","","","","","","","","","","","","","","","","","","","","","","","","","","","","","","","","","","","","","","","","","",""
"1180","<p style=""color:white; font-size: 35px;"">正直</p>","i","categorize-html","41","193306","0.0-6.0-1.0-4.0-1.3","4","4","4","3","4","4","4","3","4","4","5","3","4","4","4","5","5","5","4","5","5","3","5","3","2","4","4","1","5","0","0","0","1","1","1","0","0","0","1","1","0","0","0","1","4","1","2","2","4","5","4","5","4","5","3","759925175528722434","林","399","","","","","","","","","","","","","","","","","","","true","12","2","moral","1180","positive","正直","","","","","","","","","","","","","","","","",""
"null","","null","html-keyboard-response","42","193560","0.0-6.0-1.0-4.0-0.4","4","4","4","3","4","4","4","3","4","4","5","3","4","4","4","5","5","5","4","5","5","3","5","3","2","4","4","1","5","0","0","0","1","1","1","0","0","0","1","1","0","0","0","1","4","1","2","2","4","5","4","5","4","5","3","759925175528722434","林","399","","","","","","","","","","","","","","","","","","","","","","","","","","","","","","","","","","","","","","","","","",""
"617","<p style=""color:white; font-size: 35px;"">缺德</p>","e","categorize-html","43","194179","0.0-6.0-1.0-4.0-1.4","4","4","4","3","4","4","4","3","4","4","5","3","4","4","4","5","5","5","4","5","5","3","5","3","2","4","4","1","5","0","0","0","1","1","1","0","0","0","1","1","0","0","0","1","4","1","2","2","4","5","4","5","4","5","3","759925175528722434","林","399","","","","","","","","","","","","","","","","","","","true","12","2","moral","617","negative","缺德","","","","","","","","","","","","","","","","",""
"null","","null","html-keyboard-response","44","194430","0.0-6.0-1.0-4.0-0.5","4","4","4","3","4","4","4","3","4","4","5","3","4","4","4","5","5","5","4","5","5","3","5","3","2","4","4","1","5","0","0","0","1","1","1","0","0","0","1","1","0","0","0","1","4","1","2","2","4","5","4","5","4","5","3","759925175528722434","林","399","","","","","","","","","","","","","","","","","","","","","","","","","","","","","","","","","","","","","","","","","",""
"622","<p style=""color:white; font-size: 35px;"">君子</p>","i","categorize-html","45","195053","0.0-6.0-1.0-4.0-1.5","4","4","4","3","4","4","4","3","4","4","5","3","4","4","4","5","5","5","4","5","5","3","5","3","2","4","4","1","5","0","0","0","1","1","1","0","0","0","1","1","0","0","0","1","4","1","2","2","4","5","4","5","4","5","3","759925175528722434","林","399","","","","","","","","","","","","","","","","","","","true","12","2","moral","622","positive","君子","","","","","","","","","","","","","","","","",""
"null","","null","html-keyboard-response","46","195304","0.0-6.0-1.0-4.0-0.6","4","4","4","3","4","4","4","3","4","4","5","3","4","4","4","5","5","5","4","5","5","3","5","3","2","4","4","1","5","0","0","0","1","1","1","0","0","0","1","1","0","0","0","1","4","1","2","2","4","5","4","5","4","5","3","759925175528722434","林","399","","","","","","","","","","","","","","","","","","","","","","","","","","","","","","","","","","","","","","","","","",""
"636","<p style=""color:white; font-size: 35px;"">卑鄙</p>","e","categorize-html","47","195940","0.0-6.0-1.0-4.0-1.6","4","4","4","3","4","4","4","3","4","4","5","3","4","4","4","5","5","5","4","5","5","3","5","3","2","4","4","1","5","0","0","0","1","1","1","0","0","0","1","1","0","0","0","1","4","1","2","2","4","5","4","5","4","5","3","759925175528722434","林","399","","","","","","","","","","","","","","","","","","","true","12","2","moral","636","negative","卑鄙","","","","","","","","","","","","","","","","",""
"null","","null","html-keyboard-response","48","196192","0.0-6.0-1.0-4.0-0.7","4","4","4","3","4","4","4","3","4","4","5","3","4","4","4","5","5","5","4","5","5","3","5","3","2","4","4","1","5","0","0","0","1","1","1","0","0","0","1","1","0","0","0","1","4","1","2","2","4","5","4","5","4","5","3","759925175528722434","林","399","","","","","","","","","","","","","","","","","","","","","","","","","","","","","","","","","","","","","","","","","",""
"1038","<p style=""color:white; font-size: 35px;"">小人</p>","e","categorize-html","49","197232","0.0-6.0-1.0-4.0-1.7","4","4","4","3","4","4","4","3","4","4","5","3","4","4","4","5","5","5","4","5","5","3","5","3","2","4","4","1","5","0","0","0","1","1","1","0","0","0","1","1","0","0","0","1","4","1","2","2","4","5","4","5","4","5","3","759925175528722434","林","399","","","","","","","","","","","","","","","","","","","true","12","2","moral","1038","negative","小人","","","","","","","","","","","","","","","","",""
"null","","null","html-keyboard-response","50","197483","0.0-6.0-1.0-4.0-0.8","4","4","4","3","4","4","4","3","4","4","5","3","4","4","4","5","5","5","4","5","5","3","5","3","2","4","4","1","5","0","0","0","1","1","1","0","0","0","1","1","0","0","0","1","4","1","2","2","4","5","4","5","4","5","3","759925175528722434","林","399","","","","","","","","","","","","","","","","","","","","","","","","","","","","","","","","","","","","","","","","","",""
"663","<p style=""color:white; font-size: 35px;"">高尚</p>","i","categorize-html","51","198149","0.0-6.0-1.0-4.0-1.8","4","4","4","3","4","4","4","3","4","4","5","3","4","4","4","5","5","5","4","5","5","3","5","3","2","4","4","1","5","0","0","0","1","1","1","0","0","0","1","1","0","0","0","1","4","1","2","2","4","5","4","5","4","5","3","759925175528722434","林","399","","","","","","","","","","","","","","","","","","","true","12","2","moral","663","positive","高尚","","","","","","","","","","","","","","","","",""
"null","","null","html-keyboard-response","52","198402","0.0-6.0-1.0-4.0-0.9","4","4","4","3","4","4","4","3","4","4","5","3","4","4","4","5","5","5","4","5","5","3","5","3","2","4","4","1","5","0","0","0","1","1","1","0","0","0","1","1","0","0","0","1","4","1","2","2","4","5","4","5","4","5","3","759925175528722434","林","399","","","","","","","","","","","","","","","","","","","","","","","","","","","","","","","","","","","","","","","","","",""
"586","<p style=""color:white; font-size: 35px;"">诚信</p>","i","categorize-html","53","198989","0.0-6.0-1.0-4.0-1.9","4","4","4","3","4","4","4","3","4","4","5","3","4","4","4","5","5","5","4","5","5","3","5","3","2","4","4","1","5","0","0","0","1","1","1","0","0","0","1","1","0","0","0","1","4","1","2","2","4","5","4","5","4","5","3","759925175528722434","林","399","","","","","","","","","","","","","","","","","","","true","12","2","moral","586","positive","诚信","","","","","","","","","","","","","","","","",""
"null","","null","html-keyboard-response","54","199240","0.0-6.0-1.0-4.0-0.10","4","4","4","3","4","4","4","3","4","4","5","3","4","4","4","5","5","5","4","5","5","3","5","3","2","4","4","1","5","0","0","0","1","1","1","0","0","0","1","1","0","0","0","1","4","1","2","2","4","5","4","5","4","5","3","759925175528722434","林","399","","","","","","","","","","","","","","","","","","","","","","","","","","","","","","","","","","","","","","","","","",""
"695","<p style=""color:white; font-size: 35px;"">不孝</p>","e","categorize-html","55","199939","0.0-6.0-1.0-4.0-1.10","4","4","4","3","4","4","4","3","4","4","5","3","4","4","4","5","5","5","4","5","5","3","5","3","2","4","4","1","5","0","0","0","1","1","1","0","0","0","1","1","0","0","0","1","4","1","2","2","4","5","4","5","4","5","3","759925175528722434","林","399","","","","","","","","","","","","","","","","","","","true","12","2","moral","695","negative","不孝","","","","","","","","","","","","","","","","",""
"null","","null","html-keyboard-response","56","200190","0.0-6.0-1.0-4.0-0.11","4","4","4","3","4","4","4","3","4","4","5","3","4","4","4","5","5","5","4","5","5","3","5","3","2","4","4","1","5","0","0","0","1","1","1","0","0","0","1","1","0","0","0","1","4","1","2","2","4","5","4","5","4","5","3","759925175528722434","林","399","","","","","","","","","","","","","","","","","","","","","","","","","","","","","","","","","","","","","","","","","",""
"593","<p style=""color:white; font-size: 35px;"">黑心</p>","e","categorize-html","57","200784","0.0-6.0-1.0-4.0-1.11","4","4","4","3","4","4","4","3","4","4","5","3","4","4","4","5","5","5","4","5","5","3","5","3","2","4","4","1","5","0","0","0","1","1","1","0","0","0","1","1","0","0","0","1","4","1","2","2","4","5","4","5","4","5","3","759925175528722434","林","399","","","","","","","","","","","","","","","","","","","true","12","2","moral","593","negative","黑心","","","","","","","","","","","","","","","","",""
"12980","
    <div class=""tag-bottom""><p>
    —— 任务3：对“自我/消极”词和“他人/积极”词分类 ——<p/>
    <span style=""color:#78DCE8""><b>注意上方，之前的四类词语将混合在一起交替呈现</b></span><p/>
    <span style=""color:#FFD866""><b>请根据上方标签的提示，尽可能正确并且快速地做出按键反应</b></span><p/>
    当按键错误时屏幕中会出现<span style=""color:red""> X </span>，需要按另一个键纠正才能继续<br/><p/>
    请把双手食指分别放在键盘的“E”键和“I”键上<p/>
    按<空格键>开始
    </p></div>"," ","html-keyboard-response","58","213765","0.0-6.0-1.0-5.0","4","4","4","3","4","4","4","3","4","4","5","3","4","4","4","5","5","5","4","5","5","3","5","3","2","4","4","1","5","0","0","0","1","1","1","0","0","0","1","1","0","0","0","1","4","1","2","2","4","5","4","5","4","5","3","759925175528722434","林","399","","","","","","","","","","","","","","","","","","","","","","","","","","","","","","","","","","","","","","","","","",""
"null","","null","html-keyboard-response","59","214016","0.0-6.0-1.0-6.0-0.0","4","4","4","3","4","4","4","3","4","4","5","3","4","4","4","5","5","5","4","5","5","3","5","3","2","4","4","1","5","0","0","0","1","1","1","0","0","0","1","1","0","0","0","1","4","1","2","2","4","5","4","5","4","5","3","759925175528722434","林","399","","","","","","","","","","","","","","","","","","","","","","","","","","","","","","","","","","","","","","","","","",""
"691","<p style=""color:rgb(150, 250, 100); font-size: 35px;"">我的</p>","e","categorize-html","60","214709","0.0-6.0-1.0-6.0-1.0","4","4","4","3","4","4","4","3","4","4","5","3","4","4","4","5","5","5","4","5","5","3","5","3","2","4","4","1","5","0","0","0","1","1","1","0","0","0","1","1","0","0","0","1","4","1","2","2","4","5","4","5","4","5","3","759925175528722434","林","399","","","","","","","","","","","","","","","","","","","true","13","3","moral","691","self","我的","","","","","","","","","","","","","","","","",""
"null","","null","html-keyboard-response","61","214961","0.0-6.0-1.0-6.0-0.1","4","4","4","3","4","4","4","3","4","4","5","3","4","4","4","5","5","5","4","5","5","3","5","3","2","4","4","1","5","0","0","0","1","1","1","0","0","0","1","1","0","0","0","1","4","1","2","2","4","5","4","5","4","5","3","759925175528722434","林","399","","","","","","","","","","","","","","","","","","","","","","","","","","","","","","","","","","","","","","","","","",""
"1253","<p style=""color:white; font-size: 35px;"">不孝</p>","e","categorize-html","62","216217","0.0-6.0-1.0-6.0-1.1","4","4","4","3","4","4","4","3","4","4","5","3","4","4","4","5","5","5","4","5","5","3","5","3","2","4","4","1","5","0","0","0","1","1","1","0","0","0","1","1","0","0","0","1","4","1","2","2","4","5","4","5","4","5","3","759925175528722434","林","399","","","","","","","","","","","","","","","","","","","true","13","3","moral","1253","negative","不孝","","","","","","","","","","","","","","","","",""
"null","","null","html-keyboard-response","63","216468","0.0-6.0-1.0-6.0-0.2","4","4","4","3","4","4","4","3","4","4","5","3","4","4","4","5","5","5","4","5","5","3","5","3","2","4","4","1","5","0","0","0","1","1","1","0","0","0","1","1","0","0","0","1","4","1","2","2","4","5","4","5","4","5","3","759925175528722434","林","399","","","","","","","","","","","","","","","","","","","","","","","","","","","","","","","","","","","","","","","","","",""
"824","<p style=""color:rgb(150, 250, 100); font-size: 35px;"">他人的</p>","i","categorize-html","64","217297","0.0-6.0-1.0-6.0-1.2","4","4","4","3","4","4","4","3","4","4","5","3","4","4","4","5","5","5","4","5","5","3","5","3","2","4","4","1","5","0","0","0","1","1","1","0","0","0","1","1","0","0","0","1","4","1","2","2","4","5","4","5","4","5","3","759925175528722434","林","399","","","","","","","","","","","","","","","","","","","true","13","3","moral","824","other","他人的","","","","","","","","","","","","","","","","",""
"null","","null","html-keyboard-response","65","217548","0.0-6.0-1.0-6.0-0.3","4","4","4","3","4","4","4","3","4","4","5","3","4","4","4","5","5","5","4","5","5","3","5","3","2","4","4","1","5","0","0","0","1","1","1","0","0","0","1","1","0","0","0","1","4","1","2","2","4","5","4","5","4","5","3","759925175528722434","林","399","","","","","","","","","","","","","","","","","","","","","","","","","","","","","","","","","","","","","","","","","",""
"1246","<p style=""color:white; font-size: 35px;"">善良</p>","i","categorize-html","66","218795","0.0-6.0-1.0-6.0-1.3","4","4","4","3","4","4","4","3","4","4","5","3","4","4","4","5","5","5","4","5","5","3","5","3","2","4","4","1","5","0","0","0","1","1","1","0","0","0","1","1","0","0","0","1","4","1","2","2","4","5","4","5","4","5","3","759925175528722434","林","399","","","","","","","","","","","","","","","","","","","true","13","3","moral","1246","positive","善良","","","","","","","","","","","","","","","","",""
"null","","null","html-keyboard-response","67","219047","0.0-6.0-1.0-6.0-0.4","4","4","4","3","4","4","4","3","4","4","5","3","4","4","4","5","5","5","4","5","5","3","5","3","2","4","4","1","5","0","0","0","1","1","1","0","0","0","1","1","0","0","0","1","4","1","2","2","4","5","4","5","4","5","3","759925175528722434","林","399","","","","","","","","","","","","","","","","","","","","","","","","","","","","","","","","","","","","","","","","","",""
"646","<p style=""color:rgb(150, 250, 100); font-size: 35px;"">自己的</p>","e","categorize-html","68","219694","0.0-6.0-1.0-6.0-1.4","4","4","4","3","4","4","4","3","4","4","5","3","4","4","4","5","5","5","4","5","5","3","5","3","2","4","4","1","5","0","0","0","1","1","1","0","0","0","1","1","0","0","0","1","4","1","2","2","4","5","4","5","4","5","3","759925175528722434","林","399","","","","","","","","","","","","","","","","","","","true","13","3","moral","646","self","自己的","","","","","","","","","","","","","","","","",""
"null","","null","html-keyboard-response","69","219947","0.0-6.0-1.0-6.0-0.5","4","4","4","3","4","4","4","3","4","4","5","3","4","4","4","5","5","5","4","5","5","3","5","3","2","4","4","1","5","0","0","0","1","1","1","0","0","0","1","1","0","0","0","1","4","1","2","2","4","5","4","5","4","5","3","759925175528722434","林","399","","","","","","","","","","","","","","","","","","","","","","","","","","","","","","","","","","","","","","","","","",""
"975","<p style=""color:white; font-size: 35px;"">黑心</p>","e","categorize-html","70","220924","0.0-6.0-1.0-6.0-1.5","4","4","4","3","4","4","4","3","4","4","5","3","4","4","4","5","5","5","4","5","5","3","5","3","2","4","4","1","5","0","0","0","1","1","1","0","0","0","1","1","0","0","0","1","4","1","2","2","4","5","4","5","4","5","3","759925175528722434","林","399","","","","","","","","","","","","","","","","","","","true","13","3","moral","975","negative","黑心","","","","","","","","","","","","","","","","",""
"null","","null","html-keyboard-response","71","221175","0.0-6.0-1.0-6.0-0.6","4","4","4","3","4","4","4","3","4","4","5","3","4","4","4","5","5","5","4","5","5","3","5","3","2","4","4","1","5","0","0","0","1","1","1","0","0","0","1","1","0","0","0","1","4","1","2","2","4","5","4","5","4","5","3","759925175528722434","林","399","","","","","","","","","","","","","","","","","","","","","","","","","","","","","","","","","","","","","","","","","",""
"733","<p style=""color:rgb(150, 250, 100); font-size: 35px;"">他人</p>","i","categorize-html","72","221909","0.0-6.0-1.0-6.0-1.6","4","4","4","3","4","4","4","3","4","4","5","3","4","4","4","5","5","5","4","5","5","3","5","3","2","4","4","1","5","0","0","0","1","1","1","0","0","0","1","1","0","0","0","1","4","1","2","2","4","5","4","5","4","5","3","759925175528722434","林","399","","","","","","","","","","","","","","","","","","","true","13","3","moral","733","other","他人","","","","","","","","","","","","","","","","",""
"null","","null","html-keyboard-response","73","222160","0.0-6.0-1.0-6.0-0.7","4","4","4","3","4","4","4","3","4","4","5","3","4","4","4","5","5","5","4","5","5","3","5","3","2","4","4","1","5","0","0","0","1","1","1","0","0","0","1","1","0","0","0","1","4","1","2","2","4","5","4","5","4","5","3","759925175528722434","林","399","","","","","","","","","","","","","","","","","","","","","","","","","","","","","","","","","","","","","","","","","",""
"748","<p style=""color:white; font-size: 35px;"">廉正</p>","e","categorize-html","74","223436","0.0-6.0-1.0-6.0-1.7","4","4","4","3","4","4","4","3","4","4","5","3","4","4","4","5","5","5","4","5","5","3","5","3","2","4","4","1","5","0","0","0","1","1","1","0","0","0","1","1","0","0","0","1","4","1","2","2","4","5","4","5","4","5","3","759925175528722434","林","399","","","","","","","","","","","","","","","","","","","false","13","3","moral","1511.913043478261","positive","廉正","","","","","","","","","","","","","","","","",""
"null","","null","html-keyboard-response","75","223688","0.0-6.0-1.0-6.0-0.8","4","4","4","3","4","4","4","3","4","4","5","3","4","4","4","5","5","5","4","5","5","3","5","3","2","4","4","1","5","0","0","0","1","1","1","0","0","0","1","1","0","0","0","1","4","1","2","2","4","5","4","5","4","5","3","759925175528722434","林","399","","","","","","","","","","","","","","","","","","","","","","","","","","","","","","","","","","","","","","","","","",""
"1121","<p style=""color:rgb(150, 250, 100); font-size: 35px;"">本人的</p>","e","categorize-html","76","224811","0.0-6.0-1.0-6.0-1.8","4","4","4","3","4","4","4","3","4","4","5","3","4","4","4","5","5","5","4","5","5","3","5","3","2","4","4","1","5","0","0","0","1","1","1","0","0","0","1","1","0","0","0","1","4","1","2","2","4","5","4","5","4","5","3","759925175528722434","林","399","","","","","","","","","","","","","","","","","","","true","13","3","moral","1121","self","本人的","","","","","","","","","","","","","","","","",""
"null","","null","html-keyboard-response","77","225063","0.0-6.0-1.0-6.0-0.9","4","4","4","3","4","4","4","3","4","4","5","3","4","4","4","5","5","5","4","5","5","3","5","3","2","4","4","1","5","0","0","0","1","1","1","0","0","0","1","1","0","0","0","1","4","1","2","2","4","5","4","5","4","5","3","759925175528722434","林","399","","","","","","","","","","","","","","","","","","","","","","","","","","","","","","","","","","","","","","","","","",""
"977","<p style=""color:white; font-size: 35px;"">卑鄙</p>","e","categorize-html","78","226044","0.0-6.0-1.0-6.0-1.9","4","4","4","3","4","4","4","3","4","4","5","3","4","4","4","5","5","5","4","5","5","3","5","3","2","4","4","1","5","0","0","0","1","1","1","0","0","0","1","1","0","0","0","1","4","1","2","2","4","5","4","5","4","5","3","759925175528722434","林","399","","","","","","","","","","","","","","","","","","","true","13","3","moral","977","negative","卑鄙","","","","","","","","","","","","","","","","",""
"null","","null","html-keyboard-response","79","226295","0.0-6.0-1.0-6.0-0.10","4","4","4","3","4","4","4","3","4","4","5","3","4","4","4","5","5","5","4","5","5","3","5","3","2","4","4","1","5","0","0","0","1","1","1","0","0","0","1","1","0","0","0","1","4","1","2","2","4","5","4","5","4","5","3","759925175528722434","林","399","","","","","","","","","","","","","","","","","","","","","","","","","","","","","","","","","","","","","","","","","",""
"676","<p style=""color:rgb(150, 250, 100); font-size: 35px;"">他</p>","i","categorize-html","80","226975","0.0-6.0-1.0-6.0-1.10","4","4","4","3","4","4","4","3","4","4","5","3","4","4","4","5","5","5","4","5","5","3","5","3","2","4","4","1","5","0","0","0","1","1","1","0","0","0","1","1","0","0","0","1","4","1","2","2","4","5","4","5","4","5","3","759925175528722434","林","399","","","","","","","","","","","","","","","","","","","true","13","3","moral","676","other","他","","","","","","","","","","","","","","","","",""
"null","","null","html-keyboard-response","81","227225","0.0-6.0-1.0-6.0-0.11","4","4","4","3","4","4","4","3","4","4","5","3","4","4","4","5","5","5","4","5","5","3","5","3","2","4","4","1","5","0","0","0","1","1","1","0","0","0","1","1","0","0","0","1","4","1","2","2","4","5","4","5","4","5","3","759925175528722434","林","399","","","","","","","","","","","","","","","","","","","","","","","","","","","","","","","","","","","","","","","","","",""
"975","<p style=""color:white; font-size: 35px;"">诚信</p>","i","categorize-html","82","228204","0.0-6.0-1.0-6.0-1.11","4","4","4","3","4","4","4","3","4","4","5","3","4","4","4","5","5","5","4","5","5","3","5","3","2","4","4","1","5","0","0","0","1","1","1","0","0","0","1","1","0","0","0","1","4","1","2","2","4","5","4","5","4","5","3","759925175528722434","林","399","","","","","","","","","","","","","","","","","","","true","13","3","moral","975","positive","诚信","","","","","","","","","","","","","","","","",""
"null","","null","html-keyboard-response","83","228455","0.0-6.0-1.0-6.0-0.12","4","4","4","3","4","4","4","3","4","4","5","3","4","4","4","5","5","5","4","5","5","3","5","3","2","4","4","1","5","0","0","0","1","1","1","0","0","0","1","1","0","0","0","1","4","1","2","2","4","5","4","5","4","5","3","759925175528722434","林","399","","","","","","","","","","","","","","","","","","","","","","","","","","","","","","","","","","","","","","","","","",""
"930","<p style=""color:rgb(150, 250, 100); font-size: 35px;"">他的</p>","i","categorize-html","84","229387","0.0-6.0-1.0-6.0-1.12","4","4","4","3","4","4","4","3","4","4","5","3","4","4","4","5","5","5","4","5","5","3","5","3","2","4","4","1","5","0","0","0","1","1","1","0","0","0","1","1","0","0","0","1","4","1","2","2","4","5","4","5","4","5","3","759925175528722434","林","399","","","","","","","","","","","","","","","","","","","true","13","3","moral","930","other","他的","","","","","","","","","","","","","","","","",""
"null","","null","html-keyboard-response","85","229638","0.0-6.0-1.0-6.0-0.13","4","4","4","3","4","4","4","3","4","4","5","3","4","4","4","5","5","5","4","5","5","3","5","3","2","4","4","1","5","0","0","0","1","1","1","0","0","0","1","1","0","0","0","1","4","1","2","2","4","5","4","5","4","5","3","759925175528722434","林","399","","","","","","","","","","","","","","","","","","","","","","","","","","","","","","","","","","","","","","","","","",""
"1193","<p style=""color:white; font-size: 35px;"">正直</p>","i","categorize-html","86","230832","0.0-6.0-1.0-6.0-1.13","4","4","4","3","4","4","4","3","4","4","5","3","4","4","4","5","5","5","4","5","5","3","5","3","2","4","4","1","5","0","0","0","1","1","1","0","0","0","1","1","0","0","0","1","4","1","2","2","4","5","4","5","4","5","3","759925175528722434","林","399","","","","","","","","","","","","","","","","","","","true","13","3","moral","1193","positive","正直","","","","","","","","","","","","","","","","",""
"null","","null","html-keyboard-response","87","231084","0.0-6.0-1.0-6.0-0.14","4","4","4","3","4","4","4","3","4","4","5","3","4","4","4","5","5","5","4","5","5","3","5","3","2","4","4","1","5","0","0","0","1","1","1","0","0","0","1","1","0","0","0","1","4","1","2","2","4","5","4","5","4","5","3","759925175528722434","林","399","","","","","","","","","","","","","","","","","","","","","","","","","","","","","","","","","","","","","","","","","",""
"984","<p style=""color:rgb(150, 250, 100); font-size: 35px;"">我</p>","e","categorize-html","88","232070","0.0-6.0-1.0-6.0-1.14","4","4","4","3","4","4","4","3","4","4","5","3","4","4","4","5","5","5","4","5","5","3","5","3","2","4","4","1","5","0","0","0","1","1","1","0","0","0","1","1","0","0","0","1","4","1","2","2","4","5","4","5","4","5","3","759925175528722434","林","399","","","","","","","","","","","","","","","","","","","true","13","3","moral","984","self","我","","","","","","","","","","","","","","","","",""
"null","","null","html-keyboard-response","89","232321","0.0-6.0-1.0-6.0-0.15","4","4","4","3","4","4","4","3","4","4","5","3","4","4","4","5","5","5","4","5","5","3","5","3","2","4","4","1","5","0","0","0","1","1","1","0","0","0","1","1","0","0","0","1","4","1","2","2","4","5","4","5","4","5","3","759925175528722434","林","399","","","","","","","","","","","","","","","","","","","","","","","","","","","","","","","","","","","","","","","","","",""
"862","<p style=""color:white; font-size: 35px;"">不仁</p>","e","categorize-html","90","233187","0.0-6.0-1.0-6.0-1.15","4","4","4","3","4","4","4","3","4","4","5","3","4","4","4","5","5","5","4","5","5","3","5","3","2","4","4","1","5","0","0","0","1","1","1","0","0","0","1","1","0","0","0","1","4","1","2","2","4","5","4","5","4","5","3","759925175528722434","林","399","","","","","","","","","","","","","","","","","","","true","13","3","moral","862","negative","不仁","","","","","","","","","","","","","","","","",""
"null","","null","html-keyboard-response","91","233437","0.0-6.0-1.0-6.0-0.16","4","4","4","3","4","4","4","3","4","4","5","3","4","4","4","5","5","5","4","5","5","3","5","3","2","4","4","1","5","0","0","0","1","1","1","0","0","0","1","1","0","0","0","1","4","1","2","2","4","5","4","5","4","5","3","759925175528722434","林","399","","","","","","","","","","","","","","","","","","","","","","","","","","","","","","","","","","","","","","","","","",""
"660","<p style=""color:rgb(150, 250, 100); font-size: 35px;"">别人的</p>","i","categorize-html","92","234099","0.0-6.0-1.0-6.0-1.16","4","4","4","3","4","4","4","3","4","4","5","3","4","4","4","5","5","5","4","5","5","3","5","3","2","4","4","1","5","0","0","0","1","1","1","0","0","0","1","1","0","0","0","1","4","1","2","2","4","5","4","5","4","5","3","759925175528722434","林","399","","","","","","","","","","","","","","","","","","","true","13","3","moral","660","other","别人的","","","","","","","","","","","","","","","","",""
"null","","null","html-keyboard-response","93","234350","0.0-6.0-1.0-6.0-0.17","4","4","4","3","4","4","4","3","4","4","5","3","4","4","4","5","5","5","4","5","5","3","5","3","2","4","4","1","5","0","0","0","1","1","1","0","0","0","1","1","0","0","0","1","4","1","2","2","4","5","4","5","4","5","3","759925175528722434","林","399","","","","","","","","","","","","","","","","","","","","","","","","","","","","","","","","","","","","","","","","","",""
"1254","<p style=""color:white; font-size: 35px;"">小人</p>","e","categorize-html","94","235608","0.0-6.0-1.0-6.0-1.17","4","4","4","3","4","4","4","3","4","4","5","3","4","4","4","5","5","5","4","5","5","3","5","3","2","4","4","1","5","0","0","0","1","1","1","0","0","0","1","1","0","0","0","1","4","1","2","2","4","5","4","5","4","5","3","759925175528722434","林","399","","","","","","","","","","","","","","","","","","","true","13","3","moral","1254","negative","小人","","","","","","","","","","","","","","","","",""
"null","","null","html-keyboard-response","95","235861","0.0-6.0-1.0-6.0-0.18","4","4","4","3","4","4","4","3","4","4","5","3","4","4","4","5","5","5","4","5","5","3","5","3","2","4","4","1","5","0","0","0","1","1","1","0","0","0","1","1","0","0","0","1","4","1","2","2","4","5","4","5","4","5","3","759925175528722434","林","399","","","","","","","","","","","","","","","","","","","","","","","","","","","","","","","","","","","","","","","","","",""
"722","<p style=""color:rgb(150, 250, 100); font-size: 35px;"">本人</p>","e","categorize-html","96","236588","0.0-6.0-1.0-6.0-1.18","4","4","4","3","4","4","4","3","4","4","5","3","4","4","4","5","5","5","4","5","5","3","5","3","2","4","4","1","5","0","0","0","1","1","1","0","0","0","1","1","0","0","0","1","4","1","2","2","4","5","4","5","4","5","3","759925175528722434","林","399","","","","","","","","","","","","","","","","","","","true","13","3","moral","722","self","本人","","","","","","","","","","","","","","","","",""
"null","","null","html-keyboard-response","97","236841","0.0-6.0-1.0-6.0-0.19","4","4","4","3","4","4","4","3","4","4","5","3","4","4","4","5","5","5","4","5","5","3","5","3","2","4","4","1","5","0","0","0","1","1","1","0","0","0","1","1","0","0","0","1","4","1","2","2","4","5","4","5","4","5","3","759925175528722434","林","399","","","","","","","","","","","","","","","","","","","","","","","","","","","","","","","","","","","","","","","","","",""
"758","<p style=""color:white; font-size: 35px;"">君子</p>","i","categorize-html","98","237603","0.0-6.0-1.0-6.0-1.19","4","4","4","3","4","4","4","3","4","4","5","3","4","4","4","5","5","5","4","5","5","3","5","3","2","4","4","1","5","0","0","0","1","1","1","0","0","0","1","1","0","0","0","1","4","1","2","2","4","5","4","5","4","5","3","759925175528722434","林","399","","","","","","","","","","","","","","","","","","","true","13","3","moral","758","positive","君子","","","","","","","","","","","","","","","","",""
"null","","null","html-keyboard-response","99","237855","0.0-6.0-1.0-6.0-0.20","4","4","4","3","4","4","4","3","4","4","5","3","4","4","4","5","5","5","4","5","5","3","5","3","2","4","4","1","5","0","0","0","1","1","1","0","0","0","1","1","0","0","0","1","4","1","2","2","4","5","4","5","4","5","3","759925175528722434","林","399","","","","","","","","","","","","","","","","","","","","","","","","","","","","","","","","","","","","","","","","","",""
"791","<p style=""color:rgb(150, 250, 100); font-size: 35px;"">别人</p>","i","categorize-html","100","238647","0.0-6.0-1.0-6.0-1.20","4","4","4","3","4","4","4","3","4","4","5","3","4","4","4","5","5","5","4","5","5","3","5","3","2","4","4","1","5","0","0","0","1","1","1","0","0","0","1","1","0","0","0","1","4","1","2","2","4","5","4","5","4","5","3","759925175528722434","林","399","","","","","","","","","","","","","","","","","","","true","13","3","moral","791","other","别人","","","","","","","","","","","","","","","","",""
"null","","null","html-keyboard-response","101","238898","0.0-6.0-1.0-6.0-0.21","4","4","4","3","4","4","4","3","4","4","5","3","4","4","4","5","5","5","4","5","5","3","5","3","2","4","4","1","5","0","0","0","1","1","1","0","0","0","1","1","0","0","0","1","4","1","2","2","4","5","4","5","4","5","3","759925175528722434","林","399","","","","","","","","","","","","","","","","","","","","","","","","","","","","","","","","","","","","","","","","","",""
"748","<p style=""color:white; font-size: 35px;"">缺德</p>","e","categorize-html","102","239648","0.0-6.0-1.0-6.0-1.21","4","4","4","3","4","4","4","3","4","4","5","3","4","4","4","5","5","5","4","5","5","3","5","3","2","4","4","1","5","0","0","0","1","1","1","0","0","0","1","1","0","0","0","1","4","1","2","2","4","5","4","5","4","5","3","759925175528722434","林","399","","","","","","","","","","","","","","","","","","","true","13","3","moral","748","negative","缺德","","","","","","","","","","","","","","","","",""
"null","","null","html-keyboard-response","103","239899","0.0-6.0-1.0-6.0-0.22","4","4","4","3","4","4","4","3","4","4","5","3","4","4","4","5","5","5","4","5","5","3","5","3","2","4","4","1","5","0","0","0","1","1","1","0","0","0","1","1","0","0","0","1","4","1","2","2","4","5","4","5","4","5","3","759925175528722434","林","399","","","","","","","","","","","","","","","","","","","","","","","","","","","","","","","","","","","","","","","","","",""
"968","<p style=""color:rgb(150, 250, 100); font-size: 35px;"">自己</p>","e","categorize-html","104","240871","0.0-6.0-1.0-6.0-1.22","4","4","4","3","4","4","4","3","4","4","5","3","4","4","4","5","5","5","4","5","5","3","5","3","2","4","4","1","5","0","0","0","1","1","1","0","0","0","1","1","0","0","0","1","4","1","2","2","4","5","4","5","4","5","3","759925175528722434","林","399","","","","","","","","","","","","","","","","","","","true","13","3","moral","968","self","自己","","","","","","","","","","","","","","","","",""
"null","","null","html-keyboard-response","105","241123","0.0-6.0-1.0-6.0-0.23","4","4","4","3","4","4","4","3","4","4","5","3","4","4","4","5","5","5","4","5","5","3","5","3","2","4","4","1","5","0","0","0","1","1","1","0","0","0","1","1","0","0","0","1","4","1","2","2","4","5","4","5","4","5","3","759925175528722434","林","399","","","","","","","","","","","","","","","","","","","","","","","","","","","","","","","","","","","","","","","","","",""
"987","<p style=""color:white; font-size: 35px;"">高尚</p>","i","categorize-html","106","242114","0.0-6.0-1.0-6.0-1.23","4","4","4","3","4","4","4","3","4","4","5","3","4","4","4","5","5","5","4","5","5","3","5","3","2","4","4","1","5","0","0","0","1","1","1","0","0","0","1","1","0","0","0","1","4","1","2","2","4","5","4","5","4","5","3","759925175528722434","林","399","","","","","","","","","","","","","","","","","","","true","13","3","moral","987","positive","高尚","","","","","","","","","","","","","","","","",""
"9355","
    <div class=""tag-bottom""><p>
    —— 任务4：对“自我/消极”词和“他人/积极”词分类 ——<p/>
    <span style=""color:#78DCE8""><b>与刚才的任务完全相同，请再次对这四类词语分类</b></span><p/>
    <span style=""color:#FFD866""><b>请根据上方标签的提示，尽可能正确并且快速地做出按键反应</b></span><p/>
    当按键错误时屏幕中会出现<span style=""color:red""> X </span>，需要按另一个键纠正才能继续<br/><p/>
    请把双手食指分别放在键盘的“E”键和“I”键上<p/>
    按<空格键>开始
    </p></div>"," ","html-keyboard-response","107","251470","0.0-6.0-1.0-7.0","4","4","4","3","4","4","4","3","4","4","5","3","4","4","4","5","5","5","4","5","5","3","5","3","2","4","4","1","5","0","0","0","1","1","1","0","0","0","1","1","0","0","0","1","4","1","2","2","4","5","4","5","4","5","3","759925175528722434","林","399","","","","","","","","","","","","","","","","","","","","","","","","","","","","","","","","","","","","","","","","","",""
"null","","null","html-keyboard-response","108","251722","0.0-6.0-1.0-8.0-0.0","4","4","4","3","4","4","4","3","4","4","5","3","4","4","4","5","5","5","4","5","5","3","5","3","2","4","4","1","5","0","0","0","1","1","1","0","0","0","1","1","0","0","0","1","4","1","2","2","4","5","4","5","4","5","3","759925175528722434","林","399","","","","","","","","","","","","","","","","","","","","","","","","","","","","","","","","","","","","","","","","","",""
"863","<p style=""color:rgb(150, 250, 100); font-size: 35px;"">我的</p>","e","categorize-html","109","252590","0.0-6.0-1.0-8.0-1.0","4","4","4","3","4","4","4","3","4","4","5","3","4","4","4","5","5","5","4","5","5","3","5","3","2","4","4","1","5","0","0","0","1","1","1","0","0","0","1","1","0","0","0","1","4","1","2","2","4","5","4","5","4","5","3","759925175528722434","林","399","","","","","","","","","","","","","","","","","","","true","14","4","moral","863","self","我的","","","","","","","","","","","","","","","","",""
"null","","null","html-keyboard-response","110","252842","0.0-6.0-1.0-8.0-0.1","4","4","4","3","4","4","4","3","4","4","5","3","4","4","4","5","5","5","4","5","5","3","5","3","2","4","4","1","5","0","0","0","1","1","1","0","0","0","1","1","0","0","0","1","4","1","2","2","4","5","4","5","4","5","3","759925175528722434","林","399","","","","","","","","","","","","","","","","","","","","","","","","","","","","","","","","","","","","","","","","","",""
"607","<p style=""color:white; font-size: 35px;"">诚信</p>","i","categorize-html","111","253450","0.0-6.0-1.0-8.0-1.1","4","4","4","3","4","4","4","3","4","4","5","3","4","4","4","5","5","5","4","5","5","3","5","3","2","4","4","1","5","0","0","0","1","1","1","0","0","0","1","1","0","0","0","1","4","1","2","2","4","5","4","5","4","5","3","759925175528722434","林","399","","","","","","","","","","","","","","","","","","","true","14","4","moral","607","positive","诚信","","","","","","","","","","","","","","","","",""
"null","","null","html-keyboard-response","112","253701","0.0-6.0-1.0-8.0-0.2","4","4","4","3","4","4","4","3","4","4","5","3","4","4","4","5","5","5","4","5","5","3","5","3","2","4","4","1","5","0","0","0","1","1","1","0","0","0","1","1","0","0","0","1","4","1","2","2","4","5","4","5","4","5","3","759925175528722434","林","399","","","","","","","","","","","","","","","","","","","","","","","","","","","","","","","","","","","","","","","","","",""
"739","<p style=""color:rgb(150, 250, 100); font-size: 35px;"">他</p>","i","categorize-html","113","254441","0.0-6.0-1.0-8.0-1.2","4","4","4","3","4","4","4","3","4","4","5","3","4","4","4","5","5","5","4","5","5","3","5","3","2","4","4","1","5","0","0","0","1","1","1","0","0","0","1","1","0","0","0","1","4","1","2","2","4","5","4","5","4","5","3","759925175528722434","林","399","","","","","","","","","","","","","","","","","","","true","14","4","moral","739","other","他","","","","","","","","","","","","","","","","",""
"null","","null","html-keyboard-response","114","254693","0.0-6.0-1.0-8.0-0.3","4","4","4","3","4","4","4","3","4","4","5","3","4","4","4","5","5","5","4","5","5","3","5","3","2","4","4","1","5","0","0","0","1","1","1","0","0","0","1","1","0","0","0","1","4","1","2","2","4","5","4","5","4","5","3","759925175528722434","林","399","","","","","","","","","","","","","","","","","","","","","","","","","","","","","","","","","","","","","","","","","",""
"605","<p style=""color:white; font-size: 35px;"">不孝</p>","e","categorize-html","115","255302","0.0-6.0-1.0-8.0-1.3","4","4","4","3","4","4","4","3","4","4","5","3","4","4","4","5","5","5","4","5","5","3","5","3","2","4","4","1","5","0","0","0","1","1","1","0","0","0","1","1","0","0","0","1","4","1","2","2","4","5","4","5","4","5","3","759925175528722434","林","399","","","","","","","","","","","","","","","","","","","true","14","4","moral","605","negative","不孝","","","","","","","","","","","","","","","","",""
"null","","null","html-keyboard-response","116","255554","0.0-6.0-1.0-8.0-0.4","4","4","4","3","4","4","4","3","4","4","5","3","4","4","4","5","5","5","4","5","5","3","5","3","2","4","4","1","5","0","0","0","1","1","1","0","0","0","1","1","0","0","0","1","4","1","2","2","4","5","4","5","4","5","3","759925175528722434","林","399","","","","","","","","","","","","","","","","","","","","","","","","","","","","","","","","","","","","","","","","","",""
"799","<p style=""color:rgb(150, 250, 100); font-size: 35px;"">我</p>","e","categorize-html","117","256354","0.0-6.0-1.0-8.0-1.4","4","4","4","3","4","4","4","3","4","4","5","3","4","4","4","5","5","5","4","5","5","3","5","3","2","4","4","1","5","0","0","0","1","1","1","0","0","0","1","1","0","0","0","1","4","1","2","2","4","5","4","5","4","5","3","759925175528722434","林","399","","","","","","","","","","","","","","","","","","","true","14","4","moral","799","self","我","","","","","","","","","","","","","","","","",""
"null","","null","html-keyboard-response","118","256619","0.0-6.0-1.0-8.0-0.5","4","4","4","3","4","4","4","3","4","4","5","3","4","4","4","5","5","5","4","5","5","3","5","3","2","4","4","1","5","0","0","0","1","1","1","0","0","0","1","1","0","0","0","1","4","1","2","2","4","5","4","5","4","5","3","759925175528722434","林","399","","","","","","","","","","","","","","","","","","","","","","","","","","","","","","","","","","","","","","","","","",""
"619","<p style=""color:white; font-size: 35px;"">高尚</p>","i","categorize-html","119","257241","0.0-6.0-1.0-8.0-1.5","4","4","4","3","4","4","4","3","4","4","5","3","4","4","4","5","5","5","4","5","5","3","5","3","2","4","4","1","5","0","0","0","1","1","1","0","0","0","1","1","0","0","0","1","4","1","2","2","4","5","4","5","4","5","3","759925175528722434","林","399","","","","","","","","","","","","","","","","","","","true","14","4","moral","619","positive","高尚","","","","","","","","","","","","","","","","",""
"null","","null","html-keyboard-response","120","257505","0.0-6.0-1.0-8.0-0.6","4","4","4","3","4","4","4","3","4","4","5","3","4","4","4","5","5","5","4","5","5","3","5","3","2","4","4","1","5","0","0","0","1","1","1","0","0","0","1","1","0","0","0","1","4","1","2","2","4","5","4","5","4","5","3","759925175528722434","林","399","","","","","","","","","","","","","","","","","","","","","","","","","","","","","","","","","","","","","","","","","",""
"687","<p style=""color:rgb(150, 250, 100); font-size: 35px;"">他人的</p>","i","categorize-html","121","258196","0.0-6.0-1.0-8.0-1.6","4","4","4","3","4","4","4","3","4","4","5","3","4","4","4","5","5","5","4","5","5","3","5","3","2","4","4","1","5","0","0","0","1","1","1","0","0","0","1","1","0","0","0","1","4","1","2","2","4","5","4","5","4","5","3","759925175528722434","林","399","","","","","","","","","","","","","","","","","","","true","14","4","moral","687","other","他人的","","","","","","","","","","","","","","","","",""
"null","","null","html-keyboard-response","122","258448","0.0-6.0-1.0-8.0-0.7","4","4","4","3","4","4","4","3","4","4","5","3","4","4","4","5","5","5","4","5","5","3","5","3","2","4","4","1","5","0","0","0","1","1","1","0","0","0","1","1","0","0","0","1","4","1","2","2","4","5","4","5","4","5","3","759925175528722434","林","399","","","","","","","","","","","","","","","","","","","","","","","","","","","","","","","","","","","","","","","","","",""
"818","<p style=""color:white; font-size: 35px;"">卑鄙</p>","e","categorize-html","123","259266","0.0-6.0-1.0-8.0-1.7","4","4","4","3","4","4","4","3","4","4","5","3","4","4","4","5","5","5","4","5","5","3","5","3","2","4","4","1","5","0","0","0","1","1","1","0","0","0","1","1","0","0","0","1","4","1","2","2","4","5","4","5","4","5","3","759925175528722434","林","399","","","","","","","","","","","","","","","","","","","true","14","4","moral","818","negative","卑鄙","","","","","","","","","","","","","","","","",""
"null","","null","html-keyboard-response","124","259519","0.0-6.0-1.0-8.0-0.8","4","4","4","3","4","4","4","3","4","4","5","3","4","4","4","5","5","5","4","5","5","3","5","3","2","4","4","1","5","0","0","0","1","1","1","0","0","0","1","1","0","0","0","1","4","1","2","2","4","5","4","5","4","5","3","759925175528722434","林","399","","","","","","","","","","","","","","","","","","","","","","","","","","","","","","","","","","","","","","","","","",""
"734","<p style=""color:rgb(150, 250, 100); font-size: 35px;"">本人的</p>","e","categorize-html","125","260258","0.0-6.0-1.0-8.0-1.8","4","4","4","3","4","4","4","3","4","4","5","3","4","4","4","5","5","5","4","5","5","3","5","3","2","4","4","1","5","0","0","0","1","1","1","0","0","0","1","1","0","0","0","1","4","1","2","2","4","5","4","5","4","5","3","759925175528722434","林","399","","","","","","","","","","","","","","","","","","","true","14","4","moral","734","self","本人的","","","","","","","","","","","","","","","","",""
"null","","null","html-keyboard-response","126","260509","0.0-6.0-1.0-8.0-0.9","4","4","4","3","4","4","4","3","4","4","5","3","4","4","4","5","5","5","4","5","5","3","5","3","2","4","4","1","5","0","0","0","1","1","1","0","0","0","1","1","0","0","0","1","4","1","2","2","4","5","4","5","4","5","3","759925175528722434","林","399","","","","","","","","","","","","","","","","","","","","","","","","","","","","","","","","","","","","","","","","","",""
"1249","<p style=""color:white; font-size: 35px;"">高尚</p>","i","categorize-html","127","261759","0.0-6.0-1.0-8.0-1.9","4","4","4","3","4","4","4","3","4","4","5","3","4","4","4","5","5","5","4","5","5","3","5","3","2","4","4","1","5","0","0","0","1","1","1","0","0","0","1","1","0","0","0","1","4","1","2","2","4","5","4","5","4","5","3","759925175528722434","林","399","","","","","","","","","","","","","","","","","","","true","14","4","moral","1249","positive","高尚","","","","","","","","","","","","","","","","",""
"null","","null","html-keyboard-response","128","262010","0.0-6.0-1.0-8.0-0.10","4","4","4","3","4","4","4","3","4","4","5","3","4","4","4","5","5","5","4","5","5","3","5","3","2","4","4","1","5","0","0","0","1","1","1","0","0","0","1","1","0","0","0","1","4","1","2","2","4","5","4","5","4","5","3","759925175528722434","林","399","","","","","","","","","","","","","","","","","","","","","","","","","","","","","","","","","","","","","","","","","",""
"834","<p style=""color:rgb(150, 250, 100); font-size: 35px;"">他人</p>","i","categorize-html","129","262848","0.0-6.0-1.0-8.0-1.10","4","4","4","3","4","4","4","3","4","4","5","3","4","4","4","5","5","5","4","5","5","3","5","3","2","4","4","1","5","0","0","0","1","1","1","0","0","0","1","1","0","0","0","1","4","1","2","2","4","5","4","5","4","5","3","759925175528722434","林","399","","","","","","","","","","","","","","","","","","","true","14","4","moral","834","other","他人","","","","","","","","","","","","","","","","",""
"null","","null","html-keyboard-response","130","263099","0.0-6.0-1.0-8.0-0.11","4","4","4","3","4","4","4","3","4","4","5","3","4","4","4","5","5","5","4","5","5","3","5","3","2","4","4","1","5","0","0","0","1","1","1","0","0","0","1","1","0","0","0","1","4","1","2","2","4","5","4","5","4","5","3","759925175528722434","林","399","","","","","","","","","","","","","","","","","","","","","","","","","","","","","","","","","","","","","","","","","",""
"741","<p style=""color:white; font-size: 35px;"">不仁</p>","e","categorize-html","131","263841","0.0-6.0-1.0-8.0-1.11","4","4","4","3","4","4","4","3","4","4","5","3","4","4","4","5","5","5","4","5","5","3","5","3","2","4","4","1","5","0","0","0","1","1","1","0","0","0","1","1","0","0","0","1","4","1","2","2","4","5","4","5","4","5","3","759925175528722434","林","399","","","","","","","","","","","","","","","","","","","true","14","4","moral","741","negative","不仁","","","","","","","","","","","","","","","","",""
"null","","null","html-keyboard-response","132","264092","0.0-6.0-1.0-8.0-0.12","4","4","4","3","4","4","4","3","4","4","5","3","4","4","4","5","5","5","4","5","5","3","5","3","2","4","4","1","5","0","0","0","1","1","1","0","0","0","1","1","0","0","0","1","4","1","2","2","4","5","4","5","4","5","3","759925175528722434","林","399","","","","","","","","","","","","","","","","","","","","","","","","","","","","","","","","","","","","","","","","","",""
"797","<p style=""color:rgb(150, 250, 100); font-size: 35px;"">我</p>","e","categorize-html","133","264893","0.0-6.0-1.0-8.0-1.12","4","4","4","3","4","4","4","3","4","4","5","3","4","4","4","5","5","5","4","5","5","3","5","3","2","4","4","1","5","0","0","0","1","1","1","0","0","0","1","1","0","0","0","1","4","1","2","2","4","5","4","5","4","5","3","759925175528722434","林","399","","","","","","","","","","","","","","","","","","","true","14","4","moral","797","self","我","","","","","","","","","","","","","","","","",""
"null","","null","html-keyboard-response","134","265144","0.0-6.0-1.0-8.0-0.13","4","4","4","3","4","4","4","3","4","4","5","3","4","4","4","5","5","5","4","5","5","3","5","3","2","4","4","1","5","0","0","0","1","1","1","0","0","0","1","1","0","0","0","1","4","1","2","2","4","5","4","5","4","5","3","759925175528722434","林","399","","","","","","","","","","","","","","","","","","","","","","","","","","","","","","","","","","","","","","","","","",""
"955","<p style=""color:white; font-size: 35px;"">诚信</p>","i","categorize-html","135","266101","0.0-6.0-1.0-8.0-1.13","4","4","4","3","4","4","4","3","4","4","5","3","4","4","4","5","5","5","4","5","5","3","5","3","2","4","4","1","5","0","0","0","1","1","1","0","0","0","1","1","0","0","0","1","4","1","2","2","4","5","4","5","4","5","3","759925175528722434","林","399","","","","","","","","","","","","","","","","","","","true","14","4","moral","955","positive","诚信","","","","","","","","","","","","","","","","",""
"null","","null","html-keyboard-response","136","266352","0.0-6.0-1.0-8.0-0.14","4","4","4","3","4","4","4","3","4","4","5","3","4","4","4","5","5","5","4","5","5","3","5","3","2","4","4","1","5","0","0","0","1","1","1","0","0","0","1","1","0","0","0","1","4","1","2","2","4","5","4","5","4","5","3","759925175528722434","林","399","","","","","","","","","","","","","","","","","","","","","","","","","","","","","","","","","","","","","","","","","",""
"942","<p style=""color:rgb(150, 250, 100); font-size: 35px;"">别人的</p>","i","categorize-html","137","267295","0.0-6.0-1.0-8.0-1.14","4","4","4","3","4","4","4","3","4","4","5","3","4","4","4","5","5","5","4","5","5","3","5","3","2","4","4","1","5","0","0","0","1","1","1","0","0","0","1","1","0","0","0","1","4","1","2","2","4","5","4","5","4","5","3","759925175528722434","林","399","","","","","","","","","","","","","","","","","","","true","14","4","moral","942","other","别人的","","","","","","","","","","","","","","","","",""
"null","","null","html-keyboard-response","138","267546","0.0-6.0-1.0-8.0-0.15","4","4","4","3","4","4","4","3","4","4","5","3","4","4","4","5","5","5","4","5","5","3","5","3","2","4","4","1","5","0","0","0","1","1","1","0","0","0","1","1","0","0","0","1","4","1","2","2","4","5","4","5","4","5","3","759925175528722434","林","399","","","","","","","","","","","","","","","","","","","","","","","","","","","","","","","","","","","","","","","","","",""
"702","<p style=""color:white; font-size: 35px;"">黑心</p>","e","categorize-html","139","268252","0.0-6.0-1.0-8.0-1.15","4","4","4","3","4","4","4","3","4","4","5","3","4","4","4","5","5","5","4","5","5","3","5","3","2","4","4","1","5","0","0","0","1","1","1","0","0","0","1","1","0","0","0","1","4","1","2","2","4","5","4","5","4","5","3","759925175528722434","林","399","","","","","","","","","","","","","","","","","","","true","14","4","moral","702","negative","黑心","","","","","","","","","","","","","","","","",""
"null","","null","html-keyboard-response","140","268503","0.0-6.0-1.0-8.0-0.16","4","4","4","3","4","4","4","3","4","4","5","3","4","4","4","5","5","5","4","5","5","3","5","3","2","4","4","1","5","0","0","0","1","1","1","0","0","0","1","1","0","0","0","1","4","1","2","2","4","5","4","5","4","5","3","759925175528722434","林","399","","","","","","","","","","","","","","","","","","","","","","","","","","","","","","","","","","","","","","","","","",""
"727","<p style=""color:rgb(150, 250, 100); font-size: 35px;"">自己的</p>","e","categorize-html","141","269231","0.0-6.0-1.0-8.0-1.16","4","4","4","3","4","4","4","3","4","4","5","3","4","4","4","5","5","5","4","5","5","3","5","3","2","4","4","1","5","0","0","0","1","1","1","0","0","0","1","1","0","0","0","1","4","1","2","2","4","5","4","5","4","5","3","759925175528722434","林","399","","","","","","","","","","","","","","","","","","","true","14","4","moral","727","self","自己的","","","","","","","","","","","","","","","","",""
"null","","null","html-keyboard-response","142","269482","0.0-6.0-1.0-8.0-0.17","4","4","4","3","4","4","4","3","4","4","5","3","4","4","4","5","5","5","4","5","5","3","5","3","2","4","4","1","5","0","0","0","1","1","1","0","0","0","1","1","0","0","0","1","4","1","2","2","4","5","4","5","4","5","3","759925175528722434","林","399","","","","","","","","","","","","","","","","","","","","","","","","","","","","","","","","","","","","","","","","","",""
"968","<p style=""color:white; font-size: 35px;"">卑鄙</p>","i","categorize-html","143","270958","0.0-6.0-1.0-8.0-1.17","4","4","4","3","4","4","4","3","4","4","5","3","4","4","4","5","5","5","4","5","5","3","5","3","2","4","4","1","5","0","0","0","1","1","1","0","0","0","1","1","0","0","0","1","4","1","2","2","4","5","4","5","4","5","3","759925175528722434","林","399","","","","","","","","","","","","","","","","","","","false","14","4","moral","1425.0444444444445","negative","卑鄙","","","","","","","","","","","","","","","","",""
"null","","null","html-keyboard-response","144","271210","0.0-6.0-1.0-8.0-0.18","4","4","4","3","4","4","4","3","4","4","5","3","4","4","4","5","5","5","4","5","5","3","5","3","2","4","4","1","5","0","0","0","1","1","1","0","0","0","1","1","0","0","0","1","4","1","2","2","4","5","4","5","4","5","3","759925175528722434","林","399","","","","","","","","","","","","","","","","","","","","","","","","","","","","","","","","","","","","","","","","","",""
"806","<p style=""color:rgb(150, 250, 100); font-size: 35px;"">他人的</p>","i","categorize-html","145","272018","0.0-6.0-1.0-8.0-1.18","4","4","4","3","4","4","4","3","4","4","5","3","4","4","4","5","5","5","4","5","5","3","5","3","2","4","4","1","5","0","0","0","1","1","1","0","0","0","1","1","0","0","0","1","4","1","2","2","4","5","4","5","4","5","3","759925175528722434","林","399","","","","","","","","","","","","","","","","","","","true","14","4","moral","806","other","他人的","","","","","","","","","","","","","","","","",""
"null","","null","html-keyboard-response","146","272269","0.0-6.0-1.0-8.0-0.19","4","4","4","3","4","4","4","3","4","4","5","3","4","4","4","5","5","5","4","5","5","3","5","3","2","4","4","1","5","0","0","0","1","1","1","0","0","0","1","1","0","0","0","1","4","1","2","2","4","5","4","5","4","5","3","759925175528722434","林","399","","","","","","","","","","","","","","","","","","","","","","","","","","","","","","","","","","","","","","","","","",""
"1294","<p style=""color:white; font-size: 35px;"">善良</p>","i","categorize-html","147","273567","0.0-6.0-1.0-8.0-1.19","4","4","4","3","4","4","4","3","4","4","5","3","4","4","4","5","5","5","4","5","5","3","5","3","2","4","4","1","5","0","0","0","1","1","1","0","0","0","1","1","0","0","0","1","4","1","2","2","4","5","4","5","4","5","3","759925175528722434","林","399","","","","","","","","","","","","","","","","","","","true","14","4","moral","1294","positive","善良","","","","","","","","","","","","","","","","",""
"null","","null","html-keyboard-response","148","273818","0.0-6.0-1.0-8.0-0.20","4","4","4","3","4","4","4","3","4","4","5","3","4","4","4","5","5","5","4","5","5","3","5","3","2","4","4","1","5","0","0","0","1","1","1","0","0","0","1","1","0","0","0","1","4","1","2","2","4","5","4","5","4","5","3","759925175528722434","林","399","","","","","","","","","","","","","","","","","","","","","","","","","","","","","","","","","","","","","","","","","",""
"590","<p style=""color:rgb(150, 250, 100); font-size: 35px;"">他</p>","i","categorize-html","149","274410","0.0-6.0-1.0-8.0-1.20","4","4","4","3","4","4","4","3","4","4","5","3","4","4","4","5","5","5","4","5","5","3","5","3","2","4","4","1","5","0","0","0","1","1","1","0","0","0","1","1","0","0","0","1","4","1","2","2","4","5","4","5","4","5","3","759925175528722434","林","399","","","","","","","","","","","","","","","","","","","true","14","4","moral","590","other","他","","","","","","","","","","","","","","","","",""
"null","","null","html-keyboard-response","150","274661","0.0-6.0-1.0-8.0-0.21","4","4","4","3","4","4","4","3","4","4","5","3","4","4","4","5","5","5","4","5","5","3","5","3","2","4","4","1","5","0","0","0","1","1","1","0","0","0","1","1","0","0","0","1","4","1","2","2","4","5","4","5","4","5","3","759925175528722434","林","399","","","","","","","","","","","","","","","","","","","","","","","","","","","","","","","","","","","","","","","","","",""
"824","<p style=""color:white; font-size: 35px;"">君子</p>","e","categorize-html","151","276031","0.0-6.0-1.0-8.0-1.21","4","4","4","3","4","4","4","3","4","4","5","3","4","4","4","5","5","5","4","5","5","3","5","3","2","4","4","1","5","0","0","0","1","1","1","0","0","0","1","1","0","0","0","1","4","1","2","2","4","5","4","5","4","5","3","759925175528722434","林","399","","","","","","","","","","","","","","","","","","","false","14","4","moral","1425.0444444444445","positive","君子","","","","","","","","","","","","","","","","",""
"null","","null","html-keyboard-response","152","276282","0.0-6.0-1.0-8.0-0.22","4","4","4","3","4","4","4","3","4","4","5","3","4","4","4","5","5","5","4","5","5","3","5","3","2","4","4","1","5","0","0","0","1","1","1","0","0","0","1","1","0","0","0","1","4","1","2","2","4","5","4","5","4","5","3","759925175528722434","林","399","","","","","","","","","","","","","","","","","","","","","","","","","","","","","","","","","","","","","","","","","",""
"938","<p style=""color:rgb(150, 250, 100); font-size: 35px;"">自己</p>","e","categorize-html","153","277221","0.0-6.0-1.0-8.0-1.22","4","4","4","3","4","4","4","3","4","4","5","3","4","4","4","5","5","5","4","5","5","3","5","3","2","4","4","1","5","0","0","0","1","1","1","0","0","0","1","1","0","0","0","1","4","1","2","2","4","5","4","5","4","5","3","759925175528722434","林","399","","","","","","","","","","","","","","","","","","","true","14","4","moral","938","self","自己","","","","","","","","","","","","","","","","",""
"null","","null","html-keyboard-response","154","277473","0.0-6.0-1.0-8.0-0.23","4","4","4","3","4","4","4","3","4","4","5","3","4","4","4","5","5","5","4","5","5","3","5","3","2","4","4","1","5","0","0","0","1","1","1","0","0","0","1","1","0","0","0","1","4","1","2","2","4","5","4","5","4","5","3","759925175528722434","林","399","","","","","","","","","","","","","","","","","","","","","","","","","","","","","","","","","","","","","","","","","",""
"778","<p style=""color:white; font-size: 35px;"">不孝</p>","e","categorize-html","155","278255","0.0-6.0-1.0-8.0-1.23","4","4","4","3","4","4","4","3","4","4","5","3","4","4","4","5","5","5","4","5","5","3","5","3","2","4","4","1","5","0","0","0","1","1","1","0","0","0","1","1","0","0","0","1","4","1","2","2","4","5","4","5","4","5","3","759925175528722434","林","399","","","","","","","","","","","","","","","","","","","true","14","4","moral","778","negative","不孝","","","","","","","","","","","","","","","","",""
"null","","null","html-keyboard-response","156","278508","0.0-6.0-1.0-8.0-0.24","4","4","4","3","4","4","4","3","4","4","5","3","4","4","4","5","5","5","4","5","5","3","5","3","2","4","4","1","5","0","0","0","1","1","1","0","0","0","1","1","0","0","0","1","4","1","2","2","4","5","4","5","4","5","3","759925175528722434","林","399","","","","","","","","","","","","","","","","","","","","","","","","","","","","","","","","","","","","","","","","","",""
"832","<p style=""color:rgb(150, 250, 100); font-size: 35px;"">本人</p>","e","categorize-html","157","279344","0.0-6.0-1.0-8.0-1.24","4","4","4","3","4","4","4","3","4","4","5","3","4","4","4","5","5","5","4","5","5","3","5","3","2","4","4","1","5","0","0","0","1","1","1","0","0","0","1","1","0","0","0","1","4","1","2","2","4","5","4","5","4","5","3","759925175528722434","林","399","","","","","","","","","","","","","","","","","","","true","14","4","moral","832","self","本人","","","","","","","","","","","","","","","","",""
"null","","null","html-keyboard-response","158","279595","0.0-6.0-1.0-8.0-0.25","4","4","4","3","4","4","4","3","4","4","5","3","4","4","4","5","5","5","4","5","5","3","5","3","2","4","4","1","5","0","0","0","1","1","1","0","0","0","1","1","0","0","0","1","4","1","2","2","4","5","4","5","4","5","3","759925175528722434","林","399","","","","","","","","","","","","","","","","","","","","","","","","","","","","","","","","","","","","","","","","","",""
"809","<p style=""color:white; font-size: 35px;"">君子</p>","i","categorize-html","159","280407","0.0-6.0-1.0-8.0-1.25","4","4","4","3","4","4","4","3","4","4","5","3","4","4","4","5","5","5","4","5","5","3","5","3","2","4","4","1","5","0","0","0","1","1","1","0","0","0","1","1","0","0","0","1","4","1","2","2","4","5","4","5","4","5","3","759925175528722434","林","399","","","","","","","","","","","","","","","","","","","true","14","4","moral","809","positive","君子","","","","","","","","","","","","","","","","",""
"null","","null","html-keyboard-response","160","280659","0.0-6.0-1.0-8.0-0.26","4","4","4","3","4","4","4","3","4","4","5","3","4","4","4","5","5","5","4","5","5","3","5","3","2","4","4","1","5","0","0","0","1","1","1","0","0","0","1","1","0","0","0","1","4","1","2","2","4","5","4","5","4","5","3","759925175528722434","林","399","","","","","","","","","","","","","","","","","","","","","","","","","","","","","","","","","","","","","","","","","",""
"775","<p style=""color:rgb(150, 250, 100); font-size: 35px;"">他的</p>","i","categorize-html","161","281438","0.0-6.0-1.0-8.0-1.26","4","4","4","3","4","4","4","3","4","4","5","3","4","4","4","5","5","5","4","5","5","3","5","3","2","4","4","1","5","0","0","0","1","1","1","0","0","0","1","1","0","0","0","1","4","1","2","2","4","5","4","5","4","5","3","759925175528722434","林","399","","","","","","","","","","","","","","","","","","","true","14","4","moral","775","other","他的","","","","","","","","","","","","","","","","",""
"null","","null","html-keyboard-response","162","281689","0.0-6.0-1.0-8.0-0.27","4","4","4","3","4","4","4","3","4","4","5","3","4","4","4","5","5","5","4","5","5","3","5","3","2","4","4","1","5","0","0","0","1","1","1","0","0","0","1","1","0","0","0","1","4","1","2","2","4","5","4","5","4","5","3","759925175528722434","林","399","","","","","","","","","","","","","","","","","","","","","","","","","","","","","","","","","","","","","","","","","",""
"769","<p style=""color:white; font-size: 35px;"">小人</p>","e","categorize-html","163","282459","0.0-6.0-1.0-8.0-1.27","4","4","4","3","4","4","4","3","4","4","5","3","4","4","4","5","5","5","4","5","5","3","5","3","2","4","4","1","5","0","0","0","1","1","1","0","0","0","1","1","0","0","0","1","4","1","2","2","4","5","4","5","4","5","3","759925175528722434","林","399","","","","","","","","","","","","","","","","","","","true","14","4","moral","769","negative","小人","","","","","","","","","","","","","","","","",""
"null","","null","html-keyboard-response","164","282711","0.0-6.0-1.0-8.0-0.28","4","4","4","3","4","4","4","3","4","4","5","3","4","4","4","5","5","5","4","5","5","3","5","3","2","4","4","1","5","0","0","0","1","1","1","0","0","0","1","1","0","0","0","1","4","1","2","2","4","5","4","5","4","5","3","759925175528722434","林","399","","","","","","","","","","","","","","","","","","","","","","","","","","","","","","","","","","","","","","","","","",""
"942","<p style=""color:rgb(150, 250, 100); font-size: 35px;"">本人</p>","e","categorize-html","165","283655","0.0-6.0-1.0-8.0-1.28","4","4","4","3","4","4","4","3","4","4","5","3","4","4","4","5","5","5","4","5","5","3","5","3","2","4","4","1","5","0","0","0","1","1","1","0","0","0","1","1","0","0","0","1","4","1","2","2","4","5","4","5","4","5","3","759925175528722434","林","399","","","","","","","","","","","","","","","","","","","true","14","4","moral","942","self","本人","","","","","","","","","","","","","","","","",""
"null","","null","html-keyboard-response","166","283906","0.0-6.0-1.0-8.0-0.29","4","4","4","3","4","4","4","3","4","4","5","3","4","4","4","5","5","5","4","5","5","3","5","3","2","4","4","1","5","0","0","0","1","1","1","0","0","0","1","1","0","0","0","1","4","1","2","2","4","5","4","5","4","5","3","759925175528722434","林","399","","","","","","","","","","","","","","","","","","","","","","","","","","","","","","","","","","","","","","","","","",""
"945","<p style=""color:white; font-size: 35px;"">善良</p>","i","categorize-html","167","284854","0.0-6.0-1.0-8.0-1.29","4","4","4","3","4","4","4","3","4","4","5","3","4","4","4","5","5","5","4","5","5","3","5","3","2","4","4","1","5","0","0","0","1","1","1","0","0","0","1","1","0","0","0","1","4","1","2","2","4","5","4","5","4","5","3","759925175528722434","林","399","","","","","","","","","","","","","","","","","","","true","14","4","moral","945","positive","善良","","","","","","","","","","","","","","","","",""
"null","","null","html-keyboard-response","168","285106","0.0-6.0-1.0-8.0-0.30","4","4","4","3","4","4","4","3","4","4","5","3","4","4","4","5","5","5","4","5","5","3","5","3","2","4","4","1","5","0","0","0","1","1","1","0","0","0","1","1","0","0","0","1","4","1","2","2","4","5","4","5","4","5","3","759925175528722434","林","399","","","","","","","","","","","","","","","","","","","","","","","","","","","","","","","","","","","","","","","","","",""
"876","<p style=""color:rgb(150, 250, 100); font-size: 35px;"">别人</p>","i","categorize-html","169","285983","0.0-6.0-1.0-8.0-1.30","4","4","4","3","4","4","4","3","4","4","5","3","4","4","4","5","5","5","4","5","5","3","5","3","2","4","4","1","5","0","0","0","1","1","1","0","0","0","1","1","0","0","0","1","4","1","2","2","4","5","4","5","4","5","3","759925175528722434","林","399","","","","","","","","","","","","","","","","","","","true","14","4","moral","876","other","别人","","","","","","","","","","","","","","","","",""
"null","","null","html-keyboard-response","170","286235","0.0-6.0-1.0-8.0-0.31","4","4","4","3","4","4","4","3","4","4","5","3","4","4","4","5","5","5","4","5","5","3","5","3","2","4","4","1","5","0","0","0","1","1","1","0","0","0","1","1","0","0","0","1","4","1","2","2","4","5","4","5","4","5","3","759925175528722434","林","399","","","","","","","","","","","","","","","","","","","","","","","","","","","","","","","","","","","","","","","","","",""
"897","<p style=""color:white; font-size: 35px;"">不仁</p>","e","categorize-html","171","287134","0.0-6.0-1.0-8.0-1.31","4","4","4","3","4","4","4","3","4","4","5","3","4","4","4","5","5","5","4","5","5","3","5","3","2","4","4","1","5","0","0","0","1","1","1","0","0","0","1","1","0","0","0","1","4","1","2","2","4","5","4","5","4","5","3","759925175528722434","林","399","","","","","","","","","","","","","","","","","","","true","14","4","moral","897","negative","不仁","","","","","","","","","","","","","","","","",""
"null","","null","html-keyboard-response","172","287385","0.0-6.0-1.0-8.0-0.32","4","4","4","3","4","4","4","3","4","4","5","3","4","4","4","5","5","5","4","5","5","3","5","3","2","4","4","1","5","0","0","0","1","1","1","0","0","0","1","1","0","0","0","1","4","1","2","2","4","5","4","5","4","5","3","759925175528722434","林","399","","","","","","","","","","","","","","","","","","","","","","","","","","","","","","","","","","","","","","","","","",""
"705","<p style=""color:rgb(150, 250, 100); font-size: 35px;"">本人的</p>","e","categorize-html","173","288094","0.0-6.0-1.0-8.0-1.32","4","4","4","3","4","4","4","3","4","4","5","3","4","4","4","5","5","5","4","5","5","3","5","3","2","4","4","1","5","0","0","0","1","1","1","0","0","0","1","1","0","0","0","1","4","1","2","2","4","5","4","5","4","5","3","759925175528722434","林","399","","","","","","","","","","","","","","","","","","","true","14","4","moral","705","self","本人的","","","","","","","","","","","","","","","","",""
"null","","null","html-keyboard-response","174","288346","0.0-6.0-1.0-8.0-0.33","4","4","4","3","4","4","4","3","4","4","5","3","4","4","4","5","5","5","4","5","5","3","5","3","2","4","4","1","5","0","0","0","1","1","1","0","0","0","1","1","0","0","0","1","4","1","2","2","4","5","4","5","4","5","3","759925175528722434","林","399","","","","","","","","","","","","","","","","","","","","","","","","","","","","","","","","","","","","","","","","","",""
"1526","<p style=""color:white; font-size: 35px;"">缺德</p>","e","categorize-html","175","289875","0.0-6.0-1.0-8.0-1.33","4","4","4","3","4","4","4","3","4","4","5","3","4","4","4","5","5","5","4","5","5","3","5","3","2","4","4","1","5","0","0","0","1","1","1","0","0","0","1","1","0","0","0","1","4","1","2","2","4","5","4","5","4","5","3","759925175528722434","林","399","","","","","","","","","","","","","","","","","","","true","14","4","moral","1526","negative","缺德","","","","","","","","","","","","","","","","",""
"null","","null","html-keyboard-response","176","290127","0.0-6.0-1.0-8.0-0.34","4","4","4","3","4","4","4","3","4","4","5","3","4","4","4","5","5","5","4","5","5","3","5","3","2","4","4","1","5","0","0","0","1","1","1","0","0","0","1","1","0","0","0","1","4","1","2","2","4","5","4","5","4","5","3","759925175528722434","林","399","","","","","","","","","","","","","","","","","","","","","","","","","","","","","","","","","","","","","","","","","",""
"764","<p style=""color:rgb(150, 250, 100); font-size: 35px;"">他的</p>","i","categorize-html","177","290894","0.0-6.0-1.0-8.0-1.34","4","4","4","3","4","4","4","3","4","4","5","3","4","4","4","5","5","5","4","5","5","3","5","3","2","4","4","1","5","0","0","0","1","1","1","0","0","0","1","1","0","0","0","1","4","1","2","2","4","5","4","5","4","5","3","759925175528722434","林","399","","","","","","","","","","","","","","","","","","","true","14","4","moral","764","other","他的","","","","","","","","","","","","","","","","",""
"null","","null","html-keyboard-response","178","291145","0.0-6.0-1.0-8.0-0.35","4","4","4","3","4","4","4","3","4","4","5","3","4","4","4","5","5","5","4","5","5","3","5","3","2","4","4","1","5","0","0","0","1","1","1","0","0","0","1","1","0","0","0","1","4","1","2","2","4","5","4","5","4","5","3","759925175528722434","林","399","","","","","","","","","","","","","","","","","","","","","","","","","","","","","","","","","","","","","","","","","",""
"816","<p style=""color:white; font-size: 35px;"">廉正</p>","i","categorize-html","179","291961","0.0-6.0-1.0-8.0-1.35","4","4","4","3","4","4","4","3","4","4","5","3","4","4","4","5","5","5","4","5","5","3","5","3","2","4","4","1","5","0","0","0","1","1","1","0","0","0","1","1","0","0","0","1","4","1","2","2","4","5","4","5","4","5","3","759925175528722434","林","399","","","","","","","","","","","","","","","","","","","true","14","4","moral","816","positive","廉正","","","","","","","","","","","","","","","","",""
"null","","null","html-keyboard-response","180","292214","0.0-6.0-1.0-8.0-0.36","4","4","4","3","4","4","4","3","4","4","5","3","4","4","4","5","5","5","4","5","5","3","5","3","2","4","4","1","5","0","0","0","1","1","1","0","0","0","1","1","0","0","0","1","4","1","2","2","4","5","4","5","4","5","3","759925175528722434","林","399","","","","","","","","","","","","","","","","","","","","","","","","","","","","","","","","","","","","","","","","","",""
"588","<p style=""color:rgb(150, 250, 100); font-size: 35px;"">别人的</p>","i","categorize-html","181","292805","0.0-6.0-1.0-8.0-1.36","4","4","4","3","4","4","4","3","4","4","5","3","4","4","4","5","5","5","4","5","5","3","5","3","2","4","4","1","5","0","0","0","1","1","1","0","0","0","1","1","0","0","0","1","4","1","2","2","4","5","4","5","4","5","3","759925175528722434","林","399","","","","","","","","","","","","","","","","","","","true","14","4","moral","588","other","别人的","","","","","","","","","","","","","","","","",""
"null","","null","html-keyboard-response","182","293056","0.0-6.0-1.0-8.0-0.37","4","4","4","3","4","4","4","3","4","4","5","3","4","4","4","5","5","5","4","5","5","3","5","3","2","4","4","1","5","0","0","0","1","1","1","0","0","0","1","1","0","0","0","1","4","1","2","2","4","5","4","5","4","5","3","759925175528722434","林","399","","","","","","","","","","","","","","","","","","","","","","","","","","","","","","","","","","","","","","","","","",""
"797","<p style=""color:white; font-size: 35px;"">缺德</p>","i","categorize-html","183","294256","0.0-6.0-1.0-8.0-1.37","4","4","4","3","4","4","4","3","4","4","5","3","4","4","4","5","5","5","4","5","5","3","5","3","2","4","4","1","5","0","0","0","1","1","1","0","0","0","1","1","0","0","0","1","4","1","2","2","4","5","4","5","4","5","3","759925175528722434","林","399","","","","","","","","","","","","","","","","","","","false","14","4","moral","1425.0444444444445","negative","缺德","","","","","","","","","","","","","","","","",""
"null","","null","html-keyboard-response","184","294516","0.0-6.0-1.0-8.0-0.38","4","4","4","3","4","4","4","3","4","4","5","3","4","4","4","5","5","5","4","5","5","3","5","3","2","4","4","1","5","0","0","0","1","1","1","0","0","0","1","1","0","0","0","1","4","1","2","2","4","5","4","5","4","5","3","759925175528722434","林","399","","","","","","","","","","","","","","","","","","","","","","","","","","","","","","","","","","","","","","","","","",""
"670","<p style=""color:rgb(150, 250, 100); font-size: 35px;"">我的</p>","e","categorize-html","185","295189","0.0-6.0-1.0-8.0-1.38","4","4","4","3","4","4","4","3","4","4","5","3","4","4","4","5","5","5","4","5","5","3","5","3","2","4","4","1","5","0","0","0","1","1","1","0","0","0","1","1","0","0","0","1","4","1","2","2","4","5","4","5","4","5","3","759925175528722434","林","399","","","","","","","","","","","","","","","","","","","true","14","4","moral","670","self","我的","","","","","","","","","","","","","","","","",""
"null","","null","html-keyboard-response","186","295440","0.0-6.0-1.0-8.0-0.39","4","4","4","3","4","4","4","3","4","4","5","3","4","4","4","5","5","5","4","5","5","3","5","3","2","4","4","1","5","0","0","0","1","1","1","0","0","0","1","1","0","0","0","1","4","1","2","2","4","5","4","5","4","5","3","759925175528722434","林","399","","","","","","","","","","","","","","","","","","","","","","","","","","","","","","","","","","","","","","","","","",""
"753","<p style=""color:white; font-size: 35px;"">正直</p>","i","categorize-html","187","296194","0.0-6.0-1.0-8.0-1.39","4","4","4","3","4","4","4","3","4","4","5","3","4","4","4","5","5","5","4","5","5","3","5","3","2","4","4","1","5","0","0","0","1","1","1","0","0","0","1","1","0","0","0","1","4","1","2","2","4","5","4","5","4","5","3","759925175528722434","林","399","","","","","","","","","","","","","","","","","","","true","14","4","moral","753","positive","正直","","","","","","","","","","","","","","","","",""
"null","","null","html-keyboard-response","188","296446","0.0-6.0-1.0-8.0-0.40","4","4","4","3","4","4","4","3","4","4","5","3","4","4","4","5","5","5","4","5","5","3","5","3","2","4","4","1","5","0","0","0","1","1","1","0","0","0","1","1","0","0","0","1","4","1","2","2","4","5","4","5","4","5","3","759925175528722434","林","399","","","","","","","","","","","","","","","","","","","","","","","","","","","","","","","","","","","","","","","","","",""
"1368","<p style=""color:rgb(150, 250, 100); font-size: 35px;"">自己的</p>","e","categorize-html","189","297818","0.0-6.0-1.0-8.0-1.40","4","4","4","3","4","4","4","3","4","4","5","3","4","4","4","5","5","5","4","5","5","3","5","3","2","4","4","1","5","0","0","0","1","1","1","0","0","0","1","1","0","0","0","1","4","1","2","2","4","5","4","5","4","5","3","759925175528722434","林","399","","","","","","","","","","","","","","","","","","","true","14","4","moral","1368","self","自己的","","","","","","","","","","","","","","","","",""
"null","","null","html-keyboard-response","190","298069","0.0-6.0-1.0-8.0-0.41","4","4","4","3","4","4","4","3","4","4","5","3","4","4","4","5","5","5","4","5","5","3","5","3","2","4","4","1","5","0","0","0","1","1","1","0","0","0","1","1","0","0","0","1","4","1","2","2","4","5","4","5","4","5","3","759925175528722434","林","399","","","","","","","","","","","","","","","","","","","","","","","","","","","","","","","","","","","","","","","","","",""
"1076","<p style=""color:white; font-size: 35px;"">正直</p>","i","categorize-html","191","299149","0.0-6.0-1.0-8.0-1.41","4","4","4","3","4","4","4","3","4","4","5","3","4","4","4","5","5","5","4","5","5","3","5","3","2","4","4","1","5","0","0","0","1","1","1","0","0","0","1","1","0","0","0","1","4","1","2","2","4","5","4","5","4","5","3","759925175528722434","林","399","","","","","","","","","","","","","","","","","","","true","14","4","moral","1076","positive","正直","","","","","","","","","","","","","","","","",""
"null","","null","html-keyboard-response","192","299400","0.0-6.0-1.0-8.0-0.42","4","4","4","3","4","4","4","3","4","4","5","3","4","4","4","5","5","5","4","5","5","3","5","3","2","4","4","1","5","0","0","0","1","1","1","0","0","0","1","1","0","0","0","1","4","1","2","2","4","5","4","5","4","5","3","759925175528722434","林","399","","","","","","","","","","","","","","","","","","","","","","","","","","","","","","","","","","","","","","","","","",""
