"rt","stimulus","response","trial_type","trial_index","time_elapsed","internal_node_id","ses_1","ses_2","ses_3","ses_4","ses_5","ses_6","ses_7","ses_8","ses_9","ses_10","coreself_1","coreself_2","coreself_3","coreself_4","coreself_5","coreself_6","coreself_7","coreself_8","coreself_9","coreself_10","SGPS_1","SGPS_2","SGPS_3","SGPS_4","SGPS_5","SGPS_6","SGPS_7","SGPS_8","SGPS_9","NPI1","NPI2","NPI3","NPI4","NPI5","NPI6","NPI7","NPI8","NPI9","NPI10","NPI11","NPI12","NPI13","NPI14","NPI15","hsns_1","hsns_2","hsns_3","hsns_4","hsns_5","trap1","hsns_6","hsns_7","hsns_8","hsns_9","hsns_10","subj_idx","friend_name","ParticipantID","value","success","user_agent","responses","item_order","radio_event_ids","radio_event_times","key_event_times","mouse_event_times","straightlining","zigzagging","honeypot","timeout","failed_images","failed_audio","failed_video","view_history","response_type","key_press","avg_frame_time","center_x","center_y","correct_response","correct","identity","Image","word","condition","task_id","screen_id","time_stamp","version_attrib2","version_target2","IAT","RT","varname","summary","version_attrib","version_target","question_order","correct_answer","trap1_item"
"41921","
   <p><div style = ""color: white;font-size:25px;"">您好，欢迎参加本次实验。</div> </p>
   <p><div style = ""color: white;font-size:25px;"">为充分保障您的权利，请确保您已经知晓并同意《参与实验同意书》以及《数据公开知情同意书》。</div></p>
   <p><div style = ""color: white;font-size:25px;"">如果您未见过上述内容，请咨询实验员。</div></p>
   <p><div style = ""color: white;font-size:25px;"">如果您选择继续实验，则表示您已经清楚两份知情同意书的内容并同意。</div></p>
   <p><div style = ""color: pink;font-size:30px;"">请确保您记得day0的实验编号，您将在本次实验输入该编号，若您忘记，请咨询实验员后作答。</div></p>
   <p><div style = ""color: lightblue;font-size:25px;"">请您尽可能认真地作答，我们将依据您在各问卷和按键任务中的作答质量发放报酬。</div></p>
   <p> <div style = ""color: green;font-size:25px;""><按空格键至下页></div> </p>
   "," ","html-keyboard-response","0","41924","0.0-0.0","3","3","4","3","4","3","3","4","4","4","4","5","5","4","4","4","5","4","4","4","1","1","2","1","1","2","1","1","1","1","0","1","1","0","0","1","1","1","1","1","0","0","0","1","4","3","5","4","2","5","2","2","2","2","1","781518032190312450","贺","501","","","","","","","","","","","","","","","","","","","","","","","","","","","","","","","","","","","","","","","","","",""
"","","","call-function","1","41926","0.0-1.0-0.0","3","3","4","3","4","3","3","4","4","4","4","5","5","4","4","4","5","4","4","4","1","1","2","1","1","2","1","1","1","1","0","1","1","0","0","1","1","1","1","1","0","0","0","1","4","3","5","4","2","5","2","2","2","2","1","781518032190312450","贺","501","","","","","","","","","","","","","","","","","","","","","","","","","","","","","","","","","","","","","","","","","",""
"25479","","{""friend_name"":""贺"",""ParticipantID"":""501""}","survey-html-form","2","67404","0.0-1.0-1.0","3","3","4","3","4","3","3","4","4","4","4","5","5","4","4","4","5","4","4","4","1","1","2","1","1","2","1","1","1","1","0","1","1","0","0","1","1","1","1","1","0","0","0","1","4","3","5","4","2","5","2","2","2","2","1","781518032190312450","贺","501","","","","","","","","","","","","","","","","","","","","","","","","","","","","","","","","","","","","","","","","","",""
"","","","fullscreen","3","93774","0.0-2.0","3","3","4","3","4","3","3","4","4","4","4","5","5","4","4","4","5","4","4","4","1","1","2","1","1","2","1","1","1","1","0","1","1","0","0","1","1","1","1","1","0","0","0","1","4","3","5","4","2","5","2","2","2","2","1","781518032190312450","贺","501","","true","{}","","","","","","","","","","","","","","","","","","","","","","","","","","","","","","","","","","","","","","",""
"75110.5","","{""Q01"":""3"",""Q02"":""3"",""Q03"":""4"",""Q04"":""3"",""Q05"":""4"",""Q06"":""3"",""Q07"":""3"",""Q08"":""4"",""Q09"":""4"",""Q10"":""4""}","survey-template","4","168886","0.0-3.0","3","3","4","3","4","3","3","4","4","4","4","5","5","4","4","4","5","4","4","4","1","1","2","1","1","2","1","1","1","1","0","1","1","0","0","1","1","1","1","1","0","0","0","1","4","3","5","4","2","5","2","2","2","2","1","781518032190312450","贺","501","","","","{""Q01"":""3"",""Q02"":""3"",""Q03"":""4"",""Q04"":""3"",""Q05"":""4"",""Q06"":""3"",""Q07"":""3"",""Q08"":""4"",""Q09"":""4"",""Q10"":""4""}","[0,1,2,3,4,5,6,7,8,9]","[""Q01"",""Q02"",""Q03"",""Q04"",""Q05"",""Q06"",""Q07"",""Q08"",""Q10"",""Q09""]","[30263.299999952316,31913.900000095367,33341.09999990463,34440.700000047684,35917.200000047684,40744.799999952316,42154.90000009537,66972.70000004768,69058.70000004768,71091]","[]","[30263.299999952316,31913.900000095367,33341.09999990463,34440.700000047684,35917.200000047684,37426.90000009537,38579.90000009537,40744.799999952316,42154.90000009537,66972.70000004768,68234.70000004768,69058.70000004768,70087,71091,75108.90000009537]","0.5","0","0","","","","","","","","","","","","","","","","","","","","","","","","","","","","","",""
"18259.900000095367","","{""Q01"":""4"",""Q02"":""5"",""Q03"":""5"",""Q04"":""4"",""Q05"":""4"",""Q06"":""4"",""Q07"":""5"",""Q08"":""4"",""Q09"":""4"",""Q10"":""4""}","survey-template","5","187153","0.0-4.0","3","3","4","3","4","3","3","4","4","4","4","5","5","4","4","4","5","4","4","4","1","1","2","1","1","2","1","1","1","1","0","1","1","0","0","1","1","1","1","1","0","0","0","1","4","3","5","4","2","5","2","2","2","2","1","781518032190312450","贺","501","","","","{""Q01"":""4"",""Q02"":""5"",""Q03"":""5"",""Q04"":""4"",""Q05"":""4"",""Q06"":""4"",""Q07"":""5"",""Q08"":""4"",""Q09"":""4"",""Q10"":""4""}","[0,1,2,3,4,5,6,7,8,9]","[""Q01"",""Q02"",""Q03"",""Q04"",""Q05"",""Q06"",""Q07"",""Q08"",""Q09"",""Q10""]","[2965.5,4034,5077.799999952316,7190.099999904633,9256.200000047684,10445.900000095367,11979.900000095367,14516.099999904633,15567.599999904633,16889.900000095367]","[]","[2965.5,4034,5077.799999952316,7190.099999904633,9256.200000047684,10445.900000095367,11979.900000095367,14516.099999904633,15567.599999904633,16889.900000095367,18258.200000047684]","0.4","0.1111111111111111","0","","","","","","","","","","","","","","","","","","","","","","","","","","","","","",""
"","","","preload","6","187461","0.0-5.0","3","3","4","3","4","3","3","4","4","4","4","5","5","4","4","4","5","4","4","4","1","1","2","1","1","2","1","1","1","1","0","1","1","0","0","1","1","1","1","1","0","0","0","1","4","3","5","4","2","5","2","2","2","2","1","781518032190312450","贺","501","","true","","","","","","","","","","","false","[]","[]","[]","","","","","","","","","","","","","","","","","","","","","","","","","",""
"16265","","","instructions","7","203729","0.0-6.0","3","3","4","3","4","3","3","4","4","4","4","5","5","4","4","4","5","4","4","4","1","1","2","1","1","2","1","1","1","1","0","1","1","0","0","1","1","1","1","1","0","0","0","1","4","3","5","4","2","5","2","2","2","2","1","781518032190312450","贺","501","","","","","","","","","","","","","","","","","[{""page_index"":0,""viewing_time"":16265}]","","","","","","","","","","","","","","","","","","","","","","","","",""
"27636","","","instructions","8","231366","0.0-7.0-0.0-0.0","3","3","4","3","4","3","3","4","4","4","4","5","5","4","4","4","5","4","4","4","1","1","2","1","1","2","1","1","1","1","0","1","1","0","0","1","1","1","1","1","0","0","0","1","4","3","5","4","2","5","2","2","2","2","1","781518032190312450","贺","501","","","","","","","","","","","","","","","","","[{""page_index"":0,""viewing_time"":18556},{""page_index"":1,""viewing_time"":6228},{""page_index"":2,""viewing_time"":2852}]","","","","","","","","","","","","","","","","","","","","","","","","",""
"null","","null","psychophysics","9","233582","0.0-7.0-0.0-1.0-0.0-0.0","3","3","4","3","4","3","3","4","4","4","4","5","5","4","4","4","5","4","4","4","1","1","2","1","1","2","1","1","1","1","0","1","1","0","0","1","1","1","1","1","0","0","0","1","4","3","5","4","2","5","2","2","2","2","1","781518032190312450","贺","501","","","","null","","","","","","","","","","","","","","key","null","7.410760135135107","768","428","j","false","match","img/square.png","方形","方形","ALT1_1","prac_ALT1_1","","","","","","","","","","","",""
"null","<span class='add_' style='color:yellow; font-size: 70px;'> 太慢! </span>","null","html-keyboard-response","10","234097","0.0-7.0-0.0-1.0-0.0-1.0","3","3","4","3","4","3","3","4","4","4","4","5","5","4","4","4","5","4","4","4","1","1","2","1","1","2","1","1","1","1","0","1","1","0","0","1","1","1","1","1","0","0","0","1","4","3","5","4","2","5","2","2","2","2","1","781518032190312450","贺","501","","","","","","","","","","","","","","","","","","","","","","","","","","","","","","feedback_test","","","","","","","","","","","",""
"null","","null","psychophysics","11","236307","0.0-7.0-0.0-1.0-0.0-0.1","3","3","4","3","4","3","3","4","4","4","4","5","5","4","4","4","5","4","4","4","1","1","2","1","1","2","1","1","1","1","0","1","1","0","0","1","1","1","1","1","0","0","0","1","4","3","5","4","2","5","2","2","2","2","1","781518032190312450","贺","501","","","","null","","","","","","","","","","","","","","key","null","6.941284810126571","768","428","f","false","nonmatch","img/square.png","五边","方形","ALT1_1","prac_ALT1_1","","","","","","","","","","","",""
"null","<span class='add_' style='color:yellow; font-size: 70px;'> 太慢! </span>","null","html-keyboard-response","12","236810","0.0-7.0-0.0-1.0-0.0-1.1","3","3","4","3","4","3","3","4","4","4","4","5","5","4","4","4","5","4","4","4","1","1","2","1","1","2","1","1","1","1","0","1","1","0","0","1","1","1","1","1","0","0","0","1","4","3","5","4","2","5","2","2","2","2","1","781518032190312450","贺","501","","","","","","","","","","","","","","","","","","","","","","","","","","","","","","feedback_test","","","","","","","","","","","",""
"452","","f","psychophysics","13","238268","0.0-7.0-0.0-1.0-0.0-0.2","3","3","4","3","4","3","3","4","4","4","4","5","5","4","4","4","5","4","4","4","1","1","2","1","1","2","1","1","1","1","0","1","1","0","0","1","1","1","1","1","0","0","0","1","4","3","5","4","2","5","2","2","2","2","1","781518032190312450","贺","501","","","","nonmatch","","","","","","","","","","","","","","key","f","6.9414278846154325","768","428","f","true","nonmatch","img/triangle.png","方形","三角","ALT1_1","prac_ALT1_1","","","","","","","","","","","",""
"null","<span style='color:GreenYellow; font-size: 70px;'>正确! </span>","null","html-keyboard-response","14","238776","0.0-7.0-0.0-1.0-0.0-1.2","3","3","4","3","4","3","3","4","4","4","4","5","5","4","4","4","5","4","4","4","1","1","2","1","1","2","1","1","1","1","0","1","1","0","0","1","1","1","1","1","0","0","0","1","4","3","5","4","2","5","2","2","2","2","1","781518032190312450","贺","501","","","","","","","","","","","","","","","","","","","","","","","","","","","","","","feedback_test","","","","","","","","","","","",""
"269","","j","psychophysics","15","240050","0.0-7.0-0.0-1.0-0.0-0.3","3","3","4","3","4","3","3","4","4","4","4","5","5","4","4","4","5","4","4","4","1","1","2","1","1","2","1","1","1","1","0","1","1","0","0","1","1","1","1","1","0","0","0","1","4","3","5","4","2","5","2","2","2","2","1","781518032190312450","贺","501","","","","match","","","","","","","","","","","","","","key","j","6.9413480662984535","768","428","j","true","match","img/square.png","方形","方形","ALT1_1","prac_ALT1_1","","","","","","","","","","","",""
"null","<span style='color:GreenYellow; font-size: 70px;'>正确! </span>","null","html-keyboard-response","16","240554","0.0-7.0-0.0-1.0-0.0-1.3","3","3","4","3","4","3","3","4","4","4","4","5","5","4","4","4","5","4","4","4","1","1","2","1","1","2","1","1","1","1","0","1","1","0","0","1","1","1","1","1","0","0","0","1","4","3","5","4","2","5","2","2","2","2","1","781518032190312450","贺","501","","","","","","","","","","","","","","","","","","","","","","","","","","","","","","feedback_test","","","","","","","","","","","",""
"278","","j","psychophysics","17","241836","0.0-7.0-0.0-1.0-0.0-0.4","3","3","4","3","4","3","3","4","4","4","4","5","5","4","4","4","5","4","4","4","1","1","2","1","1","2","1","1","1","1","0","1","1","0","0","1","1","1","1","1","0","0","0","1","4","3","5","4","2","5","2","2","2","2","1","781518032190312450","贺","501","","","","match","","","","","","","","","","","","","","key","j","6.935269230769296","768","428","j","true","match","img/triangle.png","三角","三角","ALT1_1","prac_ALT1_1","","","","","","","","","","","",""
"null","<span style='color:GreenYellow; font-size: 70px;'>正确! </span>","null","html-keyboard-response","18","242349","0.0-7.0-0.0-1.0-0.0-1.4","3","3","4","3","4","3","3","4","4","4","4","5","5","4","4","4","5","4","4","4","1","1","2","1","1","2","1","1","1","1","0","1","1","0","0","1","1","1","1","1","0","0","0","1","4","3","5","4","2","5","2","2","2","2","1","781518032190312450","贺","501","","","","","","","","","","","","","","","","","","","","","","","","","","","","","","feedback_test","","","","","","","","","","","",""
"310","","j","psychophysics","19","243664","0.0-7.0-0.0-1.0-0.0-0.5","3","3","4","3","4","3","3","4","4","4","4","5","5","4","4","4","5","4","4","4","1","1","2","1","1","2","1","1","1","1","0","1","1","0","0","1","1","1","1","1","0","0","0","1","4","3","5","4","2","5","2","2","2","2","1","781518032190312450","贺","501","","","","match","","","","","","","","","","","","","","key","j","6.978454545454494","768","428","f","false","nonmatch","img/square.png","圆形","方形","ALT1_1","prac_ALT1_1","","","","","","","","","","","",""
"null","<span style='color:red; font-size: 70px;'>错误! </span>","null","html-keyboard-response","20","244171","0.0-7.0-0.0-1.0-0.0-1.5","3","3","4","3","4","3","3","4","4","4","4","5","5","4","4","4","5","4","4","4","1","1","2","1","1","2","1","1","1","1","0","1","1","0","0","1","1","1","1","1","0","0","0","1","4","3","5","4","2","5","2","2","2","2","1","781518032190312450","贺","501","","","","","","","","","","","","","","","","","","","","","","","","","","","","","","feedback_test","","","","","","","","","","","",""
"323","","j","psychophysics","21","245497","0.0-7.0-0.0-1.0-0.0-0.6","3","3","4","3","4","3","3","4","4","4","4","5","5","4","4","4","5","4","4","4","1","1","2","1","1","2","1","1","1","1","0","1","1","0","0","1","1","1","1","1","0","0","0","1","4","3","5","4","2","5","2","2","2","2","1","781518032190312450","贺","501","","","","match","","","","","","","","","","","","","","key","j","6.942359788359787","768","428","f","false","nonmatch","img/circle.png","五边","圆形","ALT1_1","prac_ALT1_1","","","","","","","","","","","",""
"null","<span style='color:red; font-size: 70px;'>错误! </span>","null","html-keyboard-response","22","246006","0.0-7.0-0.0-1.0-0.0-1.6","3","3","4","3","4","3","3","4","4","4","4","5","5","4","4","4","5","4","4","4","1","1","2","1","1","2","1","1","1","1","0","1","1","0","0","1","1","1","1","1","0","0","0","1","4","3","5","4","2","5","2","2","2","2","1","781518032190312450","贺","501","","","","","","","","","","","","","","","","","","","","","","","","","","","","","","feedback_test","","","","","","","","","","","",""
"240","","f","psychophysics","23","247253","0.0-7.0-0.0-1.0-0.0-0.7","3","3","4","3","4","3","3","4","4","4","4","5","5","4","4","4","5","4","4","4","1","1","2","1","1","2","1","1","1","1","0","1","1","0","0","1","1","1","1","1","0","0","0","1","4","3","5","4","2","5","2","2","2","2","1","781518032190312450","贺","501","","","","nonmatch","","","","","","","","","","","","","","key","f","6.942331460674242","768","428","f","true","nonmatch","img/square.png","三角","方形","ALT1_1","prac_ALT1_1","","","","","","","","","","","",""
"null","<span style='color:GreenYellow; font-size: 70px;'>正确! </span>","null","html-keyboard-response","24","247760","0.0-7.0-0.0-1.0-0.0-1.7","3","3","4","3","4","3","3","4","4","4","4","5","5","4","4","4","5","4","4","4","1","1","2","1","1","2","1","1","1","1","0","1","1","0","0","1","1","1","1","1","0","0","0","1","4","3","5","4","2","5","2","2","2","2","1","781518032190312450","贺","501","","","","","","","","","","","","","","","","","","","","","","","","","","","","","","feedback_test","","","","","","","","","","","",""
"295","","f","psychophysics","25","249059","0.0-7.0-0.0-1.0-0.0-0.8","3","3","4","3","4","3","3","4","4","4","4","5","5","4","4","4","5","4","4","4","1","1","2","1","1","2","1","1","1","1","0","1","1","0","0","1","1","1","1","1","0","0","0","1","4","3","5","4","2","5","2","2","2","2","1","781518032190312450","贺","501","","","","nonmatch","","","","","","","","","","","","","","key","f","6.939632432432405","768","428","f","true","nonmatch","img/pentagon.png","方形","五边","ALT1_1","prac_ALT1_1","","","","","","","","","","","",""
"null","<span style='color:GreenYellow; font-size: 70px;'>正确! </span>","null","html-keyboard-response","26","249567","0.0-7.0-0.0-1.0-0.0-1.8","3","3","4","3","4","3","3","4","4","4","4","5","5","4","4","4","5","4","4","4","1","1","2","1","1","2","1","1","1","1","0","1","1","0","0","1","1","1","1","1","0","0","0","1","4","3","5","4","2","5","2","2","2","2","1","781518032190312450","贺","501","","","","","","","","","","","","","","","","","","","","","","","","","","","","","","feedback_test","","","","","","","","","","","",""
"234","","j","psychophysics","27","250807","0.0-7.0-0.0-1.0-0.0-0.9","3","3","4","3","4","3","3","4","4","4","4","5","5","4","4","4","5","4","4","4","1","1","2","1","1","2","1","1","1","1","0","1","1","0","0","1","1","1","1","1","0","0","0","1","4","3","5","4","2","5","2","2","2","2","1","781518032190312450","贺","501","","","","match","","","","","","","","","","","","","","key","j","6.980943181818062","768","428","j","true","match","img/circle.png","圆形","圆形","ALT1_1","prac_ALT1_1","","","","","","","","","","","",""
"null","<span style='color:GreenYellow; font-size: 70px;'>正确! </span>","null","html-keyboard-response","28","251323","0.0-7.0-0.0-1.0-0.0-1.9","3","3","4","3","4","3","3","4","4","4","4","5","5","4","4","4","5","4","4","4","1","1","2","1","1","2","1","1","1","1","0","1","1","0","0","1","1","1","1","1","0","0","0","1","4","3","5","4","2","5","2","2","2","2","1","781518032190312450","贺","501","","","","","","","","","","","","","","","","","","","","","","","","","","","","","","feedback_test","","","","","","","","","","","",""
"272","","j","psychophysics","29","252601","0.0-7.0-0.0-1.0-0.0-0.10","3","3","4","3","4","3","3","4","4","4","4","5","5","4","4","4","5","4","4","4","1","1","2","1","1","2","1","1","1","1","0","1","1","0","0","1","1","1","1","1","0","0","0","1","4","3","5","4","2","5","2","2","2","2","1","781518032190312450","贺","501","","","","match","","","","","","","","","","","","","","key","j","6.979615384615429","768","428","j","true","match","img/circle.png","圆形","圆形","ALT1_1","prac_ALT1_1","","","","","","","","","","","",""
"null","<span style='color:GreenYellow; font-size: 70px;'>正确! </span>","null","html-keyboard-response","30","253112","0.0-7.0-0.0-1.0-0.0-1.10","3","3","4","3","4","3","3","4","4","4","4","5","5","4","4","4","5","4","4","4","1","1","2","1","1","2","1","1","1","1","0","1","1","0","0","1","1","1","1","1","0","0","0","1","4","3","5","4","2","5","2","2","2","2","1","781518032190312450","贺","501","","","","","","","","","","","","","","","","","","","","","","","","","","","","","","feedback_test","","","","","","","","","","","",""
"164","","f","psychophysics","31","254279","0.0-7.0-0.0-1.0-0.0-0.11","3","3","4","3","4","3","3","4","4","4","4","5","5","4","4","4","5","4","4","4","1","1","2","1","1","2","1","1","1","1","0","1","1","0","0","1","1","1","1","1","0","0","0","1","4","3","5","4","2","5","2","2","2","2","1","781518032190312450","贺","501","","","","nonmatch","","","","","","","","","","","","","","key","f","6.932569696969762","768","428","j","false","match","img/circle.png","圆形","圆形","ALT1_1","prac_ALT1_1","","","","","","","","","","","",""
"null","<span style='color:yellow; font-size: 70px;'>过快! </span>","null","html-keyboard-response","32","254789","0.0-7.0-0.0-1.0-0.0-1.11","3","3","4","3","4","3","3","4","4","4","4","5","5","4","4","4","5","4","4","4","1","1","2","1","1","2","1","1","1","1","0","1","1","0","0","1","1","1","1","1","0","0","0","1","4","3","5","4","2","5","2","2","2","2","1","781518032190312450","贺","501","","","","","","","","","","","","","","","","","","","","","","","","","","","","","","feedback_test","","","","","","","","","","","",""
"411","","j","psychophysics","33","256204","0.0-7.0-0.0-1.0-0.0-0.12","3","3","4","3","4","3","3","4","4","4","4","5","5","4","4","4","5","4","4","4","1","1","2","1","1","2","1","1","1","1","0","1","1","0","0","1","1","1","1","1","0","0","0","1","4","3","5","4","2","5","2","2","2","2","1","781518032190312450","贺","501","","","","match","","","","","","","","","","","","","","key","j","6.941539603960354","768","428","j","true","match","img/pentagon.png","五边","五边","ALT1_1","prac_ALT1_1","","","","","","","","","","","",""
"null","<span style='color:GreenYellow; font-size: 70px;'>正确! </span>","null","html-keyboard-response","34","256714","0.0-7.0-0.0-1.0-0.0-1.12","3","3","4","3","4","3","3","4","4","4","4","5","5","4","4","4","5","4","4","4","1","1","2","1","1","2","1","1","1","1","0","1","1","0","0","1","1","1","1","1","0","0","0","1","4","3","5","4","2","5","2","2","2","2","1","781518032190312450","贺","501","","","","","","","","","","","","","","","","","","","","","","","","","","","","","","feedback_test","","","","","","","","","","","",""
"334","","j","psychophysics","35","258051","0.0-7.0-0.0-1.0-0.0-0.13","3","3","4","3","4","3","3","4","4","4","4","5","5","4","4","4","5","4","4","4","1","1","2","1","1","2","1","1","1","1","0","1","1","0","0","1","1","1","1","1","0","0","0","1","4","3","5","4","2","5","2","2","2","2","1","781518032190312450","贺","501","","","","match","","","","","","","","","","","","","","key","j","6.934747368420971","768","428","f","false","nonmatch","img/circle.png","方形","圆形","ALT1_1","prac_ALT1_1","","","","","","","","","","","",""
"null","<span style='color:red; font-size: 70px;'>错误! </span>","null","html-keyboard-response","36","258556","0.0-7.0-0.0-1.0-0.0-1.13","3","3","4","3","4","3","3","4","4","4","4","5","5","4","4","4","5","4","4","4","1","1","2","1","1","2","1","1","1","1","0","1","1","0","0","1","1","1","1","1","0","0","0","1","4","3","5","4","2","5","2","2","2","2","1","781518032190312450","贺","501","","","","","","","","","","","","","","","","","","","","","","","","","","","","","","feedback_test","","","","","","","","","","","",""
"389","","j","psychophysics","37","259951","0.0-7.0-0.0-1.0-0.0-0.14","3","3","4","3","4","3","3","4","4","4","4","5","5","4","4","4","5","4","4","4","1","1","2","1","1","2","1","1","1","1","0","1","1","0","0","1","1","1","1","1","0","0","0","1","4","3","5","4","2","5","2","2","2","2","1","781518032190312450","贺","501","","","","match","","","","","","","","","","","","","","key","j","6.94213567839189","768","428","j","true","match","img/square.png","方形","方形","ALT1_1","prac_ALT1_1","","","","","","","","","","","",""
"null","<span style='color:GreenYellow; font-size: 70px;'>正确! </span>","null","html-keyboard-response","38","260458","0.0-7.0-0.0-1.0-0.0-1.14","3","3","4","3","4","3","3","4","4","4","4","5","5","4","4","4","5","4","4","4","1","1","2","1","1","2","1","1","1","1","0","1","1","0","0","1","1","1","1","1","0","0","0","1","4","3","5","4","2","5","2","2","2","2","1","781518032190312450","贺","501","","","","","","","","","","","","","","","","","","","","","","","","","","","","","","feedback_test","","","","","","","","","","","",""
"515","","j","psychophysics","39","261979","0.0-7.0-0.0-1.0-0.0-0.15","3","3","4","3","4","3","3","4","4","4","4","5","5","4","4","4","5","4","4","4","1","1","2","1","1","2","1","1","1","1","0","1","1","0","0","1","1","1","1","1","0","0","0","1","4","3","5","4","2","5","2","2","2","2","1","781518032190312450","贺","501","","","","match","","","","","","","","","","","","","","key","j","6.941435779816414","768","428","j","true","match","img/triangle.png","三角","三角","ALT1_1","prac_ALT1_1","","","","","","","","","","","",""
"null","<span style='color:GreenYellow; font-size: 70px;'>正确! </span>","null","html-keyboard-response","40","262482","0.0-7.0-0.0-1.0-0.0-1.15","3","3","4","3","4","3","3","4","4","4","4","5","5","4","4","4","5","4","4","4","1","1","2","1","1","2","1","1","1","1","0","1","1","0","0","1","1","1","1","1","0","0","0","1","4","3","5","4","2","5","2","2","2","2","1","781518032190312450","贺","501","","","","","","","","","","","","","","","","","","","","","","","","","","","","","","feedback_test","","","","","","","","","","","",""
"851","","j","psychophysics","41","264337","0.0-7.0-0.0-1.0-0.0-0.16","3","3","4","3","4","3","3","4","4","4","4","5","5","4","4","4","5","4","4","4","1","1","2","1","1","2","1","1","1","1","0","1","1","0","0","1","1","1","1","1","0","0","0","1","4","3","5","4","2","5","2","2","2","2","1","781518032190312450","贺","501","","","","match","","","","","","","","","","","","","","key","j","6.940754716981088","768","428","f","false","nonmatch","img/triangle.png","五边","三角","ALT1_1","prac_ALT1_1","","","","","","","","","","","",""
"null","<span style='color:red; font-size: 70px;'>错误! </span>","null","html-keyboard-response","42","264843","0.0-7.0-0.0-1.0-0.0-1.16","3","3","4","3","4","3","3","4","4","4","4","5","5","4","4","4","5","4","4","4","1","1","2","1","1","2","1","1","1","1","0","1","1","0","0","1","1","1","1","1","0","0","0","1","4","3","5","4","2","5","2","2","2","2","1","781518032190312450","贺","501","","","","","","","","","","","","","","","","","","","","","","","","","","","","","","feedback_test","","","","","","","","","","","",""
"699","","j","psychophysics","43","266545","0.0-7.0-0.0-1.0-0.0-0.17","3","3","4","3","4","3","3","4","4","4","4","5","5","4","4","4","5","4","4","4","1","1","2","1","1","2","1","1","1","1","0","1","1","0","0","1","1","1","1","1","0","0","0","1","4","3","5","4","2","5","2","2","2","2","1","781518032190312450","贺","501","","","","match","","","","","","","","","","","","","","key","j","6.941958847736658","768","428","f","false","nonmatch","img/pentagon.png","三角","五边","ALT1_1","prac_ALT1_1","","","","","","","","","","","",""
"null","<span style='color:red; font-size: 70px;'>错误! </span>","null","html-keyboard-response","44","267050","0.0-7.0-0.0-1.0-0.0-1.17","3","3","4","3","4","3","3","4","4","4","4","5","5","4","4","4","5","4","4","4","1","1","2","1","1","2","1","1","1","1","0","1","1","0","0","1","1","1","1","1","0","0","0","1","4","3","5","4","2","5","2","2","2","2","1","781518032190312450","贺","501","","","","","","","","","","","","","","","","","","","","","","","","","","","","","","feedback_test","","","","","","","","","","","",""
"650","","j","psychophysics","45","268708","0.0-7.0-0.0-1.0-0.0-0.18","3","3","4","3","4","3","3","4","4","4","4","5","5","4","4","4","5","4","4","4","1","1","2","1","1","2","1","1","1","1","0","1","1","0","0","1","1","1","1","1","0","0","0","1","4","3","5","4","2","5","2","2","2","2","1","781518032190312450","贺","501","","","","match","","","","","","","","","","","","","","key","j","6.942004219409302","768","428","j","true","match","img/pentagon.png","五边","五边","ALT1_1","prac_ALT1_1","","","","","","","","","","","",""
"null","<span style='color:GreenYellow; font-size: 70px;'>正确! </span>","null","html-keyboard-response","46","269217","0.0-7.0-0.0-1.0-0.0-1.18","3","3","4","3","4","3","3","4","4","4","4","5","5","4","4","4","5","4","4","4","1","1","2","1","1","2","1","1","1","1","0","1","1","0","0","1","1","1","1","1","0","0","0","1","4","3","5","4","2","5","2","2","2","2","1","781518032190312450","贺","501","","","","","","","","","","","","","","","","","","","","","","","","","","","","","","feedback_test","","","","","","","","","","","",""
"709","","f","psychophysics","47","270931","0.0-7.0-0.0-1.0-0.0-0.19","3","3","4","3","4","3","3","4","4","4","4","5","5","4","4","4","5","4","4","4","1","1","2","1","1","2","1","1","1","1","0","1","1","0","0","1","1","1","1","1","0","0","0","1","4","3","5","4","2","5","2","2","2","2","1","781518032190312450","贺","501","","","","nonmatch","","","","","","","","","","","","","","key","f","6.9419632653061925","768","428","f","true","nonmatch","img/triangle.png","圆形","三角","ALT1_1","prac_ALT1_1","","","","","","","","","","","",""
"null","<span style='color:GreenYellow; font-size: 70px;'>正确! </span>","null","html-keyboard-response","48","271433","0.0-7.0-0.0-1.0-0.0-1.19","3","3","4","3","4","3","3","4","4","4","4","5","5","4","4","4","5","4","4","4","1","1","2","1","1","2","1","1","1","1","0","1","1","0","0","1","1","1","1","1","0","0","0","1","4","3","5","4","2","5","2","2","2","2","1","781518032190312450","贺","501","","","","","","","","","","","","","","","","","","","","","","","","","","","","","","feedback_test","","","","","","","","","","","",""
"637","","j","psychophysics","49","273075","0.0-7.0-0.0-1.0-0.0-0.20","3","3","4","3","4","3","3","4","4","4","4","5","5","4","4","4","5","4","4","4","1","1","2","1","1","2","1","1","1","1","0","1","1","0","0","1","1","1","1","1","0","0","0","1","4","3","5","4","2","5","2","2","2","2","1","781518032190312450","贺","501","","","","match","","","","","","","","","","","","","","key","j","6.970773504273349","768","428","j","true","match","img/triangle.png","三角","三角","ALT1_1","prac_ALT1_1","","","","","","","","","","","",""
"null","<span style='color:GreenYellow; font-size: 70px;'>正确! </span>","null","html-keyboard-response","50","273593","0.0-7.0-0.0-1.0-0.0-1.20","3","3","4","3","4","3","3","4","4","4","4","5","5","4","4","4","5","4","4","4","1","1","2","1","1","2","1","1","1","1","0","1","1","0","0","1","1","1","1","1","0","0","0","1","4","3","5","4","2","5","2","2","2","2","1","781518032190312450","贺","501","","","","","","","","","","","","","","","","","","","","","","","","","","","","","","feedback_test","","","","","","","","","","","",""
"833","","f","psychophysics","51","275429","0.0-7.0-0.0-1.0-0.0-0.21","3","3","4","3","4","3","3","4","4","4","4","5","5","4","4","4","5","4","4","4","1","1","2","1","1","2","1","1","1","1","0","1","1","0","0","1","1","1","1","1","0","0","0","1","4","3","5","4","2","5","2","2","2","2","1","781518032190312450","贺","501","","","","nonmatch","","","","","","","","","","","","","","key","f","6.942038167938981","768","428","f","true","nonmatch","img/circle.png","三角","圆形","ALT1_1","prac_ALT1_1","","","","","","","","","","","",""
"null","<span style='color:GreenYellow; font-size: 70px;'>正确! </span>","null","html-keyboard-response","52","275946","0.0-7.0-0.0-1.0-0.0-1.21","3","3","4","3","4","3","3","4","4","4","4","5","5","4","4","4","5","4","4","4","1","1","2","1","1","2","1","1","1","1","0","1","1","0","0","1","1","1","1","1","0","0","0","1","4","3","5","4","2","5","2","2","2","2","1","781518032190312450","贺","501","","","","","","","","","","","","","","","","","","","","","","","","","","","","","","feedback_test","","","","","","","","","","","",""
"680","","j","psychophysics","53","277629","0.0-7.0-0.0-1.0-0.0-0.22","3","3","4","3","4","3","3","4","4","4","4","5","5","4","4","4","5","4","4","4","1","1","2","1","1","2","1","1","1","1","0","1","1","0","0","1","1","1","1","1","0","0","0","1","4","3","5","4","2","5","2","2","2","2","1","781518032190312450","贺","501","","","","match","","","","","","","","","","","","","","key","j","6.94163750000007","768","428","j","true","match","img/pentagon.png","五边","五边","ALT1_1","prac_ALT1_1","","","","","","","","","","","",""
"null","<span style='color:GreenYellow; font-size: 70px;'>正确! </span>","null","html-keyboard-response","54","278138","0.0-7.0-0.0-1.0-0.0-1.22","3","3","4","3","4","3","3","4","4","4","4","5","5","4","4","4","5","4","4","4","1","1","2","1","1","2","1","1","1","1","0","1","1","0","0","1","1","1","1","1","0","0","0","1","4","3","5","4","2","5","2","2","2","2","1","781518032190312450","贺","501","","","","","","","","","","","","","","","","","","","","","","","","","","","","","","feedback_test","","","","","","","","","","","",""
"711","","f","psychophysics","55","279854","0.0-7.0-0.0-1.0-0.0-0.23","3","3","4","3","4","3","3","4","4","4","4","5","5","4","4","4","5","4","4","4","1","1","2","1","1","2","1","1","1","1","0","1","1","0","0","1","1","1","1","1","0","0","0","1","4","3","5","4","2","5","2","2","2","2","1","781518032190312450","贺","501","","","","nonmatch","","","","","","","","","","","","","","key","f","6.941394308943025","768","428","f","true","nonmatch","img/pentagon.png","圆形","五边","ALT1_1","prac_ALT1_1","","","","","","","","","","","",""
"null","<span style='color:GreenYellow; font-size: 70px;'>正确! </span>","null","html-keyboard-response","56","280367","0.0-7.0-0.0-1.0-0.0-1.23","3","3","4","3","4","3","3","4","4","4","4","5","5","4","4","4","5","4","4","4","1","1","2","1","1","2","1","1","1","1","0","1","1","0","0","1","1","1","1","1","0","0","0","1","4","3","5","4","2","5","2","2","2","2","1","781518032190312450","贺","501","","","","","","","","","","","","","","","","","","","","","","","","","","","","","","feedback_test","","","","","","","","","","","",""
"509","","j","psychophysics","57","281882","0.0-7.0-0.0-1.0-0.0-0.24","3","3","4","3","4","3","3","4","4","4","4","5","5","4","4","4","5","4","4","4","1","1","2","1","1","2","1","1","1","1","0","1","1","0","0","1","1","1","1","1","0","0","0","1","4","3","5","4","2","5","2","2","2","2","1","781518032190312450","贺","501","","","","match","","","","","","","","","","","","","","key","j","6.941291666666479","768","428","j","true","match","img/triangle.png","三角","三角","ALT1_1","prac_ALT1_1","","","","","","","","","","","",""
"null","<span style='color:GreenYellow; font-size: 70px;'>正确! </span>","null","html-keyboard-response","58","282386","0.0-7.0-0.0-1.0-0.0-1.24","3","3","4","3","4","3","3","4","4","4","4","5","5","4","4","4","5","4","4","4","1","1","2","1","1","2","1","1","1","1","0","1","1","0","0","1","1","1","1","1","0","0","0","1","4","3","5","4","2","5","2","2","2","2","1","781518032190312450","贺","501","","","","","","","","","","","","","","","","","","","","","","","","","","","","","","feedback_test","","","","","","","","","","","",""
"746","","f","psychophysics","59","284135","0.0-7.0-0.0-1.0-0.0-0.25","3","3","4","3","4","3","3","4","4","4","4","5","5","4","4","4","5","4","4","4","1","1","2","1","1","2","1","1","1","1","0","1","1","0","0","1","1","1","1","1","0","0","0","1","4","3","5","4","2","5","2","2","2","2","1","781518032190312450","贺","501","","","","nonmatch","","","","","","","","","","","","","","key","f","6.941645418326704","768","428","f","true","nonmatch","img/triangle.png","方形","三角","ALT1_1","prac_ALT1_1","","","","","","","","","","","",""
"null","<span style='color:GreenYellow; font-size: 70px;'>正确! </span>","null","html-keyboard-response","60","284644","0.0-7.0-0.0-1.0-0.0-1.25","3","3","4","3","4","3","3","4","4","4","4","5","5","4","4","4","5","4","4","4","1","1","2","1","1","2","1","1","1","1","0","1","1","0","0","1","1","1","1","1","0","0","0","1","4","3","5","4","2","5","2","2","2","2","1","781518032190312450","贺","501","","","","","","","","","","","","","","","","","","","","","","","","","","","","","","feedback_test","","","","","","","","","","","",""
"586","","j","psychophysics","61","286233","0.0-7.0-0.0-1.0-0.0-0.26","3","3","4","3","4","3","3","4","4","4","4","5","5","4","4","4","5","4","4","4","1","1","2","1","1","2","1","1","1","1","0","1","1","0","0","1","1","1","1","1","0","0","0","1","4","3","5","4","2","5","2","2","2","2","1","781518032190312450","贺","501","","","","match","","","","","","","","","","","","","","key","j","6.941268722466983","768","428","j","true","match","img/triangle.png","三角","三角","ALT1_1","prac_ALT1_1","","","","","","","","","","","",""
"null","<span style='color:GreenYellow; font-size: 70px;'>正确! </span>","null","html-keyboard-response","62","286743","0.0-7.0-0.0-1.0-0.0-1.26","3","3","4","3","4","3","3","4","4","4","4","5","5","4","4","4","5","4","4","4","1","1","2","1","1","2","1","1","1","1","0","1","1","0","0","1","1","1","1","1","0","0","0","1","4","3","5","4","2","5","2","2","2","2","1","781518032190312450","贺","501","","","","","","","","","","","","","","","","","","","","","","","","","","","","","","feedback_test","","","","","","","","","","","",""
"765","","f","psychophysics","63","288515","0.0-7.0-0.0-1.0-0.0-0.27","3","3","4","3","4","3","3","4","4","4","4","5","5","4","4","4","5","4","4","4","1","1","2","1","1","2","1","1","1","1","0","1","1","0","0","1","1","1","1","1","0","0","0","1","4","3","5","4","2","5","2","2","2","2","1","781518032190312450","贺","501","","","","nonmatch","","","","","","","","","","","","","","key","f","6.9413110236220215","768","428","f","true","nonmatch","img/circle.png","方形","圆形","ALT1_1","prac_ALT1_1","","","","","","","","","","","",""
"null","<span style='color:GreenYellow; font-size: 70px;'>正确! </span>","null","html-keyboard-response","64","289029","0.0-7.0-0.0-1.0-0.0-1.27","3","3","4","3","4","3","3","4","4","4","4","5","5","4","4","4","5","4","4","4","1","1","2","1","1","2","1","1","1","1","0","1","1","0","0","1","1","1","1","1","0","0","0","1","4","3","5","4","2","5","2","2","2","2","1","781518032190312450","贺","501","","","","","","","","","","","","","","","","","","","","","","","","","","","","","","feedback_test","","","","","","","","","","","",""
"837","","f","psychophysics","65","290871","0.0-7.0-0.0-1.0-0.0-0.28","3","3","4","3","4","3","3","4","4","4","4","5","5","4","4","4","5","4","4","4","1","1","2","1","1","2","1","1","1","1","0","1","1","0","0","1","1","1","1","1","0","0","0","1","4","3","5","4","2","5","2","2","2","2","1","781518032190312450","贺","501","","","","nonmatch","","","","","","","","","","","","","","key","f","6.94134469696975","768","428","f","true","nonmatch","img/pentagon.png","圆形","五边","ALT1_1","prac_ALT1_1","","","","","","","","","","","",""
"null","<span style='color:GreenYellow; font-size: 70px;'>正确! </span>","null","html-keyboard-response","66","291379","0.0-7.0-0.0-1.0-0.0-1.28","3","3","4","3","4","3","3","4","4","4","4","5","5","4","4","4","5","4","4","4","1","1","2","1","1","2","1","1","1","1","0","1","1","0","0","1","1","1","1","1","0","0","0","1","4","3","5","4","2","5","2","2","2","2","1","781518032190312450","贺","501","","","","","","","","","","","","","","","","","","","","","","","","","","","","","","feedback_test","","","","","","","","","","","",""
"706","","f","psychophysics","67","293093","0.0-7.0-0.0-1.0-0.0-0.29","3","3","4","3","4","3","3","4","4","4","4","5","5","4","4","4","5","4","4","4","1","1","2","1","1","2","1","1","1","1","0","1","1","0","0","1","1","1","1","1","0","0","0","1","4","3","5","4","2","5","2","2","2","2","1","781518032190312450","贺","501","","","","nonmatch","","","","","","","","","","","","","","key","f","6.940959183673365","768","428","f","true","nonmatch","img/triangle.png","五边","三角","ALT1_1","prac_ALT1_1","","","","","","","","","","","",""
"null","<span style='color:GreenYellow; font-size: 70px;'>正确! </span>","null","html-keyboard-response","68","293597","0.0-7.0-0.0-1.0-0.0-1.29","3","3","4","3","4","3","3","4","4","4","4","5","5","4","4","4","5","4","4","4","1","1","2","1","1","2","1","1","1","1","0","1","1","0","0","1","1","1","1","1","0","0","0","1","4","3","5","4","2","5","2","2","2","2","1","781518032190312450","贺","501","","","","","","","","","","","","","","","","","","","","","","","","","","","","","","feedback_test","","","","","","","","","","","",""
"588","","j","psychophysics","69","295188","0.0-7.0-0.0-1.0-0.0-0.30","3","3","4","3","4","3","3","4","4","4","4","5","5","4","4","4","5","4","4","4","1","1","2","1","1","2","1","1","1","1","0","1","1","0","0","1","1","1","1","1","0","0","0","1","4","3","5","4","2","5","2","2","2","2","1","781518032190312450","贺","501","","","","match","","","","","","","","","","","","","","key","j","6.941302631578813","768","428","j","true","match","img/triangle.png","三角","三角","ALT1_1","prac_ALT1_1","","","","","","","","","","","",""
"null","<span style='color:GreenYellow; font-size: 70px;'>正确! </span>","null","html-keyboard-response","70","295690","0.0-7.0-0.0-1.0-0.0-1.30","3","3","4","3","4","3","3","4","4","4","4","5","5","4","4","4","5","4","4","4","1","1","2","1","1","2","1","1","1","1","0","1","1","0","0","1","1","1","1","1","0","0","0","1","4","3","5","4","2","5","2","2","2","2","1","781518032190312450","贺","501","","","","","","","","","","","","","","","","","","","","","","","","","","","","","","feedback_test","","","","","","","","","","","",""
"561","","f","psychophysics","71","297257","0.0-7.0-0.0-1.0-0.0-0.31","3","3","4","3","4","3","3","4","4","4","4","5","5","4","4","4","5","4","4","4","1","1","2","1","1","2","1","1","1","1","0","1","1","0","0","1","1","1","1","1","0","0","0","1","4","3","5","4","2","5","2","2","2","2","1","781518032190312450","贺","501","","","","nonmatch","","","","","","","","","","","","","","key","f","6.941165919282532","768","428","j","false","match","img/circle.png","圆形","圆形","ALT1_1","prac_ALT1_1","","","","","","","","","","","",""
"null","<span style='color:red; font-size: 70px;'>错误! </span>","null","html-keyboard-response","72","297765","0.0-7.0-0.0-1.0-0.0-1.31","3","3","4","3","4","3","3","4","4","4","4","5","5","4","4","4","5","4","4","4","1","1","2","1","1","2","1","1","1","1","0","1","1","0","0","1","1","1","1","1","0","0","0","1","4","3","5","4","2","5","2","2","2","2","1","781518032190312450","贺","501","","","","","","","","","","","","","","","","","","","","","","","","","","","","","","feedback_test","","","","","","","","","","","",""
"757","","f","psychophysics","73","299529","0.0-7.0-0.0-1.0-0.0-0.32","3","3","4","3","4","3","3","4","4","4","4","5","5","4","4","4","5","4","4","4","1","1","2","1","1","2","1","1","1","1","0","1","1","0","0","1","1","1","1","1","0","0","0","1","4","3","5","4","2","5","2","2","2","2","1","781518032190312450","贺","501","","","","nonmatch","","","","","","","","","","","","","","key","f","6.941509881422887","768","428","f","true","nonmatch","img/pentagon.png","三角","五边","ALT1_1","prac_ALT1_1","","","","","","","","","","","",""
"null","<span style='color:GreenYellow; font-size: 70px;'>正确! </span>","null","html-keyboard-response","74","300031","0.0-7.0-0.0-1.0-0.0-1.32","3","3","4","3","4","3","3","4","4","4","4","5","5","4","4","4","5","4","4","4","1","1","2","1","1","2","1","1","1","1","0","1","1","0","0","1","1","1","1","1","0","0","0","1","4","3","5","4","2","5","2","2","2","2","1","781518032190312450","贺","501","","","","","","","","","","","","","","","","","","","","","","","","","","","","","","feedback_test","","","","","","","","","","","",""
"734","","f","psychophysics","75","301769","0.0-7.0-0.0-1.0-0.0-0.33","3","3","4","3","4","3","3","4","4","4","4","5","5","4","4","4","5","4","4","4","1","1","2","1","1","2","1","1","1","1","0","1","1","0","0","1","1","1","1","1","0","0","0","1","4","3","5","4","2","5","2","2","2","2","1","781518032190312450","贺","501","","","","nonmatch","","","","","","","","","","","","","","key","f","6.9414698795179826","768","428","f","true","nonmatch","img/circle.png","三角","圆形","ALT1_1","prac_ALT1_1","","","","","","","","","","","",""
"null","<span style='color:GreenYellow; font-size: 70px;'>正确! </span>","null","html-keyboard-response","76","302273","0.0-7.0-0.0-1.0-0.0-1.33","3","3","4","3","4","3","3","4","4","4","4","5","5","4","4","4","5","4","4","4","1","1","2","1","1","2","1","1","1","1","0","1","1","0","0","1","1","1","1","1","0","0","0","1","4","3","5","4","2","5","2","2","2","2","1","781518032190312450","贺","501","","","","","","","","","","","","","","","","","","","","","","","","","","","","","","feedback_test","","","","","","","","","","","",""
"870","","f","psychophysics","77","304152","0.0-7.0-0.0-1.0-0.0-0.34","3","3","4","3","4","3","3","4","4","4","4","5","5","4","4","4","5","4","4","4","1","1","2","1","1","2","1","1","1","1","0","1","1","0","0","1","1","1","1","1","0","0","0","1","4","3","5","4","2","5","2","2","2","2","1","781518032190312450","贺","501","","","","nonmatch","","","","","","","","","","","","","","key","f","6.941591078066916","768","428","f","true","nonmatch","img/circle.png","五边","圆形","ALT1_1","prac_ALT1_1","","","","","","","","","","","",""
"null","<span style='color:GreenYellow; font-size: 70px;'>正确! </span>","null","html-keyboard-response","78","304656","0.0-7.0-0.0-1.0-0.0-1.34","3","3","4","3","4","3","3","4","4","4","4","5","5","4","4","4","5","4","4","4","1","1","2","1","1","2","1","1","1","1","0","1","1","0","0","1","1","1","1","1","0","0","0","1","4","3","5","4","2","5","2","2","2","2","1","781518032190312450","贺","501","","","","","","","","","","","","","","","","","","","","","","","","","","","","","","feedback_test","","","","","","","","","","","",""
"1127","","f","psychophysics","79","306790","0.0-7.0-0.0-1.0-0.0-0.35","3","3","4","3","4","3","3","4","4","4","4","5","5","4","4","4","5","4","4","4","1","1","2","1","1","2","1","1","1","1","0","1","1","0","0","1","1","1","1","1","0","0","0","1","4","3","5","4","2","5","2","2","2","2","1","781518032190312450","贺","501","","","","nonmatch","","","","","","","","","","","","","","key","f","6.941013114754164","768","428","f","true","nonmatch","img/square.png","五边","方形","ALT1_1","prac_ALT1_1","","","","","","","","","","","",""
"null","<span style='color:GreenYellow; font-size: 70px;'>正确! </span>","null","html-keyboard-response","80","307305","0.0-7.0-0.0-1.0-0.0-1.35","3","3","4","3","4","3","3","4","4","4","4","5","5","4","4","4","5","4","4","4","1","1","2","1","1","2","1","1","1","1","0","1","1","0","0","1","1","1","1","1","0","0","0","1","4","3","5","4","2","5","2","2","2","2","1","781518032190312450","贺","501","","","","","","","","","","","","","","","","","","","","","","","","","","","","","","feedback_test","","","","","","","","","","","",""
"681","","j","psychophysics","81","308990","0.0-7.0-0.0-1.0-0.0-0.36","3","3","4","3","4","3","3","4","4","4","4","5","5","4","4","4","5","4","4","4","1","1","2","1","1","2","1","1","1","1","0","1","1","0","0","1","1","1","1","1","0","0","0","1","4","3","5","4","2","5","2","2","2","2","1","781518032190312450","贺","501","","","","match","","","","","","","","","","","","","","key","j","6.94090456431548","768","428","j","true","match","img/pentagon.png","五边","五边","ALT1_1","prac_ALT1_1","","","","","","","","","","","",""
"null","<span style='color:GreenYellow; font-size: 70px;'>正确! </span>","null","html-keyboard-response","82","309499","0.0-7.0-0.0-1.0-0.0-1.36","3","3","4","3","4","3","3","4","4","4","4","5","5","4","4","4","5","4","4","4","1","1","2","1","1","2","1","1","1","1","0","1","1","0","0","1","1","1","1","1","0","0","0","1","4","3","5","4","2","5","2","2","2","2","1","781518032190312450","贺","501","","","","","","","","","","","","","","","","","","","","","","","","","","","","","","feedback_test","","","","","","","","","","","",""
"1037","","j","psychophysics","83","311537","0.0-7.0-0.0-1.0-0.0-0.37","3","3","4","3","4","3","3","4","4","4","4","5","5","4","4","4","5","4","4","4","1","1","2","1","1","2","1","1","1","1","0","1","1","0","0","1","1","1","1","1","0","0","0","1","4","3","5","4","2","5","2","2","2","2","1","781518032190312450","贺","501","","","","match","","","","","","","","","","","","","","key","j","6.941453924914742","768","428","f","false","nonmatch","img/pentagon.png","方形","五边","ALT1_1","prac_ALT1_1","","","","","","","","","","","",""
"null","<span style='color:red; font-size: 70px;'>错误! </span>","null","html-keyboard-response","84","312041","0.0-7.0-0.0-1.0-0.0-1.37","3","3","4","3","4","3","3","4","4","4","4","5","5","4","4","4","5","4","4","4","1","1","2","1","1","2","1","1","1","1","0","1","1","0","0","1","1","1","1","1","0","0","0","1","4","3","5","4","2","5","2","2","2","2","1","781518032190312450","贺","501","","","","","","","","","","","","","","","","","","","","","","","","","","","","","","feedback_test","","","","","","","","","","","",""
"718","","f","psychophysics","85","313767","0.0-7.0-0.0-1.0-0.0-0.38","3","3","4","3","4","3","3","4","4","4","4","5","5","4","4","4","5","4","4","4","1","1","2","1","1","2","1","1","1","1","0","1","1","0","0","1","1","1","1","1","0","0","0","1","4","3","5","4","2","5","2","2","2","2","1","781518032190312450","贺","501","","","","nonmatch","","","","","","","","","","","","","","key","f","6.941222672064615","768","428","j","false","match","img/circle.png","圆形","圆形","ALT1_1","prac_ALT1_1","","","","","","","","","","","",""
"null","<span style='color:red; font-size: 70px;'>错误! </span>","null","html-keyboard-response","86","314273","0.0-7.0-0.0-1.0-0.0-1.38","3","3","4","3","4","3","3","4","4","4","4","5","5","4","4","4","5","4","4","4","1","1","2","1","1","2","1","1","1","1","0","1","1","0","0","1","1","1","1","1","0","0","0","1","4","3","5","4","2","5","2","2","2","2","1","781518032190312450","贺","501","","","","","","","","","","","","","","","","","","","","","","","","","","","","","","feedback_test","","","","","","","","","","","",""
"802","","j","psychophysics","87","316078","0.0-7.0-0.0-1.0-0.0-0.39","3","3","4","3","4","3","3","4","4","4","4","5","5","4","4","4","5","4","4","4","1","1","2","1","1","2","1","1","1","1","0","1","1","0","0","1","1","1","1","1","0","0","0","1","4","3","5","4","2","5","2","2","2","2","1","781518032190312450","贺","501","","","","match","","","","","","","","","","","","","","key","j","6.941328185328199","768","428","j","true","match","img/pentagon.png","五边","五边","ALT1_1","prac_ALT1_1","","","","","","","","","","","",""
"null","<span style='color:GreenYellow; font-size: 70px;'>正确! </span>","null","html-keyboard-response","88","316580","0.0-7.0-0.0-1.0-0.0-1.39","3","3","4","3","4","3","3","4","4","4","4","5","5","4","4","4","5","4","4","4","1","1","2","1","1","2","1","1","1","1","0","1","1","0","0","1","1","1","1","1","0","0","0","1","4","3","5","4","2","5","2","2","2","2","1","781518032190312450","贺","501","","","","","","","","","","","","","","","","","","","","","","","","","","","","","","feedback_test","","","","","","","","","","","",""
"703","","j","psychophysics","89","318291","0.0-7.0-0.0-1.0-0.0-0.40","3","3","4","3","4","3","3","4","4","4","4","5","5","4","4","4","5","4","4","4","1","1","2","1","1","2","1","1","1","1","0","1","1","0","0","1","1","1","1","1","0","0","0","1","4","3","5","4","2","5","2","2","2","2","1","781518032190312450","贺","501","","","","match","","","","","","","","","","","","","","key","j","6.932489711934042","768","428","j","true","match","img/square.png","方形","方形","ALT1_1","prac_ALT1_1","","","","","","","","","","","",""
"null","<span style='color:GreenYellow; font-size: 70px;'>正确! </span>","null","html-keyboard-response","90","318795","0.0-7.0-0.0-1.0-0.0-1.40","3","3","4","3","4","3","3","4","4","4","4","5","5","4","4","4","5","4","4","4","1","1","2","1","1","2","1","1","1","1","0","1","1","0","0","1","1","1","1","1","0","0","0","1","4","3","5","4","2","5","2","2","2","2","1","781518032190312450","贺","501","","","","","","","","","","","","","","","","","","","","","","","","","","","","","","feedback_test","","","","","","","","","","","",""
"661","","j","psychophysics","91","320463","0.0-7.0-0.0-1.0-0.0-0.41","3","3","4","3","4","3","3","4","4","4","4","5","5","4","4","4","5","4","4","4","1","1","2","1","1","2","1","1","1","1","0","1","1","0","0","1","1","1","1","1","0","0","0","1","4","3","5","4","2","5","2","2","2","2","1","781518032190312450","贺","501","","","","match","","","","","","","","","","","","","","key","j","6.941242677824246","768","428","j","true","match","img/pentagon.png","五边","五边","ALT1_1","prac_ALT1_1","","","","","","","","","","","",""
"null","<span style='color:GreenYellow; font-size: 70px;'>正确! </span>","null","html-keyboard-response","92","320975","0.0-7.0-0.0-1.0-0.0-1.41","3","3","4","3","4","3","3","4","4","4","4","5","5","4","4","4","5","4","4","4","1","1","2","1","1","2","1","1","1","1","0","1","1","0","0","1","1","1","1","1","0","0","0","1","4","3","5","4","2","5","2","2","2","2","1","781518032190312450","贺","501","","","","","","","","","","","","","","","","","","","","","","","","","","","","","","feedback_test","","","","","","","","","","","",""
"794","","f","psychophysics","93","322776","0.0-7.0-0.0-1.0-0.0-0.42","3","3","4","3","4","3","3","4","4","4","4","5","5","4","4","4","5","4","4","4","1","1","2","1","1","2","1","1","1","1","0","1","1","0","0","1","1","1","1","1","0","0","0","1","4","3","5","4","2","5","2","2","2","2","1","781518032190312450","贺","501","","","","nonmatch","","","","","","","","","","","","","","key","f","6.941802325581567","768","428","f","true","nonmatch","img/triangle.png","圆形","三角","ALT1_1","prac_ALT1_1","","","","","","","","","","","",""
"null","<span style='color:GreenYellow; font-size: 70px;'>正确! </span>","null","html-keyboard-response","94","323282","0.0-7.0-0.0-1.0-0.0-1.42","3","3","4","3","4","3","3","4","4","4","4","5","5","4","4","4","5","4","4","4","1","1","2","1","1","2","1","1","1","1","0","1","1","0","0","1","1","1","1","1","0","0","0","1","4","3","5","4","2","5","2","2","2","2","1","781518032190312450","贺","501","","","","","","","","","","","","","","","","","","","","","","","","","","","","","","feedback_test","","","","","","","","","","","",""
"869","","j","psychophysics","95","325156","0.0-7.0-0.0-1.0-0.0-0.43","3","3","4","3","4","3","3","4","4","4","4","5","5","4","4","4","5","4","4","4","1","1","2","1","1","2","1","1","1","1","0","1","1","0","0","1","1","1","1","1","0","0","0","1","4","3","5","4","2","5","2","2","2","2","1","781518032190312450","贺","501","","","","match","","","","","","","","","","","","","","key","j","6.9673320895522215","768","428","f","false","nonmatch","img/square.png","圆形","方形","ALT1_1","prac_ALT1_1","","","","","","","","","","","",""
"null","<span style='color:red; font-size: 70px;'>错误! </span>","null","html-keyboard-response","96","325661","0.0-7.0-0.0-1.0-0.0-1.43","3","3","4","3","4","3","3","4","4","4","4","5","5","4","4","4","5","4","4","4","1","1","2","1","1","2","1","1","1","1","0","1","1","0","0","1","1","1","1","1","0","0","0","1","4","3","5","4","2","5","2","2","2","2","1","781518032190312450","贺","501","","","","","","","","","","","","","","","","","","","","","","","","","","","","","","feedback_test","","","","","","","","","","","",""
"null","","null","psychophysics","97","327869","0.0-7.0-0.0-1.0-0.0-0.44","3","3","4","3","4","3","3","4","4","4","4","5","5","4","4","4","5","4","4","4","1","1","2","1","1","2","1","1","1","1","0","1","1","0","0","1","1","1","1","1","0","0","0","1","4","3","5","4","2","5","2","2","2","2","1","781518032190312450","贺","501","","","","null","","","","","","","","","","","","","","key","null","6.941765822784804","768","428","j","false","match","img/square.png","方形","方形","ALT1_1","prac_ALT1_1","","","","","","","","","","","",""
"null","<span class='add_' style='color:yellow; font-size: 70px;'> 太慢! </span>","null","html-keyboard-response","98","328378","0.0-7.0-0.0-1.0-0.0-1.44","3","3","4","3","4","3","3","4","4","4","4","5","5","4","4","4","5","4","4","4","1","1","2","1","1","2","1","1","1","1","0","1","1","0","0","1","1","1","1","1","0","0","0","1","4","3","5","4","2","5","2","2","2","2","1","781518032190312450","贺","501","","","","","","","","","","","","","","","","","","","","","","","","","","","","","","feedback_test","","","","","","","","","","","",""
"669","","j","psychophysics","99","330049","0.0-7.0-0.0-1.0-0.0-0.45","3","3","4","3","4","3","3","4","4","4","4","5","5","4","4","4","5","4","4","4","1","1","2","1","1","2","1","1","1","1","0","1","1","0","0","1","1","1","1","1","0","0","0","1","4","3","5","4","2","5","2","2","2","2","1","781518032190312450","贺","501","","","","match","","","","","","","","","","","","","","key","j","6.941604166666608","768","428","j","true","match","img/circle.png","圆形","圆形","ALT1_1","prac_ALT1_1","","","","","","","","","","","",""
"null","<span style='color:GreenYellow; font-size: 70px;'>正确! </span>","null","html-keyboard-response","100","330554","0.0-7.0-0.0-1.0-0.0-1.45","3","3","4","3","4","3","3","4","4","4","4","5","5","4","4","4","5","4","4","4","1","1","2","1","1","2","1","1","1","1","0","1","1","0","0","1","1","1","1","1","0","0","0","1","4","3","5","4","2","5","2","2","2","2","1","781518032190312450","贺","501","","","","","","","","","","","","","","","","","","","","","","","","","","","","","","feedback_test","","","","","","","","","","","",""
"973","","f","psychophysics","101","332534","0.0-7.0-0.0-1.0-0.0-0.46","3","3","4","3","4","3","3","4","4","4","4","5","5","4","4","4","5","4","4","4","1","1","2","1","1","2","1","1","1","1","0","1","1","0","0","1","1","1","1","1","0","0","0","1","4","3","5","4","2","5","2","2","2","2","1","781518032190312450","贺","501","","","","nonmatch","","","","","","","","","","","","","","key","f","6.941052816901479","768","428","j","false","match","img/square.png","方形","方形","ALT1_1","prac_ALT1_1","","","","","","","","","","","",""
"null","<span style='color:red; font-size: 70px;'>错误! </span>","null","html-keyboard-response","102","333040","0.0-7.0-0.0-1.0-0.0-1.46","3","3","4","3","4","3","3","4","4","4","4","5","5","4","4","4","5","4","4","4","1","1","2","1","1","2","1","1","1","1","0","1","1","0","0","1","1","1","1","1","0","0","0","1","4","3","5","4","2","5","2","2","2","2","1","781518032190312450","贺","501","","","","","","","","","","","","","","","","","","","","","","","","","","","","","","feedback_test","","","","","","","","","","","",""
"705","","f","psychophysics","103","334750","0.0-7.0-0.0-1.0-0.0-0.47","3","3","4","3","4","3","3","4","4","4","4","5","5","4","4","4","5","4","4","4","1","1","2","1","1","2","1","1","1","1","0","1","1","0","0","1","1","1","1","1","0","0","0","1","4","3","5","4","2","5","2","2","2","2","1","781518032190312450","贺","501","","","","nonmatch","","","","","","","","","","","","","","key","f","6.96955737704936","768","428","f","true","nonmatch","img/square.png","三角","方形","ALT1_1","prac_ALT1_1","","","","","","","","","","","",""
"null","<span style='color:GreenYellow; font-size: 70px;'>正确! </span>","null","html-keyboard-response","104","335257","0.0-7.0-0.0-1.0-0.0-1.47","3","3","4","3","4","3","3","4","4","4","4","5","5","4","4","4","5","4","4","4","1","1","2","1","1","2","1","1","1","1","0","1","1","0","0","1","1","1","1","1","0","0","0","1","4","3","5","4","2","5","2","2","2","2","1","781518032190312450","贺","501","","","","","","","","","","","","","","","","","","","","","","","","","","","","","","feedback_test","","","","","","","","","","","",""
"39885","<style>.context{color:white; font-size: 35px; line-height:40px}</style>                            <div><p class='context'>您正确回答了71% 的试次。</p><p class='context'>您的平均反应时为612毫秒。</p><p class='context'>恭喜您完成练习。按空格键进入正式实验。</p><p class='footer' style='font-size: 35px; line-height:40px;'>请在进入正式实验之前将您的<span style='color: lightgreen;'>食指</span>放在电脑键盘的相应键位上进行按键。</p>"," ","html-keyboard-response","105","375143","0.0-7.0-0.0-2.0","3","3","4","3","4","3","3","4","4","4","4","5","5","4","4","4","5","4","4","4","1","1","2","1","1","2","1","1","1","1","0","1","1","0","0","1","1","1","1","1","0","0","0","1","4","3","5","4","2","5","2","2","2","2","1","781518032190312450","贺","501","","","","","","","","","","","","","","","","","","","","","","","","","","","","","","","","","","","","","","","","","",""
"2199","
    <p style='color: white; font-size: 22px'>请您将手指放在按键上，准备进入正式的匹配任务。</p>
    <p> <div style = ""color: green""><按空格键进入下一阶段的匹配任务></div></p>
    "," ","html-keyboard-response","106","377349","0.0-7.0-0.0-3.0","3","3","4","3","4","3","3","4","4","4","4","5","5","4","4","4","5","4","4","4","1","1","2","1","1","2","1","1","1","1","0","1","1","0","0","1","1","1","1","1","0","0","0","1","4","3","5","4","2","5","2","2","2","2","1","781518032190312450","贺","501","","","","","","","","","","","","","","","","","","","","","","","","","","","","","","","","","","","","","","","","","",""
"816","","j","psychophysics","107","379169","0.0-7.0-0.0-4.0-0.0-0.0","3","3","4","3","4","3","3","4","4","4","4","5","5","4","4","4","5","4","4","4","1","1","2","1","1","2","1","1","1","1","0","1","1","0","0","1","1","1","1","1","0","0","0","1","4","3","5","4","2","5","2","2","2","2","1","781518032190312450","贺","501","","","","match","","","","","","","","","","","","","","key","j","6.941415384615539","768","428","j","true","match","img/pentagon.png","五边","五边","ALT1","formal_ALT1_1","","","","","","","","","","","",""
"null","<span style='color:GreenYellow; font-size: 70px;'>正确! </span>","null","html-keyboard-response","108","379672","0.0-7.0-0.0-4.0-0.0-1.0","3","3","4","3","4","3","3","4","4","4","4","5","5","4","4","4","5","4","4","4","1","1","2","1","1","2","1","1","1","1","0","1","1","0","0","1","1","1","1","1","0","0","0","1","4","3","5","4","2","5","2","2","2","2","1","781518032190312450","贺","501","","","","","","","","","","","","","","","","","","","","","","","","","","","","","","feedback_test","","","","","","","","","","","",""
"782","","f","psychophysics","109","381458","0.0-7.0-0.0-4.0-0.0-0.1","3","3","4","3","4","3","3","4","4","4","4","5","5","4","4","4","5","4","4","4","1","1","2","1","1","2","1","1","1","1","0","1","1","0","0","1","1","1","1","1","0","0","0","1","4","3","5","4","2","5","2","2","2","2","1","781518032190312450","贺","501","","","","nonmatch","","","","","","","","","","","","","","key","f","6.941447058823599","768","428","f","true","nonmatch","img/pentagon.png","方形","五边","ALT1","formal_ALT1_1","","","","","","","","","","","",""
"null","<span style='color:GreenYellow; font-size: 70px;'>正确! </span>","null","html-keyboard-response","110","381961","0.0-7.0-0.0-4.0-0.0-1.1","3","3","4","3","4","3","3","4","4","4","4","5","5","4","4","4","5","4","4","4","1","1","2","1","1","2","1","1","1","1","0","1","1","0","0","1","1","1","1","1","0","0","0","1","4","3","5","4","2","5","2","2","2","2","1","781518032190312450","贺","501","","","","","","","","","","","","","","","","","","","","","","","","","","","","","","feedback_test","","","","","","","","","","","",""
"758","","j","psychophysics","111","383725","0.0-7.0-0.0-4.0-0.0-0.2","3","3","4","3","4","3","3","4","4","4","4","5","5","4","4","4","5","4","4","4","1","1","2","1","1","2","1","1","1","1","0","1","1","0","0","1","1","1","1","1","0","0","0","1","4","3","5","4","2","5","2","2","2","2","1","781518032190312450","贺","501","","","","match","","","","","","","","","","","","","","key","j","6.941316205533562","768","428","j","true","match","img/circle.png","圆形","圆形","ALT1","formal_ALT1_1","","","","","","","","","","","",""
"null","<span style='color:GreenYellow; font-size: 70px;'>正确! </span>","null","html-keyboard-response","112","384239","0.0-7.0-0.0-4.0-0.0-1.2","3","3","4","3","4","3","3","4","4","4","4","5","5","4","4","4","5","4","4","4","1","1","2","1","1","2","1","1","1","1","0","1","1","0","0","1","1","1","1","1","0","0","0","1","4","3","5","4","2","5","2","2","2","2","1","781518032190312450","贺","501","","","","","","","","","","","","","","","","","","","","","","","","","","","","","","feedback_test","","","","","","","","","","","",""
"845","","f","psychophysics","113","386089","0.0-7.0-0.0-4.0-0.0-0.3","3","3","4","3","4","3","3","4","4","4","4","5","5","4","4","4","5","4","4","4","1","1","2","1","1","2","1","1","1","1","0","1","1","0","0","1","1","1","1","1","0","0","0","1","4","3","5","4","2","5","2","2","2","2","1","781518032190312450","贺","501","","","","nonmatch","","","","","","","","","","","","","","key","f","6.967420454545583","768","428","f","true","nonmatch","img/triangle.png","圆形","三角","ALT1","formal_ALT1_1","","","","","","","","","","","",""
"null","<span style='color:GreenYellow; font-size: 70px;'>正确! </span>","null","html-keyboard-response","114","386594","0.0-7.0-0.0-4.0-0.0-1.3","3","3","4","3","4","3","3","4","4","4","4","5","5","4","4","4","5","4","4","4","1","1","2","1","1","2","1","1","1","1","0","1","1","0","0","1","1","1","1","1","0","0","0","1","4","3","5","4","2","5","2","2","2","2","1","781518032190312450","贺","501","","","","","","","","","","","","","","","","","","","","","","","","","","","","","","feedback_test","","","","","","","","","","","",""
"777","","f","psychophysics","115","388376","0.0-7.0-0.0-4.0-0.0-0.4","3","3","4","3","4","3","3","4","4","4","4","5","5","4","4","4","5","4","4","4","1","1","2","1","1","2","1","1","1","1","0","1","1","0","0","1","1","1","1","1","0","0","0","1","4","3","5","4","2","5","2","2","2","2","1","781518032190312450","贺","501","","","","nonmatch","","","","","","","","","","","","","","key","f","6.941415686274459","768","428","f","true","nonmatch","img/circle.png","五边","圆形","ALT1","formal_ALT1_1","","","","","","","","","","","",""
"null","<span style='color:GreenYellow; font-size: 70px;'>正确! </span>","null","html-keyboard-response","116","388885","0.0-7.0-0.0-4.0-0.0-1.4","3","3","4","3","4","3","3","4","4","4","4","5","5","4","4","4","5","4","4","4","1","1","2","1","1","2","1","1","1","1","0","1","1","0","0","1","1","1","1","1","0","0","0","1","4","3","5","4","2","5","2","2","2","2","1","781518032190312450","贺","501","","","","","","","","","","","","","","","","","","","","","","","","","","","","","","feedback_test","","","","","","","","","","","",""
"852","","f","psychophysics","117","390741","0.0-7.0-0.0-4.0-0.0-0.5","3","3","4","3","4","3","3","4","4","4","4","5","5","4","4","4","5","4","4","4","1","1","2","1","1","2","1","1","1","1","0","1","1","0","0","1","1","1","1","1","0","0","0","1","4","3","5","4","2","5","2","2","2","2","1","781518032190312450","贺","501","","","","nonmatch","","","","","","","","","","","","","","key","f","6.934288973384006","768","428","f","true","nonmatch","img/square.png","五边","方形","ALT1","formal_ALT1_1","","","","","","","","","","","",""
"null","<span style='color:GreenYellow; font-size: 70px;'>正确! </span>","null","html-keyboard-response","118","391244","0.0-7.0-0.0-4.0-0.0-1.5","3","3","4","3","4","3","3","4","4","4","4","5","5","4","4","4","5","4","4","4","1","1","2","1","1","2","1","1","1","1","0","1","1","0","0","1","1","1","1","1","0","0","0","1","4","3","5","4","2","5","2","2","2","2","1","781518032190312450","贺","501","","","","","","","","","","","","","","","","","","","","","","","","","","","","","","feedback_test","","","","","","","","","","","",""
"780","","j","psychophysics","119","393027","0.0-7.0-0.0-4.0-0.0-0.6","3","3","4","3","4","3","3","4","4","4","4","5","5","4","4","4","5","4","4","4","1","1","2","1","1","2","1","1","1","1","0","1","1","0","0","1","1","1","1","1","0","0","0","1","4","3","5","4","2","5","2","2","2","2","1","781518032190312450","贺","501","","","","match","","","","","","","","","","","","","","key","j","6.941312499999867","768","428","j","true","match","img/pentagon.png","五边","五边","ALT1","formal_ALT1_1","","","","","","","","","","","",""
"null","<span style='color:GreenYellow; font-size: 70px;'>正确! </span>","null","html-keyboard-response","120","393535","0.0-7.0-0.0-4.0-0.0-1.6","3","3","4","3","4","3","3","4","4","4","4","5","5","4","4","4","5","4","4","4","1","1","2","1","1","2","1","1","1","1","0","1","1","0","0","1","1","1","1","1","0","0","0","1","4","3","5","4","2","5","2","2","2","2","1","781518032190312450","贺","501","","","","","","","","","","","","","","","","","","","","","","","","","","","","","","feedback_test","","","","","","","","","","","",""
"789","","j","psychophysics","121","395328","0.0-7.0-0.0-4.0-0.0-0.7","3","3","4","3","4","3","3","4","4","4","4","5","5","4","4","4","5","4","4","4","1","1","2","1","1","2","1","1","1","1","0","1","1","0","0","1","1","1","1","1","0","0","0","1","4","3","5","4","2","5","2","2","2","2","1","781518032190312450","贺","501","","","","match","","","","","","","","","","","","","","key","j","6.941468750000013","768","428","f","false","nonmatch","img/circle.png","方形","圆形","ALT1","formal_ALT1_1","","","","","","","","","","","",""
"null","<span style='color:red; font-size: 70px;'>错误! </span>","null","html-keyboard-response","122","395835","0.0-7.0-0.0-4.0-0.0-1.7","3","3","4","3","4","3","3","4","4","4","4","5","5","4","4","4","5","4","4","4","1","1","2","1","1","2","1","1","1","1","0","1","1","0","0","1","1","1","1","1","0","0","0","1","4","3","5","4","2","5","2","2","2","2","1","781518032190312450","贺","501","","","","","","","","","","","","","","","","","","","","","","","","","","","","","","feedback_test","","","","","","","","","","","",""
"801","","j","psychophysics","123","397643","0.0-7.0-0.0-4.0-0.0-0.8","3","3","4","3","4","3","3","4","4","4","4","5","5","4","4","4","5","4","4","4","1","1","2","1","1","2","1","1","1","1","0","1","1","0","0","1","1","1","1","1","0","0","0","1","4","3","5","4","2","5","2","2","2","2","1","781518032190312450","贺","501","","","","match","","","","","","","","","","","","","","key","j","6.941328185328199","768","428","j","true","match","img/circle.png","圆形","圆形","ALT1","formal_ALT1_1","","","","","","","","","","","",""
"null","<span style='color:GreenYellow; font-size: 70px;'>正确! </span>","null","html-keyboard-response","124","398146","0.0-7.0-0.0-4.0-0.0-1.8","3","3","4","3","4","3","3","4","4","4","4","5","5","4","4","4","5","4","4","4","1","1","2","1","1","2","1","1","1","1","0","1","1","0","0","1","1","1","1","1","0","0","0","1","4","3","5","4","2","5","2","2","2","2","1","781518032190312450","贺","501","","","","","","","","","","","","","","","","","","","","","","","","","","","","","","feedback_test","","","","","","","","","","","",""
"702","","j","psychophysics","125","399855","0.0-7.0-0.0-4.0-0.0-0.9","3","3","4","3","4","3","3","4","4","4","4","5","5","4","4","4","5","4","4","4","1","1","2","1","1","2","1","1","1","1","0","1","1","0","0","1","1","1","1","1","0","0","0","1","4","3","5","4","2","5","2","2","2","2","1","781518032190312450","贺","501","","","","match","","","","","","","","","","","","","","key","j","6.940889795918293","768","428","j","true","match","img/triangle.png","三角","三角","ALT1","formal_ALT1_1","","","","","","","","","","","",""
"null","<span style='color:GreenYellow; font-size: 70px;'>正确! </span>","null","html-keyboard-response","126","400360","0.0-7.0-0.0-4.0-0.0-1.9","3","3","4","3","4","3","3","4","4","4","4","5","5","4","4","4","5","4","4","4","1","1","2","1","1","2","1","1","1","1","0","1","1","0","0","1","1","1","1","1","0","0","0","1","4","3","5","4","2","5","2","2","2","2","1","781518032190312450","贺","501","","","","","","","","","","","","","","","","","","","","","","","","","","","","","","feedback_test","","","","","","","","","","","",""
"958","","f","psychophysics","127","402321","0.0-7.0-0.0-4.0-0.0-0.10","3","3","4","3","4","3","3","4","4","4","4","5","5","4","4","4","5","4","4","4","1","1","2","1","1","2","1","1","1","1","0","1","1","0","0","1","1","1","1","1","0","0","0","1","4","3","5","4","2","5","2","2","2","2","1","781518032190312450","贺","501","","","","nonmatch","","","","","","","","","","","","","","key","f","6.9414911032028765","768","428","j","false","match","img/square.png","方形","方形","ALT1","formal_ALT1_1","","","","","","","","","","","",""
"null","<span style='color:red; font-size: 70px;'>错误! </span>","null","html-keyboard-response","128","402823","0.0-7.0-0.0-4.0-0.0-1.10","3","3","4","3","4","3","3","4","4","4","4","5","5","4","4","4","5","4","4","4","1","1","2","1","1","2","1","1","1","1","0","1","1","0","0","1","1","1","1","1","0","0","0","1","4","3","5","4","2","5","2","2","2","2","1","781518032190312450","贺","501","","","","","","","","","","","","","","","","","","","","","","","","","","","","","","feedback_test","","","","","","","","","","","",""
"870","","j","psychophysics","129","404697","0.0-7.0-0.0-4.0-0.0-0.11","3","3","4","3","4","3","3","4","4","4","4","5","5","4","4","4","5","4","4","4","1","1","2","1","1","2","1","1","1","1","0","1","1","0","0","1","1","1","1","1","0","0","0","1","4","3","5","4","2","5","2","2","2","2","1","781518032190312450","贺","501","","","","match","","","","","","","","","","","","","","key","j","6.938764044943907","768","428","j","true","match","img/square.png","方形","方形","ALT1","formal_ALT1_1","","","","","","","","","","","",""
"null","<span style='color:GreenYellow; font-size: 70px;'>正确! </span>","null","html-keyboard-response","130","405206","0.0-7.0-0.0-4.0-0.0-1.11","3","3","4","3","4","3","3","4","4","4","4","5","5","4","4","4","5","4","4","4","1","1","2","1","1","2","1","1","1","1","0","1","1","0","0","1","1","1","1","1","0","0","0","1","4","3","5","4","2","5","2","2","2","2","1","781518032190312450","贺","501","","","","","","","","","","","","","","","","","","","","","","","","","","","","","","feedback_test","","","","","","","","","","","",""
"752","","j","psychophysics","131","406965","0.0-7.0-0.0-4.0-0.0-0.12","3","3","4","3","4","3","3","4","4","4","4","5","5","4","4","4","5","4","4","4","1","1","2","1","1","2","1","1","1","1","0","1","1","0","0","1","1","1","1","1","0","0","0","1","4","3","5","4","2","5","2","2","2","2","1","781518032190312450","贺","501","","","","match","","","","","","","","","","","","","","key","j","6.941468253968254","768","428","j","true","match","img/pentagon.png","五边","五边","ALT1","formal_ALT1_1","","","","","","","","","","","",""
"null","<span style='color:GreenYellow; font-size: 70px;'>正确! </span>","null","html-keyboard-response","132","407474","0.0-7.0-0.0-4.0-0.0-1.12","3","3","4","3","4","3","3","4","4","4","4","5","5","4","4","4","5","4","4","4","1","1","2","1","1","2","1","1","1","1","0","1","1","0","0","1","1","1","1","1","0","0","0","1","4","3","5","4","2","5","2","2","2","2","1","781518032190312450","贺","501","","","","","","","","","","","","","","","","","","","","","","","","","","","","","","feedback_test","","","","","","","","","","","",""
"812","","f","psychophysics","133","409289","0.0-7.0-0.0-4.0-0.0-0.13","3","3","4","3","4","3","3","4","4","4","4","5","5","4","4","4","5","4","4","4","1","1","2","1","1","2","1","1","1","1","0","1","1","0","0","1","1","1","1","1","0","0","0","1","4","3","5","4","2","5","2","2","2","2","1","781518032190312450","贺","501","","","","nonmatch","","","","","","","","","","","","","","key","f","6.941519230769392","768","428","f","true","nonmatch","img/pentagon.png","圆形","五边","ALT1","formal_ALT1_1","","","","","","","","","","","",""
"null","<span style='color:GreenYellow; font-size: 70px;'>正确! </span>","null","html-keyboard-response","134","409797","0.0-7.0-0.0-4.0-0.0-1.13","3","3","4","3","4","3","3","4","4","4","4","5","5","4","4","4","5","4","4","4","1","1","2","1","1","2","1","1","1","1","0","1","1","0","0","1","1","1","1","1","0","0","0","1","4","3","5","4","2","5","2","2","2","2","1","781518032190312450","贺","501","","","","","","","","","","","","","","","","","","","","","","","","","","","","","","feedback_test","","","","","","","","","","","",""
"779","","j","psychophysics","135","411580","0.0-7.0-0.0-4.0-0.0-0.14","3","3","4","3","4","3","3","4","4","4","4","5","5","4","4","4","5","4","4","4","1","1","2","1","1","2","1","1","1","1","0","1","1","0","0","1","1","1","1","1","0","0","0","1","4","3","5","4","2","5","2","2","2","2","1","781518032190312450","贺","501","","","","match","","","","","","","","","","","","","","key","j","6.941250980392043","768","428","j","true","match","img/square.png","方形","方形","ALT1","formal_ALT1_1","","","","","","","","","","","",""
"null","<span style='color:GreenYellow; font-size: 70px;'>正确! </span>","null","html-keyboard-response","136","412098","0.0-7.0-0.0-4.0-0.0-1.14","3","3","4","3","4","3","3","4","4","4","4","5","5","4","4","4","5","4","4","4","1","1","2","1","1","2","1","1","1","1","0","1","1","0","0","1","1","1","1","1","0","0","0","1","4","3","5","4","2","5","2","2","2","2","1","781518032190312450","贺","501","","","","","","","","","","","","","","","","","","","","","","","","","","","","","","feedback_test","","","","","","","","","","","",""
"725","","j","psychophysics","137","413827","0.0-7.0-0.0-4.0-0.0-0.15","3","3","4","3","4","3","3","4","4","4","4","5","5","4","4","4","5","4","4","4","1","1","2","1","1","2","1","1","1","1","0","1","1","0","0","1","1","1","1","1","0","0","0","1","4","3","5","4","2","5","2","2","2","2","1","781518032190312450","贺","501","","","","match","","","","","","","","","","","","","","key","j","6.942028455284558","768","428","j","true","match","img/circle.png","圆形","圆形","ALT1","formal_ALT1_1","","","","","","","","","","","",""
"null","<span style='color:GreenYellow; font-size: 70px;'>正确! </span>","null","html-keyboard-response","138","414328","0.0-7.0-0.0-4.0-0.0-1.15","3","3","4","3","4","3","3","4","4","4","4","5","5","4","4","4","5","4","4","4","1","1","2","1","1","2","1","1","1","1","0","1","1","0","0","1","1","1","1","1","0","0","0","1","4","3","5","4","2","5","2","2","2","2","1","781518032190312450","贺","501","","","","","","","","","","","","","","","","","","","","","","","","","","","","","","feedback_test","","","","","","","","","","","",""
"677","","f","psychophysics","139","416009","0.0-7.0-0.0-4.0-0.0-0.16","3","3","4","3","4","3","3","4","4","4","4","5","5","4","4","4","5","4","4","4","1","1","2","1","1","2","1","1","1","1","0","1","1","0","0","1","1","1","1","1","0","0","0","1","4","3","5","4","2","5","2","2","2","2","1","781518032190312450","贺","501","","","","nonmatch","","","","","","","","","","","","","","key","f","6.941394190871325","768","428","f","true","nonmatch","img/square.png","三角","方形","ALT1","formal_ALT1_1","","","","","","","","","","","",""
"null","<span style='color:GreenYellow; font-size: 70px;'>正确! </span>","null","html-keyboard-response","140","416524","0.0-7.0-0.0-4.0-0.0-1.16","3","3","4","3","4","3","3","4","4","4","4","5","5","4","4","4","5","4","4","4","1","1","2","1","1","2","1","1","1","1","0","1","1","0","0","1","1","1","1","1","0","0","0","1","4","3","5","4","2","5","2","2","2","2","1","781518032190312450","贺","501","","","","","","","","","","","","","","","","","","","","","","","","","","","","","","feedback_test","","","","","","","","","","","",""
"758","","f","psychophysics","141","418285","0.0-7.0-0.0-4.0-0.0-0.17","3","3","4","3","4","3","3","4","4","4","4","5","5","4","4","4","5","4","4","4","1","1","2","1","1","2","1","1","1","1","0","1","1","0","0","1","1","1","1","1","0","0","0","1","4","3","5","4","2","5","2","2","2","2","1","781518032190312450","贺","501","","","","nonmatch","","","","","","","","","","","","","","key","f","6.941206349206382","768","428","f","true","nonmatch","img/square.png","圆形","方形","ALT1","formal_ALT1_1","","","","","","","","","","","",""
"null","<span style='color:GreenYellow; font-size: 70px;'>正确! </span>","null","html-keyboard-response","142","418792","0.0-7.0-0.0-4.0-0.0-1.17","3","3","4","3","4","3","3","4","4","4","4","5","5","4","4","4","5","4","4","4","1","1","2","1","1","2","1","1","1","1","0","1","1","0","0","1","1","1","1","1","0","0","0","1","4","3","5","4","2","5","2","2","2","2","1","781518032190312450","贺","501","","","","","","","","","","","","","","","","","","","","","","","","","","","","","","feedback_test","","","","","","","","","","","",""
"770","","f","psychophysics","143","420565","0.0-7.0-0.0-4.0-0.0-0.18","3","3","4","3","4","3","3","4","4","4","4","5","5","4","4","4","5","4","4","4","1","1","2","1","1","2","1","1","1","1","0","1","1","0","0","1","1","1","1","1","0","0","0","1","4","3","5","4","2","5","2","2","2","2","1","781518032190312450","贺","501","","","","nonmatch","","","","","","","","","","","","","","key","f","6.94151574803134","768","428","f","true","nonmatch","img/triangle.png","五边","三角","ALT1","formal_ALT1_1","","","","","","","","","","","",""
"null","<span style='color:GreenYellow; font-size: 70px;'>正确! </span>","null","html-keyboard-response","144","421075","0.0-7.0-0.0-4.0-0.0-1.18","3","3","4","3","4","3","3","4","4","4","4","5","5","4","4","4","5","4","4","4","1","1","2","1","1","2","1","1","1","1","0","1","1","0","0","1","1","1","1","1","0","0","0","1","4","3","5","4","2","5","2","2","2","2","1","781518032190312450","贺","501","","","","","","","","","","","","","","","","","","","","","","","","","","","","","","feedback_test","","","","","","","","","","","",""
"597","","j","psychophysics","145","422677","0.0-7.0-0.0-4.0-0.0-0.19","3","3","4","3","4","3","3","4","4","4","4","5","5","4","4","4","5","4","4","4","1","1","2","1","1","2","1","1","1","1","0","1","1","0","0","1","1","1","1","1","0","0","0","1","4","3","5","4","2","5","2","2","2","2","1","781518032190312450","贺","501","","","","match","","","","","","","","","","","","","","key","j","6.94138864628812","768","428","j","true","match","img/triangle.png","三角","三角","ALT1","formal_ALT1_1","","","","","","","","","","","",""
"null","<span style='color:GreenYellow; font-size: 70px;'>正确! </span>","null","html-keyboard-response","146","423184","0.0-7.0-0.0-4.0-0.0-1.19","3","3","4","3","4","3","3","4","4","4","4","5","5","4","4","4","5","4","4","4","1","1","2","1","1","2","1","1","1","1","0","1","1","0","0","1","1","1","1","1","0","0","0","1","4","3","5","4","2","5","2","2","2","2","1","781518032190312450","贺","501","","","","","","","","","","","","","","","","","","","","","","","","","","","","","","feedback_test","","","","","","","","","","","",""
"686","","j","psychophysics","147","424877","0.0-7.0-0.0-4.0-0.0-0.20","3","3","4","3","4","3","3","4","4","4","4","5","5","4","4","4","5","4","4","4","1","1","2","1","1","2","1","1","1","1","0","1","1","0","0","1","1","1","1","1","0","0","0","1","4","3","5","4","2","5","2","2","2","2","1","781518032190312450","贺","501","","","","match","","","","","","","","","","","","","","key","j","6.941413223140437","768","428","j","true","match","img/triangle.png","三角","三角","ALT1","formal_ALT1_1","","","","","","","","","","","",""
"null","<span style='color:GreenYellow; font-size: 70px;'>正确! </span>","null","html-keyboard-response","148","425385","0.0-7.0-0.0-4.0-0.0-1.20","3","3","4","3","4","3","3","4","4","4","4","5","5","4","4","4","5","4","4","4","1","1","2","1","1","2","1","1","1","1","0","1","1","0","0","1","1","1","1","1","0","0","0","1","4","3","5","4","2","5","2","2","2","2","1","781518032190312450","贺","501","","","","","","","","","","","","","","","","","","","","","","","","","","","","","","feedback_test","","","","","","","","","","","",""
"754","","f","psychophysics","149","427145","0.0-7.0-0.0-4.0-0.0-0.21","3","3","4","3","4","3","3","4","4","4","4","5","5","4","4","4","5","4","4","4","1","1","2","1","1","2","1","1","1","1","0","1","1","0","0","1","1","1","1","1","0","0","0","1","4","3","5","4","2","5","2","2","2","2","1","781518032190312450","贺","501","","","","nonmatch","","","","","","","","","","","","","","key","f","6.941428571428535","768","428","f","true","nonmatch","img/circle.png","三角","圆形","ALT1","formal_ALT1_1","","","","","","","","","","","",""
"null","<span style='color:GreenYellow; font-size: 70px;'>正确! </span>","null","html-keyboard-response","150","427652","0.0-7.0-0.0-4.0-0.0-1.21","3","3","4","3","4","3","3","4","4","4","4","5","5","4","4","4","5","4","4","4","1","1","2","1","1","2","1","1","1","1","0","1","1","0","0","1","1","1","1","1","0","0","0","1","4","3","5","4","2","5","2","2","2","2","1","781518032190312450","贺","501","","","","","","","","","","","","","","","","","","","","","","","","","","","","","","feedback_test","","","","","","","","","","","",""
"698","","f","psychophysics","151","429353","0.0-7.0-0.0-4.0-0.0-0.22","3","3","4","3","4","3","3","4","4","4","4","5","5","4","4","4","5","4","4","4","1","1","2","1","1","2","1","1","1","1","0","1","1","0","0","1","1","1","1","1","0","0","0","1","4","3","5","4","2","5","2","2","2","2","1","781518032190312450","贺","501","","","","nonmatch","","","","","","","","","","","","","","key","f","6.936028925619956","768","428","f","true","nonmatch","img/pentagon.png","三角","五边","ALT1","formal_ALT1_1","","","","","","","","","","","",""
"null","<span style='color:GreenYellow; font-size: 70px;'>正确! </span>","null","html-keyboard-response","152","429859","0.0-7.0-0.0-4.0-0.0-1.22","3","3","4","3","4","3","3","4","4","4","4","5","5","4","4","4","5","4","4","4","1","1","2","1","1","2","1","1","1","1","0","1","1","0","0","1","1","1","1","1","0","0","0","1","4","3","5","4","2","5","2","2","2","2","1","781518032190312450","贺","501","","","","","","","","","","","","","","","","","","","","","","","","","","","","","","feedback_test","","","","","","","","","","","",""
"1085","","j","psychophysics","153","431947","0.0-7.0-0.0-4.0-0.0-0.23","3","3","4","3","4","3","3","4","4","4","4","5","5","4","4","4","5","4","4","4","1","1","2","1","1","2","1","1","1","1","0","1","1","0","0","1","1","1","1","1","0","0","0","1","4","3","5","4","2","5","2","2","2","2","1","781518032190312450","贺","501","","","","match","","","","","","","","","","","","","","key","j","6.93780201342271","768","428","f","false","nonmatch","img/triangle.png","方形","三角","ALT1","formal_ALT1_1","","","","","","","","","","","",""
"null","<span style='color:red; font-size: 70px;'>错误! </span>","null","html-keyboard-response","154","432451","0.0-7.0-0.0-4.0-0.0-1.23","3","3","4","3","4","3","3","4","4","4","4","5","5","4","4","4","5","4","4","4","1","1","2","1","1","2","1","1","1","1","0","1","1","0","0","1","1","1","1","1","0","0","0","1","4","3","5","4","2","5","2","2","2","2","1","781518032190312450","贺","501","","","","","","","","","","","","","","","","","","","","","","","","","","","","","","feedback_test","","","","","","","","","","","",""
"756","","j","psychophysics","155","434213","0.0-7.0-0.0-4.0-0.0-0.24","3","3","4","3","4","3","3","4","4","4","4","5","5","4","4","4","5","4","4","4","1","1","2","1","1","2","1","1","1","1","0","1","1","0","0","1","1","1","1","1","0","0","0","1","4","3","5","4","2","5","2","2","2","2","1","781518032190312450","贺","501","","","","match","","","","","","","","","","","","","","key","j","6.969266932271004","768","428","j","true","match","img/square.png","方形","方形","ALT1","formal_ALT1_1","","","","","","","","","","","",""
"null","<span style='color:GreenYellow; font-size: 70px;'>正确! </span>","null","html-keyboard-response","156","434722","0.0-7.0-0.0-4.0-0.0-1.24","3","3","4","3","4","3","3","4","4","4","4","5","5","4","4","4","5","4","4","4","1","1","2","1","1","2","1","1","1","1","0","1","1","0","0","1","1","1","1","1","0","0","0","1","4","3","5","4","2","5","2","2","2","2","1","781518032190312450","贺","501","","","","","","","","","","","","","","","","","","","","","","","","","","","","","","feedback_test","","","","","","","","","","","",""
"773","","f","psychophysics","157","436503","0.0-7.0-0.0-4.0-0.0-0.25","3","3","4","3","4","3","3","4","4","4","4","5","5","4","4","4","5","4","4","4","1","1","2","1","1","2","1","1","1","1","0","1","1","0","0","1","1","1","1","1","0","0","0","1","4","3","5","4","2","5","2","2","2","2","1","781518032190312450","贺","501","","","","nonmatch","","","","","","","","","","","","","","key","f","6.9418117647059265","768","428","f","true","nonmatch","img/circle.png","五边","圆形","ALT1","formal_ALT1_1","","","","","","","","","","","",""
"null","<span style='color:GreenYellow; font-size: 70px;'>正确! </span>","null","html-keyboard-response","158","437006","0.0-7.0-0.0-4.0-0.0-1.25","3","3","4","3","4","3","3","4","4","4","4","5","5","4","4","4","5","4","4","4","1","1","2","1","1","2","1","1","1","1","0","1","1","0","0","1","1","1","1","1","0","0","0","1","4","3","5","4","2","5","2","2","2","2","1","781518032190312450","贺","501","","","","","","","","","","","","","","","","","","","","","","","","","","","","","","feedback_test","","","","","","","","","","","",""
"659","","j","psychophysics","159","438668","0.0-7.0-0.0-4.0-0.0-0.26","3","3","4","3","4","3","3","4","4","4","4","5","5","4","4","4","5","4","4","4","1","1","2","1","1","2","1","1","1","1","0","1","1","0","0","1","1","1","1","1","0","0","0","1","4","3","5","4","2","5","2","2","2","2","1","781518032190312450","贺","501","","","","match","","","","","","","","","","","","","","key","j","6.941457983193442","768","428","j","true","match","img/circle.png","圆形","圆形","ALT1","formal_ALT1_1","","","","","","","","","","","",""
"null","<span style='color:GreenYellow; font-size: 70px;'>正确! </span>","null","html-keyboard-response","160","439170","0.0-7.0-0.0-4.0-0.0-1.26","3","3","4","3","4","3","3","4","4","4","4","5","5","4","4","4","5","4","4","4","1","1","2","1","1","2","1","1","1","1","0","1","1","0","0","1","1","1","1","1","0","0","0","1","4","3","5","4","2","5","2","2","2","2","1","781518032190312450","贺","501","","","","","","","","","","","","","","","","","","","","","","","","","","","","","","feedback_test","","","","","","","","","","","",""
"826","","j","psychophysics","161","441000","0.0-7.0-0.0-4.0-0.0-0.27","3","3","4","3","4","3","3","4","4","4","4","5","5","4","4","4","5","4","4","4","1","1","2","1","1","2","1","1","1","1","0","1","1","0","0","1","1","1","1","1","0","0","0","1","4","3","5","4","2","5","2","2","2","2","1","781518032190312450","贺","501","","","","match","","","","","","","","","","","","","","key","j","6.934003846153679","768","428","j","true","match","img/pentagon.png","五边","五边","ALT1","formal_ALT1_1","","","","","","","","","","","",""
"null","<span style='color:GreenYellow; font-size: 70px;'>正确! </span>","null","html-keyboard-response","162","441507","0.0-7.0-0.0-4.0-0.0-1.27","3","3","4","3","4","3","3","4","4","4","4","5","5","4","4","4","5","4","4","4","1","1","2","1","1","2","1","1","1","1","0","1","1","0","0","1","1","1","1","1","0","0","0","1","4","3","5","4","2","5","2","2","2","2","1","781518032190312450","贺","501","","","","","","","","","","","","","","","","","","","","","","","","","","","","","","feedback_test","","","","","","","","","","","",""
"823","","f","psychophysics","163","443334","0.0-7.0-0.0-4.0-0.0-0.28","3","3","4","3","4","3","3","4","4","4","4","5","5","4","4","4","5","4","4","4","1","1","2","1","1","2","1","1","1","1","0","1","1","0","0","1","1","1","1","1","0","0","0","1","4","3","5","4","2","5","2","2","2","2","1","781518032190312450","贺","501","","","","nonmatch","","","","","","","","","","","","","","key","f","6.968099616858234","768","428","f","true","nonmatch","img/square.png","五边","方形","ALT1","formal_ALT1_1","","","","","","","","","","","",""
"null","<span style='color:GreenYellow; font-size: 70px;'>正确! </span>","null","html-keyboard-response","164","443845","0.0-7.0-0.0-4.0-0.0-1.28","3","3","4","3","4","3","3","4","4","4","4","5","5","4","4","4","5","4","4","4","1","1","2","1","1","2","1","1","1","1","0","1","1","0","0","1","1","1","1","1","0","0","0","1","4","3","5","4","2","5","2","2","2","2","1","781518032190312450","贺","501","","","","","","","","","","","","","","","","","","","","","","","","","","","","","","feedback_test","","","","","","","","","","","",""
"682","","j","psychophysics","165","445533","0.0-7.0-0.0-4.0-0.0-0.29","3","3","4","3","4","3","3","4","4","4","4","5","5","4","4","4","5","4","4","4","1","1","2","1","1","2","1","1","1","1","0","1","1","0","0","1","1","1","1","1","0","0","0","1","4","3","5","4","2","5","2","2","2","2","1","781518032190312450","贺","501","","","","match","","","","","","","","","","","","","","key","j","6.941409090909075","768","428","j","true","match","img/pentagon.png","五边","五边","ALT1","formal_ALT1_1","","","","","","","","","","","",""
"null","<span style='color:GreenYellow; font-size: 70px;'>正确! </span>","null","html-keyboard-response","166","446041","0.0-7.0-0.0-4.0-0.0-1.29","3","3","4","3","4","3","3","4","4","4","4","5","5","4","4","4","5","4","4","4","1","1","2","1","1","2","1","1","1","1","0","1","1","0","0","1","1","1","1","1","0","0","0","1","4","3","5","4","2","5","2","2","2","2","1","781518032190312450","贺","501","","","","","","","","","","","","","","","","","","","","","","","","","","","","","","feedback_test","","","","","","","","","","","",""
"844","","f","psychophysics","167","447890","0.0-7.0-0.0-4.0-0.0-0.30","3","3","4","3","4","3","3","4","4","4","4","5","5","4","4","4","5","4","4","4","1","1","2","1","1","2","1","1","1","1","0","1","1","0","0","1","1","1","1","1","0","0","0","1","4","3","5","4","2","5","2","2","2","2","1","781518032190312450","贺","501","","","","nonmatch","","","","","","","","","","","","","","key","f","6.942075757575697","768","428","f","true","nonmatch","img/square.png","圆形","方形","ALT1","formal_ALT1_1","","","","","","","","","","","",""
"null","<span style='color:GreenYellow; font-size: 70px;'>正确! </span>","null","html-keyboard-response","168","448403","0.0-7.0-0.0-4.0-0.0-1.30","3","3","4","3","4","3","3","4","4","4","4","5","5","4","4","4","5","4","4","4","1","1","2","1","1","2","1","1","1","1","0","1","1","0","0","1","1","1","1","1","0","0","0","1","4","3","5","4","2","5","2","2","2","2","1","781518032190312450","贺","501","","","","","","","","","","","","","","","","","","","","","","","","","","","","","","feedback_test","","","","","","","","","","","",""
"670","","j","psychophysics","169","450076","0.0-7.0-0.0-4.0-0.0-0.31","3","3","4","3","4","3","3","4","4","4","4","5","5","4","4","4","5","4","4","4","1","1","2","1","1","2","1","1","1","1","0","1","1","0","0","1","1","1","1","1","0","0","0","1","4","3","5","4","2","5","2","2","2","2","1","781518032190312450","贺","501","","","","match","","","","","","","","","","","","","","key","j","6.94161924686201","768","428","j","true","match","img/circle.png","圆形","圆形","ALT1","formal_ALT1_1","","","","","","","","","","","",""
"null","<span style='color:GreenYellow; font-size: 70px;'>正确! </span>","null","html-keyboard-response","170","450584","0.0-7.0-0.0-4.0-0.0-1.31","3","3","4","3","4","3","3","4","4","4","4","5","5","4","4","4","5","4","4","4","1","1","2","1","1","2","1","1","1","1","0","1","1","0","0","1","1","1","1","1","0","0","0","1","4","3","5","4","2","5","2","2","2","2","1","781518032190312450","贺","501","","","","","","","","","","","","","","","","","","","","","","","","","","","","","","feedback_test","","","","","","","","","","","",""
"795","","f","psychophysics","171","452383","0.0-7.0-0.0-4.0-0.0-0.32","3","3","4","3","4","3","3","4","4","4","4","5","5","4","4","4","5","4","4","4","1","1","2","1","1","2","1","1","1","1","0","1","1","0","0","1","1","1","1","1","0","0","0","1","4","3","5","4","2","5","2","2","2","2","1","781518032190312450","贺","501","","","","nonmatch","","","","","","","","","","","","","","key","f","6.9413139534883594","768","428","f","true","nonmatch","img/pentagon.png","圆形","五边","ALT1","formal_ALT1_1","","","","","","","","","","","",""
"null","<span style='color:GreenYellow; font-size: 70px;'>正确! </span>","null","html-keyboard-response","172","452886","0.0-7.0-0.0-4.0-0.0-1.32","3","3","4","3","4","3","3","4","4","4","4","5","5","4","4","4","5","4","4","4","1","1","2","1","1","2","1","1","1","1","0","1","1","0","0","1","1","1","1","1","0","0","0","1","4","3","5","4","2","5","2","2","2","2","1","781518032190312450","贺","501","","","","","","","","","","","","","","","","","","","","","","","","","","","","","","feedback_test","","","","","","","","","","","",""
"737","","f","psychophysics","173","454625","0.0-7.0-0.0-4.0-0.0-0.33","3","3","4","3","4","3","3","4","4","4","4","5","5","4","4","4","5","4","4","4","1","1","2","1","1","2","1","1","1","1","0","1","1","0","0","1","1","1","1","1","0","0","0","1","4","3","5","4","2","5","2","2","2","2","1","781518032190312450","贺","501","","","","nonmatch","","","","","","","","","","","","","","key","f","6.938064516129089","768","428","f","true","nonmatch","img/square.png","三角","方形","ALT1","formal_ALT1_1","","","","","","","","","","","",""
"null","<span style='color:GreenYellow; font-size: 70px;'>正确! </span>","null","html-keyboard-response","174","455129","0.0-7.0-0.0-4.0-0.0-1.33","3","3","4","3","4","3","3","4","4","4","4","5","5","4","4","4","5","4","4","4","1","1","2","1","1","2","1","1","1","1","0","1","1","0","0","1","1","1","1","1","0","0","0","1","4","3","5","4","2","5","2","2","2","2","1","781518032190312450","贺","501","","","","","","","","","","","","","","","","","","","","","","","","","","","","","","feedback_test","","","","","","","","","","","",""
"784","","j","psychophysics","175","456916","0.0-7.0-0.0-4.0-0.0-0.34","3","3","4","3","4","3","3","4","4","4","4","5","5","4","4","4","5","4","4","4","1","1","2","1","1","2","1","1","1","1","0","1","1","0","0","1","1","1","1","1","0","0","0","1","4","3","5","4","2","5","2","2","2","2","1","781518032190312450","贺","501","","","","match","","","","","","","","","","","","","","key","j","6.939230468750111","768","428","j","true","match","img/triangle.png","三角","三角","ALT1","formal_ALT1_1","","","","","","","","","","","",""
"null","<span style='color:GreenYellow; font-size: 70px;'>正确! </span>","null","html-keyboard-response","176","457419","0.0-7.0-0.0-4.0-0.0-1.34","3","3","4","3","4","3","3","4","4","4","4","5","5","4","4","4","5","4","4","4","1","1","2","1","1","2","1","1","1","1","0","1","1","0","0","1","1","1","1","1","0","0","0","1","4","3","5","4","2","5","2","2","2","2","1","781518032190312450","贺","501","","","","","","","","","","","","","","","","","","","","","","","","","","","","","","feedback_test","","","","","","","","","","","",""
"1014","","f","psychophysics","177","459437","0.0-7.0-0.0-4.0-0.0-0.35","3","3","4","3","4","3","3","4","4","4","4","5","5","4","4","4","5","4","4","4","1","1","2","1","1","2","1","1","1","1","0","1","1","0","0","1","1","1","1","1","0","0","0","1","4","3","5","4","2","5","2","2","2","2","1","781518032190312450","贺","501","","","","nonmatch","","","","","","","","","","","","","","key","f","6.941415224913556","768","428","f","true","nonmatch","img/triangle.png","方形","三角","ALT1","formal_ALT1_1","","","","","","","","","","","",""
"null","<span style='color:GreenYellow; font-size: 70px;'>正确! </span>","null","html-keyboard-response","178","459944","0.0-7.0-0.0-4.0-0.0-1.35","3","3","4","3","4","3","3","4","4","4","4","5","5","4","4","4","5","4","4","4","1","1","2","1","1","2","1","1","1","1","0","1","1","0","0","1","1","1","1","1","0","0","0","1","4","3","5","4","2","5","2","2","2","2","1","781518032190312450","贺","501","","","","","","","","","","","","","","","","","","","","","","","","","","","","","","feedback_test","","","","","","","","","","","",""
"705","","j","psychophysics","179","461652","0.0-7.0-0.0-4.0-0.0-0.36","3","3","4","3","4","3","3","4","4","4","4","5","5","4","4","4","5","4","4","4","1","1","2","1","1","2","1","1","1","1","0","1","1","0","0","1","1","1","1","1","0","0","0","1","4","3","5","4","2","5","2","2","2","2","1","781518032190312450","贺","501","","","","match","","","","","","","","","","","","","","key","j","6.941372950819701","768","428","j","true","match","img/square.png","方形","方形","ALT1","formal_ALT1_1","","","","","","","","","","","",""
"null","<span style='color:GreenYellow; font-size: 70px;'>正确! </span>","null","html-keyboard-response","180","462170","0.0-7.0-0.0-4.0-0.0-1.36","3","3","4","3","4","3","3","4","4","4","4","5","5","4","4","4","5","4","4","4","1","1","2","1","1","2","1","1","1","1","0","1","1","0","0","1","1","1","1","1","0","0","0","1","4","3","5","4","2","5","2","2","2","2","1","781518032190312450","贺","501","","","","","","","","","","","","","","","","","","","","","","","","","","","","","","feedback_test","","","","","","","","","","","",""
"656","","j","psychophysics","181","463828","0.0-7.0-0.0-4.0-0.0-0.37","3","3","4","3","4","3","3","4","4","4","4","5","5","4","4","4","5","4","4","4","1","1","2","1","1","2","1","1","1","1","0","1","1","0","0","1","1","1","1","1","0","0","0","1","4","3","5","4","2","5","2","2","2","2","1","781518032190312450","贺","501","","","","match","","","","","","","","","","","","","","key","j","6.942324894514791","768","428","j","true","match","img/pentagon.png","五边","五边","ALT1","formal_ALT1_1","","","","","","","","","","","",""
