"rt","stimulus","response","trial_type","trial_index","time_elapsed","internal_node_id","ses_1","ses_2","ses_3","ses_4","ses_5","ses_6","ses_7","ses_8","ses_9","ses_10","coreself_1","coreself_2","coreself_3","coreself_4","coreself_5","coreself_6","coreself_7","coreself_8","coreself_9","coreself_10","SGPS_1","SGPS_2","SGPS_3","SGPS_4","SGPS_5","SGPS_6","SGPS_7","SGPS_8","SGPS_9","NPI1","NPI2","NPI3","NPI4","NPI5","NPI6","NPI7","NPI8","NPI9","NPI10","NPI11","NPI12","NPI13","NPI14","NPI15","hsns_1","hsns_2","hsns_3","hsns_4","hsns_5","trap1","hsns_6","hsns_7","hsns_8","hsns_9","hsns_10","subj_idx","friend_name","ParticipantID","value","success","user_agent","responses","item_order","radio_event_ids","radio_event_times","key_event_times","mouse_event_times","straightlining","zigzagging","honeypot","timeout","failed_images","failed_audio","failed_video","version_attrib2","version_target2","correct","IAT","screen_id","task_id","RT","condition","word","varname","summary","version_attrib","version_target","time_stamp","view_history","response_type","key_press","avg_frame_time","center_x","center_y","correct_response","identity","Image","question_order","correct_answer","trap1_item"
"8614","
   <p><div style = ""color: white;font-size:25px;"">您好，欢迎参加本次实验。</div> </p>
   <p><div style = ""color: white;font-size:25px;"">为充分保障您的权利，请确保您已经知晓并同意《参与实验同意书》以及《数据公开知情同意书》。</div></p>
   <p><div style = ""color: white;font-size:25px;"">如果您未见过上述内容，请咨询实验员。</div></p>
   <p><div style = ""color: white;font-size:25px;"">如果您选择继续实验，则表示您已经清楚两份知情同意书的内容并同意。</div></p>
   <p><div style = ""color: pink;font-size:30px;"">请确保您记得day0的实验编号，您将在本次实验输入该编号，若您忘记，请咨询实验员后作答。</div></p>
   <p><div style = ""color: lightblue;font-size:25px;"">请您尽可能认真地作答，我们将依据您在各问卷和按键任务中的作答质量发放报酬。</div></p>
   <p> <div style = ""color: green;font-size:25px;""><按空格键至下页></div> </p>
   "," ","html-keyboard-response","0","8617","0.0-0.0","3","3","3","3","3","3","3","3","3","3","4","4","2","4","4","4","4","4","4","4","2","2","2","2","2","2","2","4","2","1","0","1","1","0","0","0","0","0","1","1","0","1","0","1","4","4","4","2","2","5","2","4","2","4","2","763057278428647426","姚","698","","","","","","","","","","","","","","","","","","","","","","","","","","","","","","","","","","","","","","","","","",""
"","","","call-function","1","8618","0.0-1.0-0.0","3","3","3","3","3","3","3","3","3","3","4","4","2","4","4","4","4","4","4","4","2","2","2","2","2","2","2","4","2","1","0","1","1","0","0","0","0","0","1","1","0","1","0","1","4","4","4","2","2","5","2","4","2","4","2","763057278428647426","姚","698","","","","","","","","","","","","","","","","","","","","","","","","","","","","","","","","","","","","","","","","","",""
"27464","","{""friend_name"":""姚"",""ParticipantID"":""698""}","survey-html-form","2","36083","0.0-1.0-1.0","3","3","3","3","3","3","3","3","3","3","4","4","2","4","4","4","4","4","4","4","2","2","2","2","2","2","2","4","2","1","0","1","1","0","0","0","0","0","1","1","0","1","0","1","4","4","4","2","2","5","2","4","2","4","2","763057278428647426","姚","698","","","","","","","","","","","","","","","","","","","","","","","","","","","","","","","","","","","","","","","","","",""
"","","","fullscreen","3","53561","0.0-2.0","3","3","3","3","3","3","3","3","3","3","4","4","2","4","4","4","4","4","4","4","2","2","2","2","2","2","2","4","2","1","0","1","1","0","0","0","0","0","1","1","0","1","0","1","4","4","4","2","2","5","2","4","2","4","2","763057278428647426","姚","698","","true","{}","","","","","","","","","","","","","","","","","","","","","","","","","","","","","","","","","","","","","","",""
"29819.800000190735","","{""Q01"":""3"",""Q02"":""3"",""Q03"":""3"",""Q04"":""3"",""Q05"":""3"",""Q06"":""3"",""Q07"":""3"",""Q08"":""3"",""Q09"":""3"",""Q10"":""3""}","survey-template","4","83384","0.0-3.0","3","3","3","3","3","3","3","3","3","3","4","4","2","4","4","4","4","4","4","4","2","2","2","2","2","2","2","4","2","1","0","1","1","0","0","0","0","0","1","1","0","1","0","1","4","4","4","2","2","5","2","4","2","4","2","763057278428647426","姚","698","","","","{""Q01"":""3"",""Q02"":""3"",""Q03"":""3"",""Q04"":""3"",""Q05"":""3"",""Q06"":""3"",""Q07"":""3"",""Q08"":""3"",""Q09"":""3"",""Q10"":""3""}","[0,1,2,3,4,5,6,7,8,9]","[""Q01"",""Q02"",""Q03"",""Q04"",""Q05"",""Q06"",""Q07"",""Q08"",""Q09"",""Q10""]","[5957.800000190735,8237.200000286102,10331.700000286102,11867.10000038147,14848.60000038147,15969,16945.300000190735,22748.60000038147,26738.700000286102,28522.5]","[]","[5957.800000190735,8237.200000286102,10331.700000286102,11867.10000038147,14848.60000038147,15969,16945.300000190735,22748.60000038147,26738.700000286102,28522.5,29818.5]","0.5","0.5555555555555556","0","","","","","","","","","","","","","","","","","","","","","","","","","","","","","",""
"23751.300000190735","","{""Q01"":""4"",""Q02"":""4"",""Q03"":""2"",""Q04"":""4"",""Q05"":""4"",""Q06"":""4"",""Q07"":""4"",""Q08"":""4"",""Q09"":""4"",""Q10"":""4""}","survey-template","5","107141","0.0-4.0","3","3","3","3","3","3","3","3","3","3","4","4","2","4","4","4","4","4","4","4","2","2","2","2","2","2","2","4","2","1","0","1","1","0","0","0","0","0","1","1","0","1","0","1","4","4","4","2","2","5","2","4","2","4","2","763057278428647426","姚","698","","","","{""Q01"":""4"",""Q02"":""4"",""Q03"":""2"",""Q04"":""4"",""Q05"":""4"",""Q06"":""4"",""Q07"":""4"",""Q08"":""4"",""Q09"":""4"",""Q10"":""4""}","[0,1,2,3,4,5,6,7,8,9]","[""Q01"",""Q02"",""Q03"",""Q04"",""Q05"",""Q06"",""Q07"",""Q08"",""Q09"",""Q10""]","[5014.800000190735,7340.800000190735,12226.5,14042,15440.10000038147,16543.900000095367,18024.10000038147,20293.900000095367,21702,22805.900000095367]","[]","[5014.800000190735,7340.800000190735,12226.5,14042,15440.10000038147,16543.900000095367,18024.10000038147,20293.900000095367,21702,22805.900000095367,23750]","0.5","0","0","","","","","","","","","","","","","","","","","","","","","","","","","","","","","",""
"","","","preload","6","107600","0.0-5.0","3","3","3","3","3","3","3","3","3","3","4","4","2","4","4","4","4","4","4","4","2","2","2","2","2","2","2","4","2","1","0","1","1","0","0","0","0","0","1","1","0","1","0","1","4","4","4","2","2","5","2","4","2","4","2","763057278428647426","姚","698","","true","","","","","","","","","","","false","[]","[]","[]","","","","","","","","","","","","","","","","","","","","","","","","","",""
"17050","
    <h3>词语分类任务</h3>
    <p>在接下来的任务中，你需要对一系列词语进行分类。<p/>
    请先熟悉这些词语，这有利于你完成接下来的任务。</p>
    <table align=""center"" border=1 cellpadding=3 cellspacing=0>
    <tr> <th>类别</th> <th>词语</th> </tr>
    <tr> <td>&emsp;积极&emsp;</td> <td>&emsp;高尚、诚信、善良、君子、廉正、正直&emsp;</td> </tr>
    <tr> <td>&emsp;消极&emsp;</td> <td>&emsp;缺德、卑鄙、不孝、不仁、小人、黑心&emsp;</td> </tr>
    <tr> <td>&emsp;自我&emsp;</td> <td>&emsp;我、我的、自己、自己的、本人、本人的&emsp;</td> </tr>
    <tr> <td>&emsp;他人&emsp;</td> <td>&emsp;他、他的、别人、别人的、他人、他人的&emsp;</td> </tr>
    </table><br/>","0","html-button-response","7","124652","0.0-6.0-1.0-0.0","3","3","3","3","3","3","3","3","3","3","4","4","2","4","4","4","4","4","4","4","2","2","2","2","2","2","2","4","2","1","0","1","1","0","0","0","0","0","1","1","0","1","0","1","4","4","4","2","2","5","2","4","2","4","2","763057278428647426","姚","698","","","","","","","","","","","","","","","","","1","1","","","","","","","","","","","","","","","","","","","","","","","",""
"17876","
    <div class=""tag-bottom""><p>
    —— 任务1：对“自我”词和“他人”词分类 ——<p/>
    不同词语会出现在屏幕中央，类别标签将始终显示在屏幕上方<p/>   
    <span style=""color:#FFD866""><b>请根据上方标签的提示，尽可能正确并且快速地做出按键反应</b></span><p/>
    当按键错误时屏幕中会出现<span style=""color:red""> X </span>，需要按另一个键纠正才能继续<br/><p/>
    请把双手食指分别放在键盘的“E”键和“I”键上<p/>
    按<空格键>开始
    </p></div>"," ","html-keyboard-response","8","142531","0.0-6.0-1.0-1.0","3","3","3","3","3","3","3","3","3","3","4","4","2","4","4","4","4","4","4","4","2","2","2","2","2","2","2","4","2","1","0","1","1","0","0","0","0","0","1","1","0","1","0","1","4","4","4","2","2","5","2","4","2","4","2","763057278428647426","姚","698","","","","","","","","","","","","","","","","","","","","","","","","","","","","","","","","","","","","","","","","","",""
"null","","null","html-keyboard-response","9","142782","0.0-6.0-1.0-2.0-0.0","3","3","3","3","3","3","3","3","3","3","4","4","2","4","4","4","4","4","4","4","2","2","2","2","2","2","2","4","2","1","0","1","1","0","0","0","0","0","1","1","0","1","0","1","4","4","4","2","2","5","2","4","2","4","2","763057278428647426","姚","698","","","","","","","","","","","","","","","","","","","","","","","","","","","","","","","","","","","","","","","","","",""
"1267","<p style=""color:rgb(150, 250, 100); font-size: 35px;"">本人的</p>","e","categorize-html","10","144053","0.0-6.0-1.0-2.0-1.0","3","3","3","3","3","3","3","3","3","3","4","4","2","4","4","4","4","4","4","4","2","2","2","2","2","2","2","4","2","1","0","1","1","0","0","0","0","0","1","1","0","1","0","1","4","4","4","2","2","5","2","4","2","4","2","763057278428647426","姚","698","","","","","","","","","","","","","","","","","","","true","11","1","moral","1267","self","本人的","","","","","","","","","","","","","","","","",""
"null","","null","html-keyboard-response","11","144305","0.0-6.0-1.0-2.0-0.1","3","3","3","3","3","3","3","3","3","3","4","4","2","4","4","4","4","4","4","4","2","2","2","2","2","2","2","4","2","1","0","1","1","0","0","0","0","0","1","1","0","1","0","1","4","4","4","2","2","5","2","4","2","4","2","763057278428647426","姚","698","","","","","","","","","","","","","","","","","","","","","","","","","","","","","","","","","","","","","","","","","",""
"892","<p style=""color:rgb(150, 250, 100); font-size: 35px;"">别人</p>","i","categorize-html","12","145199","0.0-6.0-1.0-2.0-1.1","3","3","3","3","3","3","3","3","3","3","4","4","2","4","4","4","4","4","4","4","2","2","2","2","2","2","2","4","2","1","0","1","1","0","0","0","0","0","1","1","0","1","0","1","4","4","4","2","2","5","2","4","2","4","2","763057278428647426","姚","698","","","","","","","","","","","","","","","","","","","true","11","1","moral","892","other","别人","","","","","","","","","","","","","","","","",""
"null","","null","html-keyboard-response","13","145451","0.0-6.0-1.0-2.0-0.2","3","3","3","3","3","3","3","3","3","3","4","4","2","4","4","4","4","4","4","4","2","2","2","2","2","2","2","4","2","1","0","1","1","0","0","0","0","0","1","1","0","1","0","1","4","4","4","2","2","5","2","4","2","4","2","763057278428647426","姚","698","","","","","","","","","","","","","","","","","","","","","","","","","","","","","","","","","","","","","","","","","",""
"659","<p style=""color:rgb(150, 250, 100); font-size: 35px;"">别人的</p>","i","categorize-html","14","146113","0.0-6.0-1.0-2.0-1.2","3","3","3","3","3","3","3","3","3","3","4","4","2","4","4","4","4","4","4","4","2","2","2","2","2","2","2","4","2","1","0","1","1","0","0","0","0","0","1","1","0","1","0","1","4","4","4","2","2","5","2","4","2","4","2","763057278428647426","姚","698","","","","","","","","","","","","","","","","","","","true","11","1","moral","659","other","别人的","","","","","","","","","","","","","","","","",""
"null","","null","html-keyboard-response","15","146364","0.0-6.0-1.0-2.0-0.3","3","3","3","3","3","3","3","3","3","3","4","4","2","4","4","4","4","4","4","4","2","2","2","2","2","2","2","4","2","1","0","1","1","0","0","0","0","0","1","1","0","1","0","1","4","4","4","2","2","5","2","4","2","4","2","763057278428647426","姚","698","","","","","","","","","","","","","","","","","","","","","","","","","","","","","","","","","","","","","","","","","",""
"522","<p style=""color:rgb(150, 250, 100); font-size: 35px;"">我</p>","e","categorize-html","16","146889","0.0-6.0-1.0-2.0-1.3","3","3","3","3","3","3","3","3","3","3","4","4","2","4","4","4","4","4","4","4","2","2","2","2","2","2","2","4","2","1","0","1","1","0","0","0","0","0","1","1","0","1","0","1","4","4","4","2","2","5","2","4","2","4","2","763057278428647426","姚","698","","","","","","","","","","","","","","","","","","","true","11","1","moral","522","self","我","","","","","","","","","","","","","","","","",""
"null","","null","html-keyboard-response","17","147140","0.0-6.0-1.0-2.0-0.4","3","3","3","3","3","3","3","3","3","3","4","4","2","4","4","4","4","4","4","4","2","2","2","2","2","2","2","4","2","1","0","1","1","0","0","0","0","0","1","1","0","1","0","1","4","4","4","2","2","5","2","4","2","4","2","763057278428647426","姚","698","","","","","","","","","","","","","","","","","","","","","","","","","","","","","","","","","","","","","","","","","",""
"776","<p style=""color:rgb(150, 250, 100); font-size: 35px;"">本人</p>","e","categorize-html","18","147919","0.0-6.0-1.0-2.0-1.4","3","3","3","3","3","3","3","3","3","3","4","4","2","4","4","4","4","4","4","4","2","2","2","2","2","2","2","4","2","1","0","1","1","0","0","0","0","0","1","1","0","1","0","1","4","4","4","2","2","5","2","4","2","4","2","763057278428647426","姚","698","","","","","","","","","","","","","","","","","","","true","11","1","moral","776","self","本人","","","","","","","","","","","","","","","","",""
"null","","null","html-keyboard-response","19","148171","0.0-6.0-1.0-2.0-0.5","3","3","3","3","3","3","3","3","3","3","4","4","2","4","4","4","4","4","4","4","2","2","2","2","2","2","2","4","2","1","0","1","1","0","0","0","0","0","1","1","0","1","0","1","4","4","4","2","2","5","2","4","2","4","2","763057278428647426","姚","698","","","","","","","","","","","","","","","","","","","","","","","","","","","","","","","","","","","","","","","","","",""
"672","<p style=""color:rgb(150, 250, 100); font-size: 35px;"">他的</p>","i","categorize-html","20","148846","0.0-6.0-1.0-2.0-1.5","3","3","3","3","3","3","3","3","3","3","4","4","2","4","4","4","4","4","4","4","2","2","2","2","2","2","2","4","2","1","0","1","1","0","0","0","0","0","1","1","0","1","0","1","4","4","4","2","2","5","2","4","2","4","2","763057278428647426","姚","698","","","","","","","","","","","","","","","","","","","true","11","1","moral","672","other","他的","","","","","","","","","","","","","","","","",""
"null","","null","html-keyboard-response","21","149097","0.0-6.0-1.0-2.0-0.6","3","3","3","3","3","3","3","3","3","3","4","4","2","4","4","4","4","4","4","4","2","2","2","2","2","2","2","4","2","1","0","1","1","0","0","0","0","0","1","1","0","1","0","1","4","4","4","2","2","5","2","4","2","4","2","763057278428647426","姚","698","","","","","","","","","","","","","","","","","","","","","","","","","","","","","","","","","","","","","","","","","",""
"597","<p style=""color:rgb(150, 250, 100); font-size: 35px;"">他人的</p>","i","categorize-html","22","149697","0.0-6.0-1.0-2.0-1.6","3","3","3","3","3","3","3","3","3","3","4","4","2","4","4","4","4","4","4","4","2","2","2","2","2","2","2","4","2","1","0","1","1","0","0","0","0","0","1","1","0","1","0","1","4","4","4","2","2","5","2","4","2","4","2","763057278428647426","姚","698","","","","","","","","","","","","","","","","","","","true","11","1","moral","597","other","他人的","","","","","","","","","","","","","","","","",""
"null","","null","html-keyboard-response","23","149948","0.0-6.0-1.0-2.0-0.7","3","3","3","3","3","3","3","3","3","3","4","4","2","4","4","4","4","4","4","4","2","2","2","2","2","2","2","4","2","1","0","1","1","0","0","0","0","0","1","1","0","1","0","1","4","4","4","2","2","5","2","4","2","4","2","763057278428647426","姚","698","","","","","","","","","","","","","","","","","","","","","","","","","","","","","","","","","","","","","","","","","",""
"531","<p style=""color:rgb(150, 250, 100); font-size: 35px;"">自己的</p>","e","categorize-html","24","150480","0.0-6.0-1.0-2.0-1.7","3","3","3","3","3","3","3","3","3","3","4","4","2","4","4","4","4","4","4","4","2","2","2","2","2","2","2","4","2","1","0","1","1","0","0","0","0","0","1","1","0","1","0","1","4","4","4","2","2","5","2","4","2","4","2","763057278428647426","姚","698","","","","","","","","","","","","","","","","","","","true","11","1","moral","531","self","自己的","","","","","","","","","","","","","","","","",""
"null","","null","html-keyboard-response","25","150733","0.0-6.0-1.0-2.0-0.8","3","3","3","3","3","3","3","3","3","3","4","4","2","4","4","4","4","4","4","4","2","2","2","2","2","2","2","4","2","1","0","1","1","0","0","0","0","0","1","1","0","1","0","1","4","4","4","2","2","5","2","4","2","4","2","763057278428647426","姚","698","","","","","","","","","","","","","","","","","","","","","","","","","","","","","","","","","","","","","","","","","",""
"869","<p style=""color:rgb(150, 250, 100); font-size: 35px;"">他人</p>","i","categorize-html","26","151604","0.0-6.0-1.0-2.0-1.8","3","3","3","3","3","3","3","3","3","3","4","4","2","4","4","4","4","4","4","4","2","2","2","2","2","2","2","4","2","1","0","1","1","0","0","0","0","0","1","1","0","1","0","1","4","4","4","2","2","5","2","4","2","4","2","763057278428647426","姚","698","","","","","","","","","","","","","","","","","","","true","11","1","moral","869","other","他人","","","","","","","","","","","","","","","","",""
"null","","null","html-keyboard-response","27","151856","0.0-6.0-1.0-2.0-0.9","3","3","3","3","3","3","3","3","3","3","4","4","2","4","4","4","4","4","4","4","2","2","2","2","2","2","2","4","2","1","0","1","1","0","0","0","0","0","1","1","0","1","0","1","4","4","4","2","2","5","2","4","2","4","2","763057278428647426","姚","698","","","","","","","","","","","","","","","","","","","","","","","","","","","","","","","","","","","","","","","","","",""
"625","<p style=""color:rgb(150, 250, 100); font-size: 35px;"">自己</p>","e","categorize-html","28","152483","0.0-6.0-1.0-2.0-1.9","3","3","3","3","3","3","3","3","3","3","4","4","2","4","4","4","4","4","4","4","2","2","2","2","2","2","2","4","2","1","0","1","1","0","0","0","0","0","1","1","0","1","0","1","4","4","4","2","2","5","2","4","2","4","2","763057278428647426","姚","698","","","","","","","","","","","","","","","","","","","true","11","1","moral","625","self","自己","","","","","","","","","","","","","","","","",""
"null","","null","html-keyboard-response","29","152734","0.0-6.0-1.0-2.0-0.10","3","3","3","3","3","3","3","3","3","3","4","4","2","4","4","4","4","4","4","4","2","2","2","2","2","2","2","4","2","1","0","1","1","0","0","0","0","0","1","1","0","1","0","1","4","4","4","2","2","5","2","4","2","4","2","763057278428647426","姚","698","","","","","","","","","","","","","","","","","","","","","","","","","","","","","","","","","","","","","","","","","",""
"449","<p style=""color:rgb(150, 250, 100); font-size: 35px;"">他</p>","i","categorize-html","30","153184","0.0-6.0-1.0-2.0-1.10","3","3","3","3","3","3","3","3","3","3","4","4","2","4","4","4","4","4","4","4","2","2","2","2","2","2","2","4","2","1","0","1","1","0","0","0","0","0","1","1","0","1","0","1","4","4","4","2","2","5","2","4","2","4","2","763057278428647426","姚","698","","","","","","","","","","","","","","","","","","","true","11","1","moral","449","other","他","","","","","","","","","","","","","","","","",""
"null","","null","html-keyboard-response","31","153435","0.0-6.0-1.0-2.0-0.11","3","3","3","3","3","3","3","3","3","3","4","4","2","4","4","4","4","4","4","4","2","2","2","2","2","2","2","4","2","1","0","1","1","0","0","0","0","0","1","1","0","1","0","1","4","4","4","2","2","5","2","4","2","4","2","763057278428647426","姚","698","","","","","","","","","","","","","","","","","","","","","","","","","","","","","","","","","","","","","","","","","",""
"508","<p style=""color:rgb(150, 250, 100); font-size: 35px;"">我的</p>","e","categorize-html","32","153946","0.0-6.0-1.0-2.0-1.11","3","3","3","3","3","3","3","3","3","3","4","4","2","4","4","4","4","4","4","4","2","2","2","2","2","2","2","4","2","1","0","1","1","0","0","0","0","0","1","1","0","1","0","1","4","4","4","2","2","5","2","4","2","4","2","763057278428647426","姚","698","","","","","","","","","","","","","","","","","","","true","11","1","moral","508","self","我的","","","","","","","","","","","","","","","","",""
"3781","
    <div class=""tag-bottom""><p>
    —— 任务2：对“积极”词和“消极”词分类 ——<p/>   
    <span style=""color:#78DCE8""><b>注意上方，类别标签和需要分类的词语都已经改变</b></span><p/>
    <span style=""color:#FFD866""><b>请根据上方标签的提示，尽可能正确并且快速地做出按键反应</b></span><p/>
    当按键错误时屏幕中会出现<span style=""color:red""> X </span>，需要按另一个键纠正才能继续<br/><p/>
    请把双手食指分别放在键盘的“E”键和“I”键上<p/>
    按<空格键>开始
    </p></div>"," ","html-keyboard-response","33","157728","0.0-6.0-1.0-3.0","3","3","3","3","3","3","3","3","3","3","4","4","2","4","4","4","4","4","4","4","2","2","2","2","2","2","2","4","2","1","0","1","1","0","0","0","0","0","1","1","0","1","0","1","4","4","4","2","2","5","2","4","2","4","2","763057278428647426","姚","698","","","","","","","","","","","","","","","","","","","","","","","","","","","","","","","","","","","","","","","","","",""
"null","","null","html-keyboard-response","34","157980","0.0-6.0-1.0-4.0-0.0","3","3","3","3","3","3","3","3","3","3","4","4","2","4","4","4","4","4","4","4","2","2","2","2","2","2","2","4","2","1","0","1","1","0","0","0","0","0","1","1","0","1","0","1","4","4","4","2","2","5","2","4","2","4","2","763057278428647426","姚","698","","","","","","","","","","","","","","","","","","","","","","","","","","","","","","","","","","","","","","","","","",""
"761","<p style=""color:white; font-size: 35px;"">不孝</p>","i","categorize-html","35","158743","0.0-6.0-1.0-4.0-1.0","3","3","3","3","3","3","3","3","3","3","4","4","2","4","4","4","4","4","4","4","2","2","2","2","2","2","2","4","2","1","0","1","1","0","0","0","0","0","1","1","0","1","0","1","4","4","4","2","2","5","2","4","2","4","2","763057278428647426","姚","698","","","","","","","","","","","","","","","","","","","true","12","2","moral","761","negative","不孝","","","","","","","","","","","","","","","","",""
"null","","null","html-keyboard-response","36","158993","0.0-6.0-1.0-4.0-0.1","3","3","3","3","3","3","3","3","3","3","4","4","2","4","4","4","4","4","4","4","2","2","2","2","2","2","2","4","2","1","0","1","1","0","0","0","0","0","1","1","0","1","0","1","4","4","4","2","2","5","2","4","2","4","2","763057278428647426","姚","698","","","","","","","","","","","","","","","","","","","","","","","","","","","","","","","","","","","","","","","","","",""
"709","<p style=""color:white; font-size: 35px;"">君子</p>","e","categorize-html","37","159705","0.0-6.0-1.0-4.0-1.1","3","3","3","3","3","3","3","3","3","3","4","4","2","4","4","4","4","4","4","4","2","2","2","2","2","2","2","4","2","1","0","1","1","0","0","0","0","0","1","1","0","1","0","1","4","4","4","2","2","5","2","4","2","4","2","763057278428647426","姚","698","","","","","","","","","","","","","","","","","","","true","12","2","moral","709","positive","君子","","","","","","","","","","","","","","","","",""
"null","","null","html-keyboard-response","38","159957","0.0-6.0-1.0-4.0-0.2","3","3","3","3","3","3","3","3","3","3","4","4","2","4","4","4","4","4","4","4","2","2","2","2","2","2","2","4","2","1","0","1","1","0","0","0","0","0","1","1","0","1","0","1","4","4","4","2","2","5","2","4","2","4","2","763057278428647426","姚","698","","","","","","","","","","","","","","","","","","","","","","","","","","","","","","","","","","","","","","","","","",""
"677","<p style=""color:white; font-size: 35px;"">善良</p>","e","categorize-html","39","160635","0.0-6.0-1.0-4.0-1.2","3","3","3","3","3","3","3","3","3","3","4","4","2","4","4","4","4","4","4","4","2","2","2","2","2","2","2","4","2","1","0","1","1","0","0","0","0","0","1","1","0","1","0","1","4","4","4","2","2","5","2","4","2","4","2","763057278428647426","姚","698","","","","","","","","","","","","","","","","","","","true","12","2","moral","677","positive","善良","","","","","","","","","","","","","","","","",""
"null","","null","html-keyboard-response","40","160886","0.0-6.0-1.0-4.0-0.3","3","3","3","3","3","3","3","3","3","3","4","4","2","4","4","4","4","4","4","4","2","2","2","2","2","2","2","4","2","1","0","1","1","0","0","0","0","0","1","1","0","1","0","1","4","4","4","2","2","5","2","4","2","4","2","763057278428647426","姚","698","","","","","","","","","","","","","","","","","","","","","","","","","","","","","","","","","","","","","","","","","",""
"553","<p style=""color:white; font-size: 35px;"">不仁</p>","i","categorize-html","41","161442","0.0-6.0-1.0-4.0-1.3","3","3","3","3","3","3","3","3","3","3","4","4","2","4","4","4","4","4","4","4","2","2","2","2","2","2","2","4","2","1","0","1","1","0","0","0","0","0","1","1","0","1","0","1","4","4","4","2","2","5","2","4","2","4","2","763057278428647426","姚","698","","","","","","","","","","","","","","","","","","","true","12","2","moral","553","negative","不仁","","","","","","","","","","","","","","","","",""
"null","","null","html-keyboard-response","42","161694","0.0-6.0-1.0-4.0-0.4","3","3","3","3","3","3","3","3","3","3","4","4","2","4","4","4","4","4","4","4","2","2","2","2","2","2","2","4","2","1","0","1","1","0","0","0","0","0","1","1","0","1","0","1","4","4","4","2","2","5","2","4","2","4","2","763057278428647426","姚","698","","","","","","","","","","","","","","","","","","","","","","","","","","","","","","","","","","","","","","","","","",""
"512","<p style=""color:white; font-size: 35px;"">高尚</p>","e","categorize-html","43","162208","0.0-6.0-1.0-4.0-1.4","3","3","3","3","3","3","3","3","3","3","4","4","2","4","4","4","4","4","4","4","2","2","2","2","2","2","2","4","2","1","0","1","1","0","0","0","0","0","1","1","0","1","0","1","4","4","4","2","2","5","2","4","2","4","2","763057278428647426","姚","698","","","","","","","","","","","","","","","","","","","true","12","2","moral","512","positive","高尚","","","","","","","","","","","","","","","","",""
"null","","null","html-keyboard-response","44","162459","0.0-6.0-1.0-4.0-0.5","3","3","3","3","3","3","3","3","3","3","4","4","2","4","4","4","4","4","4","4","2","2","2","2","2","2","2","4","2","1","0","1","1","0","0","0","0","0","1","1","0","1","0","1","4","4","4","2","2","5","2","4","2","4","2","763057278428647426","姚","698","","","","","","","","","","","","","","","","","","","","","","","","","","","","","","","","","","","","","","","","","",""
"783","<p style=""color:white; font-size: 35px;"">廉正</p>","e","categorize-html","45","163244","0.0-6.0-1.0-4.0-1.5","3","3","3","3","3","3","3","3","3","3","4","4","2","4","4","4","4","4","4","4","2","2","2","2","2","2","2","4","2","1","0","1","1","0","0","0","0","0","1","1","0","1","0","1","4","4","4","2","2","5","2","4","2","4","2","763057278428647426","姚","698","","","","","","","","","","","","","","","","","","","true","12","2","moral","783","positive","廉正","","","","","","","","","","","","","","","","",""
"null","","null","html-keyboard-response","46","163496","0.0-6.0-1.0-4.0-0.6","3","3","3","3","3","3","3","3","3","3","4","4","2","4","4","4","4","4","4","4","2","2","2","2","2","2","2","4","2","1","0","1","1","0","0","0","0","0","1","1","0","1","0","1","4","4","4","2","2","5","2","4","2","4","2","763057278428647426","姚","698","","","","","","","","","","","","","","","","","","","","","","","","","","","","","","","","","","","","","","","","","",""
"506","<p style=""color:white; font-size: 35px;"">黑心</p>","i","categorize-html","47","164004","0.0-6.0-1.0-4.0-1.6","3","3","3","3","3","3","3","3","3","3","4","4","2","4","4","4","4","4","4","4","2","2","2","2","2","2","2","4","2","1","0","1","1","0","0","0","0","0","1","1","0","1","0","1","4","4","4","2","2","5","2","4","2","4","2","763057278428647426","姚","698","","","","","","","","","","","","","","","","","","","true","12","2","moral","506","negative","黑心","","","","","","","","","","","","","","","","",""
"null","","null","html-keyboard-response","48","164255","0.0-6.0-1.0-4.0-0.7","3","3","3","3","3","3","3","3","3","3","4","4","2","4","4","4","4","4","4","4","2","2","2","2","2","2","2","4","2","1","0","1","1","0","0","0","0","0","1","1","0","1","0","1","4","4","4","2","2","5","2","4","2","4","2","763057278428647426","姚","698","","","","","","","","","","","","","","","","","","","","","","","","","","","","","","","","","","","","","","","","","",""
"549","<p style=""color:white; font-size: 35px;"">缺德</p>","i","categorize-html","49","164804","0.0-6.0-1.0-4.0-1.7","3","3","3","3","3","3","3","3","3","3","4","4","2","4","4","4","4","4","4","4","2","2","2","2","2","2","2","4","2","1","0","1","1","0","0","0","0","0","1","1","0","1","0","1","4","4","4","2","2","5","2","4","2","4","2","763057278428647426","姚","698","","","","","","","","","","","","","","","","","","","true","12","2","moral","549","negative","缺德","","","","","","","","","","","","","","","","",""
"null","","null","html-keyboard-response","50","165056","0.0-6.0-1.0-4.0-0.8","3","3","3","3","3","3","3","3","3","3","4","4","2","4","4","4","4","4","4","4","2","2","2","2","2","2","2","4","2","1","0","1","1","0","0","0","0","0","1","1","0","1","0","1","4","4","4","2","2","5","2","4","2","4","2","763057278428647426","姚","698","","","","","","","","","","","","","","","","","","","","","","","","","","","","","","","","","","","","","","","","","",""
"565","<p style=""color:white; font-size: 35px;"">诚信</p>","e","categorize-html","51","165623","0.0-6.0-1.0-4.0-1.8","3","3","3","3","3","3","3","3","3","3","4","4","2","4","4","4","4","4","4","4","2","2","2","2","2","2","2","4","2","1","0","1","1","0","0","0","0","0","1","1","0","1","0","1","4","4","4","2","2","5","2","4","2","4","2","763057278428647426","姚","698","","","","","","","","","","","","","","","","","","","true","12","2","moral","565","positive","诚信","","","","","","","","","","","","","","","","",""
"null","","null","html-keyboard-response","52","165875","0.0-6.0-1.0-4.0-0.9","3","3","3","3","3","3","3","3","3","3","4","4","2","4","4","4","4","4","4","4","2","2","2","2","2","2","2","4","2","1","0","1","1","0","0","0","0","0","1","1","0","1","0","1","4","4","4","2","2","5","2","4","2","4","2","763057278428647426","姚","698","","","","","","","","","","","","","","","","","","","","","","","","","","","","","","","","","","","","","","","","","",""
"860","<p style=""color:white; font-size: 35px;"">正直</p>","e","categorize-html","53","166736","0.0-6.0-1.0-4.0-1.9","3","3","3","3","3","3","3","3","3","3","4","4","2","4","4","4","4","4","4","4","2","2","2","2","2","2","2","4","2","1","0","1","1","0","0","0","0","0","1","1","0","1","0","1","4","4","4","2","2","5","2","4","2","4","2","763057278428647426","姚","698","","","","","","","","","","","","","","","","","","","true","12","2","moral","860","positive","正直","","","","","","","","","","","","","","","","",""
"null","","null","html-keyboard-response","54","166989","0.0-6.0-1.0-4.0-0.10","3","3","3","3","3","3","3","3","3","3","4","4","2","4","4","4","4","4","4","4","2","2","2","2","2","2","2","4","2","1","0","1","1","0","0","0","0","0","1","1","0","1","0","1","4","4","4","2","2","5","2","4","2","4","2","763057278428647426","姚","698","","","","","","","","","","","","","","","","","","","","","","","","","","","","","","","","","","","","","","","","","",""
"506","<p style=""color:white; font-size: 35px;"">小人</p>","i","categorize-html","55","167496","0.0-6.0-1.0-4.0-1.10","3","3","3","3","3","3","3","3","3","3","4","4","2","4","4","4","4","4","4","4","2","2","2","2","2","2","2","4","2","1","0","1","1","0","0","0","0","0","1","1","0","1","0","1","4","4","4","2","2","5","2","4","2","4","2","763057278428647426","姚","698","","","","","","","","","","","","","","","","","","","true","12","2","moral","506","negative","小人","","","","","","","","","","","","","","","","",""
"null","","null","html-keyboard-response","56","167747","0.0-6.0-1.0-4.0-0.11","3","3","3","3","3","3","3","3","3","3","4","4","2","4","4","4","4","4","4","4","2","2","2","2","2","2","2","4","2","1","0","1","1","0","0","0","0","0","1","1","0","1","0","1","4","4","4","2","2","5","2","4","2","4","2","763057278428647426","姚","698","","","","","","","","","","","","","","","","","","","","","","","","","","","","","","","","","","","","","","","","","",""
"524","<p style=""color:white; font-size: 35px;"">卑鄙</p>","i","categorize-html","57","168272","0.0-6.0-1.0-4.0-1.11","3","3","3","3","3","3","3","3","3","3","4","4","2","4","4","4","4","4","4","4","2","2","2","2","2","2","2","4","2","1","0","1","1","0","0","0","0","0","1","1","0","1","0","1","4","4","4","2","2","5","2","4","2","4","2","763057278428647426","姚","698","","","","","","","","","","","","","","","","","","","true","12","2","moral","524","negative","卑鄙","","","","","","","","","","","","","","","","",""
"3654","
    <div class=""tag-bottom""><p>
    —— 任务3：对“自我/积极”词和“他人/消极”词分类 ——<p/>
    <span style=""color:#78DCE8""><b>注意上方，之前的四类词语将混合在一起交替呈现</b></span><p/>
    <span style=""color:#FFD866""><b>请根据上方标签的提示，尽可能正确并且快速地做出按键反应</b></span><p/>
    当按键错误时屏幕中会出现<span style=""color:red""> X </span>，需要按另一个键纠正才能继续<br/><p/>
    请把双手食指分别放在键盘的“E”键和“I”键上<p/>
    按<空格键>开始
    </p></div>"," ","html-keyboard-response","58","171927","0.0-6.0-1.0-5.0","3","3","3","3","3","3","3","3","3","3","4","4","2","4","4","4","4","4","4","4","2","2","2","2","2","2","2","4","2","1","0","1","1","0","0","0","0","0","1","1","0","1","0","1","4","4","4","2","2","5","2","4","2","4","2","763057278428647426","姚","698","","","","","","","","","","","","","","","","","","","","","","","","","","","","","","","","","","","","","","","","","",""
"null","","null","html-keyboard-response","59","172179","0.0-6.0-1.0-6.0-0.0","3","3","3","3","3","3","3","3","3","3","4","4","2","4","4","4","4","4","4","4","2","2","2","2","2","2","2","4","2","1","0","1","1","0","0","0","0","0","1","1","0","1","0","1","4","4","4","2","2","5","2","4","2","4","2","763057278428647426","姚","698","","","","","","","","","","","","","","","","","","","","","","","","","","","","","","","","","","","","","","","","","",""
"624","<p style=""color:rgb(150, 250, 100); font-size: 35px;"">本人</p>","e","categorize-html","60","172805","0.0-6.0-1.0-6.0-1.0","3","3","3","3","3","3","3","3","3","3","4","4","2","4","4","4","4","4","4","4","2","2","2","2","2","2","2","4","2","1","0","1","1","0","0","0","0","0","1","1","0","1","0","1","4","4","4","2","2","5","2","4","2","4","2","763057278428647426","姚","698","","","","","","","","","","","","","","","","","","","true","13","3","moral","624","self","本人","","","","","","","","","","","","","","","","",""
"null","","null","html-keyboard-response","61","173056","0.0-6.0-1.0-6.0-0.1","3","3","3","3","3","3","3","3","3","3","4","4","2","4","4","4","4","4","4","4","2","2","2","2","2","2","2","4","2","1","0","1","1","0","0","0","0","0","1","1","0","1","0","1","4","4","4","2","2","5","2","4","2","4","2","763057278428647426","姚","698","","","","","","","","","","","","","","","","","","","","","","","","","","","","","","","","","","","","","","","","","",""
"540","<p style=""color:white; font-size: 35px;"">卑鄙</p>","i","categorize-html","62","173599","0.0-6.0-1.0-6.0-1.1","3","3","3","3","3","3","3","3","3","3","4","4","2","4","4","4","4","4","4","4","2","2","2","2","2","2","2","4","2","1","0","1","1","0","0","0","0","0","1","1","0","1","0","1","4","4","4","2","2","5","2","4","2","4","2","763057278428647426","姚","698","","","","","","","","","","","","","","","","","","","true","13","3","moral","540","negative","卑鄙","","","","","","","","","","","","","","","","",""
"null","","null","html-keyboard-response","63","173851","0.0-6.0-1.0-6.0-0.2","3","3","3","3","3","3","3","3","3","3","4","4","2","4","4","4","4","4","4","4","2","2","2","2","2","2","2","4","2","1","0","1","1","0","0","0","0","0","1","1","0","1","0","1","4","4","4","2","2","5","2","4","2","4","2","763057278428647426","姚","698","","","","","","","","","","","","","","","","","","","","","","","","","","","","","","","","","","","","","","","","","",""
"803","<p style=""color:rgb(150, 250, 100); font-size: 35px;"">别人</p>","i","categorize-html","64","174657","0.0-6.0-1.0-6.0-1.2","3","3","3","3","3","3","3","3","3","3","4","4","2","4","4","4","4","4","4","4","2","2","2","2","2","2","2","4","2","1","0","1","1","0","0","0","0","0","1","1","0","1","0","1","4","4","4","2","2","5","2","4","2","4","2","763057278428647426","姚","698","","","","","","","","","","","","","","","","","","","true","13","3","moral","803","other","别人","","","","","","","","","","","","","","","","",""
"null","","null","html-keyboard-response","65","174908","0.0-6.0-1.0-6.0-0.3","3","3","3","3","3","3","3","3","3","3","4","4","2","4","4","4","4","4","4","4","2","2","2","2","2","2","2","4","2","1","0","1","1","0","0","0","0","0","1","1","0","1","0","1","4","4","4","2","2","5","2","4","2","4","2","763057278428647426","姚","698","","","","","","","","","","","","","","","","","","","","","","","","","","","","","","","","","","","","","","","","","",""
"575","<p style=""color:white; font-size: 35px;"">高尚</p>","e","categorize-html","66","175486","0.0-6.0-1.0-6.0-1.3","3","3","3","3","3","3","3","3","3","3","4","4","2","4","4","4","4","4","4","4","2","2","2","2","2","2","2","4","2","1","0","1","1","0","0","0","0","0","1","1","0","1","0","1","4","4","4","2","2","5","2","4","2","4","2","763057278428647426","姚","698","","","","","","","","","","","","","","","","","","","true","13","3","moral","575","positive","高尚","","","","","","","","","","","","","","","","",""
"null","","null","html-keyboard-response","67","175746","0.0-6.0-1.0-6.0-0.4","3","3","3","3","3","3","3","3","3","3","4","4","2","4","4","4","4","4","4","4","2","2","2","2","2","2","2","4","2","1","0","1","1","0","0","0","0","0","1","1","0","1","0","1","4","4","4","2","2","5","2","4","2","4","2","763057278428647426","姚","698","","","","","","","","","","","","","","","","","","","","","","","","","","","","","","","","","","","","","","","","","",""
"588","<p style=""color:rgb(150, 250, 100); font-size: 35px;"">他人</p>","i","categorize-html","68","176336","0.0-6.0-1.0-6.0-1.4","3","3","3","3","3","3","3","3","3","3","4","4","2","4","4","4","4","4","4","4","2","2","2","2","2","2","2","4","2","1","0","1","1","0","0","0","0","0","1","1","0","1","0","1","4","4","4","2","2","5","2","4","2","4","2","763057278428647426","姚","698","","","","","","","","","","","","","","","","","","","true","13","3","moral","588","other","他人","","","","","","","","","","","","","","","","",""
"null","","null","html-keyboard-response","69","176588","0.0-6.0-1.0-6.0-0.5","3","3","3","3","3","3","3","3","3","3","4","4","2","4","4","4","4","4","4","4","2","2","2","2","2","2","2","4","2","1","0","1","1","0","0","0","0","0","1","1","0","1","0","1","4","4","4","2","2","5","2","4","2","4","2","763057278428647426","姚","698","","","","","","","","","","","","","","","","","","","","","","","","","","","","","","","","","","","","","","","","","",""
"588","<p style=""color:white; font-size: 35px;"">缺德</p>","i","categorize-html","70","177179","0.0-6.0-1.0-6.0-1.5","3","3","3","3","3","3","3","3","3","3","4","4","2","4","4","4","4","4","4","4","2","2","2","2","2","2","2","4","2","1","0","1","1","0","0","0","0","0","1","1","0","1","0","1","4","4","4","2","2","5","2","4","2","4","2","763057278428647426","姚","698","","","","","","","","","","","","","","","","","","","true","13","3","moral","588","negative","缺德","","","","","","","","","","","","","","","","",""
"null","","null","html-keyboard-response","71","177430","0.0-6.0-1.0-6.0-0.6","3","3","3","3","3","3","3","3","3","3","4","4","2","4","4","4","4","4","4","4","2","2","2","2","2","2","2","4","2","1","0","1","1","0","0","0","0","0","1","1","0","1","0","1","4","4","4","2","2","5","2","4","2","4","2","763057278428647426","姚","698","","","","","","","","","","","","","","","","","","","","","","","","","","","","","","","","","","","","","","","","","",""
"752","<p style=""color:rgb(150, 250, 100); font-size: 35px;"">我</p>","e","categorize-html","72","178183","0.0-6.0-1.0-6.0-1.6","3","3","3","3","3","3","3","3","3","3","4","4","2","4","4","4","4","4","4","4","2","2","2","2","2","2","2","4","2","1","0","1","1","0","0","0","0","0","1","1","0","1","0","1","4","4","4","2","2","5","2","4","2","4","2","763057278428647426","姚","698","","","","","","","","","","","","","","","","","","","true","13","3","moral","752","self","我","","","","","","","","","","","","","","","","",""
"null","","null","html-keyboard-response","73","178435","0.0-6.0-1.0-6.0-0.7","3","3","3","3","3","3","3","3","3","3","4","4","2","4","4","4","4","4","4","4","2","2","2","2","2","2","2","4","2","1","0","1","1","0","0","0","0","0","1","1","0","1","0","1","4","4","4","2","2","5","2","4","2","4","2","763057278428647426","姚","698","","","","","","","","","","","","","","","","","","","","","","","","","","","","","","","","","","","","","","","","","",""
"705","<p style=""color:white; font-size: 35px;"">廉正</p>","e","categorize-html","74","179143","0.0-6.0-1.0-6.0-1.7","3","3","3","3","3","3","3","3","3","3","4","4","2","4","4","4","4","4","4","4","2","2","2","2","2","2","2","4","2","1","0","1","1","0","0","0","0","0","1","1","0","1","0","1","4","4","4","2","2","5","2","4","2","4","2","763057278428647426","姚","698","","","","","","","","","","","","","","","","","","","true","13","3","moral","705","positive","廉正","","","","","","","","","","","","","","","","",""
"null","","null","html-keyboard-response","75","179394","0.0-6.0-1.0-6.0-0.8","3","3","3","3","3","3","3","3","3","3","4","4","2","4","4","4","4","4","4","4","2","2","2","2","2","2","2","4","2","1","0","1","1","0","0","0","0","0","1","1","0","1","0","1","4","4","4","2","2","5","2","4","2","4","2","763057278428647426","姚","698","","","","","","","","","","","","","","","","","","","","","","","","","","","","","","","","","","","","","","","","","",""
"573","<p style=""color:rgb(150, 250, 100); font-size: 35px;"">别人的</p>","i","categorize-html","76","179970","0.0-6.0-1.0-6.0-1.8","3","3","3","3","3","3","3","3","3","3","4","4","2","4","4","4","4","4","4","4","2","2","2","2","2","2","2","4","2","1","0","1","1","0","0","0","0","0","1","1","0","1","0","1","4","4","4","2","2","5","2","4","2","4","2","763057278428647426","姚","698","","","","","","","","","","","","","","","","","","","true","13","3","moral","573","other","别人的","","","","","","","","","","","","","","","","",""
"null","","null","html-keyboard-response","77","180221","0.0-6.0-1.0-6.0-0.9","3","3","3","3","3","3","3","3","3","3","4","4","2","4","4","4","4","4","4","4","2","2","2","2","2","2","2","4","2","1","0","1","1","0","0","0","0","0","1","1","0","1","0","1","4","4","4","2","2","5","2","4","2","4","2","763057278428647426","姚","698","","","","","","","","","","","","","","","","","","","","","","","","","","","","","","","","","","","","","","","","","",""
"499","<p style=""color:white; font-size: 35px;"">小人</p>","i","categorize-html","78","180723","0.0-6.0-1.0-6.0-1.9","3","3","3","3","3","3","3","3","3","3","4","4","2","4","4","4","4","4","4","4","2","2","2","2","2","2","2","4","2","1","0","1","1","0","0","0","0","0","1","1","0","1","0","1","4","4","4","2","2","5","2","4","2","4","2","763057278428647426","姚","698","","","","","","","","","","","","","","","","","","","true","13","3","moral","499","negative","小人","","","","","","","","","","","","","","","","",""
"null","","null","html-keyboard-response","79","180974","0.0-6.0-1.0-6.0-0.10","3","3","3","3","3","3","3","3","3","3","4","4","2","4","4","4","4","4","4","4","2","2","2","2","2","2","2","4","2","1","0","1","1","0","0","0","0","0","1","1","0","1","0","1","4","4","4","2","2","5","2","4","2","4","2","763057278428647426","姚","698","","","","","","","","","","","","","","","","","","","","","","","","","","","","","","","","","","","","","","","","","",""
"512","<p style=""color:rgb(150, 250, 100); font-size: 35px;"">本人的</p>","e","categorize-html","80","181489","0.0-6.0-1.0-6.0-1.10","3","3","3","3","3","3","3","3","3","3","4","4","2","4","4","4","4","4","4","4","2","2","2","2","2","2","2","4","2","1","0","1","1","0","0","0","0","0","1","1","0","1","0","1","4","4","4","2","2","5","2","4","2","4","2","763057278428647426","姚","698","","","","","","","","","","","","","","","","","","","true","13","3","moral","512","self","本人的","","","","","","","","","","","","","","","","",""
"null","","null","html-keyboard-response","81","181740","0.0-6.0-1.0-6.0-0.11","3","3","3","3","3","3","3","3","3","3","4","4","2","4","4","4","4","4","4","4","2","2","2","2","2","2","2","4","2","1","0","1","1","0","0","0","0","0","1","1","0","1","0","1","4","4","4","2","2","5","2","4","2","4","2","763057278428647426","姚","698","","","","","","","","","","","","","","","","","","","","","","","","","","","","","","","","","","","","","","","","","",""
"607","<p style=""color:white; font-size: 35px;"">正直</p>","e","categorize-html","82","182349","0.0-6.0-1.0-6.0-1.11","3","3","3","3","3","3","3","3","3","3","4","4","2","4","4","4","4","4","4","4","2","2","2","2","2","2","2","4","2","1","0","1","1","0","0","0","0","0","1","1","0","1","0","1","4","4","4","2","2","5","2","4","2","4","2","763057278428647426","姚","698","","","","","","","","","","","","","","","","","","","true","13","3","moral","607","positive","正直","","","","","","","","","","","","","","","","",""
"null","","null","html-keyboard-response","83","182613","0.0-6.0-1.0-6.0-0.12","3","3","3","3","3","3","3","3","3","3","4","4","2","4","4","4","4","4","4","4","2","2","2","2","2","2","2","4","2","1","0","1","1","0","0","0","0","0","1","1","0","1","0","1","4","4","4","2","2","5","2","4","2","4","2","763057278428647426","姚","698","","","","","","","","","","","","","","","","","","","","","","","","","","","","","","","","","","","","","","","","","",""
"555","<p style=""color:rgb(150, 250, 100); font-size: 35px;"">自己</p>","e","categorize-html","84","183171","0.0-6.0-1.0-6.0-1.12","3","3","3","3","3","3","3","3","3","3","4","4","2","4","4","4","4","4","4","4","2","2","2","2","2","2","2","4","2","1","0","1","1","0","0","0","0","0","1","1","0","1","0","1","4","4","4","2","2","5","2","4","2","4","2","763057278428647426","姚","698","","","","","","","","","","","","","","","","","","","true","13","3","moral","555","self","自己","","","","","","","","","","","","","","","","",""
"null","","null","html-keyboard-response","85","183423","0.0-6.0-1.0-6.0-0.13","3","3","3","3","3","3","3","3","3","3","4","4","2","4","4","4","4","4","4","4","2","2","2","2","2","2","2","4","2","1","0","1","1","0","0","0","0","0","1","1","0","1","0","1","4","4","4","2","2","5","2","4","2","4","2","763057278428647426","姚","698","","","","","","","","","","","","","","","","","","","","","","","","","","","","","","","","","","","","","","","","","",""
"573","<p style=""color:white; font-size: 35px;"">不仁</p>","i","categorize-html","86","183998","0.0-6.0-1.0-6.0-1.13","3","3","3","3","3","3","3","3","3","3","4","4","2","4","4","4","4","4","4","4","2","2","2","2","2","2","2","4","2","1","0","1","1","0","0","0","0","0","1","1","0","1","0","1","4","4","4","2","2","5","2","4","2","4","2","763057278428647426","姚","698","","","","","","","","","","","","","","","","","","","true","13","3","moral","573","negative","不仁","","","","","","","","","","","","","","","","",""
"null","","null","html-keyboard-response","87","184249","0.0-6.0-1.0-6.0-0.14","3","3","3","3","3","3","3","3","3","3","4","4","2","4","4","4","4","4","4","4","2","2","2","2","2","2","2","4","2","1","0","1","1","0","0","0","0","0","1","1","0","1","0","1","4","4","4","2","2","5","2","4","2","4","2","763057278428647426","姚","698","","","","","","","","","","","","","","","","","","","","","","","","","","","","","","","","","","","","","","","","","",""
"701","<p style=""color:rgb(150, 250, 100); font-size: 35px;"">他人的</p>","i","categorize-html","88","184953","0.0-6.0-1.0-6.0-1.14","3","3","3","3","3","3","3","3","3","3","4","4","2","4","4","4","4","4","4","4","2","2","2","2","2","2","2","4","2","1","0","1","1","0","0","0","0","0","1","1","0","1","0","1","4","4","4","2","2","5","2","4","2","4","2","763057278428647426","姚","698","","","","","","","","","","","","","","","","","","","true","13","3","moral","701","other","他人的","","","","","","","","","","","","","","","","",""
"null","","null","html-keyboard-response","89","185204","0.0-6.0-1.0-6.0-0.15","3","3","3","3","3","3","3","3","3","3","4","4","2","4","4","4","4","4","4","4","2","2","2","2","2","2","2","4","2","1","0","1","1","0","0","0","0","0","1","1","0","1","0","1","4","4","4","2","2","5","2","4","2","4","2","763057278428647426","姚","698","","","","","","","","","","","","","","","","","","","","","","","","","","","","","","","","","","","","","","","","","",""
"716","<p style=""color:white; font-size: 35px;"">君子</p>","e","categorize-html","90","185924","0.0-6.0-1.0-6.0-1.15","3","3","3","3","3","3","3","3","3","3","4","4","2","4","4","4","4","4","4","4","2","2","2","2","2","2","2","4","2","1","0","1","1","0","0","0","0","0","1","1","0","1","0","1","4","4","4","2","2","5","2","4","2","4","2","763057278428647426","姚","698","","","","","","","","","","","","","","","","","","","true","13","3","moral","716","positive","君子","","","","","","","","","","","","","","","","",""
"null","","null","html-keyboard-response","91","186176","0.0-6.0-1.0-6.0-0.16","3","3","3","3","3","3","3","3","3","3","4","4","2","4","4","4","4","4","4","4","2","2","2","2","2","2","2","4","2","1","0","1","1","0","0","0","0","0","1","1","0","1","0","1","4","4","4","2","2","5","2","4","2","4","2","763057278428647426","姚","698","","","","","","","","","","","","","","","","","","","","","","","","","","","","","","","","","","","","","","","","","",""
"1291","<p style=""color:rgb(150, 250, 100); font-size: 35px;"">他的</p>","i","categorize-html","92","187470","0.0-6.0-1.0-6.0-1.16","3","3","3","3","3","3","3","3","3","3","4","4","2","4","4","4","4","4","4","4","2","2","2","2","2","2","2","4","2","1","0","1","1","0","0","0","0","0","1","1","0","1","0","1","4","4","4","2","2","5","2","4","2","4","2","763057278428647426","姚","698","","","","","","","","","","","","","","","","","","","true","13","3","moral","1291","other","他的","","","","","","","","","","","","","","","","",""
"null","","null","html-keyboard-response","93","187721","0.0-6.0-1.0-6.0-0.17","3","3","3","3","3","3","3","3","3","3","4","4","2","4","4","4","4","4","4","4","2","2","2","2","2","2","2","4","2","1","0","1","1","0","0","0","0","0","1","1","0","1","0","1","4","4","4","2","2","5","2","4","2","4","2","763057278428647426","姚","698","","","","","","","","","","","","","","","","","","","","","","","","","","","","","","","","","","","","","","","","","",""
"893","<p style=""color:white; font-size: 35px;"">不孝</p>","i","categorize-html","94","188617","0.0-6.0-1.0-6.0-1.17","3","3","3","3","3","3","3","3","3","3","4","4","2","4","4","4","4","4","4","4","2","2","2","2","2","2","2","4","2","1","0","1","1","0","0","0","0","0","1","1","0","1","0","1","4","4","4","2","2","5","2","4","2","4","2","763057278428647426","姚","698","","","","","","","","","","","","","","","","","","","true","13","3","moral","893","negative","不孝","","","","","","","","","","","","","","","","",""
"null","","null","html-keyboard-response","95","188868","0.0-6.0-1.0-6.0-0.18","3","3","3","3","3","3","3","3","3","3","4","4","2","4","4","4","4","4","4","4","2","2","2","2","2","2","2","4","2","1","0","1","1","0","0","0","0","0","1","1","0","1","0","1","4","4","4","2","2","5","2","4","2","4","2","763057278428647426","姚","698","","","","","","","","","","","","","","","","","","","","","","","","","","","","","","","","","","","","","","","","","",""
"645","<p style=""color:rgb(150, 250, 100); font-size: 35px;"">我的</p>","e","categorize-html","96","189516","0.0-6.0-1.0-6.0-1.18","3","3","3","3","3","3","3","3","3","3","4","4","2","4","4","4","4","4","4","4","2","2","2","2","2","2","2","4","2","1","0","1","1","0","0","0","0","0","1","1","0","1","0","1","4","4","4","2","2","5","2","4","2","4","2","763057278428647426","姚","698","","","","","","","","","","","","","","","","","","","true","13","3","moral","645","self","我的","","","","","","","","","","","","","","","","",""
"null","","null","html-keyboard-response","97","189768","0.0-6.0-1.0-6.0-0.19","3","3","3","3","3","3","3","3","3","3","4","4","2","4","4","4","4","4","4","4","2","2","2","2","2","2","2","4","2","1","0","1","1","0","0","0","0","0","1","1","0","1","0","1","4","4","4","2","2","5","2","4","2","4","2","763057278428647426","姚","698","","","","","","","","","","","","","","","","","","","","","","","","","","","","","","","","","","","","","","","","","",""
"576","<p style=""color:white; font-size: 35px;"">善良</p>","e","categorize-html","98","190347","0.0-6.0-1.0-6.0-1.19","3","3","3","3","3","3","3","3","3","3","4","4","2","4","4","4","4","4","4","4","2","2","2","2","2","2","2","4","2","1","0","1","1","0","0","0","0","0","1","1","0","1","0","1","4","4","4","2","2","5","2","4","2","4","2","763057278428647426","姚","698","","","","","","","","","","","","","","","","","","","true","13","3","moral","576","positive","善良","","","","","","","","","","","","","","","","",""
"null","","null","html-keyboard-response","99","190598","0.0-6.0-1.0-6.0-0.20","3","3","3","3","3","3","3","3","3","3","4","4","2","4","4","4","4","4","4","4","2","2","2","2","2","2","2","4","2","1","0","1","1","0","0","0","0","0","1","1","0","1","0","1","4","4","4","2","2","5","2","4","2","4","2","763057278428647426","姚","698","","","","","","","","","","","","","","","","","","","","","","","","","","","","","","","","","","","","","","","","","",""
"649","<p style=""color:rgb(150, 250, 100); font-size: 35px;"">他</p>","i","categorize-html","100","191249","0.0-6.0-1.0-6.0-1.20","3","3","3","3","3","3","3","3","3","3","4","4","2","4","4","4","4","4","4","4","2","2","2","2","2","2","2","4","2","1","0","1","1","0","0","0","0","0","1","1","0","1","0","1","4","4","4","2","2","5","2","4","2","4","2","763057278428647426","姚","698","","","","","","","","","","","","","","","","","","","true","13","3","moral","649","other","他","","","","","","","","","","","","","","","","",""
"null","","null","html-keyboard-response","101","191500","0.0-6.0-1.0-6.0-0.21","3","3","3","3","3","3","3","3","3","3","4","4","2","4","4","4","4","4","4","4","2","2","2","2","2","2","2","4","2","1","0","1","1","0","0","0","0","0","1","1","0","1","0","1","4","4","4","2","2","5","2","4","2","4","2","763057278428647426","姚","698","","","","","","","","","","","","","","","","","","","","","","","","","","","","","","","","","","","","","","","","","",""
"522","<p style=""color:white; font-size: 35px;"">黑心</p>","i","categorize-html","102","192025","0.0-6.0-1.0-6.0-1.21","3","3","3","3","3","3","3","3","3","3","4","4","2","4","4","4","4","4","4","4","2","2","2","2","2","2","2","4","2","1","0","1","1","0","0","0","0","0","1","1","0","1","0","1","4","4","4","2","2","5","2","4","2","4","2","763057278428647426","姚","698","","","","","","","","","","","","","","","","","","","true","13","3","moral","522","negative","黑心","","","","","","","","","","","","","","","","",""
"null","","null","html-keyboard-response","103","192276","0.0-6.0-1.0-6.0-0.22","3","3","3","3","3","3","3","3","3","3","4","4","2","4","4","4","4","4","4","4","2","2","2","2","2","2","2","4","2","1","0","1","1","0","0","0","0","0","1","1","0","1","0","1","4","4","4","2","2","5","2","4","2","4","2","763057278428647426","姚","698","","","","","","","","","","","","","","","","","","","","","","","","","","","","","","","","","","","","","","","","","",""
"574","<p style=""color:rgb(150, 250, 100); font-size: 35px;"">自己的</p>","e","categorize-html","104","192853","0.0-6.0-1.0-6.0-1.22","3","3","3","3","3","3","3","3","3","3","4","4","2","4","4","4","4","4","4","4","2","2","2","2","2","2","2","4","2","1","0","1","1","0","0","0","0","0","1","1","0","1","0","1","4","4","4","2","2","5","2","4","2","4","2","763057278428647426","姚","698","","","","","","","","","","","","","","","","","","","true","13","3","moral","574","self","自己的","","","","","","","","","","","","","","","","",""
"null","","null","html-keyboard-response","105","193104","0.0-6.0-1.0-6.0-0.23","3","3","3","3","3","3","3","3","3","3","4","4","2","4","4","4","4","4","4","4","2","2","2","2","2","2","2","4","2","1","0","1","1","0","0","0","0","0","1","1","0","1","0","1","4","4","4","2","2","5","2","4","2","4","2","763057278428647426","姚","698","","","","","","","","","","","","","","","","","","","","","","","","","","","","","","","","","","","","","","","","","",""
"541","<p style=""color:white; font-size: 35px;"">诚信</p>","e","categorize-html","106","193648","0.0-6.0-1.0-6.0-1.23","3","3","3","3","3","3","3","3","3","3","4","4","2","4","4","4","4","4","4","4","2","2","2","2","2","2","2","4","2","1","0","1","1","0","0","0","0","0","1","1","0","1","0","1","4","4","4","2","2","5","2","4","2","4","2","763057278428647426","姚","698","","","","","","","","","","","","","","","","","","","true","13","3","moral","541","positive","诚信","","","","","","","","","","","","","","","","",""
"7385","
    <div class=""tag-bottom""><p>
    —— 任务4：对“自我/积极”词和“他人/消极”词分类 ——<p/>
    <span style=""color:#78DCE8""><b>与刚才的任务完全相同，请再次对这四类词语分类</b></span><p/>
    <span style=""color:#FFD866""><b>请根据上方标签的提示，尽可能正确并且快速地做出按键反应</b></span><p/>
    当按键错误时屏幕中会出现<span style=""color:red""> X </span>，需要按另一个键纠正才能继续<br/><p/>
    请把双手食指分别放在键盘的“E”键和“I”键上<p/>
    按<空格键>开始
    </p></div>"," ","html-keyboard-response","107","201033","0.0-6.0-1.0-7.0","3","3","3","3","3","3","3","3","3","3","4","4","2","4","4","4","4","4","4","4","2","2","2","2","2","2","2","4","2","1","0","1","1","0","0","0","0","0","1","1","0","1","0","1","4","4","4","2","2","5","2","4","2","4","2","763057278428647426","姚","698","","","","","","","","","","","","","","","","","","","","","","","","","","","","","","","","","","","","","","","","","",""
"null","","null","html-keyboard-response","108","201285","0.0-6.0-1.0-8.0-0.0","3","3","3","3","3","3","3","3","3","3","4","4","2","4","4","4","4","4","4","4","2","2","2","2","2","2","2","4","2","1","0","1","1","0","0","0","0","0","1","1","0","1","0","1","4","4","4","2","2","5","2","4","2","4","2","763057278428647426","姚","698","","","","","","","","","","","","","","","","","","","","","","","","","","","","","","","","","","","","","","","","","",""
"653","<p style=""color:rgb(150, 250, 100); font-size: 35px;"">别人</p>","i","categorize-html","109","201941","0.0-6.0-1.0-8.0-1.0","3","3","3","3","3","3","3","3","3","3","4","4","2","4","4","4","4","4","4","4","2","2","2","2","2","2","2","4","2","1","0","1","1","0","0","0","0","0","1","1","0","1","0","1","4","4","4","2","2","5","2","4","2","4","2","763057278428647426","姚","698","","","","","","","","","","","","","","","","","","","true","14","4","moral","653","other","别人","","","","","","","","","","","","","","","","",""
"null","","null","html-keyboard-response","110","202192","0.0-6.0-1.0-8.0-0.1","3","3","3","3","3","3","3","3","3","3","4","4","2","4","4","4","4","4","4","4","2","2","2","2","2","2","2","4","2","1","0","1","1","0","0","0","0","0","1","1","0","1","0","1","4","4","4","2","2","5","2","4","2","4","2","763057278428647426","姚","698","","","","","","","","","","","","","","","","","","","","","","","","","","","","","","","","","","","","","","","","","",""
"457","<p style=""color:white; font-size: 35px;"">不孝</p>","i","categorize-html","111","202652","0.0-6.0-1.0-8.0-1.1","3","3","3","3","3","3","3","3","3","3","4","4","2","4","4","4","4","4","4","4","2","2","2","2","2","2","2","4","2","1","0","1","1","0","0","0","0","0","1","1","0","1","0","1","4","4","4","2","2","5","2","4","2","4","2","763057278428647426","姚","698","","","","","","","","","","","","","","","","","","","true","14","4","moral","457","negative","不孝","","","","","","","","","","","","","","","","",""
"null","","null","html-keyboard-response","112","202904","0.0-6.0-1.0-8.0-0.2","3","3","3","3","3","3","3","3","3","3","4","4","2","4","4","4","4","4","4","4","2","2","2","2","2","2","2","4","2","1","0","1","1","0","0","0","0","0","1","1","0","1","0","1","4","4","4","2","2","5","2","4","2","4","2","763057278428647426","姚","698","","","","","","","","","","","","","","","","","","","","","","","","","","","","","","","","","","","","","","","","","",""
"550","<p style=""color:rgb(150, 250, 100); font-size: 35px;"">本人</p>","e","categorize-html","113","203457","0.0-6.0-1.0-8.0-1.2","3","3","3","3","3","3","3","3","3","3","4","4","2","4","4","4","4","4","4","4","2","2","2","2","2","2","2","4","2","1","0","1","1","0","0","0","0","0","1","1","0","1","0","1","4","4","4","2","2","5","2","4","2","4","2","763057278428647426","姚","698","","","","","","","","","","","","","","","","","","","true","14","4","moral","550","self","本人","","","","","","","","","","","","","","","","",""
"null","","null","html-keyboard-response","114","203708","0.0-6.0-1.0-8.0-0.3","3","3","3","3","3","3","3","3","3","3","4","4","2","4","4","4","4","4","4","4","2","2","2","2","2","2","2","4","2","1","0","1","1","0","0","0","0","0","1","1","0","1","0","1","4","4","4","2","2","5","2","4","2","4","2","763057278428647426","姚","698","","","","","","","","","","","","","","","","","","","","","","","","","","","","","","","","","","","","","","","","","",""
"602","<p style=""color:white; font-size: 35px;"">廉正</p>","e","categorize-html","115","204311","0.0-6.0-1.0-8.0-1.3","3","3","3","3","3","3","3","3","3","3","4","4","2","4","4","4","4","4","4","4","2","2","2","2","2","2","2","4","2","1","0","1","1","0","0","0","0","0","1","1","0","1","0","1","4","4","4","2","2","5","2","4","2","4","2","763057278428647426","姚","698","","","","","","","","","","","","","","","","","","","true","14","4","moral","602","positive","廉正","","","","","","","","","","","","","","","","",""
"null","","null","html-keyboard-response","116","204562","0.0-6.0-1.0-8.0-0.4","3","3","3","3","3","3","3","3","3","3","4","4","2","4","4","4","4","4","4","4","2","2","2","2","2","2","2","4","2","1","0","1","1","0","0","0","0","0","1","1","0","1","0","1","4","4","4","2","2","5","2","4","2","4","2","763057278428647426","姚","698","","","","","","","","","","","","","","","","","","","","","","","","","","","","","","","","","","","","","","","","","",""
"590","<p style=""color:rgb(150, 250, 100); font-size: 35px;"">他人</p>","i","categorize-html","117","205155","0.0-6.0-1.0-8.0-1.4","3","3","3","3","3","3","3","3","3","3","4","4","2","4","4","4","4","4","4","4","2","2","2","2","2","2","2","4","2","1","0","1","1","0","0","0","0","0","1","1","0","1","0","1","4","4","4","2","2","5","2","4","2","4","2","763057278428647426","姚","698","","","","","","","","","","","","","","","","","","","true","14","4","moral","590","other","他人","","","","","","","","","","","","","","","","",""
"null","","null","html-keyboard-response","118","205406","0.0-6.0-1.0-8.0-0.5","3","3","3","3","3","3","3","3","3","3","4","4","2","4","4","4","4","4","4","4","2","2","2","2","2","2","2","4","2","1","0","1","1","0","0","0","0","0","1","1","0","1","0","1","4","4","4","2","2","5","2","4","2","4","2","763057278428647426","姚","698","","","","","","","","","","","","","","","","","","","","","","","","","","","","","","","","","","","","","","","","","",""
"526","<p style=""color:white; font-size: 35px;"">诚信</p>","e","categorize-html","119","205936","0.0-6.0-1.0-8.0-1.5","3","3","3","3","3","3","3","3","3","3","4","4","2","4","4","4","4","4","4","4","2","2","2","2","2","2","2","4","2","1","0","1","1","0","0","0","0","0","1","1","0","1","0","1","4","4","4","2","2","5","2","4","2","4","2","763057278428647426","姚","698","","","","","","","","","","","","","","","","","","","true","14","4","moral","526","positive","诚信","","","","","","","","","","","","","","","","",""
"null","","null","html-keyboard-response","120","206200","0.0-6.0-1.0-8.0-0.6","3","3","3","3","3","3","3","3","3","3","4","4","2","4","4","4","4","4","4","4","2","2","2","2","2","2","2","4","2","1","0","1","1","0","0","0","0","0","1","1","0","1","0","1","4","4","4","2","2","5","2","4","2","4","2","763057278428647426","姚","698","","","","","","","","","","","","","","","","","","","","","","","","","","","","","","","","","","","","","","","","","",""
"577","<p style=""color:rgb(150, 250, 100); font-size: 35px;"">本人的</p>","e","categorize-html","121","206778","0.0-6.0-1.0-8.0-1.6","3","3","3","3","3","3","3","3","3","3","4","4","2","4","4","4","4","4","4","4","2","2","2","2","2","2","2","4","2","1","0","1","1","0","0","0","0","0","1","1","0","1","0","1","4","4","4","2","2","5","2","4","2","4","2","763057278428647426","姚","698","","","","","","","","","","","","","","","","","","","true","14","4","moral","577","self","本人的","","","","","","","","","","","","","","","","",""
"null","","null","html-keyboard-response","122","207029","0.0-6.0-1.0-8.0-0.7","3","3","3","3","3","3","3","3","3","3","4","4","2","4","4","4","4","4","4","4","2","2","2","2","2","2","2","4","2","1","0","1","1","0","0","0","0","0","1","1","0","1","0","1","4","4","4","2","2","5","2","4","2","4","2","763057278428647426","姚","698","","","","","","","","","","","","","","","","","","","","","","","","","","","","","","","","","","","","","","","","","",""
"559","<p style=""color:white; font-size: 35px;"">卑鄙</p>","i","categorize-html","123","207589","0.0-6.0-1.0-8.0-1.7","3","3","3","3","3","3","3","3","3","3","4","4","2","4","4","4","4","4","4","4","2","2","2","2","2","2","2","4","2","1","0","1","1","0","0","0","0","0","1","1","0","1","0","1","4","4","4","2","2","5","2","4","2","4","2","763057278428647426","姚","698","","","","","","","","","","","","","","","","","","","true","14","4","moral","559","negative","卑鄙","","","","","","","","","","","","","","","","",""
"null","","null","html-keyboard-response","124","207841","0.0-6.0-1.0-8.0-0.8","3","3","3","3","3","3","3","3","3","3","4","4","2","4","4","4","4","4","4","4","2","2","2","2","2","2","2","4","2","1","0","1","1","0","0","0","0","0","1","1","0","1","0","1","4","4","4","2","2","5","2","4","2","4","2","763057278428647426","姚","698","","","","","","","","","","","","","","","","","","","","","","","","","","","","","","","","","","","","","","","","","",""
"937","<p style=""color:rgb(150, 250, 100); font-size: 35px;"">他人的</p>","i","categorize-html","125","208780","0.0-6.0-1.0-8.0-1.8","3","3","3","3","3","3","3","3","3","3","4","4","2","4","4","4","4","4","4","4","2","2","2","2","2","2","2","4","2","1","0","1","1","0","0","0","0","0","1","1","0","1","0","1","4","4","4","2","2","5","2","4","2","4","2","763057278428647426","姚","698","","","","","","","","","","","","","","","","","","","true","14","4","moral","937","other","他人的","","","","","","","","","","","","","","","","",""
"null","","null","html-keyboard-response","126","209032","0.0-6.0-1.0-8.0-0.9","3","3","3","3","3","3","3","3","3","3","4","4","2","4","4","4","4","4","4","4","2","2","2","2","2","2","2","4","2","1","0","1","1","0","0","0","0","0","1","1","0","1","0","1","4","4","4","2","2","5","2","4","2","4","2","763057278428647426","姚","698","","","","","","","","","","","","","","","","","","","","","","","","","","","","","","","","","","","","","","","","","",""
"525","<p style=""color:white; font-size: 35px;"">正直</p>","e","categorize-html","127","209559","0.0-6.0-1.0-8.0-1.9","3","3","3","3","3","3","3","3","3","3","4","4","2","4","4","4","4","4","4","4","2","2","2","2","2","2","2","4","2","1","0","1","1","0","0","0","0","0","1","1","0","1","0","1","4","4","4","2","2","5","2","4","2","4","2","763057278428647426","姚","698","","","","","","","","","","","","","","","","","","","true","14","4","moral","525","positive","正直","","","","","","","","","","","","","","","","",""
"null","","null","html-keyboard-response","128","209810","0.0-6.0-1.0-8.0-0.10","3","3","3","3","3","3","3","3","3","3","4","4","2","4","4","4","4","4","4","4","2","2","2","2","2","2","2","4","2","1","0","1","1","0","0","0","0","0","1","1","0","1","0","1","4","4","4","2","2","5","2","4","2","4","2","763057278428647426","姚","698","","","","","","","","","","","","","","","","","","","","","","","","","","","","","","","","","","","","","","","","","",""
"819","<p style=""color:rgb(150, 250, 100); font-size: 35px;"">自己的</p>","e","categorize-html","129","210632","0.0-6.0-1.0-8.0-1.10","3","3","3","3","3","3","3","3","3","3","4","4","2","4","4","4","4","4","4","4","2","2","2","2","2","2","2","4","2","1","0","1","1","0","0","0","0","0","1","1","0","1","0","1","4","4","4","2","2","5","2","4","2","4","2","763057278428647426","姚","698","","","","","","","","","","","","","","","","","","","true","14","4","moral","819","self","自己的","","","","","","","","","","","","","","","","",""
"null","","null","html-keyboard-response","130","210885","0.0-6.0-1.0-8.0-0.11","3","3","3","3","3","3","3","3","3","3","4","4","2","4","4","4","4","4","4","4","2","2","2","2","2","2","2","4","2","1","0","1","1","0","0","0","0","0","1","1","0","1","0","1","4","4","4","2","2","5","2","4","2","4","2","763057278428647426","姚","698","","","","","","","","","","","","","","","","","","","","","","","","","","","","","","","","","","","","","","","","","",""
"631","<p style=""color:white; font-size: 35px;"">缺德</p>","i","categorize-html","131","211519","0.0-6.0-1.0-8.0-1.11","3","3","3","3","3","3","3","3","3","3","4","4","2","4","4","4","4","4","4","4","2","2","2","2","2","2","2","4","2","1","0","1","1","0","0","0","0","0","1","1","0","1","0","1","4","4","4","2","2","5","2","4","2","4","2","763057278428647426","姚","698","","","","","","","","","","","","","","","","","","","true","14","4","moral","631","negative","缺德","","","","","","","","","","","","","","","","",""
"null","","null","html-keyboard-response","132","211772","0.0-6.0-1.0-8.0-0.12","3","3","3","3","3","3","3","3","3","3","4","4","2","4","4","4","4","4","4","4","2","2","2","2","2","2","2","4","2","1","0","1","1","0","0","0","0","0","1","1","0","1","0","1","4","4","4","2","2","5","2","4","2","4","2","763057278428647426","姚","698","","","","","","","","","","","","","","","","","","","","","","","","","","","","","","","","","","","","","","","","","",""
"766","<p style=""color:rgb(150, 250, 100); font-size: 35px;"">他人</p>","i","categorize-html","133","212540","0.0-6.0-1.0-8.0-1.12","3","3","3","3","3","3","3","3","3","3","4","4","2","4","4","4","4","4","4","4","2","2","2","2","2","2","2","4","2","1","0","1","1","0","0","0","0","0","1","1","0","1","0","1","4","4","4","2","2","5","2","4","2","4","2","763057278428647426","姚","698","","","","","","","","","","","","","","","","","","","true","14","4","moral","766","other","他人","","","","","","","","","","","","","","","","",""
"null","","null","html-keyboard-response","134","212791","0.0-6.0-1.0-8.0-0.13","3","3","3","3","3","3","3","3","3","3","4","4","2","4","4","4","4","4","4","4","2","2","2","2","2","2","2","4","2","1","0","1","1","0","0","0","0","0","1","1","0","1","0","1","4","4","4","2","2","5","2","4","2","4","2","763057278428647426","姚","698","","","","","","","","","","","","","","","","","","","","","","","","","","","","","","","","","","","","","","","","","",""
"577","<p style=""color:white; font-size: 35px;"">不仁</p>","i","categorize-html","135","213371","0.0-6.0-1.0-8.0-1.13","3","3","3","3","3","3","3","3","3","3","4","4","2","4","4","4","4","4","4","4","2","2","2","2","2","2","2","4","2","1","0","1","1","0","0","0","0","0","1","1","0","1","0","1","4","4","4","2","2","5","2","4","2","4","2","763057278428647426","姚","698","","","","","","","","","","","","","","","","","","","true","14","4","moral","577","negative","不仁","","","","","","","","","","","","","","","","",""
"null","","null","html-keyboard-response","136","213622","0.0-6.0-1.0-8.0-0.14","3","3","3","3","3","3","3","3","3","3","4","4","2","4","4","4","4","4","4","4","2","2","2","2","2","2","2","4","2","1","0","1","1","0","0","0","0","0","1","1","0","1","0","1","4","4","4","2","2","5","2","4","2","4","2","763057278428647426","姚","698","","","","","","","","","","","","","","","","","","","","","","","","","","","","","","","","","","","","","","","","","",""
"477","<p style=""color:rgb(150, 250, 100); font-size: 35px;"">我</p>","e","categorize-html","137","214101","0.0-6.0-1.0-8.0-1.14","3","3","3","3","3","3","3","3","3","3","4","4","2","4","4","4","4","4","4","4","2","2","2","2","2","2","2","4","2","1","0","1","1","0","0","0","0","0","1","1","0","1","0","1","4","4","4","2","2","5","2","4","2","4","2","763057278428647426","姚","698","","","","","","","","","","","","","","","","","","","true","14","4","moral","477","self","我","","","","","","","","","","","","","","","","",""
"null","","null","html-keyboard-response","138","214353","0.0-6.0-1.0-8.0-0.15","3","3","3","3","3","3","3","3","3","3","4","4","2","4","4","4","4","4","4","4","2","2","2","2","2","2","2","4","2","1","0","1","1","0","0","0","0","0","1","1","0","1","0","1","4","4","4","2","2","5","2","4","2","4","2","763057278428647426","姚","698","","","","","","","","","","","","","","","","","","","","","","","","","","","","","","","","","","","","","","","","","",""
"536","<p style=""color:white; font-size: 35px;"">廉正</p>","e","categorize-html","139","214892","0.0-6.0-1.0-8.0-1.15","3","3","3","3","3","3","3","3","3","3","4","4","2","4","4","4","4","4","4","4","2","2","2","2","2","2","2","4","2","1","0","1","1","0","0","0","0","0","1","1","0","1","0","1","4","4","4","2","2","5","2","4","2","4","2","763057278428647426","姚","698","","","","","","","","","","","","","","","","","","","true","14","4","moral","536","positive","廉正","","","","","","","","","","","","","","","","",""
"null","","null","html-keyboard-response","140","215143","0.0-6.0-1.0-8.0-0.16","3","3","3","3","3","3","3","3","3","3","4","4","2","4","4","4","4","4","4","4","2","2","2","2","2","2","2","4","2","1","0","1","1","0","0","0","0","0","1","1","0","1","0","1","4","4","4","2","2","5","2","4","2","4","2","763057278428647426","姚","698","","","","","","","","","","","","","","","","","","","","","","","","","","","","","","","","","","","","","","","","","",""
"503","<p style=""color:rgb(150, 250, 100); font-size: 35px;"">本人的</p>","e","categorize-html","141","215649","0.0-6.0-1.0-8.0-1.16","3","3","3","3","3","3","3","3","3","3","4","4","2","4","4","4","4","4","4","4","2","2","2","2","2","2","2","4","2","1","0","1","1","0","0","0","0","0","1","1","0","1","0","1","4","4","4","2","2","5","2","4","2","4","2","763057278428647426","姚","698","","","","","","","","","","","","","","","","","","","true","14","4","moral","503","self","本人的","","","","","","","","","","","","","","","","",""
"null","","null","html-keyboard-response","142","215901","0.0-6.0-1.0-8.0-0.17","3","3","3","3","3","3","3","3","3","3","4","4","2","4","4","4","4","4","4","4","2","2","2","2","2","2","2","4","2","1","0","1","1","0","0","0","0","0","1","1","0","1","0","1","4","4","4","2","2","5","2","4","2","4","2","763057278428647426","姚","698","","","","","","","","","","","","","","","","","","","","","","","","","","","","","","","","","","","","","","","","","",""
"542","<p style=""color:white; font-size: 35px;"">不孝</p>","i","categorize-html","143","216445","0.0-6.0-1.0-8.0-1.17","3","3","3","3","3","3","3","3","3","3","4","4","2","4","4","4","4","4","4","4","2","2","2","2","2","2","2","4","2","1","0","1","1","0","0","0","0","0","1","1","0","1","0","1","4","4","4","2","2","5","2","4","2","4","2","763057278428647426","姚","698","","","","","","","","","","","","","","","","","","","true","14","4","moral","542","negative","不孝","","","","","","","","","","","","","","","","",""
"null","","null","html-keyboard-response","144","216696","0.0-6.0-1.0-8.0-0.18","3","3","3","3","3","3","3","3","3","3","4","4","2","4","4","4","4","4","4","4","2","2","2","2","2","2","2","4","2","1","0","1","1","0","0","0","0","0","1","1","0","1","0","1","4","4","4","2","2","5","2","4","2","4","2","763057278428647426","姚","698","","","","","","","","","","","","","","","","","","","","","","","","","","","","","","","","","","","","","","","","","",""
"808","<p style=""color:rgb(150, 250, 100); font-size: 35px;"">他</p>","i","categorize-html","145","217507","0.0-6.0-1.0-8.0-1.18","3","3","3","3","3","3","3","3","3","3","4","4","2","4","4","4","4","4","4","4","2","2","2","2","2","2","2","4","2","1","0","1","1","0","0","0","0","0","1","1","0","1","0","1","4","4","4","2","2","5","2","4","2","4","2","763057278428647426","姚","698","","","","","","","","","","","","","","","","","","","true","14","4","moral","808","other","他","","","","","","","","","","","","","","","","",""
"null","","null","html-keyboard-response","146","217757","0.0-6.0-1.0-8.0-0.19","3","3","3","3","3","3","3","3","3","3","4","4","2","4","4","4","4","4","4","4","2","2","2","2","2","2","2","4","2","1","0","1","1","0","0","0","0","0","1","1","0","1","0","1","4","4","4","2","2","5","2","4","2","4","2","763057278428647426","姚","698","","","","","","","","","","","","","","","","","","","","","","","","","","","","","","","","","","","","","","","","","",""
"564","<p style=""color:white; font-size: 35px;"">高尚</p>","e","categorize-html","147","218323","0.0-6.0-1.0-8.0-1.19","3","3","3","3","3","3","3","3","3","3","4","4","2","4","4","4","4","4","4","4","2","2","2","2","2","2","2","4","2","1","0","1","1","0","0","0","0","0","1","1","0","1","0","1","4","4","4","2","2","5","2","4","2","4","2","763057278428647426","姚","698","","","","","","","","","","","","","","","","","","","true","14","4","moral","564","positive","高尚","","","","","","","","","","","","","","","","",""
"null","","null","html-keyboard-response","148","218574","0.0-6.0-1.0-8.0-0.20","3","3","3","3","3","3","3","3","3","3","4","4","2","4","4","4","4","4","4","4","2","2","2","2","2","2","2","4","2","1","0","1","1","0","0","0","0","0","1","1","0","1","0","1","4","4","4","2","2","5","2","4","2","4","2","763057278428647426","姚","698","","","","","","","","","","","","","","","","","","","","","","","","","","","","","","","","","","","","","","","","","",""
"636","<p style=""color:rgb(150, 250, 100); font-size: 35px;"">自己的</p>","e","categorize-html","149","219214","0.0-6.0-1.0-8.0-1.20","3","3","3","3","3","3","3","3","3","3","4","4","2","4","4","4","4","4","4","4","2","2","2","2","2","2","2","4","2","1","0","1","1","0","0","0","0","0","1","1","0","1","0","1","4","4","4","2","2","5","2","4","2","4","2","763057278428647426","姚","698","","","","","","","","","","","","","","","","","","","true","14","4","moral","636","self","自己的","","","","","","","","","","","","","","","","",""
"null","","null","html-keyboard-response","150","219466","0.0-6.0-1.0-8.0-0.21","3","3","3","3","3","3","3","3","3","3","4","4","2","4","4","4","4","4","4","4","2","2","2","2","2","2","2","4","2","1","0","1","1","0","0","0","0","0","1","1","0","1","0","1","4","4","4","2","2","5","2","4","2","4","2","763057278428647426","姚","698","","","","","","","","","","","","","","","","","","","","","","","","","","","","","","","","","","","","","","","","","",""
"481","<p style=""color:white; font-size: 35px;"">黑心</p>","i","categorize-html","151","219949","0.0-6.0-1.0-8.0-1.21","3","3","3","3","3","3","3","3","3","3","4","4","2","4","4","4","4","4","4","4","2","2","2","2","2","2","2","4","2","1","0","1","1","0","0","0","0","0","1","1","0","1","0","1","4","4","4","2","2","5","2","4","2","4","2","763057278428647426","姚","698","","","","","","","","","","","","","","","","","","","true","14","4","moral","481","negative","黑心","","","","","","","","","","","","","","","","",""
"null","","null","html-keyboard-response","152","220200","0.0-6.0-1.0-8.0-0.22","3","3","3","3","3","3","3","3","3","3","4","4","2","4","4","4","4","4","4","4","2","2","2","2","2","2","2","4","2","1","0","1","1","0","0","0","0","0","1","1","0","1","0","1","4","4","4","2","2","5","2","4","2","4","2","763057278428647426","姚","698","","","","","","","","","","","","","","","","","","","","","","","","","","","","","","","","","","","","","","","","","",""
"711","<p style=""color:rgb(150, 250, 100); font-size: 35px;"">他</p>","i","categorize-html","153","220913","0.0-6.0-1.0-8.0-1.22","3","3","3","3","3","3","3","3","3","3","4","4","2","4","4","4","4","4","4","4","2","2","2","2","2","2","2","4","2","1","0","1","1","0","0","0","0","0","1","1","0","1","0","1","4","4","4","2","2","5","2","4","2","4","2","763057278428647426","姚","698","","","","","","","","","","","","","","","","","","","true","14","4","moral","711","other","他","","","","","","","","","","","","","","","","",""
"null","","null","html-keyboard-response","154","221164","0.0-6.0-1.0-8.0-0.23","3","3","3","3","3","3","3","3","3","3","4","4","2","4","4","4","4","4","4","4","2","2","2","2","2","2","2","4","2","1","0","1","1","0","0","0","0","0","1","1","0","1","0","1","4","4","4","2","2","5","2","4","2","4","2","763057278428647426","姚","698","","","","","","","","","","","","","","","","","","","","","","","","","","","","","","","","","","","","","","","","","",""
"794","<p style=""color:white; font-size: 35px;"">正直</p>","e","categorize-html","155","221962","0.0-6.0-1.0-8.0-1.23","3","3","3","3","3","3","3","3","3","3","4","4","2","4","4","4","4","4","4","4","2","2","2","2","2","2","2","4","2","1","0","1","1","0","0","0","0","0","1","1","0","1","0","1","4","4","4","2","2","5","2","4","2","4","2","763057278428647426","姚","698","","","","","","","","","","","","","","","","","","","true","14","4","moral","794","positive","正直","","","","","","","","","","","","","","","","",""
"null","","null","html-keyboard-response","156","222213","0.0-6.0-1.0-8.0-0.24","3","3","3","3","3","3","3","3","3","3","4","4","2","4","4","4","4","4","4","4","2","2","2","2","2","2","2","4","2","1","0","1","1","0","0","0","0","0","1","1","0","1","0","1","4","4","4","2","2","5","2","4","2","4","2","763057278428647426","姚","698","","","","","","","","","","","","","","","","","","","","","","","","","","","","","","","","","","","","","","","","","",""
"1360","<p style=""color:rgb(150, 250, 100); font-size: 35px;"">他人的</p>","i","categorize-html","157","223576","0.0-6.0-1.0-8.0-1.24","3","3","3","3","3","3","3","3","3","3","4","4","2","4","4","4","4","4","4","4","2","2","2","2","2","2","2","4","2","1","0","1","1","0","0","0","0","0","1","1","0","1","0","1","4","4","4","2","2","5","2","4","2","4","2","763057278428647426","姚","698","","","","","","","","","","","","","","","","","","","true","14","4","moral","1360","other","他人的","","","","","","","","","","","","","","","","",""
"null","","null","html-keyboard-response","158","223827","0.0-6.0-1.0-8.0-0.25","3","3","3","3","3","3","3","3","3","3","4","4","2","4","4","4","4","4","4","4","2","2","2","2","2","2","2","4","2","1","0","1","1","0","0","0","0","0","1","1","0","1","0","1","4","4","4","2","2","5","2","4","2","4","2","763057278428647426","姚","698","","","","","","","","","","","","","","","","","","","","","","","","","","","","","","","","","","","","","","","","","",""
"546","<p style=""color:white; font-size: 35px;"">小人</p>","i","categorize-html","159","224376","0.0-6.0-1.0-8.0-1.25","3","3","3","3","3","3","3","3","3","3","4","4","2","4","4","4","4","4","4","4","2","2","2","2","2","2","2","4","2","1","0","1","1","0","0","0","0","0","1","1","0","1","0","1","4","4","4","2","2","5","2","4","2","4","2","763057278428647426","姚","698","","","","","","","","","","","","","","","","","","","true","14","4","moral","546","negative","小人","","","","","","","","","","","","","","","","",""
"null","","null","html-keyboard-response","160","224628","0.0-6.0-1.0-8.0-0.26","3","3","3","3","3","3","3","3","3","3","4","4","2","4","4","4","4","4","4","4","2","2","2","2","2","2","2","4","2","1","0","1","1","0","0","0","0","0","1","1","0","1","0","1","4","4","4","2","2","5","2","4","2","4","2","763057278428647426","姚","698","","","","","","","","","","","","","","","","","","","","","","","","","","","","","","","","","","","","","","","","","",""
"536","<p style=""color:rgb(150, 250, 100); font-size: 35px;"">本人</p>","e","categorize-html","161","225166","0.0-6.0-1.0-8.0-1.26","3","3","3","3","3","3","3","3","3","3","4","4","2","4","4","4","4","4","4","4","2","2","2","2","2","2","2","4","2","1","0","1","1","0","0","0","0","0","1","1","0","1","0","1","4","4","4","2","2","5","2","4","2","4","2","763057278428647426","姚","698","","","","","","","","","","","","","","","","","","","true","14","4","moral","536","self","本人","","","","","","","","","","","","","","","","",""
"null","","null","html-keyboard-response","162","225417","0.0-6.0-1.0-8.0-0.27","3","3","3","3","3","3","3","3","3","3","4","4","2","4","4","4","4","4","4","4","2","2","2","2","2","2","2","4","2","1","0","1","1","0","0","0","0","0","1","1","0","1","0","1","4","4","4","2","2","5","2","4","2","4","2","763057278428647426","姚","698","","","","","","","","","","","","","","","","","","","","","","","","","","","","","","","","","","","","","","","","","",""
"538","<p style=""color:white; font-size: 35px;"">善良</p>","e","categorize-html","163","225958","0.0-6.0-1.0-8.0-1.27","3","3","3","3","3","3","3","3","3","3","4","4","2","4","4","4","4","4","4","4","2","2","2","2","2","2","2","4","2","1","0","1","1","0","0","0","0","0","1","1","0","1","0","1","4","4","4","2","2","5","2","4","2","4","2","763057278428647426","姚","698","","","","","","","","","","","","","","","","","","","true","14","4","moral","538","positive","善良","","","","","","","","","","","","","","","","",""
"null","","null","html-keyboard-response","164","226209","0.0-6.0-1.0-8.0-0.28","3","3","3","3","3","3","3","3","3","3","4","4","2","4","4","4","4","4","4","4","2","2","2","2","2","2","2","4","2","1","0","1","1","0","0","0","0","0","1","1","0","1","0","1","4","4","4","2","2","5","2","4","2","4","2","763057278428647426","姚","698","","","","","","","","","","","","","","","","","","","","","","","","","","","","","","","","","","","","","","","","","",""
"783","<p style=""color:rgb(150, 250, 100); font-size: 35px;"">别人的</p>","i","categorize-html","165","226993","0.0-6.0-1.0-8.0-1.28","3","3","3","3","3","3","3","3","3","3","4","4","2","4","4","4","4","4","4","4","2","2","2","2","2","2","2","4","2","1","0","1","1","0","0","0","0","0","1","1","0","1","0","1","4","4","4","2","2","5","2","4","2","4","2","763057278428647426","姚","698","","","","","","","","","","","","","","","","","","","true","14","4","moral","783","other","别人的","","","","","","","","","","","","","","","","",""
"null","","null","html-keyboard-response","166","227244","0.0-6.0-1.0-8.0-0.29","3","3","3","3","3","3","3","3","3","3","4","4","2","4","4","4","4","4","4","4","2","2","2","2","2","2","2","4","2","1","0","1","1","0","0","0","0","0","1","1","0","1","0","1","4","4","4","2","2","5","2","4","2","4","2","763057278428647426","姚","698","","","","","","","","","","","","","","","","","","","","","","","","","","","","","","","","","","","","","","","","","",""
"463","<p style=""color:white; font-size: 35px;"">小人</p>","i","categorize-html","167","227708","0.0-6.0-1.0-8.0-1.29","3","3","3","3","3","3","3","3","3","3","4","4","2","4","4","4","4","4","4","4","2","2","2","2","2","2","2","4","2","1","0","1","1","0","0","0","0","0","1","1","0","1","0","1","4","4","4","2","2","5","2","4","2","4","2","763057278428647426","姚","698","","","","","","","","","","","","","","","","","","","true","14","4","moral","463","negative","小人","","","","","","","","","","","","","","","","",""
"null","","null","html-keyboard-response","168","227960","0.0-6.0-1.0-8.0-0.30","3","3","3","3","3","3","3","3","3","3","4","4","2","4","4","4","4","4","4","4","2","2","2","2","2","2","2","4","2","1","0","1","1","0","0","0","0","0","1","1","0","1","0","1","4","4","4","2","2","5","2","4","2","4","2","763057278428647426","姚","698","","","","","","","","","","","","","","","","","","","","","","","","","","","","","","","","","","","","","","","","","",""
"458","<p style=""color:rgb(150, 250, 100); font-size: 35px;"">自己</p>","e","categorize-html","169","228419","0.0-6.0-1.0-8.0-1.30","3","3","3","3","3","3","3","3","3","3","4","4","2","4","4","4","4","4","4","4","2","2","2","2","2","2","2","4","2","1","0","1","1","0","0","0","0","0","1","1","0","1","0","1","4","4","4","2","2","5","2","4","2","4","2","763057278428647426","姚","698","","","","","","","","","","","","","","","","","","","true","14","4","moral","458","self","自己","","","","","","","","","","","","","","","","",""
"null","","null","html-keyboard-response","170","228670","0.0-6.0-1.0-8.0-0.31","3","3","3","3","3","3","3","3","3","3","4","4","2","4","4","4","4","4","4","4","2","2","2","2","2","2","2","4","2","1","0","1","1","0","0","0","0","0","1","1","0","1","0","1","4","4","4","2","2","5","2","4","2","4","2","763057278428647426","姚","698","","","","","","","","","","","","","","","","","","","","","","","","","","","","","","","","","","","","","","","","","",""
"643","<p style=""color:white; font-size: 35px;"">君子</p>","e","categorize-html","171","229315","0.0-6.0-1.0-8.0-1.31","3","3","3","3","3","3","3","3","3","3","4","4","2","4","4","4","4","4","4","4","2","2","2","2","2","2","2","4","2","1","0","1","1","0","0","0","0","0","1","1","0","1","0","1","4","4","4","2","2","5","2","4","2","4","2","763057278428647426","姚","698","","","","","","","","","","","","","","","","","","","true","14","4","moral","643","positive","君子","","","","","","","","","","","","","","","","",""
"null","","null","html-keyboard-response","172","229566","0.0-6.0-1.0-8.0-0.32","3","3","3","3","3","3","3","3","3","3","4","4","2","4","4","4","4","4","4","4","2","2","2","2","2","2","2","4","2","1","0","1","1","0","0","0","0","0","1","1","0","1","0","1","4","4","4","2","2","5","2","4","2","4","2","763057278428647426","姚","698","","","","","","","","","","","","","","","","","","","","","","","","","","","","","","","","","","","","","","","","","",""
"638","<p style=""color:rgb(150, 250, 100); font-size: 35px;"">他的</p>","i","categorize-html","173","230207","0.0-6.0-1.0-8.0-1.32","3","3","3","3","3","3","3","3","3","3","4","4","2","4","4","4","4","4","4","4","2","2","2","2","2","2","2","4","2","1","0","1","1","0","0","0","0","0","1","1","0","1","0","1","4","4","4","2","2","5","2","4","2","4","2","763057278428647426","姚","698","","","","","","","","","","","","","","","","","","","true","14","4","moral","638","other","他的","","","","","","","","","","","","","","","","",""
"null","","null","html-keyboard-response","174","230459","0.0-6.0-1.0-8.0-0.33","3","3","3","3","3","3","3","3","3","3","4","4","2","4","4","4","4","4","4","4","2","2","2","2","2","2","2","4","2","1","0","1","1","0","0","0","0","0","1","1","0","1","0","1","4","4","4","2","2","5","2","4","2","4","2","763057278428647426","姚","698","","","","","","","","","","","","","","","","","","","","","","","","","","","","","","","","","","","","","","","","","",""
"553","<p style=""color:white; font-size: 35px;"">诚信</p>","e","categorize-html","175","231014","0.0-6.0-1.0-8.0-1.33","3","3","3","3","3","3","3","3","3","3","4","4","2","4","4","4","4","4","4","4","2","2","2","2","2","2","2","4","2","1","0","1","1","0","0","0","0","0","1","1","0","1","0","1","4","4","4","2","2","5","2","4","2","4","2","763057278428647426","姚","698","","","","","","","","","","","","","","","","","","","true","14","4","moral","553","positive","诚信","","","","","","","","","","","","","","","","",""
"null","","null","html-keyboard-response","176","231265","0.0-6.0-1.0-8.0-0.34","3","3","3","3","3","3","3","3","3","3","4","4","2","4","4","4","4","4","4","4","2","2","2","2","2","2","2","4","2","1","0","1","1","0","0","0","0","0","1","1","0","1","0","1","4","4","4","2","2","5","2","4","2","4","2","763057278428647426","姚","698","","","","","","","","","","","","","","","","","","","","","","","","","","","","","","","","","","","","","","","","","",""
"797","<p style=""color:rgb(150, 250, 100); font-size: 35px;"">我的</p>","e","categorize-html","177","232065","0.0-6.0-1.0-8.0-1.34","3","3","3","3","3","3","3","3","3","3","4","4","2","4","4","4","4","4","4","4","2","2","2","2","2","2","2","4","2","1","0","1","1","0","0","0","0","0","1","1","0","1","0","1","4","4","4","2","2","5","2","4","2","4","2","763057278428647426","姚","698","","","","","","","","","","","","","","","","","","","true","14","4","moral","797","self","我的","","","","","","","","","","","","","","","","",""
"null","","null","html-keyboard-response","178","232316","0.0-6.0-1.0-8.0-0.35","3","3","3","3","3","3","3","3","3","3","4","4","2","4","4","4","4","4","4","4","2","2","2","2","2","2","2","4","2","1","0","1","1","0","0","0","0","0","1","1","0","1","0","1","4","4","4","2","2","5","2","4","2","4","2","763057278428647426","姚","698","","","","","","","","","","","","","","","","","","","","","","","","","","","","","","","","","","","","","","","","","",""
"585","<p style=""color:white; font-size: 35px;"">卑鄙</p>","i","categorize-html","179","232903","0.0-6.0-1.0-8.0-1.35","3","3","3","3","3","3","3","3","3","3","4","4","2","4","4","4","4","4","4","4","2","2","2","2","2","2","2","4","2","1","0","1","1","0","0","0","0","0","1","1","0","1","0","1","4","4","4","2","2","5","2","4","2","4","2","763057278428647426","姚","698","","","","","","","","","","","","","","","","","","","true","14","4","moral","585","negative","卑鄙","","","","","","","","","","","","","","","","",""
"null","","null","html-keyboard-response","180","233154","0.0-6.0-1.0-8.0-0.36","3","3","3","3","3","3","3","3","3","3","4","4","2","4","4","4","4","4","4","4","2","2","2","2","2","2","2","4","2","1","0","1","1","0","0","0","0","0","1","1","0","1","0","1","4","4","4","2","2","5","2","4","2","4","2","763057278428647426","姚","698","","","","","","","","","","","","","","","","","","","","","","","","","","","","","","","","","","","","","","","","","",""
"605","<p style=""color:rgb(150, 250, 100); font-size: 35px;"">他的</p>","i","categorize-html","181","233762","0.0-6.0-1.0-8.0-1.36","3","3","3","3","3","3","3","3","3","3","4","4","2","4","4","4","4","4","4","4","2","2","2","2","2","2","2","4","2","1","0","1","1","0","0","0","0","0","1","1","0","1","0","1","4","4","4","2","2","5","2","4","2","4","2","763057278428647426","姚","698","","","","","","","","","","","","","","","","","","","true","14","4","moral","605","other","他的","","","","","","","","","","","","","","","","",""
"null","","null","html-keyboard-response","182","234013","0.0-6.0-1.0-8.0-0.37","3","3","3","3","3","3","3","3","3","3","4","4","2","4","4","4","4","4","4","4","2","2","2","2","2","2","2","4","2","1","0","1","1","0","0","0","0","0","1","1","0","1","0","1","4","4","4","2","2","5","2","4","2","4","2","763057278428647426","姚","698","","","","","","","","","","","","","","","","","","","","","","","","","","","","","","","","","","","","","","","","","",""
"628","<p style=""color:white; font-size: 35px;"">不仁</p>","i","categorize-html","183","234644","0.0-6.0-1.0-8.0-1.37","3","3","3","3","3","3","3","3","3","3","4","4","2","4","4","4","4","4","4","4","2","2","2","2","2","2","2","4","2","1","0","1","1","0","0","0","0","0","1","1","0","1","0","1","4","4","4","2","2","5","2","4","2","4","2","763057278428647426","姚","698","","","","","","","","","","","","","","","","","","","true","14","4","moral","628","negative","不仁","","","","","","","","","","","","","","","","",""
"null","","null","html-keyboard-response","184","234895","0.0-6.0-1.0-8.0-0.38","3","3","3","3","3","3","3","3","3","3","4","4","2","4","4","4","4","4","4","4","2","2","2","2","2","2","2","4","2","1","0","1","1","0","0","0","0","0","1","1","0","1","0","1","4","4","4","2","2","5","2","4","2","4","2","763057278428647426","姚","698","","","","","","","","","","","","","","","","","","","","","","","","","","","","","","","","","","","","","","","","","",""
"691","<p style=""color:rgb(150, 250, 100); font-size: 35px;"">自己</p>","e","categorize-html","185","235589","0.0-6.0-1.0-8.0-1.38","3","3","3","3","3","3","3","3","3","3","4","4","2","4","4","4","4","4","4","4","2","2","2","2","2","2","2","4","2","1","0","1","1","0","0","0","0","0","1","1","0","1","0","1","4","4","4","2","2","5","2","4","2","4","2","763057278428647426","姚","698","","","","","","","","","","","","","","","","","","","true","14","4","moral","691","self","自己","","","","","","","","","","","","","","","","",""
"null","","null","html-keyboard-response","186","235841","0.0-6.0-1.0-8.0-0.39","3","3","3","3","3","3","3","3","3","3","4","4","2","4","4","4","4","4","4","4","2","2","2","2","2","2","2","4","2","1","0","1","1","0","0","0","0","0","1","1","0","1","0","1","4","4","4","2","2","5","2","4","2","4","2","763057278428647426","姚","698","","","","","","","","","","","","","","","","","","","","","","","","","","","","","","","","","","","","","","","","","",""
"593","<p style=""color:white; font-size: 35px;"">高尚</p>","e","categorize-html","187","236436","0.0-6.0-1.0-8.0-1.39","3","3","3","3","3","3","3","3","3","3","4","4","2","4","4","4","4","4","4","4","2","2","2","2","2","2","2","4","2","1","0","1","1","0","0","0","0","0","1","1","0","1","0","1","4","4","4","2","2","5","2","4","2","4","2","763057278428647426","姚","698","","","","","","","","","","","","","","","","","","","true","14","4","moral","593","positive","高尚","","","","","","","","","","","","","","","","",""
"null","","null","html-keyboard-response","188","236702","0.0-6.0-1.0-8.0-0.40","3","3","3","3","3","3","3","3","3","3","4","4","2","4","4","4","4","4","4","4","2","2","2","2","2","2","2","4","2","1","0","1","1","0","0","0","0","0","1","1","0","1","0","1","4","4","4","2","2","5","2","4","2","4","2","763057278428647426","姚","698","","","","","","","","","","","","","","","","","","","","","","","","","","","","","","","","","","","","","","","","","",""
"542","<p style=""color:rgb(150, 250, 100); font-size: 35px;"">别人</p>","i","categorize-html","189","237246","0.0-6.0-1.0-8.0-1.40","3","3","3","3","3","3","3","3","3","3","4","4","2","4","4","4","4","4","4","4","2","2","2","2","2","2","2","4","2","1","0","1","1","0","0","0","0","0","1","1","0","1","0","1","4","4","4","2","2","5","2","4","2","4","2","763057278428647426","姚","698","","","","","","","","","","","","","","","","","","","true","14","4","moral","542","other","别人","","","","","","","","","","","","","","","","",""
"null","","null","html-keyboard-response","190","237497","0.0-6.0-1.0-8.0-0.41","3","3","3","3","3","3","3","3","3","3","4","4","2","4","4","4","4","4","4","4","2","2","2","2","2","2","2","4","2","1","0","1","1","0","0","0","0","0","1","1","0","1","0","1","4","4","4","2","2","5","2","4","2","4","2","763057278428647426","姚","698","","","","","","","","","","","","","","","","","","","","","","","","","","","","","","","","","","","","","","","","","",""
"607","<p style=""color:white; font-size: 35px;"">黑心</p>","i","categorize-html","191","238107","0.0-6.0-1.0-8.0-1.41","3","3","3","3","3","3","3","3","3","3","4","4","2","4","4","4","4","4","4","4","2","2","2","2","2","2","2","4","2","1","0","1","1","0","0","0","0","0","1","1","0","1","0","1","4","4","4","2","2","5","2","4","2","4","2","763057278428647426","姚","698","","","","","","","","","","","","","","","","","","","true","14","4","moral","607","negative","黑心","","","","","","","","","","","","","","","","",""
"null","","null","html-keyboard-response","192","238358","0.0-6.0-1.0-8.0-0.42","3","3","3","3","3","3","3","3","3","3","4","4","2","4","4","4","4","4","4","4","2","2","2","2","2","2","2","4","2","1","0","1","1","0","0","0","0","0","1","1","0","1","0","1","4","4","4","2","2","5","2","4","2","4","2","763057278428647426","姚","698","","","","","","","","","","","","","","","","","","","","","","","","","","","","","","","","","","","","","","","","","",""
"613","<p style=""color:rgb(150, 250, 100); font-size: 35px;"">我的</p>","e","categorize-html","193","238974","0.0-6.0-1.0-8.0-1.42","3","3","3","3","3","3","3","3","3","3","4","4","2","4","4","4","4","4","4","4","2","2","2","2","2","2","2","4","2","1","0","1","1","0","0","0","0","0","1","1","0","1","0","1","4","4","4","2","2","5","2","4","2","4","2","763057278428647426","姚","698","","","","","","","","","","","","","","","","","","","true","14","4","moral","613","self","我的","","","","","","","","","","","","","","","","",""
