"rt","stimulus","response","trial_type","trial_index","time_elapsed","internal_node_id","ses_1","ses_2","ses_3","ses_4","ses_5","ses_6","ses_7","ses_8","ses_9","ses_10","coreself_1","coreself_2","coreself_3","coreself_4","coreself_5","coreself_6","coreself_7","coreself_8","coreself_9","coreself_10","SGPS_1","SGPS_2","SGPS_3","SGPS_4","SGPS_5","SGPS_6","SGPS_7","SGPS_8","SGPS_9","NPI1","NPI2","NPI3","NPI4","NPI5","NPI6","NPI7","NPI8","NPI9","NPI10","NPI11","NPI12","NPI13","NPI14","NPI15","hsns_1","hsns_2","hsns_3","hsns_4","hsns_5","trap1","hsns_6","hsns_7","hsns_8","hsns_9","hsns_10","subj_idx","friend_name","ParticipantID","value","success","user_agent","responses","item_order","radio_event_ids","radio_event_times","key_event_times","mouse_event_times","straightlining","zigzagging","honeypot","timeout","failed_images","failed_audio","failed_video","view_history","response_type","key_press","avg_frame_time","center_x","center_y","correct_response","correct","identity","Image","word","condition","task_id","screen_id","time_stamp","version_attrib","version_target","IAT","RT","varname","summary","version_attrib2","version_target2","question_order","correct_answer","trap1_item"
"3050","
   <p><div style = ""color: white;font-size:25px;"">您好，欢迎参加本次实验。</div> </p>
   <p><div style = ""color: white;font-size:25px;"">为充分保障您的权利，请确保您已经知晓并同意《参与实验同意书》以及《数据公开知情同意书》。</div></p>
   <p><div style = ""color: white;font-size:25px;"">如果您未见过上述内容，请咨询实验员。</div></p>
   <p><div style = ""color: white;font-size:25px;"">如果您选择继续实验，则表示您已经清楚两份知情同意书的内容并同意。</div></p>
   <p><div style = ""color: pink;font-size:30px;"">请确保您记得day0的实验编号，您将在本次实验输入该编号，若您忘记，请咨询实验员后作答。</div></p>
   <p><div style = ""color: lightblue;font-size:25px;"">请您尽可能认真地作答，我们将依据您在各问卷和按键任务中的作答质量发放报酬。</div></p>
   <p> <div style = ""color: green;font-size:25px;""><按空格键至下页></div> </p>
   "," ","html-keyboard-response","0","3052","0.0-0.0","4","3","4","4","3","3","3","4","3","4","4","3","3","5","3","4","4","3","5","4","2","3","2","2","2","1","2","3","2","1","0","1","1","0","0","1","1","0","1","1","0","1","0","1","4","2","3","2","3","4","3","3","5","2","2","797915991576289281","李","175","","","","","","","","","","","","","","","","","","","","","","","","","","","","","","","","","","","","","","","","","",""
"","","","call-function","1","3052","0.0-1.0-0.0","4","3","4","4","3","3","3","4","3","4","4","3","3","5","3","4","4","3","5","4","2","3","2","2","2","1","2","3","2","1","0","1","1","0","0","1","1","0","1","1","0","1","0","1","4","2","3","2","3","4","3","3","5","2","2","797915991576289281","李","175","","","","","","","","","","","","","","","","","","","","","","","","","","","","","","","","","","","","","","","","","",""
"27777","","{""friend_name"":""李"",""ParticipantID"":""175""}","survey-html-form","2","30829","0.0-1.0-1.0","4","3","4","4","3","3","3","4","3","4","4","3","3","5","3","4","4","3","5","4","2","3","2","2","2","1","2","3","2","1","0","1","1","0","0","1","1","0","1","1","0","1","0","1","4","2","3","2","3","4","3","3","5","2","2","797915991576289281","李","175","","","","","","","","","","","","","","","","","","","","","","","","","","","","","","","","","","","","","","","","","",""
"","","","fullscreen","3","33063","0.0-2.0","4","3","4","4","3","3","3","4","3","4","4","3","3","5","3","4","4","3","5","4","2","3","2","2","2","1","2","3","2","1","0","1","1","0","0","1","1","0","1","1","0","1","0","1","4","2","3","2","3","4","3","3","5","2","2","797915991576289281","李","175","","true","{}","","","","","","","","","","","","","","","","","","","","","","","","","","","","","","","","","","","","","","",""
"17464.399999976158","","{""Q01"":""4"",""Q02"":""3"",""Q03"":""4"",""Q04"":""4"",""Q05"":""3"",""Q06"":""3"",""Q07"":""3"",""Q08"":""4"",""Q09"":""3"",""Q10"":""4""}","survey-template","4","50531","0.0-3.0","4","3","4","4","3","3","3","4","3","4","4","3","3","5","3","4","4","3","5","4","2","3","2","2","2","1","2","3","2","1","0","1","1","0","0","1","1","0","1","1","0","1","0","1","4","2","3","2","3","4","3","3","5","2","2","797915991576289281","李","175","","","","{""Q01"":""4"",""Q02"":""3"",""Q03"":""4"",""Q04"":""4"",""Q05"":""3"",""Q06"":""3"",""Q07"":""3"",""Q08"":""4"",""Q09"":""3"",""Q10"":""4""}","[0,1,2,3,4,5,6,7,8,9]","[""Q01"",""Q02"",""Q03"",""Q04"",""Q05"",""Q06"",""Q07"",""Q08"",""Q09"",""Q10""]","[2932.199999988079,4476.300000011921,5606.100000023842,8738.199999988079,9759.100000023842,10828.100000023842,11965.100000023842,14165.199999988079,15056.100000023842,15937.199999988079]","[]","[2932.199999988079,4476.300000011921,5606.100000023842,8738.199999988079,9759.100000023842,10828.100000023842,11965.100000023842,14165.199999988079,15056.100000023842,15937.199999988079,17463.19999998808]","0.3","0.5555555555555556","0","","","","","","","","","","","","","","","","","","","","","","","","","","","","","",""
"19352.900000035763","","{""Q01"":""4"",""Q02"":""3"",""Q03"":""3"",""Q04"":""5"",""Q05"":""3"",""Q06"":""4"",""Q07"":""4"",""Q08"":""3"",""Q09"":""5"",""Q10"":""4""}","survey-template","5","69889","0.0-4.0","4","3","4","4","3","3","3","4","3","4","4","3","3","5","3","4","4","3","5","4","2","3","2","2","2","1","2","3","2","1","0","1","1","0","0","1","1","0","1","1","0","1","0","1","4","2","3","2","3","4","3","3","5","2","2","797915991576289281","李","175","","","","{""Q01"":""4"",""Q02"":""3"",""Q03"":""3"",""Q04"":""5"",""Q05"":""3"",""Q06"":""4"",""Q07"":""4"",""Q08"":""3"",""Q09"":""5"",""Q10"":""4""}","[0,1,2,3,4,5,6,7,8,9]","[""Q01"",""Q02"",""Q03"",""Q04"",""Q05"",""Q06"",""Q07"",""Q05"",""Q08"",""Q09"",""Q10""]","[2553.100000023842,3681,5708.699999988079,7120.800000011921,9401.900000035763,10318.900000035763,11629.800000011921,12179,15518.900000035763,17061,18287]","[]","[2553.100000023842,3681,5708.699999988079,7120.800000011921,9401.900000035763,10318.900000035763,11629.800000011921,12179,15518.900000035763,17061,18287,19351.80000001192]","0.4","0.3333333333333333","0","","","","","","","","","","","","","","","","","","","","","","","","","","","","","",""
"","","","preload","6","70130","0.0-5.0","4","3","4","4","3","3","3","4","3","4","4","3","3","5","3","4","4","3","5","4","2","3","2","2","2","1","2","3","2","1","0","1","1","0","0","1","1","0","1","1","0","1","0","1","4","2","3","2","3","4","3","3","5","2","2","797915991576289281","李","175","","true","","","","","","","","","","","false","[]","[]","[]","","","","","","","","","","","","","","","","","","","","","","","","","",""
"10662","","","instructions","7","80794","0.0-6.0","4","3","4","4","3","3","3","4","3","4","4","3","3","5","3","4","4","3","5","4","2","3","2","2","2","1","2","3","2","1","0","1","1","0","0","1","1","0","1","1","0","1","0","1","4","2","3","2","3","4","3","3","5","2","2","797915991576289281","李","175","","","","","","","","","","","","","","","","","[{""page_index"":0,""viewing_time"":10662}]","","","","","","","","","","","","","","","","","","","","","","","","",""
"32065","","","instructions","8","112860","0.0-7.0-1.0-0.0","4","3","4","4","3","3","3","4","3","4","4","3","3","5","3","4","4","3","5","4","2","3","2","2","2","1","2","3","2","1","0","1","1","0","0","1","1","0","1","1","0","1","0","1","4","2","3","2","3","4","3","3","5","2","2","797915991576289281","李","175","","","","","","","","","","","","","","","","","[{""page_index"":0,""viewing_time"":11283},{""page_index"":1,""viewing_time"":19440},{""page_index"":2,""viewing_time"":1342}]","","","","","","","","","","","","","","","","","","","","","","","","",""
"null","","null","psychophysics","9","115066","0.0-7.0-1.0-1.0-0.0-0.0","4","3","4","4","3","3","3","4","3","4","4","3","3","5","3","4","4","3","5","4","2","3","2","2","2","1","2","3","2","1","0","1","1","0","0","1","1","0","1","1","0","1","0","1","4","2","3","2","3","4","3","3","5","2","2","797915991576289281","李","175","","","","null","","","","","","","","","","","","","","key","null","6.944936708860778","768","428","f","false","nonmatch","img/triangle.png","梯形","三角","ALT1_2","prac_ALT1_2","","","","","","","","","","","",""
"null","<span class='add_' style='color:yellow; font-size: 70px;'> 太慢! </span>","null","html-keyboard-response","10","115570","0.0-7.0-1.0-1.0-0.0-1.0","4","3","4","4","3","3","3","4","3","4","4","3","3","5","3","4","4","3","5","4","2","3","2","2","2","1","2","3","2","1","0","1","1","0","0","1","1","0","1","1","0","1","0","1","4","2","3","2","3","4","3","3","5","2","2","797915991576289281","李","175","","","","","","","","","","","","","","","","","","","","","","","","","","","","","","feedback_test","","","","","","","","","","","",""
"892","","j","psychophysics","11","117465","0.0-7.0-1.0-1.0-0.0-0.1","4","3","4","4","3","3","3","4","3","4","4","3","3","5","3","4","4","3","5","4","2","3","2","2","2","1","2","3","2","1","0","1","1","0","0","1","1","0","1","1","0","1","0","1","4","2","3","2","3","4","3","3","5","2","2","797915991576289281","李","175","","","","match","","","","","","","","","","","","","","key","j","6.939114391143911","768","428","j","true","match","img/pentagon.png","五边","五边","ALT1_2","prac_ALT1_2","","","","","","","","","","","",""
"null","<span style='color:GreenYellow; font-size: 70px;'>正确! </span>","null","html-keyboard-response","12","117967","0.0-7.0-1.0-1.0-0.0-1.1","4","3","4","4","3","3","3","4","3","4","4","3","3","5","3","4","4","3","5","4","2","3","2","2","2","1","2","3","2","1","0","1","1","0","0","1","1","0","1","1","0","1","0","1","4","2","3","2","3","4","3","3","5","2","2","797915991576289281","李","175","","","","","","","","","","","","","","","","","","","","","","","","","","","","","","feedback_test","","","","","","","","","","","",""
"655","","f","psychophysics","13","119624","0.0-7.0-1.0-1.0-0.0-0.2","4","3","4","4","3","3","3","4","3","4","4","3","3","5","3","4","4","3","5","4","2","3","2","2","2","1","2","3","2","1","0","1","1","0","0","1","1","0","1","1","0","1","0","1","4","2","3","2","3","4","3","3","5","2","2","797915991576289281","李","175","","","","nonmatch","","","","","","","","","","","","","","key","f","6.971308016877625","768","428","j","false","match","img/ellipse.png","椭圆","椭圆","ALT1_2","prac_ALT1_2","","","","","","","","","","","",""
"null","<span style='color:red; font-size: 70px;'>错误! </span>","null","html-keyboard-response","14","120126","0.0-7.0-1.0-1.0-0.0-1.2","4","3","4","4","3","3","3","4","3","4","4","3","3","5","3","4","4","3","5","4","2","3","2","2","2","1","2","3","2","1","0","1","1","0","0","1","1","0","1","1","0","1","0","1","4","2","3","2","3","4","3","3","5","2","2","797915991576289281","李","175","","","","","","","","","","","","","","","","","","","","","","","","","","","","","","feedback_test","","","","","","","","","","","",""
"null","","null","psychophysics","15","122329","0.0-7.0-1.0-1.0-0.0-0.3","4","3","4","4","3","3","3","4","3","4","4","3","3","5","3","4","4","3","5","4","2","3","2","2","2","1","2","3","2","1","0","1","1","0","0","1","1","0","1","1","0","1","0","1","4","2","3","2","3","4","3","3","5","2","2","797915991576289281","李","175","","","","null","","","","","","","","","","","","","","key","null","6.939999999999972","768","428","f","false","nonmatch","img/trapezoid.png","椭圆","梯形","ALT1_2","prac_ALT1_2","","","","","","","","","","","",""
"null","<span class='add_' style='color:yellow; font-size: 70px;'> 太慢! </span>","null","html-keyboard-response","16","122830","0.0-7.0-1.0-1.0-0.0-1.3","4","3","4","4","3","3","3","4","3","4","4","3","3","5","3","4","4","3","5","4","2","3","2","2","2","1","2","3","2","1","0","1","1","0","0","1","1","0","1","1","0","1","0","1","4","2","3","2","3","4","3","3","5","2","2","797915991576289281","李","175","","","","","","","","","","","","","","","","","","","","","","","","","","","","","","feedback_test","","","","","","","","","","","",""
"1030","","j","psychophysics","17","124865","0.0-7.0-1.0-1.0-0.0-0.4","4","3","4","4","3","3","3","4","3","4","4","3","3","5","3","4","4","3","5","4","2","3","2","2","2","1","2","3","2","1","0","1","1","0","0","1","1","0","1","1","0","1","0","1","4","2","3","2","3","4","3","3","5","2","2","797915991576289281","李","175","","","","match","","","","","","","","","","","","","","key","j","6.969072164948454","768","428","f","false","nonmatch","img/triangle.png","五边","三角","ALT1_2","prac_ALT1_2","","","","","","","","","","","",""
"null","<span style='color:red; font-size: 70px;'>错误! </span>","null","html-keyboard-response","18","125367","0.0-7.0-1.0-1.0-0.0-1.4","4","3","4","4","3","3","3","4","3","4","4","3","3","5","3","4","4","3","5","4","2","3","2","2","2","1","2","3","2","1","0","1","1","0","0","1","1","0","1","1","0","1","0","1","4","2","3","2","3","4","3","3","5","2","2","797915991576289281","李","175","","","","","","","","","","","","","","","","","","","","","","","","","","","","","","feedback_test","","","","","","","","","","","",""
"1066","","j","psychophysics","19","127435","0.0-7.0-1.0-1.0-0.0-0.5","4","3","4","4","3","3","3","4","3","4","4","3","3","5","3","4","4","3","5","4","2","3","2","2","2","1","2","3","2","1","0","1","1","0","0","1","1","0","1","1","0","1","0","1","4","2","3","2","3","4","3","3","5","2","2","797915991576289281","李","175","","","","match","","","","","","","","","","","","","","key","j","6.942176870748299","768","428","f","false","nonmatch","img/pentagon.png","三角","五边","ALT1_2","prac_ALT1_2","","","","","","","","","","","",""
"null","<span style='color:red; font-size: 70px;'>错误! </span>","null","html-keyboard-response","20","127937","0.0-7.0-1.0-1.0-0.0-1.5","4","3","4","4","3","3","3","4","3","4","4","3","3","5","3","4","4","3","5","4","2","3","2","2","2","1","2","3","2","1","0","1","1","0","0","1","1","0","1","1","0","1","0","1","4","2","3","2","3","4","3","3","5","2","2","797915991576289281","李","175","","","","","","","","","","","","","","","","","","","","","","","","","","","","","","feedback_test","","","","","","","","","","","",""
"956","","f","psychophysics","21","129894","0.0-7.0-1.0-1.0-0.0-0.6","4","3","4","4","3","3","3","4","3","4","4","3","3","5","3","4","4","3","5","4","2","3","2","2","2","1","2","3","2","1","0","1","1","0","0","1","1","0","1","1","0","1","0","1","4","2","3","2","3","4","3","3","5","2","2","797915991576289281","李","175","","","","nonmatch","","","","","","","","","","","","","","key","f","6.937857142857164","768","428","f","true","nonmatch","img/trapezoid.png","三角","梯形","ALT1_2","prac_ALT1_2","","","","","","","","","","","",""
"null","<span style='color:GreenYellow; font-size: 70px;'>正确! </span>","null","html-keyboard-response","22","130396","0.0-7.0-1.0-1.0-0.0-1.6","4","3","4","4","3","3","3","4","3","4","4","3","3","5","3","4","4","3","5","4","2","3","2","2","2","1","2","3","2","1","0","1","1","0","0","1","1","0","1","1","0","1","0","1","4","2","3","2","3","4","3","3","5","2","2","797915991576289281","李","175","","","","","","","","","","","","","","","","","","","","","","","","","","","","","","feedback_test","","","","","","","","","","","",""
"990","","j","psychophysics","23","132388","0.0-7.0-1.0-1.0-0.0-0.7","4","3","4","4","3","3","3","4","3","4","4","3","3","5","3","4","4","3","5","4","2","3","2","2","2","1","2","3","2","1","0","1","1","0","0","1","1","0","1","1","0","1","0","1","4","2","3","2","3","4","3","3","5","2","2","797915991576289281","李","175","","","","match","","","","","","","","","","","","","","key","j","6.958741258741299","768","428","j","true","match","img/triangle.png","三角","三角","ALT1_2","prac_ALT1_2","","","","","","","","","","","",""
"null","<span style='color:GreenYellow; font-size: 70px;'>正确! </span>","null","html-keyboard-response","24","132890","0.0-7.0-1.0-1.0-0.0-1.7","4","3","4","4","3","3","3","4","3","4","4","3","3","5","3","4","4","3","5","4","2","3","2","2","2","1","2","3","2","1","0","1","1","0","0","1","1","0","1","1","0","1","0","1","4","2","3","2","3","4","3","3","5","2","2","797915991576289281","李","175","","","","","","","","","","","","","","","","","","","","","","","","","","","","","","feedback_test","","","","","","","","","","","",""
"844","","j","psychophysics","25","134735","0.0-7.0-1.0-1.0-0.0-0.8","4","3","4","4","3","3","3","4","3","4","4","3","3","5","3","4","4","3","5","4","2","3","2","2","2","1","2","3","2","1","0","1","1","0","0","1","1","0","1","1","0","1","0","1","4","2","3","2","3","4","3","3","5","2","2","797915991576289281","李","175","","","","match","","","","","","","","","","","","","","key","j","6.942205323193872","768","428","f","false","nonmatch","img/ellipse.png","三角","椭圆","ALT1_2","prac_ALT1_2","","","","","","","","","","","",""
"null","<span style='color:red; font-size: 70px;'>错误! </span>","null","html-keyboard-response","26","135236","0.0-7.0-1.0-1.0-0.0-1.8","4","3","4","4","3","3","3","4","3","4","4","3","3","5","3","4","4","3","5","4","2","3","2","2","2","1","2","3","2","1","0","1","1","0","0","1","1","0","1","1","0","1","0","1","4","2","3","2","3","4","3","3","5","2","2","797915991576289281","李","175","","","","","","","","","","","","","","","","","","","","","","","","","","","","","","feedback_test","","","","","","","","","","","",""
"866","","f","psychophysics","27","137105","0.0-7.0-1.0-1.0-0.0-0.9","4","3","4","4","3","3","3","4","3","4","4","3","3","5","3","4","4","3","5","4","2","3","2","2","2","1","2","3","2","1","0","1","1","0","0","1","1","0","1","1","0","1","0","1","4","2","3","2","3","4","3","3","5","2","2","797915991576289281","李","175","","","","nonmatch","","","","","","","","","","","","","","key","f","6.943233082706854","768","428","j","false","match","img/ellipse.png","椭圆","椭圆","ALT1_2","prac_ALT1_2","","","","","","","","","","","",""
"null","<span style='color:red; font-size: 70px;'>错误! </span>","null","html-keyboard-response","28","137608","0.0-7.0-1.0-1.0-0.0-1.9","4","3","4","4","3","3","3","4","3","4","4","3","3","5","3","4","4","3","5","4","2","3","2","2","2","1","2","3","2","1","0","1","1","0","0","1","1","0","1","1","0","1","0","1","4","2","3","2","3","4","3","3","5","2","2","797915991576289281","李","175","","","","","","","","","","","","","","","","","","","","","","","","","","","","","","feedback_test","","","","","","","","","","","",""
"1015","","f","psychophysics","29","139625","0.0-7.0-1.0-1.0-0.0-0.10","4","3","4","4","3","3","3","4","3","4","4","3","3","5","3","4","4","3","5","4","2","3","2","2","2","1","2","3","2","1","0","1","1","0","0","1","1","0","1","1","0","1","0","1","4","2","3","2","3","4","3","3","5","2","2","797915991576289281","李","175","","","","nonmatch","","","","","","","","","","","","","","key","f","6.942456140350898","768","428","f","true","nonmatch","img/ellipse.png","梯形","椭圆","ALT1_2","prac_ALT1_2","","","","","","","","","","","",""
"null","<span style='color:GreenYellow; font-size: 70px;'>正确! </span>","null","html-keyboard-response","30","140126","0.0-7.0-1.0-1.0-0.0-1.10","4","3","4","4","3","3","3","4","3","4","4","3","3","5","3","4","4","3","5","4","2","3","2","2","2","1","2","3","2","1","0","1","1","0","0","1","1","0","1","1","0","1","0","1","4","2","3","2","3","4","3","3","5","2","2","797915991576289281","李","175","","","","","","","","","","","","","","","","","","","","","","","","","","","","","","feedback_test","","","","","","","","","","","",""
"null","","null","psychophysics","31","142329","0.0-7.0-1.0-1.0-0.0-0.11","4","3","4","4","3","3","3","4","3","4","4","3","3","5","3","4","4","3","5","4","2","3","2","2","2","1","2","3","2","1","0","1","1","0","0","1","1","0","1","1","0","1","0","1","4","2","3","2","3","4","3","3","5","2","2","797915991576289281","李","175","","","","null","","","","","","","","","","","","","","key","null","6.9559105431310275","768","428","j","false","match","img/pentagon.png","五边","五边","ALT1_2","prac_ALT1_2","","","","","","","","","","","",""
"null","<span class='add_' style='color:yellow; font-size: 70px;'> 太慢! </span>","null","html-keyboard-response","32","142831","0.0-7.0-1.0-1.0-0.0-1.11","4","3","4","4","3","3","3","4","3","4","4","3","3","5","3","4","4","3","5","4","2","3","2","2","2","1","2","3","2","1","0","1","1","0","0","1","1","0","1","1","0","1","0","1","4","2","3","2","3","4","3","3","5","2","2","797915991576289281","李","175","","","","","","","","","","","","","","","","","","","","","","","","","","","","","","feedback_test","","","","","","","","","","","",""
"851","","f","psychophysics","33","144684","0.0-7.0-1.0-1.0-0.0-0.12","4","3","4","4","3","3","3","4","3","4","4","3","3","5","3","4","4","3","5","4","2","3","2","2","2","1","2","3","2","1","0","1","1","0","0","1","1","0","1","1","0","1","0","1","4","2","3","2","3","4","3","3","5","2","2","797915991576289281","李","175","","","","nonmatch","","","","","","","","","","","","","","key","f","6.979087452471483","768","428","f","true","nonmatch","img/triangle.png","椭圆","三角","ALT1_2","prac_ALT1_2","","","","","","","","","","","",""
"null","<span style='color:GreenYellow; font-size: 70px;'>正确! </span>","null","html-keyboard-response","34","145185","0.0-7.0-1.0-1.0-0.0-1.12","4","3","4","4","3","3","3","4","3","4","4","3","3","5","3","4","4","3","5","4","2","3","2","2","2","1","2","3","2","1","0","1","1","0","0","1","1","0","1","1","0","1","0","1","4","2","3","2","3","4","3","3","5","2","2","797915991576289281","李","175","","","","","","","","","","","","","","","","","","","","","","","","","","","","","","feedback_test","","","","","","","","","","","",""
"1018","","j","psychophysics","35","147205","0.0-7.0-1.0-1.0-0.0-0.13","4","3","4","4","3","3","3","4","3","4","4","3","3","5","3","4","4","3","5","4","2","3","2","2","2","1","2","3","2","1","0","1","1","0","0","1","1","0","1","1","0","1","0","1","4","2","3","2","3","4","3","3","5","2","2","797915991576289281","李","175","","","","match","","","","","","","","","","","","","","key","j","6.943598615916895","768","428","j","true","match","img/trapezoid.png","梯形","梯形","ALT1_2","prac_ALT1_2","","","","","","","","","","","",""
"null","<span style='color:GreenYellow; font-size: 70px;'>正确! </span>","null","html-keyboard-response","36","147708","0.0-7.0-1.0-1.0-0.0-1.13","4","3","4","4","3","3","3","4","3","4","4","3","3","5","3","4","4","3","5","4","2","3","2","2","2","1","2","3","2","1","0","1","1","0","0","1","1","0","1","1","0","1","0","1","4","2","3","2","3","4","3","3","5","2","2","797915991576289281","李","175","","","","","","","","","","","","","","","","","","","","","","","","","","","","","","feedback_test","","","","","","","","","","","",""
"906","","f","psychophysics","37","149616","0.0-7.0-1.0-1.0-0.0-0.14","4","3","4","4","3","3","3","4","3","4","4","3","3","5","3","4","4","3","5","4","2","3","2","2","2","1","2","3","2","1","0","1","1","0","0","1","1","0","1","1","0","1","0","1","4","2","3","2","3","4","3","3","5","2","2","797915991576289281","李","175","","","","nonmatch","","","","","","","","","","","","","","key","f","6.943382352941198","768","428","j","false","match","img/trapezoid.png","梯形","梯形","ALT1_2","prac_ALT1_2","","","","","","","","","","","",""
"null","<span style='color:red; font-size: 70px;'>错误! </span>","null","html-keyboard-response","38","150117","0.0-7.0-1.0-1.0-0.0-1.14","4","3","4","4","3","3","3","4","3","4","4","3","3","5","3","4","4","3","5","4","2","3","2","2","2","1","2","3","2","1","0","1","1","0","0","1","1","0","1","1","0","1","0","1","4","2","3","2","3","4","3","3","5","2","2","797915991576289281","李","175","","","","","","","","","","","","","","","","","","","","","","","","","","","","","","feedback_test","","","","","","","","","","","",""
"766","","j","psychophysics","39","151885","0.0-7.0-1.0-1.0-0.0-0.15","4","3","4","4","3","3","3","4","3","4","4","3","3","5","3","4","4","3","5","4","2","3","2","2","2","1","2","3","2","1","0","1","1","0","0","1","1","0","1","1","0","1","0","1","4","2","3","2","3","4","3","3","5","2","2","797915991576289281","李","175","","","","match","","","","","","","","","","","","","","key","j","6.943083003952593","768","428","j","true","match","img/trapezoid.png","梯形","梯形","ALT1_2","prac_ALT1_2","","","","","","","","","","","",""
"null","<span style='color:GreenYellow; font-size: 70px;'>正确! </span>","null","html-keyboard-response","40","152386","0.0-7.0-1.0-1.0-0.0-1.15","4","3","4","4","3","3","3","4","3","4","4","3","3","5","3","4","4","3","5","4","2","3","2","2","2","1","2","3","2","1","0","1","1","0","0","1","1","0","1","1","0","1","0","1","4","2","3","2","3","4","3","3","5","2","2","797915991576289281","李","175","","","","","","","","","","","","","","","","","","","","","","","","","","","","","","feedback_test","","","","","","","","","","","",""
"878","","j","psychophysics","41","154267","0.0-7.0-1.0-1.0-0.0-0.16","4","3","4","4","3","3","3","4","3","4","4","3","3","5","3","4","4","3","5","4","2","3","2","2","2","1","2","3","2","1","0","1","1","0","0","1","1","0","1","1","0","1","0","1","4","2","3","2","3","4","3","3","5","2","2","797915991576289281","李","175","","","","match","","","","","","","","","","","","","","key","j","6.939033457249092","768","428","j","true","match","img/triangle.png","三角","三角","ALT1_2","prac_ALT1_2","","","","","","","","","","","",""
"null","<span style='color:GreenYellow; font-size: 70px;'>正确! </span>","null","html-keyboard-response","42","154768","0.0-7.0-1.0-1.0-0.0-1.16","4","3","4","4","3","3","3","4","3","4","4","3","3","5","3","4","4","3","5","4","2","3","2","2","2","1","2","3","2","1","0","1","1","0","0","1","1","0","1","1","0","1","0","1","4","2","3","2","3","4","3","3","5","2","2","797915991576289281","李","175","","","","","","","","","","","","","","","","","","","","","","","","","","","","","","feedback_test","","","","","","","","","","","",""
"665","","j","psychophysics","43","156435","0.0-7.0-1.0-1.0-0.0-0.17","4","3","4","4","3","3","3","4","3","4","4","3","3","5","3","4","4","3","5","4","2","3","2","2","2","1","2","3","2","1","0","1","1","0","0","1","1","0","1","1","0","1","0","1","4","2","3","2","3","4","3","3","5","2","2","797915991576289281","李","175","","","","match","","","","","","","","","","","","","","key","j","6.931092436974814","768","428","j","true","match","img/ellipse.png","椭圆","椭圆","ALT1_2","prac_ALT1_2","","","","","","","","","","","",""
"null","<span style='color:GreenYellow; font-size: 70px;'>正确! </span>","null","html-keyboard-response","44","156937","0.0-7.0-1.0-1.0-0.0-1.17","4","3","4","4","3","3","3","4","3","4","4","3","3","5","3","4","4","3","5","4","2","3","2","2","2","1","2","3","2","1","0","1","1","0","0","1","1","0","1","1","0","1","0","1","4","2","3","2","3","4","3","3","5","2","2","797915991576289281","李","175","","","","","","","","","","","","","","","","","","","","","","","","","","","","","","feedback_test","","","","","","","","","","","",""
"1055","","j","psychophysics","45","158994","0.0-7.0-1.0-1.0-0.0-0.18","4","3","4","4","3","3","3","4","3","4","4","3","3","5","3","4","4","3","5","4","2","3","2","2","2","1","2","3","2","1","0","1","1","0","0","1","1","0","1","1","0","1","0","1","4","2","3","2","3","4","3","3","5","2","2","797915991576289281","李","175","","","","match","","","","","","","","","","","","","","key","j","6.943003412969343","768","428","f","false","nonmatch","img/pentagon.png","梯形","五边","ALT1_2","prac_ALT1_2","","","","","","","","","","","",""
"null","<span style='color:red; font-size: 70px;'>错误! </span>","null","html-keyboard-response","46","159496","0.0-7.0-1.0-1.0-0.0-1.18","4","3","4","4","3","3","3","4","3","4","4","3","3","5","3","4","4","3","5","4","2","3","2","2","2","1","2","3","2","1","0","1","1","0","0","1","1","0","1","1","0","1","0","1","4","2","3","2","3","4","3","3","5","2","2","797915991576289281","李","175","","","","","","","","","","","","","","","","","","","","","","","","","","","","","","feedback_test","","","","","","","","","","","",""
"null","","null","psychophysics","47","161701","0.0-7.0-1.0-1.0-0.0-0.19","4","3","4","4","3","3","3","4","3","4","4","3","3","5","3","4","4","3","5","4","2","3","2","2","2","1","2","3","2","1","0","1","1","0","0","1","1","0","1","1","0","1","0","1","4","2","3","2","3","4","3","3","5","2","2","797915991576289281","李","175","","","","null","","","","","","","","","","","","","","key","null","6.940506329113961","768","428","f","false","nonmatch","img/ellipse.png","五边","椭圆","ALT1_2","prac_ALT1_2","","","","","","","","","","","",""
"null","<span class='add_' style='color:yellow; font-size: 70px;'> 太慢! </span>","null","html-keyboard-response","48","162203","0.0-7.0-1.0-1.0-0.0-1.19","4","3","4","4","3","3","3","4","3","4","4","3","3","5","3","4","4","3","5","4","2","3","2","2","2","1","2","3","2","1","0","1","1","0","0","1","1","0","1","1","0","1","0","1","4","2","3","2","3","4","3","3","5","2","2","797915991576289281","李","175","","","","","","","","","","","","","","","","","","","","","","","","","","","","","","feedback_test","","","","","","","","","","","",""
"661","","j","psychophysics","49","163865","0.0-7.0-1.0-1.0-0.0-0.20","4","3","4","4","3","3","3","4","3","4","4","3","3","5","3","4","4","3","5","4","2","3","2","2","2","1","2","3","2","1","0","1","1","0","0","1","1","0","1","1","0","1","0","1","4","2","3","2","3","4","3","3","5","2","2","797915991576289281","李","175","","","","match","","","","","","","","","","","","","","key","j","6.941350210970489","768","428","j","true","match","img/pentagon.png","五边","五边","ALT1_2","prac_ALT1_2","","","","","","","","","","","",""
"null","<span style='color:GreenYellow; font-size: 70px;'>正确! </span>","null","html-keyboard-response","50","164367","0.0-7.0-1.0-1.0-0.0-1.20","4","3","4","4","3","3","3","4","3","4","4","3","3","5","3","4","4","3","5","4","2","3","2","2","2","1","2","3","2","1","0","1","1","0","0","1","1","0","1","1","0","1","0","1","4","2","3","2","3","4","3","3","5","2","2","797915991576289281","李","175","","","","","","","","","","","","","","","","","","","","","","","","","","","","","","feedback_test","","","","","","","","","","","",""
"926","","f","psychophysics","51","166294","0.0-7.0-1.0-1.0-0.0-0.21","4","3","4","4","3","3","3","4","3","4","4","3","3","5","3","4","4","3","5","4","2","3","2","2","2","1","2","3","2","1","0","1","1","0","0","1","1","0","1","1","0","1","0","1","4","2","3","2","3","4","3","3","5","2","2","797915991576289281","李","175","","","","nonmatch","","","","","","","","","","","","","","key","f","6.942909090909154","768","428","f","true","nonmatch","img/trapezoid.png","五边","梯形","ALT1_2","prac_ALT1_2","","","","","","","","","","","",""
"null","<span style='color:GreenYellow; font-size: 70px;'>正确! </span>","null","html-keyboard-response","52","166798","0.0-7.0-1.0-1.0-0.0-1.21","4","3","4","4","3","3","3","4","3","4","4","3","3","5","3","4","4","3","5","4","2","3","2","2","2","1","2","3","2","1","0","1","1","0","0","1","1","0","1","1","0","1","0","1","4","2","3","2","3","4","3","3","5","2","2","797915991576289281","李","175","","","","","","","","","","","","","","","","","","","","","","","","","","","","","","feedback_test","","","","","","","","","","","",""
"null","","null","psychophysics","53","169001","0.0-7.0-1.0-1.0-0.0-0.22","4","3","4","4","3","3","3","4","3","4","4","3","3","5","3","4","4","3","5","4","2","3","2","2","2","1","2","3","2","1","0","1","1","0","0","1","1","0","1","1","0","1","0","1","4","2","3","2","3","4","3","3","5","2","2","797915991576289281","李","175","","","","null","","","","","","","","","","","","","","key","null","6.935873015872979","768","428","j","false","match","img/triangle.png","三角","三角","ALT1_2","prac_ALT1_2","","","","","","","","","","","",""
"null","<span class='add_' style='color:yellow; font-size: 70px;'> 太慢! </span>","null","html-keyboard-response","54","169503","0.0-7.0-1.0-1.0-0.0-1.22","4","3","4","4","3","3","3","4","3","4","4","3","3","5","3","4","4","3","5","4","2","3","2","2","2","1","2","3","2","1","0","1","1","0","0","1","1","0","1","1","0","1","0","1","4","2","3","2","3","4","3","3","5","2","2","797915991576289281","李","175","","","","","","","","","","","","","","","","","","","","","","","","","","","","","","feedback_test","","","","","","","","","","","",""
"800","","j","psychophysics","55","171306","0.0-7.0-1.0-1.0-0.0-0.23","4","3","4","4","3","3","3","4","3","4","4","3","3","5","3","4","4","3","5","4","2","3","2","2","2","1","2","3","2","1","0","1","1","0","0","1","1","0","1","1","0","1","0","1","4","2","3","2","3","4","3","3","5","2","2","797915991576289281","李","175","","","","match","","","","","","","","","","","","","","key","j","6.942023346303412","768","428","f","false","nonmatch","img/pentagon.png","椭圆","五边","ALT1_2","prac_ALT1_2","","","","","","","","","","","",""
"null","<span style='color:red; font-size: 70px;'>错误! </span>","null","html-keyboard-response","56","171806","0.0-7.0-1.0-1.0-0.0-1.23","4","3","4","4","3","3","3","4","3","4","4","3","3","5","3","4","4","3","5","4","2","3","2","2","2","1","2","3","2","1","0","1","1","0","0","1","1","0","1","1","0","1","0","1","4","2","3","2","3","4","3","3","5","2","2","797915991576289281","李","175","","","","","","","","","","","","","","","","","","","","","","","","","","","","","","feedback_test","","","","","","","","","","","",""
"1185","","j","psychophysics","57","173995","0.0-7.0-1.0-1.0-0.0-0.24","4","3","4","4","3","3","3","4","3","4","4","3","3","5","3","4","4","3","5","4","2","3","2","2","2","1","2","3","2","1","0","1","1","0","0","1","1","0","1","1","0","1","0","1","4","2","3","2","3","4","3","3","5","2","2","797915991576289281","李","175","","","","match","","","","","","","","","","","","","","key","j","6.9684887459807445","768","428","j","true","match","img/ellipse.png","椭圆","椭圆","ALT1_2","prac_ALT1_2","","","","","","","","","","","",""
"null","<span style='color:GreenYellow; font-size: 70px;'>正确! </span>","null","html-keyboard-response","58","174497","0.0-7.0-1.0-1.0-0.0-1.24","4","3","4","4","3","3","3","4","3","4","4","3","3","5","3","4","4","3","5","4","2","3","2","2","2","1","2","3","2","1","0","1","1","0","0","1","1","0","1","1","0","1","0","1","4","2","3","2","3","4","3","3","5","2","2","797915991576289281","李","175","","","","","","","","","","","","","","","","","","","","","","","","","","","","","","feedback_test","","","","","","","","","","","",""
"918","","f","psychophysics","59","176416","0.0-7.0-1.0-1.0-0.0-0.25","4","3","4","4","3","3","3","4","3","4","4","3","3","5","3","4","4","3","5","4","2","3","2","2","2","1","2","3","2","1","0","1","1","0","0","1","1","0","1","1","0","1","0","1","4","2","3","2","3","4","3","3","5","2","2","797915991576289281","李","175","","","","nonmatch","","","","","","","","","","","","","","key","f","6.943065693430635","768","428","f","true","nonmatch","img/ellipse.png","梯形","椭圆","ALT1_2","prac_ALT1_2","","","","","","","","","","","",""
"null","<span style='color:GreenYellow; font-size: 70px;'>正确! </span>","null","html-keyboard-response","60","176918","0.0-7.0-1.0-1.0-0.0-1.25","4","3","4","4","3","3","3","4","3","4","4","3","3","5","3","4","4","3","5","4","2","3","2","2","2","1","2","3","2","1","0","1","1","0","0","1","1","0","1","1","0","1","0","1","4","2","3","2","3","4","3","3","5","2","2","797915991576289281","李","175","","","","","","","","","","","","","","","","","","","","","","","","","","","","","","feedback_test","","","","","","","","","","","",""
"709","","j","psychophysics","61","178628","0.0-7.0-1.0-1.0-0.0-0.26","4","3","4","4","3","3","3","4","3","4","4","3","3","5","3","4","4","3","5","4","2","3","2","2","2","1","2","3","2","1","0","1","1","0","0","1","1","0","1","1","0","1","0","1","4","2","3","2","3","4","3","3","5","2","2","797915991576289281","李","175","","","","match","","","","","","","","","","","","","","key","j","6.952868852459017","768","428","f","false","nonmatch","img/pentagon.png","梯形","五边","ALT1_2","prac_ALT1_2","","","","","","","","","","","",""
"null","<span style='color:red; font-size: 70px;'>错误! </span>","null","html-keyboard-response","62","179129","0.0-7.0-1.0-1.0-0.0-1.26","4","3","4","4","3","3","3","4","3","4","4","3","3","5","3","4","4","3","5","4","2","3","2","2","2","1","2","3","2","1","0","1","1","0","0","1","1","0","1","1","0","1","0","1","4","2","3","2","3","4","3","3","5","2","2","797915991576289281","李","175","","","","","","","","","","","","","","","","","","","","","","","","","","","","","","feedback_test","","","","","","","","","","","",""
"914","","f","psychophysics","63","181045","0.0-7.0-1.0-1.0-0.0-0.27","4","3","4","4","3","3","3","4","3","4","4","3","3","5","3","4","4","3","5","4","2","3","2","2","2","1","2","3","2","1","0","1","1","0","0","1","1","0","1","1","0","1","0","1","4","2","3","2","3","4","3","3","5","2","2","797915991576289281","李","175","","","","nonmatch","","","","","","","","","","","","","","key","f","6.970220588235272","768","428","j","false","match","img/pentagon.png","五边","五边","ALT1_2","prac_ALT1_2","","","","","","","","","","","",""
"null","<span style='color:red; font-size: 70px;'>错误! </span>","null","html-keyboard-response","64","181546","0.0-7.0-1.0-1.0-0.0-1.27","4","3","4","4","3","3","3","4","3","4","4","3","3","5","3","4","4","3","5","4","2","3","2","2","2","1","2","3","2","1","0","1","1","0","0","1","1","0","1","1","0","1","0","1","4","2","3","2","3","4","3","3","5","2","2","797915991576289281","李","175","","","","","","","","","","","","","","","","","","","","","","","","","","","","","","feedback_test","","","","","","","","","","","",""
"878","","f","psychophysics","65","183426","0.0-7.0-1.0-1.0-0.0-0.28","4","3","4","4","3","3","3","4","3","4","4","3","3","5","3","4","4","3","5","4","2","3","2","2","2","1","2","3","2","1","0","1","1","0","0","1","1","0","1","1","0","1","0","1","4","2","3","2","3","4","3","3","5","2","2","797915991576289281","李","175","","","","nonmatch","","","","","","","","","","","","","","key","f","6.944402985074649","768","428","j","false","match","img/triangle.png","三角","三角","ALT1_2","prac_ALT1_2","","","","","","","","","","","",""
"null","<span style='color:red; font-size: 70px;'>错误! </span>","null","html-keyboard-response","66","183927","0.0-7.0-1.0-1.0-0.0-1.28","4","3","4","4","3","3","3","4","3","4","4","3","3","5","3","4","4","3","5","4","2","3","2","2","2","1","2","3","2","1","0","1","1","0","0","1","1","0","1","1","0","1","0","1","4","2","3","2","3","4","3","3","5","2","2","797915991576289281","李","175","","","","","","","","","","","","","","","","","","","","","","","","","","","","","","feedback_test","","","","","","","","","","","",""
"895","","j","psychophysics","67","185825","0.0-7.0-1.0-1.0-0.0-0.29","4","3","4","4","3","3","3","4","3","4","4","3","3","5","3","4","4","3","5","4","2","3","2","2","2","1","2","3","2","1","0","1","1","0","0","1","1","0","1","1","0","1","0","1","4","2","3","2","3","4","3","3","5","2","2","797915991576289281","李","175","","","","match","","","","","","","","","","","","","","key","j","6.939114391143911","768","428","j","true","match","img/ellipse.png","椭圆","椭圆","ALT1_2","prac_ALT1_2","","","","","","","","","","","",""
"null","<span style='color:GreenYellow; font-size: 70px;'>正确! </span>","null","html-keyboard-response","68","186326","0.0-7.0-1.0-1.0-0.0-1.29","4","3","4","4","3","3","3","4","3","4","4","3","3","5","3","4","4","3","5","4","2","3","2","2","2","1","2","3","2","1","0","1","1","0","0","1","1","0","1","1","0","1","0","1","4","2","3","2","3","4","3","3","5","2","2","797915991576289281","李","175","","","","","","","","","","","","","","","","","","","","","","","","","","","","","","feedback_test","","","","","","","","","","","",""
"767","","f","psychophysics","69","188095","0.0-7.0-1.0-1.0-0.0-0.30","4","3","4","4","3","3","3","4","3","4","4","3","3","5","3","4","4","3","5","4","2","3","2","2","2","1","2","3","2","1","0","1","1","0","0","1","1","0","1","1","0","1","0","1","4","2","3","2","3","4","3","3","5","2","2","797915991576289281","李","175","","","","nonmatch","","","","","","","","","","","","","","key","f","6.982608695652197","768","428","f","true","nonmatch","img/pentagon.png","三角","五边","ALT1_2","prac_ALT1_2","","","","","","","","","","","",""
"null","<span style='color:GreenYellow; font-size: 70px;'>正确! </span>","null","html-keyboard-response","70","188598","0.0-7.0-1.0-1.0-0.0-1.30","4","3","4","4","3","3","3","4","3","4","4","3","3","5","3","4","4","3","5","4","2","3","2","2","2","1","2","3","2","1","0","1","1","0","0","1","1","0","1","1","0","1","0","1","4","2","3","2","3","4","3","3","5","2","2","797915991576289281","李","175","","","","","","","","","","","","","","","","","","","","","","","","","","","","","","feedback_test","","","","","","","","","","","",""
"678","","j","psychophysics","71","190278","0.0-7.0-1.0-1.0-0.0-0.31","4","3","4","4","3","3","3","4","3","4","4","3","3","5","3","4","4","3","5","4","2","3","2","2","2","1","2","3","2","1","0","1","1","0","0","1","1","0","1","1","0","1","0","1","4","2","3","2","3","4","3","3","5","2","2","797915991576289281","李","175","","","","match","","","","","","","","","","","","","","key","j","6.978749999999976","768","428","f","false","nonmatch","img/pentagon.png","椭圆","五边","ALT1_2","prac_ALT1_2","","","","","","","","","","","",""
"null","<span style='color:red; font-size: 70px;'>错误! </span>","null","html-keyboard-response","72","190779","0.0-7.0-1.0-1.0-0.0-1.31","4","3","4","4","3","3","3","4","3","4","4","3","3","5","3","4","4","3","5","4","2","3","2","2","2","1","2","3","2","1","0","1","1","0","0","1","1","0","1","1","0","1","0","1","4","2","3","2","3","4","3","3","5","2","2","797915991576289281","李","175","","","","","","","","","","","","","","","","","","","","","","","","","","","","","","feedback_test","","","","","","","","","","","",""
"null","","null","psychophysics","73","192984","0.0-7.0-1.0-1.0-0.0-0.32","4","3","4","4","3","3","3","4","3","4","4","3","3","5","3","4","4","3","5","4","2","3","2","2","2","1","2","3","2","1","0","1","1","0","0","1","1","0","1","1","0","1","0","1","4","2","3","2","3","4","3","3","5","2","2","797915991576289281","李","175","","","","null","","","","","","","","","","","","","","key","null","6.942857142857143","768","428","j","false","match","img/ellipse.png","椭圆","椭圆","ALT1_2","prac_ALT1_2","","","","","","","","","","","",""
"null","<span class='add_' style='color:yellow; font-size: 70px;'> 太慢! </span>","null","html-keyboard-response","74","193485","0.0-7.0-1.0-1.0-0.0-1.32","4","3","4","4","3","3","3","4","3","4","4","3","3","5","3","4","4","3","5","4","2","3","2","2","2","1","2","3","2","1","0","1","1","0","0","1","1","0","1","1","0","1","0","1","4","2","3","2","3","4","3","3","5","2","2","797915991576289281","李","175","","","","","","","","","","","","","","","","","","","","","","","","","","","","","","feedback_test","","","","","","","","","","","",""
"780","","j","psychophysics","75","195266","0.0-7.0-1.0-1.0-0.0-0.33","4","3","4","4","3","3","3","4","3","4","4","3","3","5","3","4","4","3","5","4","2","3","2","2","2","1","2","3","2","1","0","1","1","0","0","1","1","0","1","1","0","1","0","1","4","2","3","2","3","4","3","3","5","2","2","797915991576289281","李","175","","","","match","","","","","","","","","","","","","","key","j","6.944313725490151","768","428","j","true","match","img/triangle.png","三角","三角","ALT1_2","prac_ALT1_2","","","","","","","","","","","",""
"null","<span style='color:GreenYellow; font-size: 70px;'>正确! </span>","null","html-keyboard-response","76","195767","0.0-7.0-1.0-1.0-0.0-1.33","4","3","4","4","3","3","3","4","3","4","4","3","3","5","3","4","4","3","5","4","2","3","2","2","2","1","2","3","2","1","0","1","1","0","0","1","1","0","1","1","0","1","0","1","4","2","3","2","3","4","3","3","5","2","2","797915991576289281","李","175","","","","","","","","","","","","","","","","","","","","","","","","","","","","","","feedback_test","","","","","","","","","","","",""
"616","","f","psychophysics","77","197385","0.0-7.0-1.0-1.0-0.0-0.34","4","3","4","4","3","3","3","4","3","4","4","3","3","5","3","4","4","3","5","4","2","3","2","2","2","1","2","3","2","1","0","1","1","0","0","1","1","0","1","1","0","1","0","1","4","2","3","2","3","4","3","3","5","2","2","797915991576289281","李","175","","","","nonmatch","","","","","","","","","","","","","","key","f","6.973593073593048","768","428","f","true","nonmatch","img/triangle.png","椭圆","三角","ALT1_2","prac_ALT1_2","","","","","","","","","","","",""
"null","<span style='color:GreenYellow; font-size: 70px;'>正确! </span>","null","html-keyboard-response","78","197885","0.0-7.0-1.0-1.0-0.0-1.34","4","3","4","4","3","3","3","4","3","4","4","3","3","5","3","4","4","3","5","4","2","3","2","2","2","1","2","3","2","1","0","1","1","0","0","1","1","0","1","1","0","1","0","1","4","2","3","2","3","4","3","3","5","2","2","797915991576289281","李","175","","","","","","","","","","","","","","","","","","","","","","","","","","","","","","feedback_test","","","","","","","","","","","",""
"747","","j","psychophysics","79","199634","0.0-7.0-1.0-1.0-0.0-0.35","4","3","4","4","3","3","3","4","3","4","4","3","3","5","3","4","4","3","5","4","2","3","2","2","2","1","2","3","2","1","0","1","1","0","0","1","1","0","1","1","0","1","0","1","4","2","3","2","3","4","3","3","5","2","2","797915991576289281","李","175","","","","match","","","","","","","","","","","","","","key","j","6.94337349397588","768","428","f","false","nonmatch","img/trapezoid.png","五边","梯形","ALT1_2","prac_ALT1_2","","","","","","","","","","","",""
"null","<span style='color:red; font-size: 70px;'>错误! </span>","null","html-keyboard-response","80","200135","0.0-7.0-1.0-1.0-0.0-1.35","4","3","4","4","3","3","3","4","3","4","4","3","3","5","3","4","4","3","5","4","2","3","2","2","2","1","2","3","2","1","0","1","1","0","0","1","1","0","1","1","0","1","0","1","4","2","3","2","3","4","3","3","5","2","2","797915991576289281","李","175","","","","","","","","","","","","","","","","","","","","","","","","","","","","","","feedback_test","","","","","","","","","","","",""
"1150","","j","psychophysics","81","202287","0.0-7.0-1.0-1.0-0.0-0.36","4","3","4","4","3","3","3","4","3","4","4","3","3","5","3","4","4","3","5","4","2","3","2","2","2","1","2","3","2","1","0","1","1","0","0","1","1","0","1","1","0","1","0","1","4","2","3","2","3","4","3","3","5","2","2","797915991576289281","李","175","","","","match","","","","","","","","","","","","","","key","j","6.943322475570051","768","428","f","false","nonmatch","img/triangle.png","五边","三角","ALT1_2","prac_ALT1_2","","","","","","","","","","","",""
"null","<span style='color:red; font-size: 70px;'>错误! </span>","null","html-keyboard-response","82","202788","0.0-7.0-1.0-1.0-0.0-1.36","4","3","4","4","3","3","3","4","3","4","4","3","3","5","3","4","4","3","5","4","2","3","2","2","2","1","2","3","2","1","0","1","1","0","0","1","1","0","1","1","0","1","0","1","4","2","3","2","3","4","3","3","5","2","2","797915991576289281","李","175","","","","","","","","","","","","","","","","","","","","","","","","","","","","","","feedback_test","","","","","","","","","","","",""
"957","","j","psychophysics","83","204748","0.0-7.0-1.0-1.0-0.0-0.37","4","3","4","4","3","3","3","4","3","4","4","3","3","5","3","4","4","3","5","4","2","3","2","2","2","1","2","3","2","1","0","1","1","0","0","1","1","0","1","1","0","1","0","1","4","2","3","2","3","4","3","3","5","2","2","797915991576289281","李","175","","","","match","","","","","","","","","","","","","","key","j","6.978214285714265","768","428","f","false","nonmatch","img/ellipse.png","三角","椭圆","ALT1_2","prac_ALT1_2","","","","","","","","","","","",""
"null","<span style='color:red; font-size: 70px;'>错误! </span>","null","html-keyboard-response","84","205249","0.0-7.0-1.0-1.0-0.0-1.37","4","3","4","4","3","3","3","4","3","4","4","3","3","5","3","4","4","3","5","4","2","3","2","2","2","1","2","3","2","1","0","1","1","0","0","1","1","0","1","1","0","1","0","1","4","2","3","2","3","4","3","3","5","2","2","797915991576289281","李","175","","","","","","","","","","","","","","","","","","","","","","","","","","","","","","feedback_test","","","","","","","","","","","",""
"1153","","f","psychophysics","85","207405","0.0-7.0-1.0-1.0-0.0-0.38","4","3","4","4","3","3","3","4","3","4","4","3","3","5","3","4","4","3","5","4","2","3","2","2","2","1","2","3","2","1","0","1","1","0","0","1","1","0","1","1","0","1","0","1","4","2","3","2","3","4","3","3","5","2","2","797915991576289281","李","175","","","","nonmatch","","","","","","","","","","","","","","key","f","6.944516129032221","768","428","j","false","match","img/trapezoid.png","梯形","梯形","ALT1_2","prac_ALT1_2","","","","","","","","","","","",""
"null","<span style='color:red; font-size: 70px;'>错误! </span>","null","html-keyboard-response","86","207908","0.0-7.0-1.0-1.0-0.0-1.38","4","3","4","4","3","3","3","4","3","4","4","3","3","5","3","4","4","3","5","4","2","3","2","2","2","1","2","3","2","1","0","1","1","0","0","1","1","0","1","1","0","1","0","1","4","2","3","2","3","4","3","3","5","2","2","797915991576289281","李","175","","","","","","","","","","","","","","","","","","","","","","","","","","","","","","feedback_test","","","","","","","","","","","",""
"1044","","j","psychophysics","87","209954","0.0-7.0-1.0-1.0-0.0-0.39","4","3","4","4","3","3","3","4","3","4","4","3","3","5","3","4","4","3","5","4","2","3","2","2","2","1","2","3","2","1","0","1","1","0","0","1","1","0","1","1","0","1","0","1","4","2","3","2","3","4","3","3","5","2","2","797915991576289281","李","175","","","","match","","","","","","","","","","","","","","key","j","6.963265306122489","768","428","j","true","match","img/pentagon.png","五边","五边","ALT1_2","prac_ALT1_2","","","","","","","","","","","",""
"null","<span style='color:GreenYellow; font-size: 70px;'>正确! </span>","null","html-keyboard-response","88","210456","0.0-7.0-1.0-1.0-0.0-1.39","4","3","4","4","3","3","3","4","3","4","4","3","3","5","3","4","4","3","5","4","2","3","2","2","2","1","2","3","2","1","0","1","1","0","0","1","1","0","1","1","0","1","0","1","4","2","3","2","3","4","3","3","5","2","2","797915991576289281","李","175","","","","","","","","","","","","","","","","","","","","","","","","","","","","","","feedback_test","","","","","","","","","","","",""
"null","","null","psychophysics","89","212661","0.0-7.0-1.0-1.0-0.0-0.40","4","3","4","4","3","3","3","4","3","4","4","3","3","5","3","4","4","3","5","4","2","3","2","2","2","1","2","3","2","1","0","1","1","0","0","1","1","0","1","1","0","1","0","1","4","2","3","2","3","4","3","3","5","2","2","797915991576289281","李","175","","","","null","","","","","","","","","","","","","","key","null","6.963492063492064","768","428","f","false","nonmatch","img/trapezoid.png","椭圆","梯形","ALT1_2","prac_ALT1_2","","","","","","","","","","","",""
"null","<span class='add_' style='color:yellow; font-size: 70px;'> 太慢! </span>","null","html-keyboard-response","90","213162","0.0-7.0-1.0-1.0-0.0-1.40","4","3","4","4","3","3","3","4","3","4","4","3","3","5","3","4","4","3","5","4","2","3","2","2","2","1","2","3","2","1","0","1","1","0","0","1","1","0","1","1","0","1","0","1","4","2","3","2","3","4","3","3","5","2","2","797915991576289281","李","175","","","","","","","","","","","","","","","","","","","","","","","","","","","","","","feedback_test","","","","","","","","","","","",""
"1011","","j","psychophysics","91","215174","0.0-7.0-1.0-1.0-0.0-0.41","4","3","4","4","3","3","3","4","3","4","4","3","3","5","3","4","4","3","5","4","2","3","2","2","2","1","2","3","2","1","0","1","1","0","0","1","1","0","1","1","0","1","0","1","4","2","3","2","3","4","3","3","5","2","2","797915991576289281","李","175","","","","match","","","","","","","","","","","","","","key","j","6.938327526132364","768","428","j","true","match","img/trapezoid.png","梯形","梯形","ALT1_2","prac_ALT1_2","","","","","","","","","","","",""
"null","<span style='color:GreenYellow; font-size: 70px;'>正确! </span>","null","html-keyboard-response","92","215675","0.0-7.0-1.0-1.0-0.0-1.41","4","3","4","4","3","3","3","4","3","4","4","3","3","5","3","4","4","3","5","4","2","3","2","2","2","1","2","3","2","1","0","1","1","0","0","1","1","0","1","1","0","1","0","1","4","2","3","2","3","4","3","3","5","2","2","797915991576289281","李","175","","","","","","","","","","","","","","","","","","","","","","","","","","","","","","feedback_test","","","","","","","","","","","",""
"867","","f","psychophysics","93","217545","0.0-7.0-1.0-1.0-0.0-0.42","4","3","4","4","3","3","3","4","3","4","4","3","3","5","3","4","4","3","5","4","2","3","2","2","2","1","2","3","2","1","0","1","1","0","0","1","1","0","1","1","0","1","0","1","4","2","3","2","3","4","3","3","5","2","2","797915991576289281","李","175","","","","nonmatch","","","","","","","","","","","","","","key","f","6.968164794007491","768","428","f","true","nonmatch","img/ellipse.png","五边","椭圆","ALT1_2","prac_ALT1_2","","","","","","","","","","","",""
"null","<span style='color:GreenYellow; font-size: 70px;'>正确! </span>","null","html-keyboard-response","94","218046","0.0-7.0-1.0-1.0-0.0-1.42","4","3","4","4","3","3","3","4","3","4","4","3","3","5","3","4","4","3","5","4","2","3","2","2","2","1","2","3","2","1","0","1","1","0","0","1","1","0","1","1","0","1","0","1","4","2","3","2","3","4","3","3","5","2","2","797915991576289281","李","175","","","","","","","","","","","","","","","","","","","","","","","","","","","","","","feedback_test","","","","","","","","","","","",""
"828","","j","psychophysics","95","219875","0.0-7.0-1.0-1.0-0.0-0.43","4","3","4","4","3","3","3","4","3","4","4","3","3","5","3","4","4","3","5","4","2","3","2","2","2","1","2","3","2","1","0","1","1","0","0","1","1","0","1","1","0","1","0","1","4","2","3","2","3","4","3","3","5","2","2","797915991576289281","李","175","","","","match","","","","","","","","","","","","","","key","j","6.977862595419781","768","428","j","true","match","img/triangle.png","三角","三角","ALT1_2","prac_ALT1_2","","","","","","","","","","","",""
"null","<span style='color:GreenYellow; font-size: 70px;'>正确! </span>","null","html-keyboard-response","96","220377","0.0-7.0-1.0-1.0-0.0-1.43","4","3","4","4","3","3","3","4","3","4","4","3","3","5","3","4","4","3","5","4","2","3","2","2","2","1","2","3","2","1","0","1","1","0","0","1","1","0","1","1","0","1","0","1","4","2","3","2","3","4","3","3","5","2","2","797915991576289281","李","175","","","","","","","","","","","","","","","","","","","","","","","","","","","","","","feedback_test","","","","","","","","","","","",""
"1187","","j","psychophysics","97","222566","0.0-7.0-1.0-1.0-0.0-0.44","4","3","4","4","3","3","3","4","3","4","4","3","3","5","3","4","4","3","5","4","2","3","2","2","2","1","2","3","2","1","0","1","1","0","0","1","1","0","1","1","0","1","0","1","4","2","3","2","3","4","3","3","5","2","2","797915991576289281","李","175","","","","match","","","","","","","","","","","","","","key","j","6.941935483870968","768","428","j","true","match","img/pentagon.png","五边","五边","ALT1_2","prac_ALT1_2","","","","","","","","","","","",""
"null","<span style='color:GreenYellow; font-size: 70px;'>正确! </span>","null","html-keyboard-response","98","223067","0.0-7.0-1.0-1.0-0.0-1.44","4","3","4","4","3","3","3","4","3","4","4","3","3","5","3","4","4","3","5","4","2","3","2","2","2","1","2","3","2","1","0","1","1","0","0","1","1","0","1","1","0","1","0","1","4","2","3","2","3","4","3","3","5","2","2","797915991576289281","李","175","","","","","","","","","","","","","","","","","","","","","","","","","","","","","","feedback_test","","","","","","","","","","","",""
"1004","","f","psychophysics","99","225073","0.0-7.0-1.0-1.0-0.0-0.45","4","3","4","4","3","3","3","4","3","4","4","3","3","5","3","4","4","3","5","4","2","3","2","2","2","1","2","3","2","1","0","1","1","0","0","1","1","0","1","1","0","1","0","1","4","2","3","2","3","4","3","3","5","2","2","797915991576289281","李","175","","","","nonmatch","","","","","","","","","","","","","","key","f","6.942198581560325","768","428","f","true","nonmatch","img/trapezoid.png","三角","梯形","ALT1_2","prac_ALT1_2","","","","","","","","","","","",""
"null","<span style='color:GreenYellow; font-size: 70px;'>正确! </span>","null","html-keyboard-response","100","225575","0.0-7.0-1.0-1.0-0.0-1.45","4","3","4","4","3","3","3","4","3","4","4","3","3","5","3","4","4","3","5","4","2","3","2","2","2","1","2","3","2","1","0","1","1","0","0","1","1","0","1","1","0","1","0","1","4","2","3","2","3","4","3","3","5","2","2","797915991576289281","李","175","","","","","","","","","","","","","","","","","","","","","","","","","","","","","","feedback_test","","","","","","","","","","","",""
"797","","j","psychophysics","101","227374","0.0-7.0-1.0-1.0-0.0-0.46","4","3","4","4","3","3","3","4","3","4","4","3","3","5","3","4","4","3","5","4","2","3","2","2","2","1","2","3","2","1","0","1","1","0","0","1","1","0","1","1","0","1","0","1","4","2","3","2","3","4","3","3","5","2","2","797915991576289281","李","175","","","","match","","","","","","","","","","","","","","key","j","6.984375","768","428","j","true","match","img/trapezoid.png","梯形","梯形","ALT1_2","prac_ALT1_2","","","","","","","","","","","",""
"null","<span style='color:GreenYellow; font-size: 70px;'>正确! </span>","null","html-keyboard-response","102","227875","0.0-7.0-1.0-1.0-0.0-1.46","4","3","4","4","3","3","3","4","3","4","4","3","3","5","3","4","4","3","5","4","2","3","2","2","2","1","2","3","2","1","0","1","1","0","0","1","1","0","1","1","0","1","0","1","4","2","3","2","3","4","3","3","5","2","2","797915991576289281","李","175","","","","","","","","","","","","","","","","","","","","","","","","","","","","","","feedback_test","","","","","","","","","","","",""
"848","","f","psychophysics","103","229725","0.0-7.0-1.0-1.0-0.0-0.47","4","3","4","4","3","3","3","4","3","4","4","3","3","5","3","4","4","3","5","4","2","3","2","2","2","1","2","3","2","1","0","1","1","0","0","1","1","0","1","1","0","1","0","1","4","2","3","2","3","4","3","3","5","2","2","797915991576289281","李","175","","","","nonmatch","","","","","","","","","","","","","","key","f","6.965037593985006","768","428","f","true","nonmatch","img/triangle.png","梯形","三角","ALT1_2","prac_ALT1_2","","","","","","","","","","","",""
"null","<span style='color:GreenYellow; font-size: 70px;'>正确! </span>","null","html-keyboard-response","104","230227","0.0-7.0-1.0-1.0-0.0-1.47","4","3","4","4","3","3","3","4","3","4","4","3","3","5","3","4","4","3","5","4","2","3","2","2","2","1","2","3","2","1","0","1","1","0","0","1","1","0","1","1","0","1","0","1","4","2","3","2","3","4","3","3","5","2","2","797915991576289281","李","175","","","","","","","","","","","","","","","","","","","","","","","","","","","","","","feedback_test","","","","","","","","","","","",""
"27618","<style>.context{color:white; font-size: 35px; line-height:40px}</style>                          <div><p class='context'>您正确回答了52% 的试次。</p><p class='context'>您的平均反应时为895毫秒。</p><p class='context'>恭喜您完成练习。按空格键继续。</p></div>"," ","html-keyboard-response","105","257848","0.0-7.0-1.0-1.0-1.0-0.0","4","3","4","4","3","3","3","4","3","4","4","3","3","5","3","4","4","3","5","4","2","3","2","2","2","1","2","3","2","1","0","1","1","0","0","1","1","0","1","1","0","1","0","1","4","2","3","2","3","4","3","3","5","2","2","797915991576289281","李","175","","","","","","","","","","","","","","","","","","","","","","","","","","","","","","","","","","","","","","","","","",""
"20232","","","instructions","106","278081","0.0-7.0-1.0-1.0-1.0-1.0","4","3","4","4","3","3","3","4","3","4","4","3","3","5","3","4","4","3","5","4","2","3","2","2","2","1","2","3","2","1","0","1","1","0","0","1","1","0","1","1","0","1","0","1","4","2","3","2","3","4","3","3","5","2","2","797915991576289281","李","175","","","","","","","","","","","","","","","","","[{""page_index"":0,""viewing_time"":3475},{""page_index"":1,""viewing_time"":14096},{""page_index"":2,""viewing_time"":2661}]","","","","","","","","","","","","","","","","","","","","","","","","",""
"892","","j","psychophysics","107","279975","0.0-7.0-1.0-1.1-0.1-0.48","4","3","4","4","3","3","3","4","3","4","4","3","3","5","3","4","4","3","5","4","2","3","2","2","2","1","2","3","2","1","0","1","1","0","0","1","1","0","1","1","0","1","0","1","4","2","3","2","3","4","3","3","5","2","2","797915991576289281","李","175","","","","match","","","","","","","","","","","","","","key","j","6.944280442804514","768","428","j","true","match","img/ellipse.png","椭圆","椭圆","ALT1_2","prac_ALT1_2","","","","","","","","","","","",""
"null","<span style='color:GreenYellow; font-size: 70px;'>正确! </span>","null","html-keyboard-response","108","280476","0.0-7.0-1.0-1.1-0.1-1.48","4","3","4","4","3","3","3","4","3","4","4","3","3","5","3","4","4","3","5","4","2","3","2","2","2","1","2","3","2","1","0","1","1","0","0","1","1","0","1","1","0","1","0","1","4","2","3","2","3","4","3","3","5","2","2","797915991576289281","李","175","","","","","","","","","","","","","","","","","","","","","","","","","","","","","","feedback_test","","","","","","","","","","","",""
"795","","f","psychophysics","109","282273","0.0-7.0-1.0-1.1-0.1-0.49","4","3","4","4","3","3","3","4","3","4","4","3","3","5","3","4","4","3","5","4","2","3","2","2","2","1","2","3","2","1","0","1","1","0","0","1","1","0","1","1","0","1","0","1","4","2","3","2","3","4","3","3","5","2","2","797915991576289281","李","175","","","","nonmatch","","","","","","","","","","","","","","key","f","6.9441406250000455","768","428","f","true","nonmatch","img/ellipse.png","五边","椭圆","ALT1_2","prac_ALT1_2","","","","","","","","","","","",""
"null","<span style='color:GreenYellow; font-size: 70px;'>正确! </span>","null","html-keyboard-response","110","282776","0.0-7.0-1.0-1.1-0.1-1.49","4","3","4","4","3","3","3","4","3","4","4","3","3","5","3","4","4","3","5","4","2","3","2","2","2","1","2","3","2","1","0","1","1","0","0","1","1","0","1","1","0","1","0","1","4","2","3","2","3","4","3","3","5","2","2","797915991576289281","李","175","","","","","","","","","","","","","","","","","","","","","","","","","","","","","","feedback_test","","","","","","","","","","","",""
"917","","f","psychophysics","111","284695","0.0-7.0-1.0-1.1-0.1-0.50","4","3","4","4","3","3","3","4","3","4","4","3","3","5","3","4","4","3","5","4","2","3","2","2","2","1","2","3","2","1","0","1","1","0","0","1","1","0","1","1","0","1","0","1","4","2","3","2","3","4","3","3","5","2","2","797915991576289281","李","175","","","","nonmatch","","","","","","","","","","","","","","key","f","6.93736263736251","768","428","f","true","nonmatch","img/triangle.png","椭圆","三角","ALT1_2","prac_ALT1_2","","","","","","","","","","","",""
"null","<span style='color:GreenYellow; font-size: 70px;'>正确! </span>","null","html-keyboard-response","112","285196","0.0-7.0-1.0-1.1-0.1-1.50","4","3","4","4","3","3","3","4","3","4","4","3","3","5","3","4","4","3","5","4","2","3","2","2","2","1","2","3","2","1","0","1","1","0","0","1","1","0","1","1","0","1","0","1","4","2","3","2","3","4","3","3","5","2","2","797915991576289281","李","175","","","","","","","","","","","","","","","","","","","","","","","","","","","","","","feedback_test","","","","","","","","","","","",""
"776","","j","psychophysics","113","286974","0.0-7.0-1.0-1.1-0.1-0.51","4","3","4","4","3","3","3","4","3","4","4","3","3","5","3","4","4","3","5","4","2","3","2","2","2","1","2","3","2","1","0","1","1","0","0","1","1","0","1","1","0","1","0","1","4","2","3","2","3","4","3","3","5","2","2","797915991576289281","李","175","","","","match","","","","","","","","","","","","","","key","j","6.973809523809385","768","428","f","false","nonmatch","img/trapezoid.png","三角","梯形","ALT1_2","prac_ALT1_2","","","","","","","","","","","",""
"null","<span style='color:red; font-size: 70px;'>错误! </span>","null","html-keyboard-response","114","287477","0.0-7.0-1.0-1.1-0.1-1.51","4","3","4","4","3","3","3","4","3","4","4","3","3","5","3","4","4","3","5","4","2","3","2","2","2","1","2","3","2","1","0","1","1","0","0","1","1","0","1","1","0","1","0","1","4","2","3","2","3","4","3","3","5","2","2","797915991576289281","李","175","","","","","","","","","","","","","","","","","","","","","","","","","","","","","","feedback_test","","","","","","","","","","","",""
"605","","j","psychophysics","115","289083","0.0-7.0-1.0-1.1-0.1-0.52","4","3","4","4","3","3","3","4","3","4","4","3","3","5","3","4","4","3","5","4","2","3","2","2","2","1","2","3","2","1","0","1","1","0","0","1","1","0","1","1","0","1","0","1","4","2","3","2","3","4","3","3","5","2","2","797915991576289281","李","175","","","","match","","","","","","","","","","","","","","key","j","6.9714912280701755","768","428","j","true","match","img/triangle.png","三角","三角","ALT1_2","prac_ALT1_2","","","","","","","","","","","",""
"null","<span style='color:GreenYellow; font-size: 70px;'>正确! </span>","null","html-keyboard-response","116","289584","0.0-7.0-1.0-1.1-0.1-1.52","4","3","4","4","3","3","3","4","3","4","4","3","3","5","3","4","4","3","5","4","2","3","2","2","2","1","2","3","2","1","0","1","1","0","0","1","1","0","1","1","0","1","0","1","4","2","3","2","3","4","3","3","5","2","2","797915991576289281","李","175","","","","","","","","","","","","","","","","","","","","","","","","","","","","","","feedback_test","","","","","","","","","","","",""
"598","","j","psychophysics","117","291185","0.0-7.0-1.0-1.1-0.1-0.53","4","3","4","4","3","3","3","4","3","4","4","3","3","5","3","4","4","3","5","4","2","3","2","2","2","1","2","3","2","1","0","1","1","0","0","1","1","0","1","1","0","1","0","1","4","2","3","2","3","4","3","3","5","2","2","797915991576289281","李","175","","","","match","","","","","","","","","","","","","","key","j","6.934649122806915","768","428","f","false","nonmatch","img/triangle.png","梯形","三角","ALT1_2","prac_ALT1_2","","","","","","","","","","","",""
"null","<span style='color:red; font-size: 70px;'>错误! </span>","null","html-keyboard-response","118","291686","0.0-7.0-1.0-1.1-0.1-1.53","4","3","4","4","3","3","3","4","3","4","4","3","3","5","3","4","4","3","5","4","2","3","2","2","2","1","2","3","2","1","0","1","1","0","0","1","1","0","1","1","0","1","0","1","4","2","3","2","3","4","3","3","5","2","2","797915991576289281","李","175","","","","","","","","","","","","","","","","","","","","","","","","","","","","","","feedback_test","","","","","","","","","","","",""
"767","","j","psychophysics","119","293455","0.0-7.0-1.0-1.1-0.1-0.54","4","3","4","4","3","3","3","4","3","4","4","3","3","5","3","4","4","3","5","4","2","3","2","2","2","1","2","3","2","1","0","1","1","0","0","1","1","0","1","1","0","1","0","1","4","2","3","2","3","4","3","3","5","2","2","797915991576289281","李","175","","","","match","","","","","","","","","","","","","","key","j","6.969841269841362","768","428","j","true","match","img/pentagon.png","五边","五边","ALT1_2","prac_ALT1_2","","","","","","","","","","","",""
"null","<span style='color:GreenYellow; font-size: 70px;'>正确! </span>","null","html-keyboard-response","120","293956","0.0-7.0-1.0-1.1-0.1-1.54","4","3","4","4","3","3","3","4","3","4","4","3","3","5","3","4","4","3","5","4","2","3","2","2","2","1","2","3","2","1","0","1","1","0","0","1","1","0","1","1","0","1","0","1","4","2","3","2","3","4","3","3","5","2","2","797915991576289281","李","175","","","","","","","","","","","","","","","","","","","","","","","","","","","","","","feedback_test","","","","","","","","","","","",""
"746","","j","psychophysics","121","295704","0.0-7.0-1.0-1.1-0.1-0.55","4","3","4","4","3","3","3","4","3","4","4","3","3","5","3","4","4","3","5","4","2","3","2","2","2","1","2","3","2","1","0","1","1","0","0","1","1","0","1","1","0","1","0","1","4","2","3","2","3","4","3","3","5","2","2","797915991576289281","李","175","","","","match","","","","","","","","","","","","","","key","j","6.981927710843373","768","428","j","true","match","img/trapezoid.png","梯形","梯形","ALT1_2","prac_ALT1_2","","","","","","","","","","","",""
"null","<span style='color:GreenYellow; font-size: 70px;'>正确! </span>","null","html-keyboard-response","122","296206","0.0-7.0-1.0-1.1-0.1-1.55","4","3","4","4","3","3","3","4","3","4","4","3","3","5","3","4","4","3","5","4","2","3","2","2","2","1","2","3","2","1","0","1","1","0","0","1","1","0","1","1","0","1","0","1","4","2","3","2","3","4","3","3","5","2","2","797915991576289281","李","175","","","","","","","","","","","","","","","","","","","","","","","","","","","","","","feedback_test","","","","","","","","","","","",""
"727","","f","psychophysics","123","297935","0.0-7.0-1.0-1.1-0.1-0.56","4","3","4","4","3","3","3","4","3","4","4","3","3","5","3","4","4","3","5","4","2","3","2","2","2","1","2","3","2","1","0","1","1","0","0","1","1","0","1","1","0","1","0","1","4","2","3","2","3","4","3","3","5","2","2","797915991576289281","李","175","","","","nonmatch","","","","","","","","","","","","","","key","f","6.982995951416957","768","428","f","true","nonmatch","img/trapezoid.png","椭圆","梯形","ALT1_2","prac_ALT1_2","","","","","","","","","","","",""
"null","<span style='color:GreenYellow; font-size: 70px;'>正确! </span>","null","html-keyboard-response","124","298436","0.0-7.0-1.0-1.1-0.1-1.56","4","3","4","4","3","3","3","4","3","4","4","3","3","5","3","4","4","3","5","4","2","3","2","2","2","1","2","3","2","1","0","1","1","0","0","1","1","0","1","1","0","1","0","1","4","2","3","2","3","4","3","3","5","2","2","797915991576289281","李","175","","","","","","","","","","","","","","","","","","","","","","","","","","","","","","feedback_test","","","","","","","","","","","",""
"566","","f","psychophysics","125","300004","0.0-7.0-1.0-1.1-0.1-0.57","4","3","4","4","3","3","3","4","3","4","4","3","3","5","3","4","4","3","5","4","2","3","2","2","2","1","2","3","2","1","0","1","1","0","0","1","1","0","1","1","0","1","0","1","4","2","3","2","3","4","3","3","5","2","2","797915991576289281","李","175","","","","nonmatch","","","","","","","","","","","","","","key","f","6.942857142857195","768","428","f","true","nonmatch","img/ellipse.png","梯形","椭圆","ALT1_2","prac_ALT1_2","","","","","","","","","","","",""
"null","<span style='color:GreenYellow; font-size: 70px;'>正确! </span>","null","html-keyboard-response","126","300504","0.0-7.0-1.0-1.1-0.1-1.57","4","3","4","4","3","3","3","4","3","4","4","3","3","5","3","4","4","3","5","4","2","3","2","2","2","1","2","3","2","1","0","1","1","0","0","1","1","0","1","1","0","1","0","1","4","2","3","2","3","4","3","3","5","2","2","797915991576289281","李","175","","","","","","","","","","","","","","","","","","","","","","","","","","","","","","feedback_test","","","","","","","","","","","",""
"908","","f","psychophysics","127","302414","0.0-7.0-1.0-1.1-0.1-0.58","4","3","4","4","3","3","3","4","3","4","4","3","3","5","3","4","4","3","5","4","2","3","2","2","2","1","2","3","2","1","0","1","1","0","0","1","1","0","1","1","0","1","0","1","4","2","3","2","3","4","3","3","5","2","2","797915991576289281","李","175","","","","nonmatch","","","","","","","","","","","","","","key","f","6.971428571428401","768","428","f","true","nonmatch","img/trapezoid.png","五边","梯形","ALT1_2","prac_ALT1_2","","","","","","","","","","","",""
"null","<span style='color:GreenYellow; font-size: 70px;'>正确! </span>","null","html-keyboard-response","128","302917","0.0-7.0-1.0-1.1-0.1-1.58","4","3","4","4","3","3","3","4","3","4","4","3","3","5","3","4","4","3","5","4","2","3","2","2","2","1","2","3","2","1","0","1","1","0","0","1","1","0","1","1","0","1","0","1","4","2","3","2","3","4","3","3","5","2","2","797915991576289281","李","175","","","","","","","","","","","","","","","","","","","","","","","","","","","","","","feedback_test","","","","","","","","","","","",""
"675","","f","psychophysics","129","304594","0.0-7.0-1.0-1.1-0.1-0.59","4","3","4","4","3","3","3","4","3","4","4","3","3","5","3","4","4","3","5","4","2","3","2","2","2","1","2","3","2","1","0","1","1","0","0","1","1","0","1","1","0","1","0","1","4","2","3","2","3","4","3","3","5","2","2","797915991576289281","李","175","","","","nonmatch","","","","","","","","","","","","","","key","f","6.940336134453733","768","428","f","true","nonmatch","img/ellipse.png","三角","椭圆","ALT1_2","prac_ALT1_2","","","","","","","","","","","",""
"null","<span style='color:GreenYellow; font-size: 70px;'>正确! </span>","null","html-keyboard-response","130","305095","0.0-7.0-1.0-1.1-0.1-1.59","4","3","4","4","3","3","3","4","3","4","4","3","3","5","3","4","4","3","5","4","2","3","2","2","2","1","2","3","2","1","0","1","1","0","0","1","1","0","1","1","0","1","0","1","4","2","3","2","3","4","3","3","5","2","2","797915991576289281","李","175","","","","","","","","","","","","","","","","","","","","","","","","","","","","","","feedback_test","","","","","","","","","","","",""
"747","","j","psychophysics","131","306845","0.0-7.0-1.0-1.1-0.1-0.60","4","3","4","4","3","3","3","4","3","4","4","3","3","5","3","4","4","3","5","4","2","3","2","2","2","1","2","3","2","1","0","1","1","0","0","1","1","0","1","1","0","1","0","1","4","2","3","2","3","4","3","3","5","2","2","797915991576289281","李","175","","","","match","","","","","","","","","","","","","","key","j","6.945200000000186","768","428","j","true","match","img/triangle.png","三角","三角","ALT1_2","prac_ALT1_2","","","","","","","","","","","",""
"null","<span style='color:GreenYellow; font-size: 70px;'>正确! </span>","null","html-keyboard-response","132","307346","0.0-7.0-1.0-1.1-0.1-1.60","4","3","4","4","3","3","3","4","3","4","4","3","3","5","3","4","4","3","5","4","2","3","2","2","2","1","2","3","2","1","0","1","1","0","0","1","1","0","1","1","0","1","0","1","4","2","3","2","3","4","3","3","5","2","2","797915991576289281","李","175","","","","","","","","","","","","","","","","","","","","","","","","","","","","","","feedback_test","","","","","","","","","","","",""
"788","","j","psychophysics","133","309136","0.0-7.0-1.0-1.1-0.1-0.61","4","3","4","4","3","3","3","4","3","4","4","3","3","5","3","4","4","3","5","4","2","3","2","2","2","1","2","3","2","1","0","1","1","0","0","1","1","0","1","1","0","1","0","1","4","2","3","2","3","4","3","3","5","2","2","797915991576289281","李","175","","","","match","","","","","","","","","","","","","","key","j","6.943529411764614","768","428","j","true","match","img/pentagon.png","五边","五边","ALT1_2","prac_ALT1_2","","","","","","","","","","","",""
"null","<span style='color:GreenYellow; font-size: 70px;'>正确! </span>","null","html-keyboard-response","134","309637","0.0-7.0-1.0-1.1-0.1-1.61","4","3","4","4","3","3","3","4","3","4","4","3","3","5","3","4","4","3","5","4","2","3","2","2","2","1","2","3","2","1","0","1","1","0","0","1","1","0","1","1","0","1","0","1","4","2","3","2","3","4","3","3","5","2","2","797915991576289281","李","175","","","","","","","","","","","","","","","","","","","","","","","","","","","","","","feedback_test","","","","","","","","","","","",""
"606","","f","psychophysics","135","311244","0.0-7.0-1.0-1.1-0.1-0.62","4","3","4","4","3","3","3","4","3","4","4","3","3","5","3","4","4","3","5","4","2","3","2","2","2","1","2","3","2","1","0","1","1","0","0","1","1","0","1","1","0","1","0","1","4","2","3","2","3","4","3","3","5","2","2","797915991576289281","李","175","","","","nonmatch","","","","","","","","","","","","","","key","f","6.9436681222708945","768","428","f","true","nonmatch","img/pentagon.png","三角","五边","ALT1_2","prac_ALT1_2","","","","","","","","","","","",""
"null","<span style='color:GreenYellow; font-size: 70px;'>正确! </span>","null","html-keyboard-response","136","311747","0.0-7.0-1.0-1.1-0.1-1.62","4","3","4","4","3","3","3","4","3","4","4","3","3","5","3","4","4","3","5","4","2","3","2","2","2","1","2","3","2","1","0","1","1","0","0","1","1","0","1","1","0","1","0","1","4","2","3","2","3","4","3","3","5","2","2","797915991576289281","李","175","","","","","","","","","","","","","","","","","","","","","","","","","","","","","","feedback_test","","","","","","","","","","","",""
"665","","f","psychophysics","137","313414","0.0-7.0-1.0-1.1-0.1-0.63","4","3","4","4","3","3","3","4","3","4","4","3","3","5","3","4","4","3","5","4","2","3","2","2","2","1","2","3","2","1","0","1","1","0","0","1","1","0","1","1","0","1","0","1","4","2","3","2","3","4","3","3","5","2","2","797915991576289281","李","175","","","","nonmatch","","","","","","","","","","","","","","key","f","6.95840336134444","768","428","j","false","match","img/ellipse.png","椭圆","椭圆","ALT1_2","prac_ALT1_2","","","","","","","","","","","",""
"null","<span style='color:red; font-size: 70px;'>错误! </span>","null","html-keyboard-response","138","313915","0.0-7.0-1.0-1.1-0.1-1.63","4","3","4","4","3","3","3","4","3","4","4","3","3","5","3","4","4","3","5","4","2","3","2","2","2","1","2","3","2","1","0","1","1","0","0","1","1","0","1","1","0","1","0","1","4","2","3","2","3","4","3","3","5","2","2","797915991576289281","李","175","","","","","","","","","","","","","","","","","","","","","","","","","","","","","","feedback_test","","","","","","","","","","","",""
"577","","f","psychophysics","139","315494","0.0-7.0-1.0-1.1-0.1-0.64","4","3","4","4","3","3","3","4","3","4","4","3","3","5","3","4","4","3","5","4","2","3","2","2","2","1","2","3","2","1","0","1","1","0","0","1","1","0","1","1","0","1","0","1","4","2","3","2","3","4","3","3","5","2","2","797915991576289281","李","175","","","","nonmatch","","","","","","","","","","","","","","key","f","6.9654867256637685","768","428","f","true","nonmatch","img/triangle.png","五边","三角","ALT1_2","prac_ALT1_2","","","","","","","","","","","",""
"null","<span style='color:GreenYellow; font-size: 70px;'>正确! </span>","null","html-keyboard-response","140","315995","0.0-7.0-1.0-1.1-0.1-1.64","4","3","4","4","3","3","3","4","3","4","4","3","3","5","3","4","4","3","5","4","2","3","2","2","2","1","2","3","2","1","0","1","1","0","0","1","1","0","1","1","0","1","0","1","4","2","3","2","3","4","3","3","5","2","2","797915991576289281","李","175","","","","","","","","","","","","","","","","","","","","","","","","","","","","","","feedback_test","","","","","","","","","","","",""
"797","","j","psychophysics","141","317793","0.0-7.0-1.0-1.1-0.1-0.65","4","3","4","4","3","3","3","4","3","4","4","3","3","5","3","4","4","3","5","4","2","3","2","2","2","1","2","3","2","1","0","1","1","0","0","1","1","0","1","1","0","1","0","1","4","2","3","2","3","4","3","3","5","2","2","797915991576289281","李","175","","","","match","","","","","","","","","","","","","","key","j","6.942352941176425","768","428","j","true","match","img/triangle.png","三角","三角","ALT1_2","prac_ALT1_2","","","","","","","","","","","",""
"null","<span style='color:GreenYellow; font-size: 70px;'>正确! </span>","null","html-keyboard-response","142","318293","0.0-7.0-1.0-1.1-0.1-1.65","4","3","4","4","3","3","3","4","3","4","4","3","3","5","3","4","4","3","5","4","2","3","2","2","2","1","2","3","2","1","0","1","1","0","0","1","1","0","1","1","0","1","0","1","4","2","3","2","3","4","3","3","5","2","2","797915991576289281","李","175","","","","","","","","","","","","","","","","","","","","","","","","","","","","","","feedback_test","","","","","","","","","","","",""
"650","","j","psychophysics","143","319946","0.0-7.0-1.0-1.1-0.1-0.66","4","3","4","4","3","3","3","4","3","4","4","3","3","5","3","4","4","3","5","4","2","3","2","2","2","1","2","3","2","1","0","1","1","0","0","1","1","0","1","1","0","1","0","1","4","2","3","2","3","4","3","3","5","2","2","797915991576289281","李","175","","","","match","","","","","","","","","","","","","","key","j","6.922689075630399","768","428","j","true","match","img/pentagon.png","五边","五边","ALT1_2","prac_ALT1_2","","","","","","","","","","","",""
"null","<span style='color:GreenYellow; font-size: 70px;'>正确! </span>","null","html-keyboard-response","144","320448","0.0-7.0-1.0-1.1-0.1-1.66","4","3","4","4","3","3","3","4","3","4","4","3","3","5","3","4","4","3","5","4","2","3","2","2","2","1","2","3","2","1","0","1","1","0","0","1","1","0","1","1","0","1","0","1","4","2","3","2","3","4","3","3","5","2","2","797915991576289281","李","175","","","","","","","","","","","","","","","","","","","","","","","","","","","","","","feedback_test","","","","","","","","","","","",""
"598","","f","psychophysics","145","322056","0.0-7.0-1.0-1.1-0.1-0.67","4","3","4","4","3","3","3","4","3","4","4","3","3","5","3","4","4","3","5","4","2","3","2","2","2","1","2","3","2","1","0","1","1","0","0","1","1","0","1","1","0","1","0","1","4","2","3","2","3","4","3","3","5","2","2","797915991576289281","李","175","","","","nonmatch","","","","","","","","","","","","","","key","f","6.92663755458495","768","428","f","true","nonmatch","img/pentagon.png","椭圆","五边","ALT1_2","prac_ALT1_2","","","","","","","","","","","",""
"null","<span style='color:GreenYellow; font-size: 70px;'>正确! </span>","null","html-keyboard-response","146","322557","0.0-7.0-1.0-1.1-0.1-1.67","4","3","4","4","3","3","3","4","3","4","4","3","3","5","3","4","4","3","5","4","2","3","2","2","2","1","2","3","2","1","0","1","1","0","0","1","1","0","1","1","0","1","0","1","4","2","3","2","3","4","3","3","5","2","2","797915991576289281","李","175","","","","","","","","","","","","","","","","","","","","","","","","","","","","","","feedback_test","","","","","","","","","","","",""
"964","","j","psychophysics","147","324524","0.0-7.0-1.0-1.1-0.1-0.68","4","3","4","4","3","3","3","4","3","4","4","3","3","5","3","4","4","3","5","4","2","3","2","2","2","1","2","3","2","1","0","1","1","0","0","1","1","0","1","1","0","1","0","1","4","2","3","2","3","4","3","3","5","2","2","797915991576289281","李","175","","","","match","","","","","","","","","","","","","","key","j","6.943571428571262","768","428","j","true","match","img/trapezoid.png","梯形","梯形","ALT1_2","prac_ALT1_2","","","","","","","","","","","",""
"null","<span style='color:GreenYellow; font-size: 70px;'>正确! </span>","null","html-keyboard-response","148","325026","0.0-7.0-1.0-1.1-0.1-1.68","4","3","4","4","3","3","3","4","3","4","4","3","3","5","3","4","4","3","5","4","2","3","2","2","2","1","2","3","2","1","0","1","1","0","0","1","1","0","1","1","0","1","0","1","4","2","3","2","3","4","3","3","5","2","2","797915991576289281","李","175","","","","","","","","","","","","","","","","","","","","","","","","","","","","","","feedback_test","","","","","","","","","","","",""
"707","","j","psychophysics","149","326735","0.0-7.0-1.0-1.1-0.1-0.69","4","3","4","4","3","3","3","4","3","4","4","3","3","5","3","4","4","3","5","4","2","3","2","2","2","1","2","3","2","1","0","1","1","0","0","1","1","0","1","1","0","1","0","1","4","2","3","2","3","4","3","3","5","2","2","797915991576289281","李","175","","","","match","","","","","","","","","","","","","","key","j","6.9319672131148495","768","428","j","true","match","img/ellipse.png","椭圆","椭圆","ALT1_2","prac_ALT1_2","","","","","","","","","","","",""
"null","<span style='color:GreenYellow; font-size: 70px;'>正确! </span>","null","html-keyboard-response","150","327236","0.0-7.0-1.0-1.1-0.1-1.69","4","3","4","4","3","3","3","4","3","4","4","3","3","5","3","4","4","3","5","4","2","3","2","2","2","1","2","3","2","1","0","1","1","0","0","1","1","0","1","1","0","1","0","1","4","2","3","2","3","4","3","3","5","2","2","797915991576289281","李","175","","","","","","","","","","","","","","","","","","","","","","","","","","","","","","feedback_test","","","","","","","","","","","",""
"867","","f","psychophysics","151","329104","0.0-7.0-1.0-1.1-0.1-0.70","4","3","4","4","3","3","3","4","3","4","4","3","3","5","3","4","4","3","5","4","2","3","2","2","2","1","2","3","2","1","0","1","1","0","0","1","1","0","1","1","0","1","0","1","4","2","3","2","3","4","3","3","5","2","2","797915991576289281","李","175","","","","nonmatch","","","","","","","","","","","","","","key","f","6.943773584905572","768","428","f","true","nonmatch","img/pentagon.png","梯形","五边","ALT1_2","prac_ALT1_2","","","","","","","","","","","",""
"null","<span style='color:GreenYellow; font-size: 70px;'>正确! </span>","null","html-keyboard-response","152","329606","0.0-7.0-1.0-1.1-0.1-1.70","4","3","4","4","3","3","3","4","3","4","4","3","3","5","3","4","4","3","5","4","2","3","2","2","2","1","2","3","2","1","0","1","1","0","0","1","1","0","1","1","0","1","0","1","4","2","3","2","3","4","3","3","5","2","2","797915991576289281","李","175","","","","","","","","","","","","","","","","","","","","","","","","","","","","","","feedback_test","","","","","","","","","","","",""
"989","","j","psychophysics","153","331597","0.0-7.0-1.0-1.1-0.1-0.71","4","3","4","4","3","3","3","4","3","4","4","3","3","5","3","4","4","3","5","4","2","3","2","2","2","1","2","3","2","1","0","1","1","0","0","1","1","0","1","1","0","1","0","1","4","2","3","2","3","4","3","3","5","2","2","797915991576289281","李","175","","","","match","","","","","","","","","","","","","","key","j","6.937543859649164","768","428","j","true","match","img/trapezoid.png","梯形","梯形","ALT1_2","prac_ALT1_2","","","","","","","","","","","",""
"null","<span style='color:GreenYellow; font-size: 70px;'>正确! </span>","null","html-keyboard-response","154","332098","0.0-7.0-1.0-1.1-0.1-1.71","4","3","4","4","3","3","3","4","3","4","4","3","3","5","3","4","4","3","5","4","2","3","2","2","2","1","2","3","2","1","0","1","1","0","0","1","1","0","1","1","0","1","0","1","4","2","3","2","3","4","3","3","5","2","2","797915991576289281","李","175","","","","","","","","","","","","","","","","","","","","","","","","","","","","","","feedback_test","","","","","","","","","","","",""
"724","","j","psychophysics","155","333823","0.0-7.0-1.0-1.1-0.1-0.72","4","3","4","4","3","3","3","4","3","4","4","3","3","5","3","4","4","3","5","4","2","3","2","2","2","1","2","3","2","1","0","1","1","0","0","1","1","0","1","1","0","1","0","1","4","2","3","2","3","4","3","3","5","2","2","797915991576289281","李","175","","","","match","","","","","","","","","","","","","","key","j","6.94331983805668","768","428","j","true","match","img/pentagon.png","五边","五边","ALT1_2","prac_ALT1_2","","","","","","","","","","","",""
"null","<span style='color:GreenYellow; font-size: 70px;'>正确! </span>","null","html-keyboard-response","156","334325","0.0-7.0-1.0-1.1-0.1-1.72","4","3","4","4","3","3","3","4","3","4","4","3","3","5","3","4","4","3","5","4","2","3","2","2","2","1","2","3","2","1","0","1","1","0","0","1","1","0","1","1","0","1","0","1","4","2","3","2","3","4","3","3","5","2","2","797915991576289281","李","175","","","","","","","","","","","","","","","","","","","","","","","","","","","","","","feedback_test","","","","","","","","","","","",""
"647","","f","psychophysics","157","335974","0.0-7.0-1.0-1.1-0.1-0.73","4","3","4","4","3","3","3","4","3","4","4","3","3","5","3","4","4","3","5","4","2","3","2","2","2","1","2","3","2","1","0","1","1","0","0","1","1","0","1","1","0","1","0","1","4","2","3","2","3","4","3","3","5","2","2","797915991576289281","李","175","","","","nonmatch","","","","","","","","","","","","","","key","f","6.930084745762712","768","428","f","true","nonmatch","img/triangle.png","梯形","三角","ALT1_2","prac_ALT1_2","","","","","","","","","","","",""
"null","<span style='color:GreenYellow; font-size: 70px;'>正确! </span>","null","html-keyboard-response","158","336475","0.0-7.0-1.0-1.1-0.1-1.73","4","3","4","4","3","3","3","4","3","4","4","3","3","5","3","4","4","3","5","4","2","3","2","2","2","1","2","3","2","1","0","1","1","0","0","1","1","0","1","1","0","1","0","1","4","2","3","2","3","4","3","3","5","2","2","797915991576289281","李","175","","","","","","","","","","","","","","","","","","","","","","","","","","","","","","feedback_test","","","","","","","","","","","",""
"677","","j","psychophysics","159","338153","0.0-7.0-1.0-1.1-0.1-0.74","4","3","4","4","3","3","3","4","3","4","4","3","3","5","3","4","4","3","5","4","2","3","2","2","2","1","2","3","2","1","0","1","1","0","0","1","1","0","1","1","0","1","0","1","4","2","3","2","3","4","3","3","5","2","2","797915991576289281","李","175","","","","match","","","","","","","","","","","","","","key","j","6.943096234309721","768","428","f","false","nonmatch","img/triangle.png","椭圆","三角","ALT1_2","prac_ALT1_2","","","","","","","","","","","",""
"null","<span style='color:red; font-size: 70px;'>错误! </span>","null","html-keyboard-response","160","338653","0.0-7.0-1.0-1.1-0.1-1.74","4","3","4","4","3","3","3","4","3","4","4","3","3","5","3","4","4","3","5","4","2","3","2","2","2","1","2","3","2","1","0","1","1","0","0","1","1","0","1","1","0","1","0","1","4","2","3","2","3","4","3","3","5","2","2","797915991576289281","李","175","","","","","","","","","","","","","","","","","","","","","","","","","","","","","","feedback_test","","","","","","","","","","","",""
"639","","f","psychophysics","161","340293","0.0-7.0-1.0-1.1-0.1-0.75","4","3","4","4","3","3","3","4","3","4","4","3","3","5","3","4","4","3","5","4","2","3","2","2","2","1","2","3","2","1","0","1","1","0","0","1","1","0","1","1","0","1","0","1","4","2","3","2","3","4","3","3","5","2","2","797915991576289281","李","175","","","","nonmatch","","","","","","","","","","","","","","key","f","6.943162393162443","768","428","j","false","match","img/ellipse.png","椭圆","椭圆","ALT1_2","prac_ALT1_2","","","","","","","","","","","",""
"null","<span style='color:red; font-size: 70px;'>错误! </span>","null","html-keyboard-response","162","340795","0.0-7.0-1.0-1.1-0.1-1.75","4","3","4","4","3","3","3","4","3","4","4","3","3","5","3","4","4","3","5","4","2","3","2","2","2","1","2","3","2","1","0","1","1","0","0","1","1","0","1","1","0","1","0","1","4","2","3","2","3","4","3","3","5","2","2","797915991576289281","李","175","","","","","","","","","","","","","","","","","","","","","","","","","","","","","","feedback_test","","","","","","","","","","","",""
"750","","j","psychophysics","163","342547","0.0-7.0-1.0-1.1-0.1-0.76","4","3","4","4","3","3","3","4","3","4","4","3","3","5","3","4","4","3","5","4","2","3","2","2","2","1","2","3","2","1","0","1","1","0","0","1","1","0","1","1","0","1","0","1","4","2","3","2","3","4","3","3","5","2","2","797915991576289281","李","175","","","","match","","","","","","","","","","","","","","key","j","6.943426294820671","768","428","j","true","match","img/trapezoid.png","梯形","梯形","ALT1_2","prac_ALT1_2","","","","","","","","","","","",""
"null","<span style='color:GreenYellow; font-size: 70px;'>正确! </span>","null","html-keyboard-response","164","343049","0.0-7.0-1.0-1.1-0.1-1.76","4","3","4","4","3","3","3","4","3","4","4","3","3","5","3","4","4","3","5","4","2","3","2","2","2","1","2","3","2","1","0","1","1","0","0","1","1","0","1","1","0","1","0","1","4","2","3","2","3","4","3","3","5","2","2","797915991576289281","李","175","","","","","","","","","","","","","","","","","","","","","","","","","","","","","","feedback_test","","","","","","","","","","","",""
"605","","j","psychophysics","165","344655","0.0-7.0-1.0-1.1-0.1-0.77","4","3","4","4","3","3","3","4","3","4","4","3","3","5","3","4","4","3","5","4","2","3","2","2","2","1","2","3","2","1","0","1","1","0","0","1","1","0","1","1","0","1","0","1","4","2","3","2","3","4","3","3","5","2","2","797915991576289281","李","175","","","","match","","","","","","","","","","","","","","key","j","6.943421052631477","768","428","j","true","match","img/trapezoid.png","梯形","梯形","ALT1_2","prac_ALT1_2","","","","","","","","","","","",""
"null","<span style='color:GreenYellow; font-size: 70px;'>正确! </span>","null","html-keyboard-response","166","345156","0.0-7.0-1.0-1.1-0.1-1.77","4","3","4","4","3","3","3","4","3","4","4","3","3","5","3","4","4","3","5","4","2","3","2","2","2","1","2","3","2","1","0","1","1","0","0","1","1","0","1","1","0","1","0","1","4","2","3","2","3","4","3","3","5","2","2","797915991576289281","李","175","","","","","","","","","","","","","","","","","","","","","","","","","","","","","","feedback_test","","","","","","","","","","","",""
"686","","j","psychophysics","167","346845","0.0-7.0-1.0-1.1-0.1-0.78","4","3","4","4","3","3","3","4","3","4","4","3","3","5","3","4","4","3","5","4","2","3","2","2","2","1","2","3","2","1","0","1","1","0","0","1","1","0","1","1","0","1","0","1","4","2","3","2","3","4","3","3","5","2","2","797915991576289281","李","175","","","","match","","","","","","","","","","","","","","key","j","6.9933333333331875","768","428","j","true","match","img/trapezoid.png","梯形","梯形","ALT1_2","prac_ALT1_2","","","","","","","","","","","",""
"null","<span style='color:GreenYellow; font-size: 70px;'>正确! </span>","null","html-keyboard-response","168","347347","0.0-7.0-1.0-1.1-0.1-1.78","4","3","4","4","3","3","3","4","3","4","4","3","3","5","3","4","4","3","5","4","2","3","2","2","2","1","2","3","2","1","0","1","1","0","0","1","1","0","1","1","0","1","0","1","4","2","3","2","3","4","3","3","5","2","2","797915991576289281","李","175","","","","","","","","","","","","","","","","","","","","","","","","","","","","","","feedback_test","","","","","","","","","","","",""
"716","","j","psychophysics","169","349064","0.0-7.0-1.0-1.1-0.1-0.79","4","3","4","4","3","3","3","4","3","4","4","3","3","5","3","4","4","3","5","4","2","3","2","2","2","1","2","3","2","1","0","1","1","0","0","1","1","0","1","1","0","1","0","1","4","2","3","2","3","4","3","3","5","2","2","797915991576289281","李","175","","","","match","","","","","","","","","","","","","","key","j","6.991735537190083","768","428","j","true","match","img/pentagon.png","五边","五边","ALT1_2","prac_ALT1_2","","","","","","","","","","","",""
"null","<span style='color:GreenYellow; font-size: 70px;'>正确! </span>","null","html-keyboard-response","170","349565","0.0-7.0-1.0-1.1-0.1-1.79","4","3","4","4","3","3","3","4","3","4","4","3","3","5","3","4","4","3","5","4","2","3","2","2","2","1","2","3","2","1","0","1","1","0","0","1","1","0","1","1","0","1","0","1","4","2","3","2","3","4","3","3","5","2","2","797915991576289281","李","175","","","","","","","","","","","","","","","","","","","","","","","","","","","","","","feedback_test","","","","","","","","","","","",""
"796","","f","psychophysics","171","351364","0.0-7.0-1.0-1.1-0.1-0.80","4","3","4","4","3","3","3","4","3","4","4","3","3","5","3","4","4","3","5","4","2","3","2","2","2","1","2","3","2","1","0","1","1","0","0","1","1","0","1","1","0","1","0","1","4","2","3","2","3","4","3","3","5","2","2","797915991576289281","李","175","","","","nonmatch","","","","","","","","","","","","","","key","f","6.939453125","768","428","f","true","nonmatch","img/ellipse.png","梯形","椭圆","ALT1_2","prac_ALT1_2","","","","","","","","","","","",""
"null","<span style='color:GreenYellow; font-size: 70px;'>正确! </span>","null","html-keyboard-response","172","351865","0.0-7.0-1.0-1.1-0.1-1.80","4","3","4","4","3","3","3","4","3","4","4","3","3","5","3","4","4","3","5","4","2","3","2","2","2","1","2","3","2","1","0","1","1","0","0","1","1","0","1","1","0","1","0","1","4","2","3","2","3","4","3","3","5","2","2","797915991576289281","李","175","","","","","","","","","","","","","","","","","","","","","","","","","","","","","","feedback_test","","","","","","","","","","","",""
"719","","j","psychophysics","173","353586","0.0-7.0-1.0-1.1-0.1-0.81","4","3","4","4","3","3","3","4","3","4","4","3","3","5","3","4","4","3","5","4","2","3","2","2","2","1","2","3","2","1","0","1","1","0","0","1","1","0","1","1","0","1","0","1","4","2","3","2","3","4","3","3","5","2","2","797915991576289281","李","175","","","","match","","","","","","","","","","","","","","key","j","6.970781893004211","768","428","j","true","match","img/triangle.png","三角","三角","ALT1_2","prac_ALT1_2","","","","","","","","","","","",""
"null","<span style='color:GreenYellow; font-size: 70px;'>正确! </span>","null","html-keyboard-response","174","354087","0.0-7.0-1.0-1.1-0.1-1.81","4","3","4","4","3","3","3","4","3","4","4","3","3","5","3","4","4","3","5","4","2","3","2","2","2","1","2","3","2","1","0","1","1","0","0","1","1","0","1","1","0","1","0","1","4","2","3","2","3","4","3","3","5","2","2","797915991576289281","李","175","","","","","","","","","","","","","","","","","","","","","","","","","","","","","","feedback_test","","","","","","","","","","","",""
"646","","f","psychophysics","175","355734","0.0-7.0-1.0-1.1-0.1-0.82","4","3","4","4","3","3","3","4","3","4","4","3","3","5","3","4","4","3","5","4","2","3","2","2","2","1","2","3","2","1","0","1","1","0","0","1","1","0","1","1","0","1","0","1","4","2","3","2","3","4","3","3","5","2","2","797915991576289281","李","175","","","","nonmatch","","","","","","","","","","","","","","key","f","6.938461538461439","768","428","f","true","nonmatch","img/ellipse.png","三角","椭圆","ALT1_2","prac_ALT1_2","","","","","","","","","","","",""
"null","<span style='color:GreenYellow; font-size: 70px;'>正确! </span>","null","html-keyboard-response","176","356236","0.0-7.0-1.0-1.1-0.1-1.82","4","3","4","4","3","3","3","4","3","4","4","3","3","5","3","4","4","3","5","4","2","3","2","2","2","1","2","3","2","1","0","1","1","0","0","1","1","0","1","1","0","1","0","1","4","2","3","2","3","4","3","3","5","2","2","797915991576289281","李","175","","","","","","","","","","","","","","","","","","","","","","","","","","","","","","feedback_test","","","","","","","","","","","",""
"607","","j","psychophysics","177","357844","0.0-7.0-1.0-1.1-0.1-0.83","4","3","4","4","3","3","3","4","3","4","4","3","3","5","3","4","4","3","5","4","2","3","2","2","2","1","2","3","2","1","0","1","1","0","0","1","1","0","1","1","0","1","0","1","4","2","3","2","3","4","3","3","5","2","2","797915991576289281","李","175","","","","match","","","","","","","","","","","","","","key","j","6.9384279475981","768","428","f","false","nonmatch","img/trapezoid.png","三角","梯形","ALT1_2","prac_ALT1_2","","","","","","","","","","","",""
"null","<span style='color:red; font-size: 70px;'>错误! </span>","null","html-keyboard-response","178","358346","0.0-7.0-1.0-1.1-0.1-1.83","4","3","4","4","3","3","3","4","3","4","4","3","3","5","3","4","4","3","5","4","2","3","2","2","2","1","2","3","2","1","0","1","1","0","0","1","1","0","1","1","0","1","0","1","4","2","3","2","3","4","3","3","5","2","2","797915991576289281","李","175","","","","","","","","","","","","","","","","","","","","","","","","","","","","","","feedback_test","","","","","","","","","","","",""
"1065","","f","psychophysics","179","360413","0.0-7.0-1.0-1.1-0.1-0.84","4","3","4","4","3","3","3","4","3","4","4","3","3","5","3","4","4","3","5","4","2","3","2","2","2","1","2","3","2","1","0","1","1","0","0","1","1","0","1","1","0","1","0","1","4","2","3","2","3","4","3","3","5","2","2","797915991576289281","李","175","","","","nonmatch","","","","","","","","","","","","","","key","f","6.9391891891891895","768","428","f","true","nonmatch","img/ellipse.png","五边","椭圆","ALT1_2","prac_ALT1_2","","","","","","","","","","","",""
"null","<span style='color:GreenYellow; font-size: 70px;'>正确! </span>","null","html-keyboard-response","180","360914","0.0-7.0-1.0-1.1-0.1-1.84","4","3","4","4","3","3","3","4","3","4","4","3","3","5","3","4","4","3","5","4","2","3","2","2","2","1","2","3","2","1","0","1","1","0","0","1","1","0","1","1","0","1","0","1","4","2","3","2","3","4","3","3","5","2","2","797915991576289281","李","175","","","","","","","","","","","","","","","","","","","","","","","","","","","","","","feedback_test","","","","","","","","","","","",""
"628","","j","psychophysics","181","362545","0.0-7.0-1.0-1.1-0.1-0.85","4","3","4","4","3","3","3","4","3","4","4","3","3","5","3","4","4","3","5","4","2","3","2","2","2","1","2","3","2","1","0","1","1","0","0","1","1","0","1","1","0","1","0","1","4","2","3","2","3","4","3","3","5","2","2","797915991576289281","李","175","","","","match","","","","","","","","","","","","","","key","j","6.941558441558442","768","428","f","false","nonmatch","img/pentagon.png","三角","五边","ALT1_2","prac_ALT1_2","","","","","","","","","","","",""
