"rt","stimulus","response","trial_type","trial_index","time_elapsed","internal_node_id","ses_1","ses_2","ses_3","ses_4","ses_5","ses_6","ses_7","ses_8","ses_9","ses_10","coreself_1","coreself_2","coreself_3","coreself_4","coreself_5","coreself_6","coreself_7","coreself_8","coreself_9","coreself_10","SGPS_1","SGPS_2","SGPS_3","SGPS_4","SGPS_5","SGPS_6","SGPS_7","SGPS_8","SGPS_9","NPI1","NPI2","NPI3","NPI4","NPI5","NPI6","NPI7","NPI8","NPI9","NPI10","NPI11","NPI12","NPI13","NPI14","NPI15","hsns_1","hsns_2","hsns_3","hsns_4","hsns_5","trap1","hsns_6","hsns_7","hsns_8","hsns_9","hsns_10","subj_idx","friend_name","ParticipantID","value","success","user_agent","responses","item_order","radio_event_ids","radio_event_times","key_event_times","mouse_event_times","straightlining","zigzagging","honeypot","timeout","failed_images","failed_audio","failed_video","version_attrib2","version_target2","correct","IAT","screen_id","task_id","RT","condition","word","varname","summary","version_attrib","version_target","time_stamp","view_history","response_type","key_press","avg_frame_time","center_x","center_y","correct_response","identity","Image","question_order","correct_answer","trap1_item"
"2041","
   <p><div style = ""color: white;font-size:25px;"">您好，欢迎参加本次实验。</div> </p>
   <p><div style = ""color: white;font-size:25px;"">为充分保障您的权利，请确保您已经知晓并同意《参与实验同意书》以及《数据公开知情同意书》。</div></p>
   <p><div style = ""color: white;font-size:25px;"">如果您未见过上述内容，请咨询实验员。</div></p>
   <p><div style = ""color: white;font-size:25px;"">如果您选择继续实验，则表示您已经清楚两份知情同意书的内容并同意。</div></p>
   <p><div style = ""color: pink;font-size:30px;"">请确保您记得day0的实验编号，您将在本次实验输入该编号，若您忘记，请咨询实验员后作答。</div></p>
   <p><div style = ""color: lightblue;font-size:25px;"">请您尽可能认真地作答，我们将依据您在各问卷和按键任务中的作答质量发放报酬。</div></p>
   <p> <div style = ""color: green;font-size:25px;""><按空格键至下页></div> </p>
   "," ","html-keyboard-response","0","2066","0.0-0.0","3","4","4","3","4","4","4","3","4","4","4","5","4","5","5","4","4","5","4","5","1","2","2","2","1","2","1","2","1","1","0","1","1","0","0","0","1","1","1","1","0","1","0","1","4","1","2","2","1","","2","1","1","4","2","633791803677474816","章","451","","","","","","","","","","","","","","","","","","","","","","","","","","","","","","","","","","","","","","","","","",""
"","","","call-function","1","2089","0.0-1.0-0.0","3","4","4","3","4","4","4","3","4","4","4","5","4","5","5","4","4","5","4","5","1","2","2","2","1","2","1","2","1","1","0","1","1","0","0","0","1","1","1","1","0","1","0","1","4","1","2","2","1","","2","1","1","4","2","633791803677474816","章","451","","","","","","","","","","","","","","","","","","","","","","","","","","","","","","","","","","","","","","","","","",""
"290143","","{""friend_name"":""章"",""ParticipantID"":""451""}","survey-html-form","2","292341","0.0-1.0-1.0","3","4","4","3","4","4","4","3","4","4","4","5","4","5","5","4","4","5","4","5","1","2","2","2","1","2","1","2","1","1","0","1","1","0","0","0","1","1","1","1","0","1","0","1","4","1","2","2","1","","2","1","1","4","2","633791803677474816","章","451","","","","","","","","","","","","","","","","","","","","","","","","","","","","","","","","","","","","","","","","","",""
"","","","fullscreen","3","297928","0.0-2.0","3","4","4","3","4","4","4","3","4","4","4","5","4","5","5","4","4","5","4","5","1","2","2","2","1","2","1","2","1","1","0","1","1","0","0","0","1","1","1","1","0","1","0","1","4","1","2","2","1","","2","1","1","4","2","633791803677474816","章","451","","true","","","","","","","","","","","","","","","","","","","","","","","","","","","","","","","","","","","","","","","",""
"82737","","{""Q01"":""3"",""Q02"":""4"",""Q03"":""4"",""Q04"":""3"",""Q05"":""4"",""Q06"":""4"",""Q07"":""4"",""Q08"":""3"",""Q09"":""4"",""Q10"":""4""}","survey-template","4","381010","0.0-3.0","3","4","4","3","4","4","4","3","4","4","4","5","4","5","5","4","4","5","4","5","1","2","2","2","1","2","1","2","1","1","0","1","1","0","0","0","1","1","1","1","0","1","0","1","4","1","2","2","1","","2","1","1","4","2","633791803677474816","章","451","","","","{""Q01"":""3"",""Q02"":""4"",""Q03"":""4"",""Q04"":""3"",""Q05"":""4"",""Q06"":""4"",""Q07"":""4"",""Q08"":""3"",""Q09"":""4"",""Q10"":""4""}","[0,1,2,3,4,5,6,7,8,9]","[""Q01"",""Q02"",""Q02"",""Q03"",""Q04"",""Q04"",""Q05"",""Q06"",""Q07"",""Q08"",""Q09"",""Q10""]","[10013,16088,16524,17703,18837,19133,21300,23530,25630,27387,27980,29235]","[]","[8951,9302,9663,10013,15401,16088,16524,17703,18837,19133,21300,23059,23530,25265,25630,26399,27387,27980,29235,82737]","0.4","0.4444444444444444","0","","","","","","","","","","","","","","","","","","","","","","","","","","","","","",""
"112803","","{""Q01"":""4"",""Q02"":""5"",""Q03"":""4"",""Q04"":""5"",""Q05"":""5"",""Q06"":""4"",""Q07"":""4"",""Q08"":""5"",""Q09"":""4"",""Q10"":""5""}","survey-template","5","493857","0.0-4.0","3","4","4","3","4","4","4","3","4","4","4","5","4","5","5","4","4","5","4","5","1","2","2","2","1","2","1","2","1","1","0","1","1","0","0","0","1","1","1","1","0","1","0","1","4","1","2","2","1","","2","1","1","4","2","633791803677474816","章","451","","","","{""Q01"":""4"",""Q02"":""5"",""Q03"":""4"",""Q04"":""5"",""Q05"":""5"",""Q06"":""4"",""Q07"":""4"",""Q08"":""5"",""Q09"":""4"",""Q10"":""5""}","[0,1,2,3,4,5,6,7,8,9]","[""Q01"",""Q02"",""Q03"",""Q04"",""Q05"",""Q06"",""Q07"",""Q08"",""Q09"",""Q10""]","[18676,20018,21772,22916,24904,26171,27269,28341,29763,31107]","[]","[1714,17331,17939,18193,18676,19451,20018,21416,21772,22916,24904,26171,27269,28341,29763,31107,112358,112803]","0.4","0.3333333333333333","0","","","","","","","","","","","","","","","","","","","","","","","","","","","","","",""
"","","","preload","6","494511","0.0-5.0","3","4","4","3","4","4","4","3","4","4","4","5","4","5","5","4","4","5","4","5","1","2","2","2","1","2","1","2","1","1","0","1","1","0","0","0","1","1","1","1","0","1","0","1","4","1","2","2","1","","2","1","1","4","2","633791803677474816","章","451","","true","","","","","","","","","","","false","[]","[]","[]","","","","","","","","","","","","","","","","","","","","","","","","","",""
"26240","
    <h3>词语分类任务</h3>
    <p>在接下来的任务中，你需要对一系列词语进行分类。<p/>
    请先熟悉这些词语，这有利于你完成接下来的任务。</p>
    <table align=""center"" border=1 cellpadding=3 cellspacing=0>
    <tr> <th>类别</th> <th>词语</th> </tr>
    <tr> <td>&emsp;积极&emsp;</td> <td>&emsp;高尚、诚信、善良、君子、廉正、正直&emsp;</td> </tr>
    <tr> <td>&emsp;消极&emsp;</td> <td>&emsp;缺德、卑鄙、不孝、不仁、小人、黑心&emsp;</td> </tr>
    <tr> <td>&emsp;自我&emsp;</td> <td>&emsp;我、我的、自己、自己的、本人、本人的&emsp;</td> </tr>
    <tr> <td>&emsp;他人&emsp;</td> <td>&emsp;他、他的、别人、别人的、他人、他人的&emsp;</td> </tr>
    </table><br/>","0","html-button-response","7","520781","0.0-6.0-1.0-0.0","3","4","4","3","4","4","4","3","4","4","4","5","4","5","5","4","4","5","4","5","1","2","2","2","1","2","1","2","1","1","0","1","1","0","0","0","1","1","1","1","0","1","0","1","4","1","2","2","1","","2","1","1","4","2","633791803677474816","章","451","","","","","","","","","","","","","","","","","1","1","","","","","","","","","","","","","","","","","","","","","","","",""
"5828","
    <div class=""tag-bottom""><p>
    —— 任务1：对“自我”词和“他人”词分类 ——<p/>
    不同词语会出现在屏幕中央，类别标签将始终显示在屏幕上方<p/>   
    <span style=""color:#FFD866""><b>请根据上方标签的提示，尽可能正确并且快速地做出按键反应</b></span><p/>
    当按键错误时屏幕中会出现<span style=""color:red""> X </span>，需要按另一个键纠正才能继续<br/><p/>
    请把双手食指分别放在键盘的“E”键和“I”键上<p/>
    按<空格键>开始
    </p></div>"," ","html-keyboard-response","8","526629","0.0-6.0-1.0-1.0","3","4","4","3","4","4","4","3","4","4","4","5","4","5","5","4","4","5","4","5","1","2","2","2","1","2","1","2","1","1","0","1","1","0","0","0","1","1","1","1","0","1","0","1","4","1","2","2","1","","2","1","1","4","2","633791803677474816","章","451","","","","","","","","","","","","","","","","","","","","","","","","","","","","","","","","","","","","","","","","","",""
"null","","null","html-keyboard-response","9","526884","0.0-6.0-1.0-2.0-0.0","3","4","4","3","4","4","4","3","4","4","4","5","4","5","5","4","4","5","4","5","1","2","2","2","1","2","1","2","1","1","0","1","1","0","0","0","1","1","1","1","0","1","0","1","4","1","2","2","1","","2","1","1","4","2","633791803677474816","章","451","","","","","","","","","","","","","","","","","","","","","","","","","","","","","","","","","","","","","","","","","",""
"499","<p style=""color:rgb(150, 250, 100); font-size: 35px;"">自己的</p>","e","categorize-html","10","527423","0.0-6.0-1.0-2.0-1.0","3","4","4","3","4","4","4","3","4","4","4","5","4","5","5","4","4","5","4","5","1","2","2","2","1","2","1","2","1","1","0","1","1","0","0","0","1","1","1","1","0","1","0","1","4","1","2","2","1","","2","1","1","4","2","633791803677474816","章","451","","","","","","","","","","","","","","","","","","","true","11","1","moral","499","self","自己的","","","","","","","","","","","","","","","","",""
"null","","null","html-keyboard-response","11","527692","0.0-6.0-1.0-2.0-0.1","3","4","4","3","4","4","4","3","4","4","4","5","4","5","5","4","4","5","4","5","1","2","2","2","1","2","1","2","1","1","0","1","1","0","0","0","1","1","1","1","0","1","0","1","4","1","2","2","1","","2","1","1","4","2","633791803677474816","章","451","","","","","","","","","","","","","","","","","","","","","","","","","","","","","","","","","","","","","","","","","",""
"531","<p style=""color:rgb(150, 250, 100); font-size: 35px;"">他人的</p>","i","categorize-html","12","528230","0.0-6.0-1.0-2.0-1.1","3","4","4","3","4","4","4","3","4","4","4","5","4","5","5","4","4","5","4","5","1","2","2","2","1","2","1","2","1","1","0","1","1","0","0","0","1","1","1","1","0","1","0","1","4","1","2","2","1","","2","1","1","4","2","633791803677474816","章","451","","","","","","","","","","","","","","","","","","","true","11","1","moral","531","other","他人的","","","","","","","","","","","","","","","","",""
"null","","null","html-keyboard-response","13","528482","0.0-6.0-1.0-2.0-0.2","3","4","4","3","4","4","4","3","4","4","4","5","4","5","5","4","4","5","4","5","1","2","2","2","1","2","1","2","1","1","0","1","1","0","0","0","1","1","1","1","0","1","0","1","4","1","2","2","1","","2","1","1","4","2","633791803677474816","章","451","","","","","","","","","","","","","","","","","","","","","","","","","","","","","","","","","","","","","","","","","",""
"501","<p style=""color:rgb(150, 250, 100); font-size: 35px;"">我的</p>","e","categorize-html","14","528988","0.0-6.0-1.0-2.0-1.2","3","4","4","3","4","4","4","3","4","4","4","5","4","5","5","4","4","5","4","5","1","2","2","2","1","2","1","2","1","1","0","1","1","0","0","0","1","1","1","1","0","1","0","1","4","1","2","2","1","","2","1","1","4","2","633791803677474816","章","451","","","","","","","","","","","","","","","","","","","true","11","1","moral","501","self","我的","","","","","","","","","","","","","","","","",""
"null","","null","html-keyboard-response","15","529243","0.0-6.0-1.0-2.0-0.3","3","4","4","3","4","4","4","3","4","4","4","5","4","5","5","4","4","5","4","5","1","2","2","2","1","2","1","2","1","1","0","1","1","0","0","0","1","1","1","1","0","1","0","1","4","1","2","2","1","","2","1","1","4","2","633791803677474816","章","451","","","","","","","","","","","","","","","","","","","","","","","","","","","","","","","","","","","","","","","","","",""
"537","<p style=""color:rgb(150, 250, 100); font-size: 35px;"">别人的</p>","i","categorize-html","16","529784","0.0-6.0-1.0-2.0-1.3","3","4","4","3","4","4","4","3","4","4","4","5","4","5","5","4","4","5","4","5","1","2","2","2","1","2","1","2","1","1","0","1","1","0","0","0","1","1","1","1","0","1","0","1","4","1","2","2","1","","2","1","1","4","2","633791803677474816","章","451","","","","","","","","","","","","","","","","","","","true","11","1","moral","537","other","别人的","","","","","","","","","","","","","","","","",""
"null","","null","html-keyboard-response","17","530063","0.0-6.0-1.0-2.0-0.4","3","4","4","3","4","4","4","3","4","4","4","5","4","5","5","4","4","5","4","5","1","2","2","2","1","2","1","2","1","1","0","1","1","0","0","0","1","1","1","1","0","1","0","1","4","1","2","2","1","","2","1","1","4","2","633791803677474816","章","451","","","","","","","","","","","","","","","","","","","","","","","","","","","","","","","","","","","","","","","","","",""
"546","<p style=""color:rgb(150, 250, 100); font-size: 35px;"">我</p>","e","categorize-html","18","530615","0.0-6.0-1.0-2.0-1.4","3","4","4","3","4","4","4","3","4","4","4","5","4","5","5","4","4","5","4","5","1","2","2","2","1","2","1","2","1","1","0","1","1","0","0","0","1","1","1","1","0","1","0","1","4","1","2","2","1","","2","1","1","4","2","633791803677474816","章","451","","","","","","","","","","","","","","","","","","","true","11","1","moral","546","self","我","","","","","","","","","","","","","","","","",""
"null","","null","html-keyboard-response","19","530882","0.0-6.0-1.0-2.0-0.5","3","4","4","3","4","4","4","3","4","4","4","5","4","5","5","4","4","5","4","5","1","2","2","2","1","2","1","2","1","1","0","1","1","0","0","0","1","1","1","1","0","1","0","1","4","1","2","2","1","","2","1","1","4","2","633791803677474816","章","451","","","","","","","","","","","","","","","","","","","","","","","","","","","","","","","","","","","","","","","","","",""
"523","<p style=""color:rgb(150, 250, 100); font-size: 35px;"">他的</p>","i","categorize-html","20","531409","0.0-6.0-1.0-2.0-1.5","3","4","4","3","4","4","4","3","4","4","4","5","4","5","5","4","4","5","4","5","1","2","2","2","1","2","1","2","1","1","0","1","1","0","0","0","1","1","1","1","0","1","0","1","4","1","2","2","1","","2","1","1","4","2","633791803677474816","章","451","","","","","","","","","","","","","","","","","","","true","11","1","moral","523","other","他的","","","","","","","","","","","","","","","","",""
"null","","null","html-keyboard-response","21","531669","0.0-6.0-1.0-2.0-0.6","3","4","4","3","4","4","4","3","4","4","4","5","4","5","5","4","4","5","4","5","1","2","2","2","1","2","1","2","1","1","0","1","1","0","0","0","1","1","1","1","0","1","0","1","4","1","2","2","1","","2","1","1","4","2","633791803677474816","章","451","","","","","","","","","","","","","","","","","","","","","","","","","","","","","","","","","","","","","","","","","",""
"644","<p style=""color:rgb(150, 250, 100); font-size: 35px;"">本人的</p>","e","categorize-html","22","532316","0.0-6.0-1.0-2.0-1.6","3","4","4","3","4","4","4","3","4","4","4","5","4","5","5","4","4","5","4","5","1","2","2","2","1","2","1","2","1","1","0","1","1","0","0","0","1","1","1","1","0","1","0","1","4","1","2","2","1","","2","1","1","4","2","633791803677474816","章","451","","","","","","","","","","","","","","","","","","","true","11","1","moral","644","self","本人的","","","","","","","","","","","","","","","","",""
"null","","null","html-keyboard-response","23","532581","0.0-6.0-1.0-2.0-0.7","3","4","4","3","4","4","4","3","4","4","4","5","4","5","5","4","4","5","4","5","1","2","2","2","1","2","1","2","1","1","0","1","1","0","0","0","1","1","1","1","0","1","0","1","4","1","2","2","1","","2","1","1","4","2","633791803677474816","章","451","","","","","","","","","","","","","","","","","","","","","","","","","","","","","","","","","","","","","","","","","",""
"589","<p style=""color:rgb(150, 250, 100); font-size: 35px;"">他人</p>","i","categorize-html","24","533180","0.0-6.0-1.0-2.0-1.7","3","4","4","3","4","4","4","3","4","4","4","5","4","5","5","4","4","5","4","5","1","2","2","2","1","2","1","2","1","1","0","1","1","0","0","0","1","1","1","1","0","1","0","1","4","1","2","2","1","","2","1","1","4","2","633791803677474816","章","451","","","","","","","","","","","","","","","","","","","true","11","1","moral","589","other","他人","","","","","","","","","","","","","","","","",""
"null","","null","html-keyboard-response","25","533437","0.0-6.0-1.0-2.0-0.8","3","4","4","3","4","4","4","3","4","4","4","5","4","5","5","4","4","5","4","5","1","2","2","2","1","2","1","2","1","1","0","1","1","0","0","0","1","1","1","1","0","1","0","1","4","1","2","2","1","","2","1","1","4","2","633791803677474816","章","451","","","","","","","","","","","","","","","","","","","","","","","","","","","","","","","","","","","","","","","","","",""
"688","<p style=""color:rgb(150, 250, 100); font-size: 35px;"">他</p>","i","categorize-html","26","534232","0.0-6.0-1.0-2.0-1.8","3","4","4","3","4","4","4","3","4","4","4","5","4","5","5","4","4","5","4","5","1","2","2","2","1","2","1","2","1","1","0","1","1","0","0","0","1","1","1","1","0","1","0","1","4","1","2","2","1","","2","1","1","4","2","633791803677474816","章","451","","","","","","","","","","","","","","","","","","","true","11","1","moral","688","other","他","","","","","","","","","","","","","","","","",""
"null","","null","html-keyboard-response","27","534489","0.0-6.0-1.0-2.0-0.9","3","4","4","3","4","4","4","3","4","4","4","5","4","5","5","4","4","5","4","5","1","2","2","2","1","2","1","2","1","1","0","1","1","0","0","0","1","1","1","1","0","1","0","1","4","1","2","2","1","","2","1","1","4","2","633791803677474816","章","451","","","","","","","","","","","","","","","","","","","","","","","","","","","","","","","","","","","","","","","","","",""
"496","<p style=""color:rgb(150, 250, 100); font-size: 35px;"">自己</p>","i","categorize-html","28","535492","0.0-6.0-1.0-2.0-1.9","3","4","4","3","4","4","4","3","4","4","4","5","4","5","5","4","4","5","4","5","1","2","2","2","1","2","1","2","1","1","0","1","1","0","0","0","1","1","1","1","0","1","0","1","4","1","2","2","1","","2","1","1","4","2","633791803677474816","章","451","","","","","","","","","","","","","","","","","","","false","11","1","moral","496","self","自己","","","","","","","","","","","","","","","","",""
"null","","null","html-keyboard-response","29","535747","0.0-6.0-1.0-2.0-0.10","3","4","4","3","4","4","4","3","4","4","4","5","4","5","5","4","4","5","4","5","1","2","2","2","1","2","1","2","1","1","0","1","1","0","0","0","1","1","1","1","0","1","0","1","4","1","2","2","1","","2","1","1","4","2","633791803677474816","章","451","","","","","","","","","","","","","","","","","","","","","","","","","","","","","","","","","","","","","","","","","",""
"1142","<p style=""color:rgb(150, 250, 100); font-size: 35px;"">本人</p>","e","categorize-html","30","536897","0.0-6.0-1.0-2.0-1.10","3","4","4","3","4","4","4","3","4","4","4","5","4","5","5","4","4","5","4","5","1","2","2","2","1","2","1","2","1","1","0","1","1","0","0","0","1","1","1","1","0","1","0","1","4","1","2","2","1","","2","1","1","4","2","633791803677474816","章","451","","","","","","","","","","","","","","","","","","","true","11","1","moral","1142","self","本人","","","","","","","","","","","","","","","","",""
"null","","null","html-keyboard-response","31","537161","0.0-6.0-1.0-2.0-0.11","3","4","4","3","4","4","4","3","4","4","4","5","4","5","5","4","4","5","4","5","1","2","2","2","1","2","1","2","1","1","0","1","1","0","0","0","1","1","1","1","0","1","0","1","4","1","2","2","1","","2","1","1","4","2","633791803677474816","章","451","","","","","","","","","","","","","","","","","","","","","","","","","","","","","","","","","","","","","","","","","",""
"594","<p style=""color:rgb(150, 250, 100); font-size: 35px;"">别人</p>","i","categorize-html","32","537760","0.0-6.0-1.0-2.0-1.11","3","4","4","3","4","4","4","3","4","4","4","5","4","5","5","4","4","5","4","5","1","2","2","2","1","2","1","2","1","1","0","1","1","0","0","0","1","1","1","1","0","1","0","1","4","1","2","2","1","","2","1","1","4","2","633791803677474816","章","451","","","","","","","","","","","","","","","","","","","true","11","1","moral","594","other","别人","","","","","","","","","","","","","","","","",""
"67260","
    <div class=""tag-bottom""><p>
    —— 任务2：对“积极”词和“消极”词分类 ——<p/>   
    <span style=""color:#78DCE8""><b>注意上方，类别标签和需要分类的词语都已经改变</b></span><p/>
    <span style=""color:#FFD866""><b>请根据上方标签的提示，尽可能正确并且快速地做出按键反应</b></span><p/>
    当按键错误时屏幕中会出现<span style=""color:red""> X </span>，需要按另一个键纠正才能继续<br/><p/>
    请把双手食指分别放在键盘的“E”键和“I”键上<p/>
    按<空格键>开始
    </p></div>"," ","html-keyboard-response","33","605024","0.0-6.0-1.0-3.0","3","4","4","3","4","4","4","3","4","4","4","5","4","5","5","4","4","5","4","5","1","2","2","2","1","2","1","2","1","1","0","1","1","0","0","0","1","1","1","1","0","1","0","1","4","1","2","2","1","","2","1","1","4","2","633791803677474816","章","451","","","","","","","","","","","","","","","","","","","","","","","","","","","","","","","","","","","","","","","","","",""
"null","","null","html-keyboard-response","34","605282","0.0-6.0-1.0-4.0-0.0","3","4","4","3","4","4","4","3","4","4","4","5","4","5","5","4","4","5","4","5","1","2","2","2","1","2","1","2","1","1","0","1","1","0","0","0","1","1","1","1","0","1","0","1","4","1","2","2","1","","2","1","1","4","2","633791803677474816","章","451","","","","","","","","","","","","","","","","","","","","","","","","","","","","","","","","","","","","","","","","","",""
"921","<p style=""color:white; font-size: 35px;"">小人</p>","i","categorize-html","35","606206","0.0-6.0-1.0-4.0-1.0","3","4","4","3","4","4","4","3","4","4","4","5","4","5","5","4","4","5","4","5","1","2","2","2","1","2","1","2","1","1","0","1","1","0","0","0","1","1","1","1","0","1","0","1","4","1","2","2","1","","2","1","1","4","2","633791803677474816","章","451","","","","","","","","","","","","","","","","","","","true","12","2","moral","921","negative","小人","","","","","","","","","","","","","","","","",""
"null","","null","html-keyboard-response","36","606460","0.0-6.0-1.0-4.0-0.1","3","4","4","3","4","4","4","3","4","4","4","5","4","5","5","4","4","5","4","5","1","2","2","2","1","2","1","2","1","1","0","1","1","0","0","0","1","1","1","1","0","1","0","1","4","1","2","2","1","","2","1","1","4","2","633791803677474816","章","451","","","","","","","","","","","","","","","","","","","","","","","","","","","","","","","","","","","","","","","","","",""
"601","<p style=""color:white; font-size: 35px;"">不孝</p>","i","categorize-html","37","607065","0.0-6.0-1.0-4.0-1.1","3","4","4","3","4","4","4","3","4","4","4","5","4","5","5","4","4","5","4","5","1","2","2","2","1","2","1","2","1","1","0","1","1","0","0","0","1","1","1","1","0","1","0","1","4","1","2","2","1","","2","1","1","4","2","633791803677474816","章","451","","","","","","","","","","","","","","","","","","","true","12","2","moral","601","negative","不孝","","","","","","","","","","","","","","","","",""
"null","","null","html-keyboard-response","38","607328","0.0-6.0-1.0-4.0-0.2","3","4","4","3","4","4","4","3","4","4","4","5","4","5","5","4","4","5","4","5","1","2","2","2","1","2","1","2","1","1","0","1","1","0","0","0","1","1","1","1","0","1","0","1","4","1","2","2","1","","2","1","1","4","2","633791803677474816","章","451","","","","","","","","","","","","","","","","","","","","","","","","","","","","","","","","","","","","","","","","","",""
"551","<p style=""color:white; font-size: 35px;"">缺德</p>","i","categorize-html","39","607884","0.0-6.0-1.0-4.0-1.2","3","4","4","3","4","4","4","3","4","4","4","5","4","5","5","4","4","5","4","5","1","2","2","2","1","2","1","2","1","1","0","1","1","0","0","0","1","1","1","1","0","1","0","1","4","1","2","2","1","","2","1","1","4","2","633791803677474816","章","451","","","","","","","","","","","","","","","","","","","true","12","2","moral","551","negative","缺德","","","","","","","","","","","","","","","","",""
"null","","null","html-keyboard-response","40","608147","0.0-6.0-1.0-4.0-0.3","3","4","4","3","4","4","4","3","4","4","4","5","4","5","5","4","4","5","4","5","1","2","2","2","1","2","1","2","1","1","0","1","1","0","0","0","1","1","1","1","0","1","0","1","4","1","2","2","1","","2","1","1","4","2","633791803677474816","章","451","","","","","","","","","","","","","","","","","","","","","","","","","","","","","","","","","","","","","","","","","",""
"694","<p style=""color:white; font-size: 35px;"">正直</p>","e","categorize-html","41","608846","0.0-6.0-1.0-4.0-1.3","3","4","4","3","4","4","4","3","4","4","4","5","4","5","5","4","4","5","4","5","1","2","2","2","1","2","1","2","1","1","0","1","1","0","0","0","1","1","1","1","0","1","0","1","4","1","2","2","1","","2","1","1","4","2","633791803677474816","章","451","","","","","","","","","","","","","","","","","","","true","12","2","moral","694","positive","正直","","","","","","","","","","","","","","","","",""
"null","","null","html-keyboard-response","42","609111","0.0-6.0-1.0-4.0-0.4","3","4","4","3","4","4","4","3","4","4","4","5","4","5","5","4","4","5","4","5","1","2","2","2","1","2","1","2","1","1","0","1","1","0","0","0","1","1","1","1","0","1","0","1","4","1","2","2","1","","2","1","1","4","2","633791803677474816","章","451","","","","","","","","","","","","","","","","","","","","","","","","","","","","","","","","","","","","","","","","","",""
"887","<p style=""color:white; font-size: 35px;"">黑心</p>","i","categorize-html","43","610002","0.0-6.0-1.0-4.0-1.4","3","4","4","3","4","4","4","3","4","4","4","5","4","5","5","4","4","5","4","5","1","2","2","2","1","2","1","2","1","1","0","1","1","0","0","0","1","1","1","1","0","1","0","1","4","1","2","2","1","","2","1","1","4","2","633791803677474816","章","451","","","","","","","","","","","","","","","","","","","true","12","2","moral","887","negative","黑心","","","","","","","","","","","","","","","","",""
"null","","null","html-keyboard-response","44","610254","0.0-6.0-1.0-4.0-0.5","3","4","4","3","4","4","4","3","4","4","4","5","4","5","5","4","4","5","4","5","1","2","2","2","1","2","1","2","1","1","0","1","1","0","0","0","1","1","1","1","0","1","0","1","4","1","2","2","1","","2","1","1","4","2","633791803677474816","章","451","","","","","","","","","","","","","","","","","","","","","","","","","","","","","","","","","","","","","","","","","",""
"700","<p style=""color:white; font-size: 35px;"">不仁</p>","i","categorize-html","45","610959","0.0-6.0-1.0-4.0-1.5","3","4","4","3","4","4","4","3","4","4","4","5","4","5","5","4","4","5","4","5","1","2","2","2","1","2","1","2","1","1","0","1","1","0","0","0","1","1","1","1","0","1","0","1","4","1","2","2","1","","2","1","1","4","2","633791803677474816","章","451","","","","","","","","","","","","","","","","","","","true","12","2","moral","700","negative","不仁","","","","","","","","","","","","","","","","",""
"null","","null","html-keyboard-response","46","611213","0.0-6.0-1.0-4.0-0.6","3","4","4","3","4","4","4","3","4","4","4","5","4","5","5","4","4","5","4","5","1","2","2","2","1","2","1","2","1","1","0","1","1","0","0","0","1","1","1","1","0","1","0","1","4","1","2","2","1","","2","1","1","4","2","633791803677474816","章","451","","","","","","","","","","","","","","","","","","","","","","","","","","","","","","","","","","","","","","","","","",""
"645","<p style=""color:white; font-size: 35px;"">高尚</p>","e","categorize-html","47","611863","0.0-6.0-1.0-4.0-1.6","3","4","4","3","4","4","4","3","4","4","4","5","4","5","5","4","4","5","4","5","1","2","2","2","1","2","1","2","1","1","0","1","1","0","0","0","1","1","1","1","0","1","0","1","4","1","2","2","1","","2","1","1","4","2","633791803677474816","章","451","","","","","","","","","","","","","","","","","","","true","12","2","moral","645","positive","高尚","","","","","","","","","","","","","","","","",""
"null","","null","html-keyboard-response","48","612125","0.0-6.0-1.0-4.0-0.7","3","4","4","3","4","4","4","3","4","4","4","5","4","5","5","4","4","5","4","5","1","2","2","2","1","2","1","2","1","1","0","1","1","0","0","0","1","1","1","1","0","1","0","1","4","1","2","2","1","","2","1","1","4","2","633791803677474816","章","451","","","","","","","","","","","","","","","","","","","","","","","","","","","","","","","","","","","","","","","","","",""
"867","<p style=""color:white; font-size: 35px;"">廉正</p>","e","categorize-html","49","612996","0.0-6.0-1.0-4.0-1.7","3","4","4","3","4","4","4","3","4","4","4","5","4","5","5","4","4","5","4","5","1","2","2","2","1","2","1","2","1","1","0","1","1","0","0","0","1","1","1","1","0","1","0","1","4","1","2","2","1","","2","1","1","4","2","633791803677474816","章","451","","","","","","","","","","","","","","","","","","","true","12","2","moral","867","positive","廉正","","","","","","","","","","","","","","","","",""
"null","","null","html-keyboard-response","50","613258","0.0-6.0-1.0-4.0-0.8","3","4","4","3","4","4","4","3","4","4","4","5","4","5","5","4","4","5","4","5","1","2","2","2","1","2","1","2","1","1","0","1","1","0","0","0","1","1","1","1","0","1","0","1","4","1","2","2","1","","2","1","1","4","2","633791803677474816","章","451","","","","","","","","","","","","","","","","","","","","","","","","","","","","","","","","","","","","","","","","","",""
"646","<p style=""color:white; font-size: 35px;"">君子</p>","e","categorize-html","51","613908","0.0-6.0-1.0-4.0-1.8","3","4","4","3","4","4","4","3","4","4","4","5","4","5","5","4","4","5","4","5","1","2","2","2","1","2","1","2","1","1","0","1","1","0","0","0","1","1","1","1","0","1","0","1","4","1","2","2","1","","2","1","1","4","2","633791803677474816","章","451","","","","","","","","","","","","","","","","","","","true","12","2","moral","646","positive","君子","","","","","","","","","","","","","","","","",""
"null","","null","html-keyboard-response","52","614168","0.0-6.0-1.0-4.0-0.9","3","4","4","3","4","4","4","3","4","4","4","5","4","5","5","4","4","5","4","5","1","2","2","2","1","2","1","2","1","1","0","1","1","0","0","0","1","1","1","1","0","1","0","1","4","1","2","2","1","","2","1","1","4","2","633791803677474816","章","451","","","","","","","","","","","","","","","","","","","","","","","","","","","","","","","","","","","","","","","","","",""
"684","<p style=""color:white; font-size: 35px;"">诚信</p>","e","categorize-html","53","614857","0.0-6.0-1.0-4.0-1.9","3","4","4","3","4","4","4","3","4","4","4","5","4","5","5","4","4","5","4","5","1","2","2","2","1","2","1","2","1","1","0","1","1","0","0","0","1","1","1","1","0","1","0","1","4","1","2","2","1","","2","1","1","4","2","633791803677474816","章","451","","","","","","","","","","","","","","","","","","","true","12","2","moral","684","positive","诚信","","","","","","","","","","","","","","","","",""
"null","","null","html-keyboard-response","54","615113","0.0-6.0-1.0-4.0-0.10","3","4","4","3","4","4","4","3","4","4","4","5","4","5","5","4","4","5","4","5","1","2","2","2","1","2","1","2","1","1","0","1","1","0","0","0","1","1","1","1","0","1","0","1","4","1","2","2","1","","2","1","1","4","2","633791803677474816","章","451","","","","","","","","","","","","","","","","","","","","","","","","","","","","","","","","","","","","","","","","","",""
"922","<p style=""color:white; font-size: 35px;"">卑鄙</p>","i","categorize-html","55","616040","0.0-6.0-1.0-4.0-1.10","3","4","4","3","4","4","4","3","4","4","4","5","4","5","5","4","4","5","4","5","1","2","2","2","1","2","1","2","1","1","0","1","1","0","0","0","1","1","1","1","0","1","0","1","4","1","2","2","1","","2","1","1","4","2","633791803677474816","章","451","","","","","","","","","","","","","","","","","","","true","12","2","moral","922","negative","卑鄙","","","","","","","","","","","","","","","","",""
"null","","null","html-keyboard-response","56","616295","0.0-6.0-1.0-4.0-0.11","3","4","4","3","4","4","4","3","4","4","4","5","4","5","5","4","4","5","4","5","1","2","2","2","1","2","1","2","1","1","0","1","1","0","0","0","1","1","1","1","0","1","0","1","4","1","2","2","1","","2","1","1","4","2","633791803677474816","章","451","","","","","","","","","","","","","","","","","","","","","","","","","","","","","","","","","","","","","","","","","",""
"615","<p style=""color:white; font-size: 35px;"">善良</p>","i","categorize-html","57","617338","0.0-6.0-1.0-4.0-1.11","3","4","4","3","4","4","4","3","4","4","4","5","4","5","5","4","4","5","4","5","1","2","2","2","1","2","1","2","1","1","0","1","1","0","0","0","1","1","1","1","0","1","0","1","4","1","2","2","1","","2","1","1","4","2","633791803677474816","章","451","","","","","","","","","","","","","","","","","","","false","12","2","moral","615","positive","善良","","","","","","","","","","","","","","","","",""
"54025","
    <div class=""tag-bottom""><p>
    —— 任务3：对“自我/积极”词和“他人/消极”词分类 ——<p/>
    <span style=""color:#78DCE8""><b>注意上方，之前的四类词语将混合在一起交替呈现</b></span><p/>
    <span style=""color:#FFD866""><b>请根据上方标签的提示，尽可能正确并且快速地做出按键反应</b></span><p/>
    当按键错误时屏幕中会出现<span style=""color:red""> X </span>，需要按另一个键纠正才能继续<br/><p/>
    请把双手食指分别放在键盘的“E”键和“I”键上<p/>
    按<空格键>开始
    </p></div>"," ","html-keyboard-response","58","671366","0.0-6.0-1.0-5.0","3","4","4","3","4","4","4","3","4","4","4","5","4","5","5","4","4","5","4","5","1","2","2","2","1","2","1","2","1","1","0","1","1","0","0","0","1","1","1","1","0","1","0","1","4","1","2","2","1","","2","1","1","4","2","633791803677474816","章","451","","","","","","","","","","","","","","","","","","","","","","","","","","","","","","","","","","","","","","","","","",""
"null","","null","html-keyboard-response","59","671627","0.0-6.0-1.0-6.0-0.0","3","4","4","3","4","4","4","3","4","4","4","5","4","5","5","4","4","5","4","5","1","2","2","2","1","2","1","2","1","1","0","1","1","0","0","0","1","1","1","1","0","1","0","1","4","1","2","2","1","","2","1","1","4","2","633791803677474816","章","451","","","","","","","","","","","","","","","","","","","","","","","","","","","","","","","","","","","","","","","","","",""
"1070","<p style=""color:rgb(150, 250, 100); font-size: 35px;"">他的</p>","i","categorize-html","60","672708","0.0-6.0-1.0-6.0-1.0","3","4","4","3","4","4","4","3","4","4","4","5","4","5","5","4","4","5","4","5","1","2","2","2","1","2","1","2","1","1","0","1","1","0","0","0","1","1","1","1","0","1","0","1","4","1","2","2","1","","2","1","1","4","2","633791803677474816","章","451","","","","","","","","","","","","","","","","","","","true","13","3","moral","1070","other","他的","","","","","","","","","","","","","","","","",""
"null","","null","html-keyboard-response","61","672962","0.0-6.0-1.0-6.0-0.1","3","4","4","3","4","4","4","3","4","4","4","5","4","5","5","4","4","5","4","5","1","2","2","2","1","2","1","2","1","1","0","1","1","0","0","0","1","1","1","1","0","1","0","1","4","1","2","2","1","","2","1","1","4","2","633791803677474816","章","451","","","","","","","","","","","","","","","","","","","","","","","","","","","","","","","","","","","","","","","","","",""
"806","<p style=""color:white; font-size: 35px;"">善良</p>","e","categorize-html","62","673776","0.0-6.0-1.0-6.0-1.1","3","4","4","3","4","4","4","3","4","4","4","5","4","5","5","4","4","5","4","5","1","2","2","2","1","2","1","2","1","1","0","1","1","0","0","0","1","1","1","1","0","1","0","1","4","1","2","2","1","","2","1","1","4","2","633791803677474816","章","451","","","","","","","","","","","","","","","","","","","true","13","3","moral","806","positive","善良","","","","","","","","","","","","","","","","",""
"null","","null","html-keyboard-response","63","674041","0.0-6.0-1.0-6.0-0.2","3","4","4","3","4","4","4","3","4","4","4","5","4","5","5","4","4","5","4","5","1","2","2","2","1","2","1","2","1","1","0","1","1","0","0","0","1","1","1","1","0","1","0","1","4","1","2","2","1","","2","1","1","4","2","633791803677474816","章","451","","","","","","","","","","","","","","","","","","","","","","","","","","","","","","","","","","","","","","","","","",""
"762","<p style=""color:rgb(150, 250, 100); font-size: 35px;"">本人</p>","e","categorize-html","64","674808","0.0-6.0-1.0-6.0-1.2","3","4","4","3","4","4","4","3","4","4","4","5","4","5","5","4","4","5","4","5","1","2","2","2","1","2","1","2","1","1","0","1","1","0","0","0","1","1","1","1","0","1","0","1","4","1","2","2","1","","2","1","1","4","2","633791803677474816","章","451","","","","","","","","","","","","","","","","","","","true","13","3","moral","762","self","本人","","","","","","","","","","","","","","","","",""
"null","","null","html-keyboard-response","65","675074","0.0-6.0-1.0-6.0-0.3","3","4","4","3","4","4","4","3","4","4","4","5","4","5","5","4","4","5","4","5","1","2","2","2","1","2","1","2","1","1","0","1","1","0","0","0","1","1","1","1","0","1","0","1","4","1","2","2","1","","2","1","1","4","2","633791803677474816","章","451","","","","","","","","","","","","","","","","","","","","","","","","","","","","","","","","","","","","","","","","","",""
"828","<p style=""color:white; font-size: 35px;"">缺德</p>","i","categorize-html","66","675906","0.0-6.0-1.0-6.0-1.3","3","4","4","3","4","4","4","3","4","4","4","5","4","5","5","4","4","5","4","5","1","2","2","2","1","2","1","2","1","1","0","1","1","0","0","0","1","1","1","1","0","1","0","1","4","1","2","2","1","","2","1","1","4","2","633791803677474816","章","451","","","","","","","","","","","","","","","","","","","true","13","3","moral","828","negative","缺德","","","","","","","","","","","","","","","","",""
"null","","null","html-keyboard-response","67","676161","0.0-6.0-1.0-6.0-0.4","3","4","4","3","4","4","4","3","4","4","4","5","4","5","5","4","4","5","4","5","1","2","2","2","1","2","1","2","1","1","0","1","1","0","0","0","1","1","1","1","0","1","0","1","4","1","2","2","1","","2","1","1","4","2","633791803677474816","章","451","","","","","","","","","","","","","","","","","","","","","","","","","","","","","","","","","","","","","","","","","",""
"962","<p style=""color:rgb(150, 250, 100); font-size: 35px;"">自己的</p>","e","categorize-html","68","677128","0.0-6.0-1.0-6.0-1.4","3","4","4","3","4","4","4","3","4","4","4","5","4","5","5","4","4","5","4","5","1","2","2","2","1","2","1","2","1","1","0","1","1","0","0","0","1","1","1","1","0","1","0","1","4","1","2","2","1","","2","1","1","4","2","633791803677474816","章","451","","","","","","","","","","","","","","","","","","","true","13","3","moral","962","self","自己的","","","","","","","","","","","","","","","","",""
"null","","null","html-keyboard-response","69","677412","0.0-6.0-1.0-6.0-0.5","3","4","4","3","4","4","4","3","4","4","4","5","4","5","5","4","4","5","4","5","1","2","2","2","1","2","1","2","1","1","0","1","1","0","0","0","1","1","1","1","0","1","0","1","4","1","2","2","1","","2","1","1","4","2","633791803677474816","章","451","","","","","","","","","","","","","","","","","","","","","","","","","","","","","","","","","","","","","","","","","",""
"1583","<p style=""color:white; font-size: 35px;"">诚信</p>","e","categorize-html","70","679001","0.0-6.0-1.0-6.0-1.5","3","4","4","3","4","4","4","3","4","4","4","5","4","5","5","4","4","5","4","5","1","2","2","2","1","2","1","2","1","1","0","1","1","0","0","0","1","1","1","1","0","1","0","1","4","1","2","2","1","","2","1","1","4","2","633791803677474816","章","451","","","","","","","","","","","","","","","","","","","true","13","3","moral","1583","positive","诚信","","","","","","","","","","","","","","","","",""
"null","","null","html-keyboard-response","71","679254","0.0-6.0-1.0-6.0-0.6","3","4","4","3","4","4","4","3","4","4","4","5","4","5","5","4","4","5","4","5","1","2","2","2","1","2","1","2","1","1","0","1","1","0","0","0","1","1","1","1","0","1","0","1","4","1","2","2","1","","2","1","1","4","2","633791803677474816","章","451","","","","","","","","","","","","","","","","","","","","","","","","","","","","","","","","","","","","","","","","","",""
"556","<p style=""color:rgb(150, 250, 100); font-size: 35px;"">他人的</p>","i","categorize-html","72","679814","0.0-6.0-1.0-6.0-1.6","3","4","4","3","4","4","4","3","4","4","4","5","4","5","5","4","4","5","4","5","1","2","2","2","1","2","1","2","1","1","0","1","1","0","0","0","1","1","1","1","0","1","0","1","4","1","2","2","1","","2","1","1","4","2","633791803677474816","章","451","","","","","","","","","","","","","","","","","","","true","13","3","moral","556","other","他人的","","","","","","","","","","","","","","","","",""
"null","","null","html-keyboard-response","73","680075","0.0-6.0-1.0-6.0-0.7","3","4","4","3","4","4","4","3","4","4","4","5","4","5","5","4","4","5","4","5","1","2","2","2","1","2","1","2","1","1","0","1","1","0","0","0","1","1","1","1","0","1","0","1","4","1","2","2","1","","2","1","1","4","2","633791803677474816","章","451","","","","","","","","","","","","","","","","","","","","","","","","","","","","","","","","","","","","","","","","","",""
"638","<p style=""color:white; font-size: 35px;"">卑鄙</p>","i","categorize-html","74","680718","0.0-6.0-1.0-6.0-1.7","3","4","4","3","4","4","4","3","4","4","4","5","4","5","5","4","4","5","4","5","1","2","2","2","1","2","1","2","1","1","0","1","1","0","0","0","1","1","1","1","0","1","0","1","4","1","2","2","1","","2","1","1","4","2","633791803677474816","章","451","","","","","","","","","","","","","","","","","","","true","13","3","moral","638","negative","卑鄙","","","","","","","","","","","","","","","","",""
"null","","null","html-keyboard-response","75","680980","0.0-6.0-1.0-6.0-0.8","3","4","4","3","4","4","4","3","4","4","4","5","4","5","5","4","4","5","4","5","1","2","2","2","1","2","1","2","1","1","0","1","1","0","0","0","1","1","1","1","0","1","0","1","4","1","2","2","1","","2","1","1","4","2","633791803677474816","章","451","","","","","","","","","","","","","","","","","","","","","","","","","","","","","","","","","","","","","","","","","",""
"569","<p style=""color:rgb(150, 250, 100); font-size: 35px;"">我的</p>","e","categorize-html","76","681554","0.0-6.0-1.0-6.0-1.8","3","4","4","3","4","4","4","3","4","4","4","5","4","5","5","4","4","5","4","5","1","2","2","2","1","2","1","2","1","1","0","1","1","0","0","0","1","1","1","1","0","1","0","1","4","1","2","2","1","","2","1","1","4","2","633791803677474816","章","451","","","","","","","","","","","","","","","","","","","true","13","3","moral","569","self","我的","","","","","","","","","","","","","","","","",""
"null","","null","html-keyboard-response","77","681816","0.0-6.0-1.0-6.0-0.9","3","4","4","3","4","4","4","3","4","4","4","5","4","5","5","4","4","5","4","5","1","2","2","2","1","2","1","2","1","1","0","1","1","0","0","0","1","1","1","1","0","1","0","1","4","1","2","2","1","","2","1","1","4","2","633791803677474816","章","451","","","","","","","","","","","","","","","","","","","","","","","","","","","","","","","","","","","","","","","","","",""
"1632","<p style=""color:white; font-size: 35px;"">小人</p>","i","categorize-html","78","683454","0.0-6.0-1.0-6.0-1.9","3","4","4","3","4","4","4","3","4","4","4","5","4","5","5","4","4","5","4","5","1","2","2","2","1","2","1","2","1","1","0","1","1","0","0","0","1","1","1","1","0","1","0","1","4","1","2","2","1","","2","1","1","4","2","633791803677474816","章","451","","","","","","","","","","","","","","","","","","","true","13","3","moral","1632","negative","小人","","","","","","","","","","","","","","","","",""
"null","","null","html-keyboard-response","79","683706","0.0-6.0-1.0-6.0-0.10","3","4","4","3","4","4","4","3","4","4","4","5","4","5","5","4","4","5","4","5","1","2","2","2","1","2","1","2","1","1","0","1","1","0","0","0","1","1","1","1","0","1","0","1","4","1","2","2","1","","2","1","1","4","2","633791803677474816","章","451","","","","","","","","","","","","","","","","","","","","","","","","","","","","","","","","","","","","","","","","","",""
"643","<p style=""color:rgb(150, 250, 100); font-size: 35px;"">别人的</p>","i","categorize-html","80","684356","0.0-6.0-1.0-6.0-1.10","3","4","4","3","4","4","4","3","4","4","4","5","4","5","5","4","4","5","4","5","1","2","2","2","1","2","1","2","1","1","0","1","1","0","0","0","1","1","1","1","0","1","0","1","4","1","2","2","1","","2","1","1","4","2","633791803677474816","章","451","","","","","","","","","","","","","","","","","","","true","13","3","moral","643","other","别人的","","","","","","","","","","","","","","","","",""
"null","","null","html-keyboard-response","81","684764","0.0-6.0-1.0-6.0-0.11","3","4","4","3","4","4","4","3","4","4","4","5","4","5","5","4","4","5","4","5","1","2","2","2","1","2","1","2","1","1","0","1","1","0","0","0","1","1","1","1","0","1","0","1","4","1","2","2","1","","2","1","1","4","2","633791803677474816","章","451","","","","","","","","","","","","","","","","","","","","","","","","","","","","","","","","","","","","","","","","","",""
"814","<p style=""color:white; font-size: 35px;"">正直</p>","e","categorize-html","82","685582","0.0-6.0-1.0-6.0-1.11","3","4","4","3","4","4","4","3","4","4","4","5","4","5","5","4","4","5","4","5","1","2","2","2","1","2","1","2","1","1","0","1","1","0","0","0","1","1","1","1","0","1","0","1","4","1","2","2","1","","2","1","1","4","2","633791803677474816","章","451","","","","","","","","","","","","","","","","","","","true","13","3","moral","814","positive","正直","","","","","","","","","","","","","","","","",""
"null","","null","html-keyboard-response","83","685837","0.0-6.0-1.0-6.0-0.12","3","4","4","3","4","4","4","3","4","4","4","5","4","5","5","4","4","5","4","5","1","2","2","2","1","2","1","2","1","1","0","1","1","0","0","0","1","1","1","1","0","1","0","1","4","1","2","2","1","","2","1","1","4","2","633791803677474816","章","451","","","","","","","","","","","","","","","","","","","","","","","","","","","","","","","","","","","","","","","","","",""
"517","<p style=""color:rgb(150, 250, 100); font-size: 35px;"">我</p>","e","categorize-html","84","686359","0.0-6.0-1.0-6.0-1.12","3","4","4","3","4","4","4","3","4","4","4","5","4","5","5","4","4","5","4","5","1","2","2","2","1","2","1","2","1","1","0","1","1","0","0","0","1","1","1","1","0","1","0","1","4","1","2","2","1","","2","1","1","4","2","633791803677474816","章","451","","","","","","","","","","","","","","","","","","","true","13","3","moral","517","self","我","","","","","","","","","","","","","","","","",""
"null","","null","html-keyboard-response","85","686615","0.0-6.0-1.0-6.0-0.13","3","4","4","3","4","4","4","3","4","4","4","5","4","5","5","4","4","5","4","5","1","2","2","2","1","2","1","2","1","1","0","1","1","0","0","0","1","1","1","1","0","1","0","1","4","1","2","2","1","","2","1","1","4","2","633791803677474816","章","451","","","","","","","","","","","","","","","","","","","","","","","","","","","","","","","","","","","","","","","","","",""
"729","<p style=""color:white; font-size: 35px;"">君子</p>","e","categorize-html","86","687349","0.0-6.0-1.0-6.0-1.13","3","4","4","3","4","4","4","3","4","4","4","5","4","5","5","4","4","5","4","5","1","2","2","2","1","2","1","2","1","1","0","1","1","0","0","0","1","1","1","1","0","1","0","1","4","1","2","2","1","","2","1","1","4","2","633791803677474816","章","451","","","","","","","","","","","","","","","","","","","true","13","3","moral","729","positive","君子","","","","","","","","","","","","","","","","",""
"null","","null","html-keyboard-response","87","687605","0.0-6.0-1.0-6.0-0.14","3","4","4","3","4","4","4","3","4","4","4","5","4","5","5","4","4","5","4","5","1","2","2","2","1","2","1","2","1","1","0","1","1","0","0","0","1","1","1","1","0","1","0","1","4","1","2","2","1","","2","1","1","4","2","633791803677474816","章","451","","","","","","","","","","","","","","","","","","","","","","","","","","","","","","","","","","","","","","","","","",""
"543","<p style=""color:rgb(150, 250, 100); font-size: 35px;"">他人</p>","i","categorize-html","88","688154","0.0-6.0-1.0-6.0-1.14","3","4","4","3","4","4","4","3","4","4","4","5","4","5","5","4","4","5","4","5","1","2","2","2","1","2","1","2","1","1","0","1","1","0","0","0","1","1","1","1","0","1","0","1","4","1","2","2","1","","2","1","1","4","2","633791803677474816","章","451","","","","","","","","","","","","","","","","","","","true","13","3","moral","543","other","他人","","","","","","","","","","","","","","","","",""
"null","","null","html-keyboard-response","89","688415","0.0-6.0-1.0-6.0-0.15","3","4","4","3","4","4","4","3","4","4","4","5","4","5","5","4","4","5","4","5","1","2","2","2","1","2","1","2","1","1","0","1","1","0","0","0","1","1","1","1","0","1","0","1","4","1","2","2","1","","2","1","1","4","2","633791803677474816","章","451","","","","","","","","","","","","","","","","","","","","","","","","","","","","","","","","","","","","","","","","","",""
"963","<p style=""color:white; font-size: 35px;"">不孝</p>","i","categorize-html","90","689384","0.0-6.0-1.0-6.0-1.15","3","4","4","3","4","4","4","3","4","4","4","5","4","5","5","4","4","5","4","5","1","2","2","2","1","2","1","2","1","1","0","1","1","0","0","0","1","1","1","1","0","1","0","1","4","1","2","2","1","","2","1","1","4","2","633791803677474816","章","451","","","","","","","","","","","","","","","","","","","true","13","3","moral","963","negative","不孝","","","","","","","","","","","","","","","","",""
"null","","null","html-keyboard-response","91","689635","0.0-6.0-1.0-6.0-0.16","3","4","4","3","4","4","4","3","4","4","4","5","4","5","5","4","4","5","4","5","1","2","2","2","1","2","1","2","1","1","0","1","1","0","0","0","1","1","1","1","0","1","0","1","4","1","2","2","1","","2","1","1","4","2","633791803677474816","章","451","","","","","","","","","","","","","","","","","","","","","","","","","","","","","","","","","","","","","","","","","",""
"602","<p style=""color:rgb(150, 250, 100); font-size: 35px;"">本人的</p>","e","categorize-html","92","690242","0.0-6.0-1.0-6.0-1.16","3","4","4","3","4","4","4","3","4","4","4","5","4","5","5","4","4","5","4","5","1","2","2","2","1","2","1","2","1","1","0","1","1","0","0","0","1","1","1","1","0","1","0","1","4","1","2","2","1","","2","1","1","4","2","633791803677474816","章","451","","","","","","","","","","","","","","","","","","","true","13","3","moral","602","self","本人的","","","","","","","","","","","","","","","","",""
"null","","null","html-keyboard-response","93","690508","0.0-6.0-1.0-6.0-0.17","3","4","4","3","4","4","4","3","4","4","4","5","4","5","5","4","4","5","4","5","1","2","2","2","1","2","1","2","1","1","0","1","1","0","0","0","1","1","1","1","0","1","0","1","4","1","2","2","1","","2","1","1","4","2","633791803677474816","章","451","","","","","","","","","","","","","","","","","","","","","","","","","","","","","","","","","","","","","","","","","",""
"1049","<p style=""color:white; font-size: 35px;"">不仁</p>","i","categorize-html","94","691563","0.0-6.0-1.0-6.0-1.17","3","4","4","3","4","4","4","3","4","4","4","5","4","5","5","4","4","5","4","5","1","2","2","2","1","2","1","2","1","1","0","1","1","0","0","0","1","1","1","1","0","1","0","1","4","1","2","2","1","","2","1","1","4","2","633791803677474816","章","451","","","","","","","","","","","","","","","","","","","true","13","3","moral","1049","negative","不仁","","","","","","","","","","","","","","","","",""
"null","","null","html-keyboard-response","95","691829","0.0-6.0-1.0-6.0-0.18","3","4","4","3","4","4","4","3","4","4","4","5","4","5","5","4","4","5","4","5","1","2","2","2","1","2","1","2","1","1","0","1","1","0","0","0","1","1","1","1","0","1","0","1","4","1","2","2","1","","2","1","1","4","2","633791803677474816","章","451","","","","","","","","","","","","","","","","","","","","","","","","","","","","","","","","","","","","","","","","","",""
"640","<p style=""color:rgb(150, 250, 100); font-size: 35px;"">别人</p>","i","categorize-html","96","692473","0.0-6.0-1.0-6.0-1.18","3","4","4","3","4","4","4","3","4","4","4","5","4","5","5","4","4","5","4","5","1","2","2","2","1","2","1","2","1","1","0","1","1","0","0","0","1","1","1","1","0","1","0","1","4","1","2","2","1","","2","1","1","4","2","633791803677474816","章","451","","","","","","","","","","","","","","","","","","","true","13","3","moral","640","other","别人","","","","","","","","","","","","","","","","",""
"null","","null","html-keyboard-response","97","692727","0.0-6.0-1.0-6.0-0.19","3","4","4","3","4","4","4","3","4","4","4","5","4","5","5","4","4","5","4","5","1","2","2","2","1","2","1","2","1","1","0","1","1","0","0","0","1","1","1","1","0","1","0","1","4","1","2","2","1","","2","1","1","4","2","633791803677474816","章","451","","","","","","","","","","","","","","","","","","","","","","","","","","","","","","","","","","","","","","","","","",""
"624","<p style=""color:white; font-size: 35px;"">廉正</p>","e","categorize-html","98","693355","0.0-6.0-1.0-6.0-1.19","3","4","4","3","4","4","4","3","4","4","4","5","4","5","5","4","4","5","4","5","1","2","2","2","1","2","1","2","1","1","0","1","1","0","0","0","1","1","1","1","0","1","0","1","4","1","2","2","1","","2","1","1","4","2","633791803677474816","章","451","","","","","","","","","","","","","","","","","","","true","13","3","moral","624","positive","廉正","","","","","","","","","","","","","","","","",""
"null","","null","html-keyboard-response","99","693622","0.0-6.0-1.0-6.0-0.20","3","4","4","3","4","4","4","3","4","4","4","5","4","5","5","4","4","5","4","5","1","2","2","2","1","2","1","2","1","1","0","1","1","0","0","0","1","1","1","1","0","1","0","1","4","1","2","2","1","","2","1","1","4","2","633791803677474816","章","451","","","","","","","","","","","","","","","","","","","","","","","","","","","","","","","","","","","","","","","","","",""
"964","<p style=""color:rgb(150, 250, 100); font-size: 35px;"">他</p>","i","categorize-html","100","694594","0.0-6.0-1.0-6.0-1.20","3","4","4","3","4","4","4","3","4","4","4","5","4","5","5","4","4","5","4","5","1","2","2","2","1","2","1","2","1","1","0","1","1","0","0","0","1","1","1","1","0","1","0","1","4","1","2","2","1","","2","1","1","4","2","633791803677474816","章","451","","","","","","","","","","","","","","","","","","","true","13","3","moral","964","other","他","","","","","","","","","","","","","","","","",""
"null","","null","html-keyboard-response","101","694849","0.0-6.0-1.0-6.0-0.21","3","4","4","3","4","4","4","3","4","4","4","5","4","5","5","4","4","5","4","5","1","2","2","2","1","2","1","2","1","1","0","1","1","0","0","0","1","1","1","1","0","1","0","1","4","1","2","2","1","","2","1","1","4","2","633791803677474816","章","451","","","","","","","","","","","","","","","","","","","","","","","","","","","","","","","","","","","","","","","","","",""
"1025","<p style=""color:white; font-size: 35px;"">黑心</p>","i","categorize-html","102","695879","0.0-6.0-1.0-6.0-1.21","3","4","4","3","4","4","4","3","4","4","4","5","4","5","5","4","4","5","4","5","1","2","2","2","1","2","1","2","1","1","0","1","1","0","0","0","1","1","1","1","0","1","0","1","4","1","2","2","1","","2","1","1","4","2","633791803677474816","章","451","","","","","","","","","","","","","","","","","","","true","13","3","moral","1025","negative","黑心","","","","","","","","","","","","","","","","",""
"null","","null","html-keyboard-response","103","696144","0.0-6.0-1.0-6.0-0.22","3","4","4","3","4","4","4","3","4","4","4","5","4","5","5","4","4","5","4","5","1","2","2","2","1","2","1","2","1","1","0","1","1","0","0","0","1","1","1","1","0","1","0","1","4","1","2","2","1","","2","1","1","4","2","633791803677474816","章","451","","","","","","","","","","","","","","","","","","","","","","","","","","","","","","","","","","","","","","","","","",""
"1114","<p style=""color:rgb(150, 250, 100); font-size: 35px;"">自己</p>","e","categorize-html","104","697262","0.0-6.0-1.0-6.0-1.22","3","4","4","3","4","4","4","3","4","4","4","5","4","5","5","4","4","5","4","5","1","2","2","2","1","2","1","2","1","1","0","1","1","0","0","0","1","1","1","1","0","1","0","1","4","1","2","2","1","","2","1","1","4","2","633791803677474816","章","451","","","","","","","","","","","","","","","","","","","true","13","3","moral","1114","self","自己","","","","","","","","","","","","","","","","",""
"null","","null","html-keyboard-response","105","697524","0.0-6.0-1.0-6.0-0.23","3","4","4","3","4","4","4","3","4","4","4","5","4","5","5","4","4","5","4","5","1","2","2","2","1","2","1","2","1","1","0","1","1","0","0","0","1","1","1","1","0","1","0","1","4","1","2","2","1","","2","1","1","4","2","633791803677474816","章","451","","","","","","","","","","","","","","","","","","","","","","","","","","","","","","","","","","","","","","","","","",""
"720","<p style=""color:white; font-size: 35px;"">高尚</p>","e","categorize-html","106","698248","0.0-6.0-1.0-6.0-1.23","3","4","4","3","4","4","4","3","4","4","4","5","4","5","5","4","4","5","4","5","1","2","2","2","1","2","1","2","1","1","0","1","1","0","0","0","1","1","1","1","0","1","0","1","4","1","2","2","1","","2","1","1","4","2","633791803677474816","章","451","","","","","","","","","","","","","","","","","","","true","13","3","moral","720","positive","高尚","","","","","","","","","","","","","","","","",""
"90341","
    <div class=""tag-bottom""><p>
    —— 任务4：对“自我/积极”词和“他人/消极”词分类 ——<p/>
    <span style=""color:#78DCE8""><b>与刚才的任务完全相同，请再次对这四类词语分类</b></span><p/>
    <span style=""color:#FFD866""><b>请根据上方标签的提示，尽可能正确并且快速地做出按键反应</b></span><p/>
    当按键错误时屏幕中会出现<span style=""color:red""> X </span>，需要按另一个键纠正才能继续<br/><p/>
    请把双手食指分别放在键盘的“E”键和“I”键上<p/>
    按<空格键>开始
    </p></div>"," ","html-keyboard-response","107","788589","0.0-6.0-1.0-7.0","3","4","4","3","4","4","4","3","4","4","4","5","4","5","5","4","4","5","4","5","1","2","2","2","1","2","1","2","1","1","0","1","1","0","0","0","1","1","1","1","0","1","0","1","4","1","2","2","1","","2","1","1","4","2","633791803677474816","章","451","","","","","","","","","","","","","","","","","","","","","","","","","","","","","","","","","","","","","","","","","",""
"null","","null","html-keyboard-response","108","788869","0.0-6.0-1.0-8.0-0.0","3","4","4","3","4","4","4","3","4","4","4","5","4","5","5","4","4","5","4","5","1","2","2","2","1","2","1","2","1","1","0","1","1","0","0","0","1","1","1","1","0","1","0","1","4","1","2","2","1","","2","1","1","4","2","633791803677474816","章","451","","","","","","","","","","","","","","","","","","","","","","","","","","","","","","","","","","","","","","","","","",""
"843","<p style=""color:rgb(150, 250, 100); font-size: 35px;"">我</p>","e","categorize-html","109","789719","0.0-6.0-1.0-8.0-1.0","3","4","4","3","4","4","4","3","4","4","4","5","4","5","5","4","4","5","4","5","1","2","2","2","1","2","1","2","1","1","0","1","1","0","0","0","1","1","1","1","0","1","0","1","4","1","2","2","1","","2","1","1","4","2","633791803677474816","章","451","","","","","","","","","","","","","","","","","","","true","14","4","moral","843","self","我","","","","","","","","","","","","","","","","",""
"null","","null","html-keyboard-response","110","789973","0.0-6.0-1.0-8.0-0.1","3","4","4","3","4","4","4","3","4","4","4","5","4","5","5","4","4","5","4","5","1","2","2","2","1","2","1","2","1","1","0","1","1","0","0","0","1","1","1","1","0","1","0","1","4","1","2","2","1","","2","1","1","4","2","633791803677474816","章","451","","","","","","","","","","","","","","","","","","","","","","","","","","","","","","","","","","","","","","","","","",""
"515","<p style=""color:white; font-size: 35px;"">正直</p>","e","categorize-html","111","790494","0.0-6.0-1.0-8.0-1.1","3","4","4","3","4","4","4","3","4","4","4","5","4","5","5","4","4","5","4","5","1","2","2","2","1","2","1","2","1","1","0","1","1","0","0","0","1","1","1","1","0","1","0","1","4","1","2","2","1","","2","1","1","4","2","633791803677474816","章","451","","","","","","","","","","","","","","","","","","","true","14","4","moral","515","positive","正直","","","","","","","","","","","","","","","","",""
"null","","null","html-keyboard-response","112","790745","0.0-6.0-1.0-8.0-0.2","3","4","4","3","4","4","4","3","4","4","4","5","4","5","5","4","4","5","4","5","1","2","2","2","1","2","1","2","1","1","0","1","1","0","0","0","1","1","1","1","0","1","0","1","4","1","2","2","1","","2","1","1","4","2","633791803677474816","章","451","","","","","","","","","","","","","","","","","","","","","","","","","","","","","","","","","","","","","","","","","",""
"541","<p style=""color:rgb(150, 250, 100); font-size: 35px;"">他</p>","i","categorize-html","113","791292","0.0-6.0-1.0-8.0-1.2","3","4","4","3","4","4","4","3","4","4","4","5","4","5","5","4","4","5","4","5","1","2","2","2","1","2","1","2","1","1","0","1","1","0","0","0","1","1","1","1","0","1","0","1","4","1","2","2","1","","2","1","1","4","2","633791803677474816","章","451","","","","","","","","","","","","","","","","","","","true","14","4","moral","541","other","他","","","","","","","","","","","","","","","","",""
"null","","null","html-keyboard-response","114","791550","0.0-6.0-1.0-8.0-0.3","3","4","4","3","4","4","4","3","4","4","4","5","4","5","5","4","4","5","4","5","1","2","2","2","1","2","1","2","1","1","0","1","1","0","0","0","1","1","1","1","0","1","0","1","4","1","2","2","1","","2","1","1","4","2","633791803677474816","章","451","","","","","","","","","","","","","","","","","","","","","","","","","","","","","","","","","","","","","","","","","",""
"595","<p style=""color:white; font-size: 35px;"">小人</p>","i","categorize-html","115","792149","0.0-6.0-1.0-8.0-1.3","3","4","4","3","4","4","4","3","4","4","4","5","4","5","5","4","4","5","4","5","1","2","2","2","1","2","1","2","1","1","0","1","1","0","0","0","1","1","1","1","0","1","0","1","4","1","2","2","1","","2","1","1","4","2","633791803677474816","章","451","","","","","","","","","","","","","","","","","","","true","14","4","moral","595","negative","小人","","","","","","","","","","","","","","","","",""
"null","","null","html-keyboard-response","116","792420","0.0-6.0-1.0-8.0-0.4","3","4","4","3","4","4","4","3","4","4","4","5","4","5","5","4","4","5","4","5","1","2","2","2","1","2","1","2","1","1","0","1","1","0","0","0","1","1","1","1","0","1","0","1","4","1","2","2","1","","2","1","1","4","2","633791803677474816","章","451","","","","","","","","","","","","","","","","","","","","","","","","","","","","","","","","","","","","","","","","","",""
"946","<p style=""color:rgb(150, 250, 100); font-size: 35px;"">自己的</p>","e","categorize-html","117","793373","0.0-6.0-1.0-8.0-1.4","3","4","4","3","4","4","4","3","4","4","4","5","4","5","5","4","4","5","4","5","1","2","2","2","1","2","1","2","1","1","0","1","1","0","0","0","1","1","1","1","0","1","0","1","4","1","2","2","1","","2","1","1","4","2","633791803677474816","章","451","","","","","","","","","","","","","","","","","","","true","14","4","moral","946","self","自己的","","","","","","","","","","","","","","","","",""
"null","","null","html-keyboard-response","118","793629","0.0-6.0-1.0-8.0-0.5","3","4","4","3","4","4","4","3","4","4","4","5","4","5","5","4","4","5","4","5","1","2","2","2","1","2","1","2","1","1","0","1","1","0","0","0","1","1","1","1","0","1","0","1","4","1","2","2","1","","2","1","1","4","2","633791803677474816","章","451","","","","","","","","","","","","","","","","","","","","","","","","","","","","","","","","","","","","","","","","","",""
"855","<p style=""color:white; font-size: 35px;"">不孝</p>","i","categorize-html","119","794490","0.0-6.0-1.0-8.0-1.5","3","4","4","3","4","4","4","3","4","4","4","5","4","5","5","4","4","5","4","5","1","2","2","2","1","2","1","2","1","1","0","1","1","0","0","0","1","1","1","1","0","1","0","1","4","1","2","2","1","","2","1","1","4","2","633791803677474816","章","451","","","","","","","","","","","","","","","","","","","true","14","4","moral","855","negative","不孝","","","","","","","","","","","","","","","","",""
"null","","null","html-keyboard-response","120","794748","0.0-6.0-1.0-8.0-0.6","3","4","4","3","4","4","4","3","4","4","4","5","4","5","5","4","4","5","4","5","1","2","2","2","1","2","1","2","1","1","0","1","1","0","0","0","1","1","1","1","0","1","0","1","4","1","2","2","1","","2","1","1","4","2","633791803677474816","章","451","","","","","","","","","","","","","","","","","","","","","","","","","","","","","","","","","","","","","","","","","",""
"596","<p style=""color:rgb(150, 250, 100); font-size: 35px;"">他的</p>","i","categorize-html","121","795349","0.0-6.0-1.0-8.0-1.6","3","4","4","3","4","4","4","3","4","4","4","5","4","5","5","4","4","5","4","5","1","2","2","2","1","2","1","2","1","1","0","1","1","0","0","0","1","1","1","1","0","1","0","1","4","1","2","2","1","","2","1","1","4","2","633791803677474816","章","451","","","","","","","","","","","","","","","","","","","true","14","4","moral","596","other","他的","","","","","","","","","","","","","","","","",""
"null","","null","html-keyboard-response","122","795602","0.0-6.0-1.0-8.0-0.7","3","4","4","3","4","4","4","3","4","4","4","5","4","5","5","4","4","5","4","5","1","2","2","2","1","2","1","2","1","1","0","1","1","0","0","0","1","1","1","1","0","1","0","1","4","1","2","2","1","","2","1","1","4","2","633791803677474816","章","451","","","","","","","","","","","","","","","","","","","","","","","","","","","","","","","","","","","","","","","","","",""
"643","<p style=""color:white; font-size: 35px;"">廉正</p>","e","categorize-html","123","796251","0.0-6.0-1.0-8.0-1.7","3","4","4","3","4","4","4","3","4","4","4","5","4","5","5","4","4","5","4","5","1","2","2","2","1","2","1","2","1","1","0","1","1","0","0","0","1","1","1","1","0","1","0","1","4","1","2","2","1","","2","1","1","4","2","633791803677474816","章","451","","","","","","","","","","","","","","","","","","","true","14","4","moral","643","positive","廉正","","","","","","","","","","","","","","","","",""
"null","","null","html-keyboard-response","124","796508","0.0-6.0-1.0-8.0-0.8","3","4","4","3","4","4","4","3","4","4","4","5","4","5","5","4","4","5","4","5","1","2","2","2","1","2","1","2","1","1","0","1","1","0","0","0","1","1","1","1","0","1","0","1","4","1","2","2","1","","2","1","1","4","2","633791803677474816","章","451","","","","","","","","","","","","","","","","","","","","","","","","","","","","","","","","","","","","","","","","","",""
"1098","<p style=""color:rgb(150, 250, 100); font-size: 35px;"">本人</p>","e","categorize-html","125","797613","0.0-6.0-1.0-8.0-1.8","3","4","4","3","4","4","4","3","4","4","4","5","4","5","5","4","4","5","4","5","1","2","2","2","1","2","1","2","1","1","0","1","1","0","0","0","1","1","1","1","0","1","0","1","4","1","2","2","1","","2","1","1","4","2","633791803677474816","章","451","","","","","","","","","","","","","","","","","","","true","14","4","moral","1098","self","本人","","","","","","","","","","","","","","","","",""
"null","","null","html-keyboard-response","126","797870","0.0-6.0-1.0-8.0-0.9","3","4","4","3","4","4","4","3","4","4","4","5","4","5","5","4","4","5","4","5","1","2","2","2","1","2","1","2","1","1","0","1","1","0","0","0","1","1","1","1","0","1","0","1","4","1","2","2","1","","2","1","1","4","2","633791803677474816","章","451","","","","","","","","","","","","","","","","","","","","","","","","","","","","","","","","","","","","","","","","","",""
"733","<p style=""color:white; font-size: 35px;"">善良</p>","e","categorize-html","127","798609","0.0-6.0-1.0-8.0-1.9","3","4","4","3","4","4","4","3","4","4","4","5","4","5","5","4","4","5","4","5","1","2","2","2","1","2","1","2","1","1","0","1","1","0","0","0","1","1","1","1","0","1","0","1","4","1","2","2","1","","2","1","1","4","2","633791803677474816","章","451","","","","","","","","","","","","","","","","","","","true","14","4","moral","733","positive","善良","","","","","","","","","","","","","","","","",""
"null","","null","html-keyboard-response","128","798868","0.0-6.0-1.0-8.0-0.10","3","4","4","3","4","4","4","3","4","4","4","5","4","5","5","4","4","5","4","5","1","2","2","2","1","2","1","2","1","1","0","1","1","0","0","0","1","1","1","1","0","1","0","1","4","1","2","2","1","","2","1","1","4","2","633791803677474816","章","451","","","","","","","","","","","","","","","","","","","","","","","","","","","","","","","","","","","","","","","","","",""
"536","<p style=""color:rgb(150, 250, 100); font-size: 35px;"">别人的</p>","i","categorize-html","129","799409","0.0-6.0-1.0-8.0-1.10","3","4","4","3","4","4","4","3","4","4","4","5","4","5","5","4","4","5","4","5","1","2","2","2","1","2","1","2","1","1","0","1","1","0","0","0","1","1","1","1","0","1","0","1","4","1","2","2","1","","2","1","1","4","2","633791803677474816","章","451","","","","","","","","","","","","","","","","","","","true","14","4","moral","536","other","别人的","","","","","","","","","","","","","","","","",""
"null","","null","html-keyboard-response","130","799672","0.0-6.0-1.0-8.0-0.11","3","4","4","3","4","4","4","3","4","4","4","5","4","5","5","4","4","5","4","5","1","2","2","2","1","2","1","2","1","1","0","1","1","0","0","0","1","1","1","1","0","1","0","1","4","1","2","2","1","","2","1","1","4","2","633791803677474816","章","451","","","","","","","","","","","","","","","","","","","","","","","","","","","","","","","","","","","","","","","","","",""
"686","<p style=""color:white; font-size: 35px;"">卑鄙</p>","i","categorize-html","131","800367","0.0-6.0-1.0-8.0-1.11","3","4","4","3","4","4","4","3","4","4","4","5","4","5","5","4","4","5","4","5","1","2","2","2","1","2","1","2","1","1","0","1","1","0","0","0","1","1","1","1","0","1","0","1","4","1","2","2","1","","2","1","1","4","2","633791803677474816","章","451","","","","","","","","","","","","","","","","","","","true","14","4","moral","686","negative","卑鄙","","","","","","","","","","","","","","","","",""
"null","","null","html-keyboard-response","132","800623","0.0-6.0-1.0-8.0-0.12","3","4","4","3","4","4","4","3","4","4","4","5","4","5","5","4","4","5","4","5","1","2","2","2","1","2","1","2","1","1","0","1","1","0","0","0","1","1","1","1","0","1","0","1","4","1","2","2","1","","2","1","1","4","2","633791803677474816","章","451","","","","","","","","","","","","","","","","","","","","","","","","","","","","","","","","","","","","","","","","","",""
"662","<p style=""color:rgb(150, 250, 100); font-size: 35px;"">本人的</p>","e","categorize-html","133","801291","0.0-6.0-1.0-8.0-1.12","3","4","4","3","4","4","4","3","4","4","4","5","4","5","5","4","4","5","4","5","1","2","2","2","1","2","1","2","1","1","0","1","1","0","0","0","1","1","1","1","0","1","0","1","4","1","2","2","1","","2","1","1","4","2","633791803677474816","章","451","","","","","","","","","","","","","","","","","","","true","14","4","moral","662","self","本人的","","","","","","","","","","","","","","","","",""
"null","","null","html-keyboard-response","134","801544","0.0-6.0-1.0-8.0-0.13","3","4","4","3","4","4","4","3","4","4","4","5","4","5","5","4","4","5","4","5","1","2","2","2","1","2","1","2","1","1","0","1","1","0","0","0","1","1","1","1","0","1","0","1","4","1","2","2","1","","2","1","1","4","2","633791803677474816","章","451","","","","","","","","","","","","","","","","","","","","","","","","","","","","","","","","","","","","","","","","","",""
"1394","<p style=""color:white; font-size: 35px;"">黑心</p>","i","categorize-html","135","802941","0.0-6.0-1.0-8.0-1.13","3","4","4","3","4","4","4","3","4","4","4","5","4","5","5","4","4","5","4","5","1","2","2","2","1","2","1","2","1","1","0","1","1","0","0","0","1","1","1","1","0","1","0","1","4","1","2","2","1","","2","1","1","4","2","633791803677474816","章","451","","","","","","","","","","","","","","","","","","","true","14","4","moral","1394","negative","黑心","","","","","","","","","","","","","","","","",""
"null","","null","html-keyboard-response","136","803206","0.0-6.0-1.0-8.0-0.14","3","4","4","3","4","4","4","3","4","4","4","5","4","5","5","4","4","5","4","5","1","2","2","2","1","2","1","2","1","1","0","1","1","0","0","0","1","1","1","1","0","1","0","1","4","1","2","2","1","","2","1","1","4","2","633791803677474816","章","451","","","","","","","","","","","","","","","","","","","","","","","","","","","","","","","","","","","","","","","","","",""
"727","<p style=""color:rgb(150, 250, 100); font-size: 35px;"">他人的</p>","i","categorize-html","137","803938","0.0-6.0-1.0-8.0-1.14","3","4","4","3","4","4","4","3","4","4","4","5","4","5","5","4","4","5","4","5","1","2","2","2","1","2","1","2","1","1","0","1","1","0","0","0","1","1","1","1","0","1","0","1","4","1","2","2","1","","2","1","1","4","2","633791803677474816","章","451","","","","","","","","","","","","","","","","","","","true","14","4","moral","727","other","他人的","","","","","","","","","","","","","","","","",""
"null","","null","html-keyboard-response","138","804201","0.0-6.0-1.0-8.0-0.15","3","4","4","3","4","4","4","3","4","4","4","5","4","5","5","4","4","5","4","5","1","2","2","2","1","2","1","2","1","1","0","1","1","0","0","0","1","1","1","1","0","1","0","1","4","1","2","2","1","","2","1","1","4","2","633791803677474816","章","451","","","","","","","","","","","","","","","","","","","","","","","","","","","","","","","","","","","","","","","","","",""
"1636","<p style=""color:white; font-size: 35px;"">君子</p>","e","categorize-html","139","805842","0.0-6.0-1.0-8.0-1.15","3","4","4","3","4","4","4","3","4","4","4","5","4","5","5","4","4","5","4","5","1","2","2","2","1","2","1","2","1","1","0","1","1","0","0","0","1","1","1","1","0","1","0","1","4","1","2","2","1","","2","1","1","4","2","633791803677474816","章","451","","","","","","","","","","","","","","","","","","","true","14","4","moral","1636","positive","君子","","","","","","","","","","","","","","","","",""
"null","","null","html-keyboard-response","140","806102","0.0-6.0-1.0-8.0-0.16","3","4","4","3","4","4","4","3","4","4","4","5","4","5","5","4","4","5","4","5","1","2","2","2","1","2","1","2","1","1","0","1","1","0","0","0","1","1","1","1","0","1","0","1","4","1","2","2","1","","2","1","1","4","2","633791803677474816","章","451","","","","","","","","","","","","","","","","","","","","","","","","","","","","","","","","","","","","","","","","","",""
"1000","<p style=""color:rgb(150, 250, 100); font-size: 35px;"">别人的</p>","i","categorize-html","141","807106","0.0-6.0-1.0-8.0-1.16","3","4","4","3","4","4","4","3","4","4","4","5","4","5","5","4","4","5","4","5","1","2","2","2","1","2","1","2","1","1","0","1","1","0","0","0","1","1","1","1","0","1","0","1","4","1","2","2","1","","2","1","1","4","2","633791803677474816","章","451","","","","","","","","","","","","","","","","","","","true","14","4","moral","1000","other","别人的","","","","","","","","","","","","","","","","",""
"null","","null","html-keyboard-response","142","807363","0.0-6.0-1.0-8.0-0.17","3","4","4","3","4","4","4","3","4","4","4","5","4","5","5","4","4","5","4","5","1","2","2","2","1","2","1","2","1","1","0","1","1","0","0","0","1","1","1","1","0","1","0","1","4","1","2","2","1","","2","1","1","4","2","633791803677474816","章","451","","","","","","","","","","","","","","","","","","","","","","","","","","","","","","","","","","","","","","","","","",""
"1662","<p style=""color:white; font-size: 35px;"">不仁</p>","i","categorize-html","143","809030","0.0-6.0-1.0-8.0-1.17","3","4","4","3","4","4","4","3","4","4","4","5","4","5","5","4","4","5","4","5","1","2","2","2","1","2","1","2","1","1","0","1","1","0","0","0","1","1","1","1","0","1","0","1","4","1","2","2","1","","2","1","1","4","2","633791803677474816","章","451","","","","","","","","","","","","","","","","","","","true","14","4","moral","1662","negative","不仁","","","","","","","","","","","","","","","","",""
"null","","null","html-keyboard-response","144","809286","0.0-6.0-1.0-8.0-0.18","3","4","4","3","4","4","4","3","4","4","4","5","4","5","5","4","4","5","4","5","1","2","2","2","1","2","1","2","1","1","0","1","1","0","0","0","1","1","1","1","0","1","0","1","4","1","2","2","1","","2","1","1","4","2","633791803677474816","章","451","","","","","","","","","","","","","","","","","","","","","","","","","","","","","","","","","","","","","","","","","",""
"553","<p style=""color:rgb(150, 250, 100); font-size: 35px;"">我</p>","e","categorize-html","145","809843","0.0-6.0-1.0-8.0-1.18","3","4","4","3","4","4","4","3","4","4","4","5","4","5","5","4","4","5","4","5","1","2","2","2","1","2","1","2","1","1","0","1","1","0","0","0","1","1","1","1","0","1","0","1","4","1","2","2","1","","2","1","1","4","2","633791803677474816","章","451","","","","","","","","","","","","","","","","","","","true","14","4","moral","553","self","我","","","","","","","","","","","","","","","","",""
"null","","null","html-keyboard-response","146","810096","0.0-6.0-1.0-8.0-0.19","3","4","4","3","4","4","4","3","4","4","4","5","4","5","5","4","4","5","4","5","1","2","2","2","1","2","1","2","1","1","0","1","1","0","0","0","1","1","1","1","0","1","0","1","4","1","2","2","1","","2","1","1","4","2","633791803677474816","章","451","","","","","","","","","","","","","","","","","","","","","","","","","","","","","","","","","","","","","","","","","",""
"1035","<p style=""color:white; font-size: 35px;"">诚信</p>","e","categorize-html","147","811135","0.0-6.0-1.0-8.0-1.19","3","4","4","3","4","4","4","3","4","4","4","5","4","5","5","4","4","5","4","5","1","2","2","2","1","2","1","2","1","1","0","1","1","0","0","0","1","1","1","1","0","1","0","1","4","1","2","2","1","","2","1","1","4","2","633791803677474816","章","451","","","","","","","","","","","","","","","","","","","true","14","4","moral","1035","positive","诚信","","","","","","","","","","","","","","","","",""
"null","","null","html-keyboard-response","148","811396","0.0-6.0-1.0-8.0-0.20","3","4","4","3","4","4","4","3","4","4","4","5","4","5","5","4","4","5","4","5","1","2","2","2","1","2","1","2","1","1","0","1","1","0","0","0","1","1","1","1","0","1","0","1","4","1","2","2","1","","2","1","1","4","2","633791803677474816","章","451","","","","","","","","","","","","","","","","","","","","","","","","","","","","","","","","","","","","","","","","","",""
"536","<p style=""color:rgb(150, 250, 100); font-size: 35px;"">他的</p>","i","categorize-html","149","811936","0.0-6.0-1.0-8.0-1.20","3","4","4","3","4","4","4","3","4","4","4","5","4","5","5","4","4","5","4","5","1","2","2","2","1","2","1","2","1","1","0","1","1","0","0","0","1","1","1","1","0","1","0","1","4","1","2","2","1","","2","1","1","4","2","633791803677474816","章","451","","","","","","","","","","","","","","","","","","","true","14","4","moral","536","other","他的","","","","","","","","","","","","","","","","",""
"null","","null","html-keyboard-response","150","812199","0.0-6.0-1.0-8.0-0.21","3","4","4","3","4","4","4","3","4","4","4","5","4","5","5","4","4","5","4","5","1","2","2","2","1","2","1","2","1","1","0","1","1","0","0","0","1","1","1","1","0","1","0","1","4","1","2","2","1","","2","1","1","4","2","633791803677474816","章","451","","","","","","","","","","","","","","","","","","","","","","","","","","","","","","","","","","","","","","","","","",""
"929","<p style=""color:white; font-size: 35px;"">缺德</p>","i","categorize-html","151","813133","0.0-6.0-1.0-8.0-1.21","3","4","4","3","4","4","4","3","4","4","4","5","4","5","5","4","4","5","4","5","1","2","2","2","1","2","1","2","1","1","0","1","1","0","0","0","1","1","1","1","0","1","0","1","4","1","2","2","1","","2","1","1","4","2","633791803677474816","章","451","","","","","","","","","","","","","","","","","","","true","14","4","moral","929","negative","缺德","","","","","","","","","","","","","","","","",""
"null","","null","html-keyboard-response","152","813392","0.0-6.0-1.0-8.0-0.22","3","4","4","3","4","4","4","3","4","4","4","5","4","5","5","4","4","5","4","5","1","2","2","2","1","2","1","2","1","1","0","1","1","0","0","0","1","1","1","1","0","1","0","1","4","1","2","2","1","","2","1","1","4","2","633791803677474816","章","451","","","","","","","","","","","","","","","","","","","","","","","","","","","","","","","","","","","","","","","","","",""
"704","<p style=""color:rgb(150, 250, 100); font-size: 35px;"">本人</p>","e","categorize-html","153","814101","0.0-6.0-1.0-8.0-1.22","3","4","4","3","4","4","4","3","4","4","4","5","4","5","5","4","4","5","4","5","1","2","2","2","1","2","1","2","1","1","0","1","1","0","0","0","1","1","1","1","0","1","0","1","4","1","2","2","1","","2","1","1","4","2","633791803677474816","章","451","","","","","","","","","","","","","","","","","","","true","14","4","moral","704","self","本人","","","","","","","","","","","","","","","","",""
"null","","null","html-keyboard-response","154","814355","0.0-6.0-1.0-8.0-0.23","3","4","4","3","4","4","4","3","4","4","4","5","4","5","5","4","4","5","4","5","1","2","2","2","1","2","1","2","1","1","0","1","1","0","0","0","1","1","1","1","0","1","0","1","4","1","2","2","1","","2","1","1","4","2","633791803677474816","章","451","","","","","","","","","","","","","","","","","","","","","","","","","","","","","","","","","","","","","","","","","",""
"965","<p style=""color:white; font-size: 35px;"">廉正</p>","e","categorize-html","155","815325","0.0-6.0-1.0-8.0-1.23","3","4","4","3","4","4","4","3","4","4","4","5","4","5","5","4","4","5","4","5","1","2","2","2","1","2","1","2","1","1","0","1","1","0","0","0","1","1","1","1","0","1","0","1","4","1","2","2","1","","2","1","1","4","2","633791803677474816","章","451","","","","","","","","","","","","","","","","","","","true","14","4","moral","965","positive","廉正","","","","","","","","","","","","","","","","",""
"null","","null","html-keyboard-response","156","815578","0.0-6.0-1.0-8.0-0.24","3","4","4","3","4","4","4","3","4","4","4","5","4","5","5","4","4","5","4","5","1","2","2","2","1","2","1","2","1","1","0","1","1","0","0","0","1","1","1","1","0","1","0","1","4","1","2","2","1","","2","1","1","4","2","633791803677474816","章","451","","","","","","","","","","","","","","","","","","","","","","","","","","","","","","","","","","","","","","","","","",""
"688","<p style=""color:rgb(150, 250, 100); font-size: 35px;"">他人</p>","i","categorize-html","157","816270","0.0-6.0-1.0-8.0-1.24","3","4","4","3","4","4","4","3","4","4","4","5","4","5","5","4","4","5","4","5","1","2","2","2","1","2","1","2","1","1","0","1","1","0","0","0","1","1","1","1","0","1","0","1","4","1","2","2","1","","2","1","1","4","2","633791803677474816","章","451","","","","","","","","","","","","","","","","","","","true","14","4","moral","688","other","他人","","","","","","","","","","","","","","","","",""
"null","","null","html-keyboard-response","158","816523","0.0-6.0-1.0-8.0-0.25","3","4","4","3","4","4","4","3","4","4","4","5","4","5","5","4","4","5","4","5","1","2","2","2","1","2","1","2","1","1","0","1","1","0","0","0","1","1","1","1","0","1","0","1","4","1","2","2","1","","2","1","1","4","2","633791803677474816","章","451","","","","","","","","","","","","","","","","","","","","","","","","","","","","","","","","","","","","","","","","","",""
"827","<p style=""color:white; font-size: 35px;"">善良</p>","e","categorize-html","159","817357","0.0-6.0-1.0-8.0-1.25","3","4","4","3","4","4","4","3","4","4","4","5","4","5","5","4","4","5","4","5","1","2","2","2","1","2","1","2","1","1","0","1","1","0","0","0","1","1","1","1","0","1","0","1","4","1","2","2","1","","2","1","1","4","2","633791803677474816","章","451","","","","","","","","","","","","","","","","","","","true","14","4","moral","827","positive","善良","","","","","","","","","","","","","","","","",""
"null","","null","html-keyboard-response","160","817613","0.0-6.0-1.0-8.0-0.26","3","4","4","3","4","4","4","3","4","4","4","5","4","5","5","4","4","5","4","5","1","2","2","2","1","2","1","2","1","1","0","1","1","0","0","0","1","1","1","1","0","1","0","1","4","1","2","2","1","","2","1","1","4","2","633791803677474816","章","451","","","","","","","","","","","","","","","","","","","","","","","","","","","","","","","","","","","","","","","","","",""
"736","<p style=""color:rgb(150, 250, 100); font-size: 35px;"">我的</p>","e","categorize-html","161","818353","0.0-6.0-1.0-8.0-1.26","3","4","4","3","4","4","4","3","4","4","4","5","4","5","5","4","4","5","4","5","1","2","2","2","1","2","1","2","1","1","0","1","1","0","0","0","1","1","1","1","0","1","0","1","4","1","2","2","1","","2","1","1","4","2","633791803677474816","章","451","","","","","","","","","","","","","","","","","","","true","14","4","moral","736","self","我的","","","","","","","","","","","","","","","","",""
"null","","null","html-keyboard-response","162","818605","0.0-6.0-1.0-8.0-0.27","3","4","4","3","4","4","4","3","4","4","4","5","4","5","5","4","4","5","4","5","1","2","2","2","1","2","1","2","1","1","0","1","1","0","0","0","1","1","1","1","0","1","0","1","4","1","2","2","1","","2","1","1","4","2","633791803677474816","章","451","","","","","","","","","","","","","","","","","","","","","","","","","","","","","","","","","","","","","","","","","",""
"926","<p style=""color:white; font-size: 35px;"">小人</p>","i","categorize-html","163","819536","0.0-6.0-1.0-8.0-1.27","3","4","4","3","4","4","4","3","4","4","4","5","4","5","5","4","4","5","4","5","1","2","2","2","1","2","1","2","1","1","0","1","1","0","0","0","1","1","1","1","0","1","0","1","4","1","2","2","1","","2","1","1","4","2","633791803677474816","章","451","","","","","","","","","","","","","","","","","","","true","14","4","moral","926","negative","小人","","","","","","","","","","","","","","","","",""
"null","","null","html-keyboard-response","164","819795","0.0-6.0-1.0-8.0-0.28","3","4","4","3","4","4","4","3","4","4","4","5","4","5","5","4","4","5","4","5","1","2","2","2","1","2","1","2","1","1","0","1","1","0","0","0","1","1","1","1","0","1","0","1","4","1","2","2","1","","2","1","1","4","2","633791803677474816","章","451","","","","","","","","","","","","","","","","","","","","","","","","","","","","","","","","","","","","","","","","","",""
"892","<p style=""color:rgb(150, 250, 100); font-size: 35px;"">他人的</p>","i","categorize-html","165","820691","0.0-6.0-1.0-8.0-1.28","3","4","4","3","4","4","4","3","4","4","4","5","4","5","5","4","4","5","4","5","1","2","2","2","1","2","1","2","1","1","0","1","1","0","0","0","1","1","1","1","0","1","0","1","4","1","2","2","1","","2","1","1","4","2","633791803677474816","章","451","","","","","","","","","","","","","","","","","","","true","14","4","moral","892","other","他人的","","","","","","","","","","","","","","","","",""
"null","","null","html-keyboard-response","166","820951","0.0-6.0-1.0-8.0-0.29","3","4","4","3","4","4","4","3","4","4","4","5","4","5","5","4","4","5","4","5","1","2","2","2","1","2","1","2","1","1","0","1","1","0","0","0","1","1","1","1","0","1","0","1","4","1","2","2","1","","2","1","1","4","2","633791803677474816","章","451","","","","","","","","","","","","","","","","","","","","","","","","","","","","","","","","","","","","","","","","","",""
"1372","<p style=""color:white; font-size: 35px;"">黑心</p>","i","categorize-html","167","822326","0.0-6.0-1.0-8.0-1.29","3","4","4","3","4","4","4","3","4","4","4","5","4","5","5","4","4","5","4","5","1","2","2","2","1","2","1","2","1","1","0","1","1","0","0","0","1","1","1","1","0","1","0","1","4","1","2","2","1","","2","1","1","4","2","633791803677474816","章","451","","","","","","","","","","","","","","","","","","","true","14","4","moral","1372","negative","黑心","","","","","","","","","","","","","","","","",""
"null","","null","html-keyboard-response","168","822578","0.0-6.0-1.0-8.0-0.30","3","4","4","3","4","4","4","3","4","4","4","5","4","5","5","4","4","5","4","5","1","2","2","2","1","2","1","2","1","1","0","1","1","0","0","0","1","1","1","1","0","1","0","1","4","1","2","2","1","","2","1","1","4","2","633791803677474816","章","451","","","","","","","","","","","","","","","","","","","","","","","","","","","","","","","","","","","","","","","","","",""
"666","<p style=""color:rgb(150, 250, 100); font-size: 35px;"">我的</p>","e","categorize-html","169","823247","0.0-6.0-1.0-8.0-1.30","3","4","4","3","4","4","4","3","4","4","4","5","4","5","5","4","4","5","4","5","1","2","2","2","1","2","1","2","1","1","0","1","1","0","0","0","1","1","1","1","0","1","0","1","4","1","2","2","1","","2","1","1","4","2","633791803677474816","章","451","","","","","","","","","","","","","","","","","","","true","14","4","moral","666","self","我的","","","","","","","","","","","","","","","","",""
"null","","null","html-keyboard-response","170","823511","0.0-6.0-1.0-8.0-0.31","3","4","4","3","4","4","4","3","4","4","4","5","4","5","5","4","4","5","4","5","1","2","2","2","1","2","1","2","1","1","0","1","1","0","0","0","1","1","1","1","0","1","0","1","4","1","2","2","1","","2","1","1","4","2","633791803677474816","章","451","","","","","","","","","","","","","","","","","","","","","","","","","","","","","","","","","","","","","","","","","",""
"590","<p style=""color:white; font-size: 35px;"">高尚</p>","e","categorize-html","171","824108","0.0-6.0-1.0-8.0-1.31","3","4","4","3","4","4","4","3","4","4","4","5","4","5","5","4","4","5","4","5","1","2","2","2","1","2","1","2","1","1","0","1","1","0","0","0","1","1","1","1","0","1","0","1","4","1","2","2","1","","2","1","1","4","2","633791803677474816","章","451","","","","","","","","","","","","","","","","","","","true","14","4","moral","590","positive","高尚","","","","","","","","","","","","","","","","",""
"null","","null","html-keyboard-response","172","824359","0.0-6.0-1.0-8.0-0.32","3","4","4","3","4","4","4","3","4","4","4","5","4","5","5","4","4","5","4","5","1","2","2","2","1","2","1","2","1","1","0","1","1","0","0","0","1","1","1","1","0","1","0","1","4","1","2","2","1","","2","1","1","4","2","633791803677474816","章","451","","","","","","","","","","","","","","","","","","","","","","","","","","","","","","","","","","","","","","","","","",""
"539","<p style=""color:rgb(150, 250, 100); font-size: 35px;"">他</p>","i","categorize-html","173","824902","0.0-6.0-1.0-8.0-1.32","3","4","4","3","4","4","4","3","4","4","4","5","4","5","5","4","4","5","4","5","1","2","2","2","1","2","1","2","1","1","0","1","1","0","0","0","1","1","1","1","0","1","0","1","4","1","2","2","1","","2","1","1","4","2","633791803677474816","章","451","","","","","","","","","","","","","","","","","","","true","14","4","moral","539","other","他","","","","","","","","","","","","","","","","",""
"null","","null","html-keyboard-response","174","825165","0.0-6.0-1.0-8.0-0.33","3","4","4","3","4","4","4","3","4","4","4","5","4","5","5","4","4","5","4","5","1","2","2","2","1","2","1","2","1","1","0","1","1","0","0","0","1","1","1","1","0","1","0","1","4","1","2","2","1","","2","1","1","4","2","633791803677474816","章","451","","","","","","","","","","","","","","","","","","","","","","","","","","","","","","","","","","","","","","","","","",""
"721","<p style=""color:white; font-size: 35px;"">卑鄙</p>","i","categorize-html","175","825889","0.0-6.0-1.0-8.0-1.33","3","4","4","3","4","4","4","3","4","4","4","5","4","5","5","4","4","5","4","5","1","2","2","2","1","2","1","2","1","1","0","1","1","0","0","0","1","1","1","1","0","1","0","1","4","1","2","2","1","","2","1","1","4","2","633791803677474816","章","451","","","","","","","","","","","","","","","","","","","true","14","4","moral","721","negative","卑鄙","","","","","","","","","","","","","","","","",""
"null","","null","html-keyboard-response","176","826143","0.0-6.0-1.0-8.0-0.34","3","4","4","3","4","4","4","3","4","4","4","5","4","5","5","4","4","5","4","5","1","2","2","2","1","2","1","2","1","1","0","1","1","0","0","0","1","1","1","1","0","1","0","1","4","1","2","2","1","","2","1","1","4","2","633791803677474816","章","451","","","","","","","","","","","","","","","","","","","","","","","","","","","","","","","","","","","","","","","","","",""
"941","<p style=""color:rgb(150, 250, 100); font-size: 35px;"">本人的</p>","e","categorize-html","177","827090","0.0-6.0-1.0-8.0-1.34","3","4","4","3","4","4","4","3","4","4","4","5","4","5","5","4","4","5","4","5","1","2","2","2","1","2","1","2","1","1","0","1","1","0","0","0","1","1","1","1","0","1","0","1","4","1","2","2","1","","2","1","1","4","2","633791803677474816","章","451","","","","","","","","","","","","","","","","","","","true","14","4","moral","941","self","本人的","","","","","","","","","","","","","","","","",""
"null","","null","html-keyboard-response","178","827351","0.0-6.0-1.0-8.0-0.35","3","4","4","3","4","4","4","3","4","4","4","5","4","5","5","4","4","5","4","5","1","2","2","2","1","2","1","2","1","1","0","1","1","0","0","0","1","1","1","1","0","1","0","1","4","1","2","2","1","","2","1","1","4","2","633791803677474816","章","451","","","","","","","","","","","","","","","","","","","","","","","","","","","","","","","","","","","","","","","","","",""
"2319","<p style=""color:white; font-size: 35px;"">君子</p>","e","categorize-html","179","829675","0.0-6.0-1.0-8.0-1.35","3","4","4","3","4","4","4","3","4","4","4","5","4","5","5","4","4","5","4","5","1","2","2","2","1","2","1","2","1","1","0","1","1","0","0","0","1","1","1","1","0","1","0","1","4","1","2","2","1","","2","1","1","4","2","633791803677474816","章","451","","","","","","","","","","","","","","","","","","","true","14","4","moral","2319","positive","君子","","","","","","","","","","","","","","","","",""
"null","","null","html-keyboard-response","180","829933","0.0-6.0-1.0-8.0-0.36","3","4","4","3","4","4","4","3","4","4","4","5","4","5","5","4","4","5","4","5","1","2","2","2","1","2","1","2","1","1","0","1","1","0","0","0","1","1","1","1","0","1","0","1","4","1","2","2","1","","2","1","1","4","2","633791803677474816","章","451","","","","","","","","","","","","","","","","","","","","","","","","","","","","","","","","","","","","","","","","","",""
"658","<p style=""color:rgb(150, 250, 100); font-size: 35px;"">他人</p>","i","categorize-html","181","830596","0.0-6.0-1.0-8.0-1.36","3","4","4","3","4","4","4","3","4","4","4","5","4","5","5","4","4","5","4","5","1","2","2","2","1","2","1","2","1","1","0","1","1","0","0","0","1","1","1","1","0","1","0","1","4","1","2","2","1","","2","1","1","4","2","633791803677474816","章","451","","","","","","","","","","","","","","","","","","","true","14","4","moral","658","other","他人","","","","","","","","","","","","","","","","",""
"null","","null","html-keyboard-response","182","830849","0.0-6.0-1.0-8.0-0.37","3","4","4","3","4","4","4","3","4","4","4","5","4","5","5","4","4","5","4","5","1","2","2","2","1","2","1","2","1","1","0","1","1","0","0","0","1","1","1","1","0","1","0","1","4","1","2","2","1","","2","1","1","4","2","633791803677474816","章","451","","","","","","","","","","","","","","","","","","","","","","","","","","","","","","","","","","","","","","","","","",""
"917","<p style=""color:white; font-size: 35px;"">正直</p>","e","categorize-html","183","831770","0.0-6.0-1.0-8.0-1.37","3","4","4","3","4","4","4","3","4","4","4","5","4","5","5","4","4","5","4","5","1","2","2","2","1","2","1","2","1","1","0","1","1","0","0","0","1","1","1","1","0","1","0","1","4","1","2","2","1","","2","1","1","4","2","633791803677474816","章","451","","","","","","","","","","","","","","","","","","","true","14","4","moral","917","positive","正直","","","","","","","","","","","","","","","","",""
"null","","null","html-keyboard-response","184","832025","0.0-6.0-1.0-8.0-0.38","3","4","4","3","4","4","4","3","4","4","4","5","4","5","5","4","4","5","4","5","1","2","2","2","1","2","1","2","1","1","0","1","1","0","0","0","1","1","1","1","0","1","0","1","4","1","2","2","1","","2","1","1","4","2","633791803677474816","章","451","","","","","","","","","","","","","","","","","","","","","","","","","","","","","","","","","","","","","","","","","",""
"568","<p style=""color:rgb(150, 250, 100); font-size: 35px;"">自己</p>","e","categorize-html","185","832602","0.0-6.0-1.0-8.0-1.38","3","4","4","3","4","4","4","3","4","4","4","5","4","5","5","4","4","5","4","5","1","2","2","2","1","2","1","2","1","1","0","1","1","0","0","0","1","1","1","1","0","1","0","1","4","1","2","2","1","","2","1","1","4","2","633791803677474816","章","451","","","","","","","","","","","","","","","","","","","true","14","4","moral","568","self","自己","","","","","","","","","","","","","","","","",""
"null","","null","html-keyboard-response","186","832863","0.0-6.0-1.0-8.0-0.39","3","4","4","3","4","4","4","3","4","4","4","5","4","5","5","4","4","5","4","5","1","2","2","2","1","2","1","2","1","1","0","1","1","0","0","0","1","1","1","1","0","1","0","1","4","1","2","2","1","","2","1","1","4","2","633791803677474816","章","451","","","","","","","","","","","","","","","","","","","","","","","","","","","","","","","","","","","","","","","","","",""
"670","<p style=""color:white; font-size: 35px;"">缺德</p>","i","categorize-html","187","833537","0.0-6.0-1.0-8.0-1.39","3","4","4","3","4","4","4","3","4","4","4","5","4","5","5","4","4","5","4","5","1","2","2","2","1","2","1","2","1","1","0","1","1","0","0","0","1","1","1","1","0","1","0","1","4","1","2","2","1","","2","1","1","4","2","633791803677474816","章","451","","","","","","","","","","","","","","","","","","","true","14","4","moral","670","negative","缺德","","","","","","","","","","","","","","","","",""
"null","","null","html-keyboard-response","188","833793","0.0-6.0-1.0-8.0-0.40","3","4","4","3","4","4","4","3","4","4","4","5","4","5","5","4","4","5","4","5","1","2","2","2","1","2","1","2","1","1","0","1","1","0","0","0","1","1","1","1","0","1","0","1","4","1","2","2","1","","2","1","1","4","2","633791803677474816","章","451","","","","","","","","","","","","","","","","","","","","","","","","","","","","","","","","","","","","","","","","","",""
"658","<p style=""color:rgb(150, 250, 100); font-size: 35px;"">自己</p>","e","categorize-html","189","834456","0.0-6.0-1.0-8.0-1.40","3","4","4","3","4","4","4","3","4","4","4","5","4","5","5","4","4","5","4","5","1","2","2","2","1","2","1","2","1","1","0","1","1","0","0","0","1","1","1","1","0","1","0","1","4","1","2","2","1","","2","1","1","4","2","633791803677474816","章","451","","","","","","","","","","","","","","","","","","","true","14","4","moral","658","self","自己","","","","","","","","","","","","","","","","",""
"null","","null","html-keyboard-response","190","834711","0.0-6.0-1.0-8.0-0.41","3","4","4","3","4","4","4","3","4","4","4","5","4","5","5","4","4","5","4","5","1","2","2","2","1","2","1","2","1","1","0","1","1","0","0","0","1","1","1","1","0","1","0","1","4","1","2","2","1","","2","1","1","4","2","633791803677474816","章","451","","","","","","","","","","","","","","","","","","","","","","","","","","","","","","","","","","","","","","","","","",""
"664","<p style=""color:white; font-size: 35px;"">诚信</p>","e","categorize-html","191","835379","0.0-6.0-1.0-8.0-1.41","3","4","4","3","4","4","4","3","4","4","4","5","4","5","5","4","4","5","4","5","1","2","2","2","1","2","1","2","1","1","0","1","1","0","0","0","1","1","1","1","0","1","0","1","4","1","2","2","1","","2","1","1","4","2","633791803677474816","章","451","","","","","","","","","","","","","","","","","","","true","14","4","moral","664","positive","诚信","","","","","","","","","","","","","","","","",""
"null","","null","html-keyboard-response","192","835643","0.0-6.0-1.0-8.0-0.42","3","4","4","3","4","4","4","3","4","4","4","5","4","5","5","4","4","5","4","5","1","2","2","2","1","2","1","2","1","1","0","1","1","0","0","0","1","1","1","1","0","1","0","1","4","1","2","2","1","","2","1","1","4","2","633791803677474816","章","451","","","","","","","","","","","","","","","","","","","","","","","","","","","","","","","","","","","","","","","","","",""
"519","<p style=""color:rgb(150, 250, 100); font-size: 35px;"">别人</p>","i","categorize-html","193","836169","0.0-6.0-1.0-8.0-1.42","3","4","4","3","4","4","4","3","4","4","4","5","4","5","5","4","4","5","4","5","1","2","2","2","1","2","1","2","1","1","0","1","1","0","0","0","1","1","1","1","0","1","0","1","4","1","2","2","1","","2","1","1","4","2","633791803677474816","章","451","","","","","","","","","","","","","","","","","","","true","14","4","moral","519","other","别人","","","","","","","","","","","","","","","","",""
"null","","null","html-keyboard-response","194","836421","0.0-6.0-1.0-8.0-0.43","3","4","4","3","4","4","4","3","4","4","4","5","4","5","5","4","4","5","4","5","1","2","2","2","1","2","1","2","1","1","0","1","1","0","0","0","1","1","1","1","0","1","0","1","4","1","2","2","1","","2","1","1","4","2","633791803677474816","章","451","","","","","","","","","","","","","","","","","","","","","","","","","","","","","","","","","","","","","","","","","",""
