"rt","stimulus","response","trial_type","trial_index","time_elapsed","internal_node_id","ses_1","ses_2","ses_3","ses_4","ses_5","ses_6","ses_7","ses_8","ses_9","ses_10","coreself_1","coreself_2","coreself_3","coreself_4","coreself_5","coreself_6","coreself_7","coreself_8","coreself_9","coreself_10","SGPS_1","SGPS_2","SGPS_3","SGPS_4","SGPS_5","SGPS_6","SGPS_7","SGPS_8","SGPS_9","NPI1","NPI2","NPI3","NPI4","NPI5","NPI6","NPI7","NPI8","NPI9","NPI10","NPI11","NPI12","NPI13","NPI14","NPI15","hsns_1","hsns_2","hsns_3","hsns_4","hsns_5","trap1","hsns_6","hsns_7","hsns_8","hsns_9","hsns_10","subj_idx","friend_name","ParticipantID","value","success","user_agent","responses","item_order","radio_event_ids","radio_event_times","key_event_times","mouse_event_times","straightlining","zigzagging","honeypot","timeout","failed_images","failed_audio","failed_video","view_history","response_type","key_press","avg_frame_time","center_x","center_y","correct_response","correct","identity","Image","word","condition","task_id","screen_id","time_stamp","version_attrib","version_target","IAT","RT","varname","summary","version_attrib2","version_target2","question_order","correct_answer","trap1_item"
"11474","
   <p><div style = ""color: white;font-size:25px;"">您好，欢迎参加本次实验。</div> </p>
   <p><div style = ""color: white;font-size:25px;"">为充分保障您的权利，请确保您已经知晓并同意《参与实验同意书》以及《数据公开知情同意书》。</div></p>
   <p><div style = ""color: white;font-size:25px;"">如果您未见过上述内容，请咨询实验员。</div></p>
   <p><div style = ""color: white;font-size:25px;"">如果您选择继续实验，则表示您已经清楚两份知情同意书的内容并同意。</div></p>
   <p><div style = ""color: pink;font-size:30px;"">请确保您记得day0的实验编号，您将在本次实验输入该编号，若您忘记，请咨询实验员后作答。</div></p>
   <p><div style = ""color: lightblue;font-size:25px;"">请您尽可能认真地作答，我们将依据您在各问卷和按键任务中的作答质量发放报酬。</div></p>
   <p> <div style = ""color: green;font-size:25px;""><按空格键至下页></div> </p>
   "," ","html-keyboard-response","0","11477","0.0-0.0","3","4","4","3","3","4","3","3","4","4","4","5","5","4","4","5","5","4","4","5","1","2","1","1","2","2","2","1","2","1","0","1","0","1","0","0","1","0","1","1","0","0","1","1","4","1","2","3","2","4","2","3","4","4","2","790355489568464897","刘","542","","","","","","","","","","","","","","","","","","","","","","","","","","","","","","","","","","","","","","","","","",""
"","","","call-function","1","11479","0.0-1.0-0.0","3","4","4","3","3","4","3","3","4","4","4","5","5","4","4","5","5","4","4","5","1","2","1","1","2","2","2","1","2","1","0","1","0","1","0","0","1","0","1","1","0","0","1","1","4","1","2","3","2","4","2","3","4","4","2","790355489568464897","刘","542","","","","","","","","","","","","","","","","","","","","","","","","","","","","","","","","","","","","","","","","","",""
"16921","","{""friend_name"":""刘"",""ParticipantID"":""542""}","survey-html-form","2","28400","0.0-1.0-1.0","3","4","4","3","3","4","3","3","4","4","4","5","5","4","4","5","5","4","4","5","1","2","1","1","2","2","2","1","2","1","0","1","0","1","0","0","1","0","1","1","0","0","1","1","4","1","2","3","2","4","2","3","4","4","2","790355489568464897","刘","542","","","","","","","","","","","","","","","","","","","","","","","","","","","","","","","","","","","","","","","","","",""
"","","","fullscreen","3","59421","0.0-2.0","3","4","4","3","3","4","3","3","4","4","4","5","5","4","4","5","5","4","4","5","1","2","1","1","2","2","2","1","2","1","0","1","0","1","0","0","1","0","1","1","0","0","1","1","4","1","2","3","2","4","2","3","4","4","2","790355489568464897","刘","542","","true","{}","","","","","","","","","","","","","","","","","","","","","","","","","","","","","","","","","","","","","","",""
"43200.60000002384","","{""Q01"":""3"",""Q02"":""4"",""Q03"":""4"",""Q04"":""3"",""Q05"":""3"",""Q06"":""4"",""Q07"":""3"",""Q08"":""3"",""Q09"":""4"",""Q10"":""4""}","survey-template","4","102626","0.0-3.0","3","4","4","3","3","4","3","3","4","4","4","5","5","4","4","5","5","4","4","5","1","2","1","1","2","2","2","1","2","1","0","1","0","1","0","0","1","0","1","1","0","0","1","1","4","1","2","3","2","4","2","3","4","4","2","790355489568464897","刘","542","","","","{""Q01"":""3"",""Q02"":""4"",""Q03"":""4"",""Q04"":""3"",""Q05"":""3"",""Q06"":""4"",""Q07"":""3"",""Q08"":""3"",""Q09"":""4"",""Q10"":""4""}","[0,1,2,3,4,5,6,7,8,9]","[""Q01"",""Q02"",""Q03"",""Q04"",""Q05"",""Q06"",""Q07"",""Q08"",""Q08"",""Q09"",""Q10""]","[6158.199999928474,9415.100000023842,11947.5,14153.5,16385.399999976158,22371,24278.5,26459.899999976158,35809.299999952316,41167.299999952316,42141.199999928474]","[]","[6158.199999928474,7901.899999976158,9415.100000023842,11947.5,14153.5,16385.399999976158,22371,24278.5,26459.899999976158,35809.299999952316,41167.299999952316,42141.199999928474,43197.89999997616]","0.3","0.6666666666666666","0","","","","","","","","","","","","","","","","","","","","","","","","","","","","","",""
"25825.399999976158","","{""Q01"":""4"",""Q02"":""5"",""Q03"":""5"",""Q04"":""4"",""Q05"":""4"",""Q06"":""5"",""Q07"":""5"",""Q08"":""4"",""Q09"":""4"",""Q10"":""5""}","survey-template","5","128459","0.0-4.0","3","4","4","3","3","4","3","3","4","4","4","5","5","4","4","5","5","4","4","5","1","2","1","1","2","2","2","1","2","1","0","1","0","1","0","0","1","0","1","1","0","0","1","1","4","1","2","3","2","4","2","3","4","4","2","790355489568464897","刘","542","","","","{""Q01"":""4"",""Q02"":""5"",""Q03"":""5"",""Q04"":""4"",""Q05"":""4"",""Q06"":""5"",""Q07"":""5"",""Q08"":""4"",""Q09"":""4"",""Q10"":""5""}","[0,1,2,3,4,5,6,7,8,9]","[""Q01"",""Q02"",""Q03"",""Q04"",""Q05"",""Q06"",""Q07"",""Q08"",""Q09"",""Q10""]","[2075.399999976158,4436.099999904633,5860.699999928474,7668.199999928474,12048.5,14029.099999904633,15580.799999952316,19928.599999904633,21012.399999976158,24490.299999952316]","[]","[2075.399999976158,4436.099999904633,5860.699999928474,7668.199999928474,12048.5,14029.099999904633,15580.799999952316,17872.099999904633,19928.599999904633,21012.399999976158,24490.299999952316,25822.5]","0.4","0.2222222222222222","0","","","","","","","","","","","","","","","","","","","","","","","","","","","","","",""
"","","","preload","6","128875","0.0-5.0","3","4","4","3","3","4","3","3","4","4","4","5","5","4","4","5","5","4","4","5","1","2","1","1","2","2","2","1","2","1","0","1","0","1","0","0","1","0","1","1","0","0","1","1","4","1","2","3","2","4","2","3","4","4","2","790355489568464897","刘","542","","true","","","","","","","","","","","false","[]","[]","[]","","","","","","","","","","","","","","","","","","","","","","","","","",""
"18369","","","instructions","7","147246","0.0-6.0","3","4","4","3","3","4","3","3","4","4","4","5","5","4","4","5","5","4","4","5","1","2","1","1","2","2","2","1","2","1","0","1","0","1","0","0","1","0","1","1","0","0","1","1","4","1","2","3","2","4","2","3","4","4","2","790355489568464897","刘","542","","","","","","","","","","","","","","","","","[{""page_index"":0,""viewing_time"":18369}]","","","","","","","","","","","","","","","","","","","","","","","","",""
"26869","","","instructions","8","174117","0.0-7.0-0.0-0.0","3","4","4","3","3","4","3","3","4","4","4","5","5","4","4","5","5","4","4","5","1","2","1","1","2","2","2","1","2","1","0","1","0","1","0","0","1","0","1","1","0","0","1","1","4","1","2","3","2","4","2","3","4","4","2","790355489568464897","刘","542","","","","","","","","","","","","","","","","","[{""page_index"":0,""viewing_time"":17925},{""page_index"":1,""viewing_time"":6999},{""page_index"":2,""viewing_time"":1944}]","","","","","","","","","","","","","","","","","","","","","","","","",""
"null","","null","psychophysics","9","176326","0.0-7.0-0.0-1.0-0.0-0.0","3","4","4","3","3","4","3","3","4","4","4","5","5","4","4","5","5","4","4","5","1","2","1","1","2","2","2","1","2","1","0","1","0","1","0","0","1","0","1","1","0","0","1","1","4","1","2","3","2","4","2","3","4","4","2","790355489568464897","刘","542","","","","null","","","","","","","","","","","","","","key","null","16.65725190839699","640","356","f","false","match","img/triangle.png","三角","三角","ALT1_1","prac_ALT1_1","","","","","","","","","","","",""
"null","<span class='add_' style='color:yellow; font-size: 70px;'> 太慢! </span>","null","html-keyboard-response","10","176828","0.0-7.0-0.0-1.0-0.0-1.0","3","4","4","3","3","4","3","3","4","4","4","5","5","4","4","5","5","4","4","5","1","2","1","1","2","2","2","1","2","1","0","1","0","1","0","0","1","0","1","1","0","0","1","1","4","1","2","3","2","4","2","3","4","4","2","790355489568464897","刘","542","","","","","","","","","","","","","","","","","","","","","","","","","","","","","","feedback_test","","","","","","","","","","","",""
"null","","null","psychophysics","11","179032","0.0-7.0-0.0-1.0-0.0-0.1","3","4","4","3","3","4","3","3","4","4","4","5","5","4","4","5","5","4","4","5","1","2","1","1","2","2","2","1","2","1","0","1","0","1","0","0","1","0","1","1","0","0","1","1","4","1","2","3","2","4","2","3","4","4","2","790355489568464897","刘","542","","","","null","","","","","","","","","","","","","","key","null","16.665648854961923","640","356","j","false","nonmatch","img/diamond.png","椭圆","菱形","ALT1_1","prac_ALT1_1","","","","","","","","","","","",""
"null","<span class='add_' style='color:yellow; font-size: 70px;'> 太慢! </span>","null","html-keyboard-response","12","179534","0.0-7.0-0.0-1.0-0.0-1.1","3","4","4","3","3","4","3","3","4","4","4","5","5","4","4","5","5","4","4","5","1","2","1","1","2","2","2","1","2","1","0","1","0","1","0","0","1","0","1","1","0","0","1","1","4","1","2","3","2","4","2","3","4","4","2","790355489568464897","刘","542","","","","","","","","","","","","","","","","","","","","","","","","","","","","","","feedback_test","","","","","","","","","","","",""
"null","","null","psychophysics","13","181740","0.0-7.0-0.0-1.0-0.0-0.2","3","4","4","3","3","4","3","3","4","4","4","5","5","4","4","5","5","4","4","5","1","2","1","1","2","2","2","1","2","1","0","1","0","1","0","0","1","0","1","1","0","0","1","1","4","1","2","3","2","4","2","3","4","4","2","790355489568464897","刘","542","","","","null","","","","","","","","","","","","","","key","null","16.66106870229012","640","356","j","false","nonmatch","img/ellipse.png","菱形","椭圆","ALT1_1","prac_ALT1_1","","","","","","","","","","","",""
"null","<span class='add_' style='color:yellow; font-size: 70px;'> 太慢! </span>","null","html-keyboard-response","14","182241","0.0-7.0-0.0-1.0-0.0-1.2","3","4","4","3","3","4","3","3","4","4","4","5","5","4","4","5","5","4","4","5","1","2","1","1","2","2","2","1","2","1","0","1","0","1","0","0","1","0","1","1","0","0","1","1","4","1","2","3","2","4","2","3","4","4","2","790355489568464897","刘","542","","","","","","","","","","","","","","","","","","","","","","","","","","","","","","feedback_test","","","","","","","","","","","",""
"314","","j","psychophysics","15","183558","0.0-7.0-0.0-1.0-0.0-0.3","3","4","4","3","3","4","3","3","4","4","4","5","5","4","4","5","5","4","4","5","1","2","1","1","2","2","2","1","2","1","0","1","0","1","0","0","1","0","1","1","0","0","1","1","4","1","2","3","2","4","2","3","4","4","2","790355489568464897","刘","542","","","","nonmatch","","","","","","","","","","","","","","key","j","16.669230769230918","640","356","f","false","match","img/pentagon.png","五边","五边","ALT1_1","prac_ALT1_1","","","","","","","","","","","",""
"null","<span style='color:red; font-size: 70px;'>错误! </span>","null","html-keyboard-response","16","184058","0.0-7.0-0.0-1.0-0.0-1.3","3","4","4","3","3","4","3","3","4","4","4","5","5","4","4","5","5","4","4","5","1","2","1","1","2","2","2","1","2","1","0","1","0","1","0","0","1","0","1","1","0","0","1","1","4","1","2","3","2","4","2","3","4","4","2","790355489568464897","刘","542","","","","","","","","","","","","","","","","","","","","","","","","","","","","","","feedback_test","","","","","","","","","","","",""
"null","","null","psychophysics","17","186263","0.0-7.0-0.0-1.0-0.0-0.4","3","4","4","3","3","4","3","3","4","4","4","5","5","4","4","5","5","4","4","5","1","2","1","1","2","2","2","1","2","1","0","1","0","1","0","0","1","0","1","1","0","0","1","1","4","1","2","3","2","4","2","3","4","4","2","790355489568464897","刘","542","","","","null","","","","","","","","","","","","","","key","null","16.666412213740593","640","356","j","false","nonmatch","img/triangle.png","五边","三角","ALT1_1","prac_ALT1_1","","","","","","","","","","","",""
"null","<span class='add_' style='color:yellow; font-size: 70px;'> 太慢! </span>","null","html-keyboard-response","18","186765","0.0-7.0-0.0-1.0-0.0-1.4","3","4","4","3","3","4","3","3","4","4","4","5","5","4","4","5","5","4","4","5","1","2","1","1","2","2","2","1","2","1","0","1","0","1","0","0","1","0","1","1","0","0","1","1","4","1","2","3","2","4","2","3","4","4","2","790355489568464897","刘","542","","","","","","","","","","","","","","","","","","","","","","","","","","","","","","feedback_test","","","","","","","","","","","",""
"null","","null","psychophysics","19","188970","0.0-7.0-0.0-1.0-0.0-0.5","3","4","4","3","3","4","3","3","4","4","4","5","5","4","4","5","5","4","4","5","1","2","1","1","2","2","2","1","2","1","0","1","0","1","0","0","1","0","1","1","0","0","1","1","4","1","2","3","2","4","2","3","4","4","2","790355489568464897","刘","542","","","","null","","","","","","","","","","","","","","key","null","16.66412213740458","640","356","j","false","nonmatch","img/pentagon.png","三角","五边","ALT1_1","prac_ALT1_1","","","","","","","","","","","",""
"null","<span class='add_' style='color:yellow; font-size: 70px;'> 太慢! </span>","null","html-keyboard-response","20","189471","0.0-7.0-0.0-1.0-0.0-1.5","3","4","4","3","3","4","3","3","4","4","4","5","5","4","4","5","5","4","4","5","1","2","1","1","2","2","2","1","2","1","0","1","0","1","0","0","1","0","1","1","0","0","1","1","4","1","2","3","2","4","2","3","4","4","2","790355489568464897","刘","542","","","","","","","","","","","","","","","","","","","","","","","","","","","","","","feedback_test","","","","","","","","","","","",""
"877","","f","psychophysics","21","191351","0.0-7.0-0.0-1.0-0.0-0.6","3","4","4","3","3","4","3","3","4","4","4","5","5","4","4","5","5","4","4","5","1","2","1","1","2","2","2","1","2","1","0","1","0","1","0","0","1","0","1","1","0","0","1","1","4","1","2","3","2","4","2","3","4","4","2","790355489568464897","刘","542","","","","match","","","","","","","","","","","","","","key","f","16.66428571428566","640","356","f","true","match","img/diamond.png","菱形","菱形","ALT1_1","prac_ALT1_1","","","","","","","","","","","",""
"null","<span style='color:GreenYellow; font-size: 70px;'>正确! </span>","null","html-keyboard-response","22","191852","0.0-7.0-0.0-1.0-0.0-1.6","3","4","4","3","3","4","3","3","4","4","4","5","5","4","4","5","5","4","4","5","1","2","1","1","2","2","2","1","2","1","0","1","0","1","0","0","1","0","1","1","0","0","1","1","4","1","2","3","2","4","2","3","4","4","2","790355489568464897","刘","542","","","","","","","","","","","","","","","","","","","","","","","","","","","","","","feedback_test","","","","","","","","","","","",""
"434","","j","psychophysics","23","193289","0.0-7.0-0.0-1.0-0.0-0.7","3","4","4","3","3","4","3","3","4","4","4","5","5","4","4","5","5","4","4","5","1","2","1","1","2","2","2","1","2","1","0","1","0","1","0","0","1","0","1","1","0","0","1","1","4","1","2","3","2","4","2","3","4","4","2","790355489568464897","刘","542","","","","nonmatch","","","","","","","","","","","","","","key","j","16.667058823529548","640","356","f","false","match","img/triangle.png","三角","三角","ALT1_1","prac_ALT1_1","","","","","","","","","","","",""
"null","<span style='color:red; font-size: 70px;'>错误! </span>","null","html-keyboard-response","24","193791","0.0-7.0-0.0-1.0-0.0-1.7","3","4","4","3","3","4","3","3","4","4","4","5","5","4","4","5","5","4","4","5","1","2","1","1","2","2","2","1","2","1","0","1","0","1","0","0","1","0","1","1","0","0","1","1","4","1","2","3","2","4","2","3","4","4","2","790355489568464897","刘","542","","","","","","","","","","","","","","","","","","","","","","","","","","","","","","feedback_test","","","","","","","","","","","",""
"565","","f","psychophysics","25","195358","0.0-7.0-0.0-1.0-0.0-0.8","3","4","4","3","3","4","3","3","4","4","4","5","5","4","4","5","5","4","4","5","1","2","1","1","2","2","2","1","2","1","0","1","0","1","0","0","1","0","1","1","0","0","1","1","4","1","2","3","2","4","2","3","4","4","2","790355489568464897","刘","542","","","","match","","","","","","","","","","","","","","key","f","16.667741935483935","640","356","f","true","match","img/ellipse.png","椭圆","椭圆","ALT1_1","prac_ALT1_1","","","","","","","","","","","",""
"null","<span style='color:GreenYellow; font-size: 70px;'>正确! </span>","null","html-keyboard-response","26","195859","0.0-7.0-0.0-1.0-0.0-1.8","3","4","4","3","3","4","3","3","4","4","4","5","5","4","4","5","5","4","4","5","1","2","1","1","2","2","2","1","2","1","0","1","0","1","0","0","1","0","1","1","0","0","1","1","4","1","2","3","2","4","2","3","4","4","2","790355489568464897","刘","542","","","","","","","","","","","","","","","","","","","","","","","","","","","","","","feedback_test","","","","","","","","","","","",""
"1136","","j","psychophysics","27","197998","0.0-7.0-0.0-1.0-0.0-0.9","3","4","4","3","3","4","3","3","4","4","4","5","5","4","4","5","5","4","4","5","1","2","1","1","2","2","2","1","2","1","0","1","0","1","0","0","1","0","1","1","0","0","1","1","4","1","2","3","2","4","2","3","4","4","2","790355489568464897","刘","542","","","","nonmatch","","","","","","","","","","","","","","key","j","16.665354330708663","640","356","j","true","nonmatch","img/ellipse.png","三角","椭圆","ALT1_1","prac_ALT1_1","","","","","","","","","","","",""
"null","<span style='color:GreenYellow; font-size: 70px;'>正确! </span>","null","html-keyboard-response","28","198500","0.0-7.0-0.0-1.0-0.0-1.9","3","4","4","3","3","4","3","3","4","4","4","5","5","4","4","5","5","4","4","5","1","2","1","1","2","2","2","1","2","1","0","1","0","1","0","0","1","0","1","1","0","0","1","1","4","1","2","3","2","4","2","3","4","4","2","790355489568464897","刘","542","","","","","","","","","","","","","","","","","","","","","","","","","","","","","","feedback_test","","","","","","","","","","","",""
"1181","","f","psychophysics","29","200684","0.0-7.0-0.0-1.0-0.0-0.10","3","4","4","3","3","4","3","3","4","4","4","5","5","4","4","5","5","4","4","5","1","2","1","1","2","2","2","1","2","1","0","1","0","1","0","0","1","0","1","1","0","0","1","1","4","1","2","3","2","4","2","3","4","4","2","790355489568464897","刘","542","","","","match","","","","","","","","","","","","","","key","f","16.664615384615338","640","356","f","true","match","img/ellipse.png","椭圆","椭圆","ALT1_1","prac_ALT1_1","","","","","","","","","","","",""
"null","<span style='color:GreenYellow; font-size: 70px;'>正确! </span>","null","html-keyboard-response","30","201186","0.0-7.0-0.0-1.0-0.0-1.10","3","4","4","3","3","4","3","3","4","4","4","5","5","4","4","5","5","4","4","5","1","2","1","1","2","2","2","1","2","1","0","1","0","1","0","0","1","0","1","1","0","0","1","1","4","1","2","3","2","4","2","3","4","4","2","790355489568464897","刘","542","","","","","","","","","","","","","","","","","","","","","","","","","","","","","","feedback_test","","","","","","","","","","","",""
"null","","null","psychophysics","31","203390","0.0-7.0-0.0-1.0-0.0-0.11","3","4","4","3","3","4","3","3","4","4","4","5","5","4","4","5","5","4","4","5","1","2","1","1","2","2","2","1","2","1","0","1","0","1","0","0","1","0","1","1","0","0","1","1","4","1","2","3","2","4","2","3","4","4","2","790355489568464897","刘","542","","","","null","","","","","","","","","","","","","","key","null","16.66412213740458","640","356","f","false","match","img/diamond.png","菱形","菱形","ALT1_1","prac_ALT1_1","","","","","","","","","","","",""
"null","<span class='add_' style='color:yellow; font-size: 70px;'> 太慢! </span>","null","html-keyboard-response","32","203891","0.0-7.0-0.0-1.0-0.0-1.11","3","4","4","3","3","4","3","3","4","4","4","5","5","4","4","5","5","4","4","5","1","2","1","1","2","2","2","1","2","1","0","1","0","1","0","0","1","0","1","1","0","0","1","1","4","1","2","3","2","4","2","3","4","4","2","790355489568464897","刘","542","","","","","","","","","","","","","","","","","","","","","","","","","","","","","","feedback_test","","","","","","","","","","","",""
"null","","null","psychophysics","33","206095","0.0-7.0-0.0-1.0-0.0-0.12","3","4","4","3","3","4","3","3","4","4","4","5","5","4","4","5","5","4","4","5","1","2","1","1","2","2","2","1","2","1","0","1","0","1","0","0","1","0","1","1","0","0","1","1","4","1","2","3","2","4","2","3","4","4","2","790355489568464897","刘","542","","","","null","","","","","","","","","","","","","","key","null","16.6610687022899","640","356","j","false","nonmatch","img/triangle.png","菱形","三角","ALT1_1","prac_ALT1_1","","","","","","","","","","","",""
"null","<span class='add_' style='color:yellow; font-size: 70px;'> 太慢! </span>","null","html-keyboard-response","34","206596","0.0-7.0-0.0-1.0-0.0-1.12","3","4","4","3","3","4","3","3","4","4","4","5","5","4","4","5","5","4","4","5","1","2","1","1","2","2","2","1","2","1","0","1","0","1","0","0","1","0","1","1","0","0","1","1","4","1","2","3","2","4","2","3","4","4","2","790355489568464897","刘","542","","","","","","","","","","","","","","","","","","","","","","","","","","","","","","feedback_test","","","","","","","","","","","",""
"1023","","f","psychophysics","35","208621","0.0-7.0-0.0-1.0-0.0-0.13","3","4","4","3","3","4","3","3","4","4","4","5","5","4","4","5","5","4","4","5","1","2","1","1","2","2","2","1","2","1","0","1","0","1","0","0","1","0","1","1","0","0","1","1","4","1","2","3","2","4","2","3","4","4","2","790355489568464897","刘","542","","","","match","","","","","","","","","","","","","","key","f","16.66333333333338","640","356","j","false","nonmatch","img/ellipse.png","五边","椭圆","ALT1_1","prac_ALT1_1","","","","","","","","","","","",""
"null","<span style='color:red; font-size: 70px;'>错误! </span>","null","html-keyboard-response","36","209123","0.0-7.0-0.0-1.0-0.0-1.13","3","4","4","3","3","4","3","3","4","4","4","5","5","4","4","5","5","4","4","5","1","2","1","1","2","2","2","1","2","1","0","1","0","1","0","0","1","0","1","1","0","0","1","1","4","1","2","3","2","4","2","3","4","4","2","790355489568464897","刘","542","","","","","","","","","","","","","","","","","","","","","","","","","","","","","","feedback_test","","","","","","","","","","","",""
"1125","","j","psychophysics","37","211251","0.0-7.0-0.0-1.0-0.0-0.14","3","4","4","3","3","4","3","3","4","4","4","5","5","4","4","5","5","4","4","5","1","2","1","1","2","2","2","1","2","1","0","1","0","1","0","0","1","0","1","1","0","0","1","1","4","1","2","3","2","4","2","3","4","4","2","790355489568464897","刘","542","","","","nonmatch","","","","","","","","","","","","","","key","j","16.664566929134043","640","356","j","true","nonmatch","img/triangle.png","椭圆","三角","ALT1_1","prac_ALT1_1","","","","","","","","","","","",""
"null","<span style='color:GreenYellow; font-size: 70px;'>正确! </span>","null","html-keyboard-response","38","211752","0.0-7.0-0.0-1.0-0.0-1.14","3","4","4","3","3","4","3","3","4","4","4","5","5","4","4","5","5","4","4","5","1","2","1","1","2","2","2","1","2","1","0","1","0","1","0","0","1","0","1","1","0","0","1","1","4","1","2","3","2","4","2","3","4","4","2","790355489568464897","刘","542","","","","","","","","","","","","","","","","","","","","","","","","","","","","","","feedback_test","","","","","","","","","","","",""
"934","","f","psychophysics","39","213698","0.0-7.0-0.0-1.0-0.0-0.15","3","4","4","3","3","4","3","3","4","4","4","5","5","4","4","5","5","4","4","5","1","2","1","1","2","2","2","1","2","1","0","1","0","1","0","0","1","0","1","1","0","0","1","1","4","1","2","3","2","4","2","3","4","4","2","790355489568464897","刘","542","","","","match","","","","","","","","","","","","","","key","f","16.664655172413845","640","356","f","true","match","img/triangle.png","三角","三角","ALT1_1","prac_ALT1_1","","","","","","","","","","","",""
"null","<span style='color:GreenYellow; font-size: 70px;'>正确! </span>","null","html-keyboard-response","40","214214","0.0-7.0-0.0-1.0-0.0-1.15","3","4","4","3","3","4","3","3","4","4","4","5","5","4","4","5","5","4","4","5","1","2","1","1","2","2","2","1","2","1","0","1","0","1","0","0","1","0","1","1","0","0","1","1","4","1","2","3","2","4","2","3","4","4","2","790355489568464897","刘","542","","","","","","","","","","","","","","","","","","","","","","","","","","","","","","feedback_test","","","","","","","","","","","",""
"null","","null","psychophysics","41","216419","0.0-7.0-0.0-1.0-0.0-0.16","3","4","4","3","3","4","3","3","4","4","4","5","5","4","4","5","5","4","4","5","1","2","1","1","2","2","2","1","2","1","0","1","0","1","0","0","1","0","1","1","0","0","1","1","4","1","2","3","2","4","2","3","4","4","2","790355489568464897","刘","542","","","","null","","","","","","","","","","","","","","key","null","16.667175572519263","640","356","j","false","nonmatch","img/pentagon.png","菱形","五边","ALT1_1","prac_ALT1_1","","","","","","","","","","","",""
"null","<span class='add_' style='color:yellow; font-size: 70px;'> 太慢! </span>","null","html-keyboard-response","42","216921","0.0-7.0-0.0-1.0-0.0-1.16","3","4","4","3","3","4","3","3","4","4","4","5","5","4","4","5","5","4","4","5","1","2","1","1","2","2","2","1","2","1","0","1","0","1","0","0","1","0","1","1","0","0","1","1","4","1","2","3","2","4","2","3","4","4","2","790355489568464897","刘","542","","","","","","","","","","","","","","","","","","","","","","","","","","","","","","feedback_test","","","","","","","","","","","",""
"737","","f","psychophysics","43","218661","0.0-7.0-0.0-1.0-0.0-0.17","3","4","4","3","3","4","3","3","4","4","4","5","5","4","4","5","5","4","4","5","1","2","1","1","2","2","2","1","2","1","0","1","0","1","0","0","1","0","1","1","0","0","1","1","4","1","2","3","2","4","2","3","4","4","2","790355489568464897","刘","542","","","","match","","","","","","","","","","","","","","key","f","16.666019417475784","640","356","f","true","match","img/pentagon.png","五边","五边","ALT1_1","prac_ALT1_1","","","","","","","","","","","",""
"null","<span style='color:GreenYellow; font-size: 70px;'>正确! </span>","null","html-keyboard-response","44","219162","0.0-7.0-0.0-1.0-0.0-1.17","3","4","4","3","3","4","3","3","4","4","4","5","5","4","4","5","5","4","4","5","1","2","1","1","2","2","2","1","2","1","0","1","0","1","0","0","1","0","1","1","0","0","1","1","4","1","2","3","2","4","2","3","4","4","2","790355489568464897","刘","542","","","","","","","","","","","","","","","","","","","","","","","","","","","","","","feedback_test","","","","","","","","","","","",""
"819","","f","psychophysics","45","220983","0.0-7.0-0.0-1.0-0.0-0.18","3","4","4","3","3","4","3","3","4","4","4","5","5","4","4","5","5","4","4","5","1","2","1","1","2","2","2","1","2","1","0","1","0","1","0","0","1","0","1","1","0","0","1","1","4","1","2","3","2","4","2","3","4","4","2","790355489568464897","刘","542","","","","match","","","","","","","","","","","","","","key","f","16.662962962963018","640","356","f","true","match","img/pentagon.png","五边","五边","ALT1_1","prac_ALT1_1","","","","","","","","","","","",""
"null","<span style='color:GreenYellow; font-size: 70px;'>正确! </span>","null","html-keyboard-response","46","221485","0.0-7.0-0.0-1.0-0.0-1.18","3","4","4","3","3","4","3","3","4","4","4","5","5","4","4","5","5","4","4","5","1","2","1","1","2","2","2","1","2","1","0","1","0","1","0","0","1","0","1","1","0","0","1","1","4","1","2","3","2","4","2","3","4","4","2","790355489568464897","刘","542","","","","","","","","","","","","","","","","","","","","","","","","","","","","","","feedback_test","","","","","","","","","","","",""
"782","","j","psychophysics","47","223270","0.0-7.0-0.0-1.0-0.0-0.19","3","4","4","3","3","4","3","3","4","4","4","5","5","4","4","5","5","4","4","5","1","2","1","1","2","2","2","1","2","1","0","1","0","1","0","0","1","0","1","1","0","0","1","1","4","1","2","3","2","4","2","3","4","4","2","790355489568464897","刘","542","","","","nonmatch","","","","","","","","","","","","","","key","j","16.666037735849113","640","356","j","true","nonmatch","img/diamond.png","三角","菱形","ALT1_1","prac_ALT1_1","","","","","","","","","","","",""
"null","<span style='color:GreenYellow; font-size: 70px;'>正确! </span>","null","html-keyboard-response","48","223771","0.0-7.0-0.0-1.0-0.0-1.19","3","4","4","3","3","4","3","3","4","4","4","5","5","4","4","5","5","4","4","5","1","2","1","1","2","2","2","1","2","1","0","1","0","1","0","0","1","0","1","1","0","0","1","1","4","1","2","3","2","4","2","3","4","4","2","790355489568464897","刘","542","","","","","","","","","","","","","","","","","","","","","","","","","","","","","","feedback_test","","","","","","","","","","","",""
"null","","null","psychophysics","49","225976","0.0-7.0-0.0-1.0-0.0-0.20","3","4","4","3","3","4","3","3","4","4","4","5","5","4","4","5","5","4","4","5","1","2","1","1","2","2","2","1","2","1","0","1","0","1","0","0","1","0","1","1","0","0","1","1","4","1","2","3","2","4","2","3","4","4","2","790355489568464897","刘","542","","","","null","","","","","","","","","","","","","","key","null","16.66412213740458","640","356","j","false","nonmatch","img/pentagon.png","椭圆","五边","ALT1_1","prac_ALT1_1","","","","","","","","","","","",""
"null","<span class='add_' style='color:yellow; font-size: 70px;'> 太慢! </span>","null","html-keyboard-response","50","226478","0.0-7.0-0.0-1.0-0.0-1.20","3","4","4","3","3","4","3","3","4","4","4","5","5","4","4","5","5","4","4","5","1","2","1","1","2","2","2","1","2","1","0","1","0","1","0","0","1","0","1","1","0","0","1","1","4","1","2","3","2","4","2","3","4","4","2","790355489568464897","刘","542","","","","","","","","","","","","","","","","","","","","","","","","","","","","","","feedback_test","","","","","","","","","","","",""
"841","","f","psychophysics","51","228320","0.0-7.0-0.0-1.0-0.0-0.21","3","4","4","3","3","4","3","3","4","4","4","5","5","4","4","5","5","4","4","5","1","2","1","1","2","2","2","1","2","1","0","1","0","1","0","0","1","0","1","1","0","0","1","1","4","1","2","3","2","4","2","3","4","4","2","790355489568464897","刘","542","","","","match","","","","","","","","","","","","","","key","f","16.663302752293472","640","356","f","true","match","img/diamond.png","菱形","菱形","ALT1_1","prac_ALT1_1","","","","","","","","","","","",""
"null","<span style='color:GreenYellow; font-size: 70px;'>正确! </span>","null","html-keyboard-response","52","228821","0.0-7.0-0.0-1.0-0.0-1.21","3","4","4","3","3","4","3","3","4","4","4","5","5","4","4","5","5","4","4","5","1","2","1","1","2","2","2","1","2","1","0","1","0","1","0","0","1","0","1","1","0","0","1","1","4","1","2","3","2","4","2","3","4","4","2","790355489568464897","刘","542","","","","","","","","","","","","","","","","","","","","","","","","","","","","","","feedback_test","","","","","","","","","","","",""
"845","","j","psychophysics","53","230668","0.0-7.0-0.0-1.0-0.0-0.22","3","4","4","3","3","4","3","3","4","4","4","5","5","4","4","5","5","4","4","5","1","2","1","1","2","2","2","1","2","1","0","1","0","1","0","0","1","0","1","1","0","0","1","1","4","1","2","3","2","4","2","3","4","4","2","790355489568464897","刘","542","","","","nonmatch","","","","","","","","","","","","","","key","j","16.6690909090907","640","356","j","true","nonmatch","img/diamond.png","五边","菱形","ALT1_1","prac_ALT1_1","","","","","","","","","","","",""
"null","<span style='color:GreenYellow; font-size: 70px;'>正确! </span>","null","html-keyboard-response","54","231168","0.0-7.0-0.0-1.0-0.0-1.22","3","4","4","3","3","4","3","3","4","4","4","5","5","4","4","5","5","4","4","5","1","2","1","1","2","2","2","1","2","1","0","1","0","1","0","0","1","0","1","1","0","0","1","1","4","1","2","3","2","4","2","3","4","4","2","790355489568464897","刘","542","","","","","","","","","","","","","","","","","","","","","","","","","","","","","","feedback_test","","","","","","","","","","","",""
"587","","f","psychophysics","55","232759","0.0-7.0-0.0-1.0-0.0-0.23","3","4","4","3","3","4","3","3","4","4","4","5","5","4","4","5","5","4","4","5","1","2","1","1","2","2","2","1","2","1","0","1","0","1","0","0","1","0","1","1","0","0","1","1","4","1","2","3","2","4","2","3","4","4","2","790355489568464897","刘","542","","","","match","","","","","","","","","","","","","","key","f","16.670212765957448","640","356","f","true","match","img/ellipse.png","椭圆","椭圆","ALT1_1","prac_ALT1_1","","","","","","","","","","","",""
"null","<span style='color:GreenYellow; font-size: 70px;'>正确! </span>","null","html-keyboard-response","56","233261","0.0-7.0-0.0-1.0-0.0-1.23","3","4","4","3","3","4","3","3","4","4","4","5","5","4","4","5","5","4","4","5","1","2","1","1","2","2","2","1","2","1","0","1","0","1","0","0","1","0","1","1","0","0","1","1","4","1","2","3","2","4","2","3","4","4","2","790355489568464897","刘","542","","","","","","","","","","","","","","","","","","","","","","","","","","","","","","feedback_test","","","","","","","","","","","",""
"639","","f","psychophysics","57","234904","0.0-7.0-0.0-1.0-0.0-0.24","3","4","4","3","3","4","3","3","4","4","4","5","5","4","4","5","5","4","4","5","1","2","1","1","2","2","2","1","2","1","0","1","0","1","0","0","1","0","1","1","0","0","1","1","4","1","2","3","2","4","2","3","4","4","2","790355489568464897","刘","542","","","","match","","","","","","","","","","","","","","key","f","16.66701030927847","640","356","f","true","match","img/diamond.png","菱形","菱形","ALT1_1","prac_ALT1_1","","","","","","","","","","","",""
"null","<span style='color:GreenYellow; font-size: 70px;'>正确! </span>","null","html-keyboard-response","58","235408","0.0-7.0-0.0-1.0-0.0-1.24","3","4","4","3","3","4","3","3","4","4","4","5","5","4","4","5","5","4","4","5","1","2","1","1","2","2","2","1","2","1","0","1","0","1","0","0","1","0","1","1","0","0","1","1","4","1","2","3","2","4","2","3","4","4","2","790355489568464897","刘","542","","","","","","","","","","","","","","","","","","","","","","","","","","","","","","feedback_test","","","","","","","","","","","",""
"842","","j","psychophysics","59","237253","0.0-7.0-0.0-1.0-0.0-0.25","3","4","4","3","3","4","3","3","4","4","4","5","5","4","4","5","5","4","4","5","1","2","1","1","2","2","2","1","2","1","0","1","0","1","0","0","1","0","1","1","0","0","1","1","4","1","2","3","2","4","2","3","4","4","2","790355489568464897","刘","542","","","","nonmatch","","","","","","","","","","","","","","key","j","16.665137614678898","640","356","j","true","nonmatch","img/diamond.png","三角","菱形","ALT1_1","prac_ALT1_1","","","","","","","","","","","",""
"null","<span style='color:GreenYellow; font-size: 70px;'>正确! </span>","null","html-keyboard-response","60","237754","0.0-7.0-0.0-1.0-0.0-1.25","3","4","4","3","3","4","3","3","4","4","4","5","5","4","4","5","5","4","4","5","1","2","1","1","2","2","2","1","2","1","0","1","0","1","0","0","1","0","1","1","0","0","1","1","4","1","2","3","2","4","2","3","4","4","2","790355489568464897","刘","542","","","","","","","","","","","","","","","","","","","","","","","","","","","","","","feedback_test","","","","","","","","","","","",""
"624","","f","psychophysics","61","239380","0.0-7.0-0.0-1.0-0.0-0.26","3","4","4","3","3","4","3","3","4","4","4","5","5","4","4","5","5","4","4","5","1","2","1","1","2","2","2","1","2","1","0","1","0","1","0","0","1","0","1","1","0","0","1","1","4","1","2","3","2","4","2","3","4","4","2","790355489568464897","刘","542","","","","match","","","","","","","","","","","","","","key","f","16.670103092783506","640","356","j","false","nonmatch","img/triangle.png","五边","三角","ALT1_1","prac_ALT1_1","","","","","","","","","","","",""
"null","<span style='color:red; font-size: 70px;'>错误! </span>","null","html-keyboard-response","62","239883","0.0-7.0-0.0-1.0-0.0-1.26","3","4","4","3","3","4","3","3","4","4","4","5","5","4","4","5","5","4","4","5","1","2","1","1","2","2","2","1","2","1","0","1","0","1","0","0","1","0","1","1","0","0","1","1","4","1","2","3","2","4","2","3","4","4","2","790355489568464897","刘","542","","","","","","","","","","","","","","","","","","","","","","","","","","","","","","feedback_test","","","","","","","","","","","",""
"744","","j","psychophysics","63","241629","0.0-7.0-0.0-1.0-0.0-0.27","3","4","4","3","3","4","3","3","4","4","4","5","5","4","4","5","5","4","4","5","1","2","1","1","2","2","2","1","2","1","0","1","0","1","0","0","1","0","1","1","0","0","1","1","4","1","2","3","2","4","2","3","4","4","2","790355489568464897","刘","542","","","","nonmatch","","","","","","","","","","","","","","key","j","16.665384615384728","640","356","j","true","nonmatch","img/ellipse.png","菱形","椭圆","ALT1_1","prac_ALT1_1","","","","","","","","","","","",""
"null","<span style='color:GreenYellow; font-size: 70px;'>正确! </span>","null","html-keyboard-response","64","242131","0.0-7.0-0.0-1.0-0.0-1.27","3","4","4","3","3","4","3","3","4","4","4","5","5","4","4","5","5","4","4","5","1","2","1","1","2","2","2","1","2","1","0","1","0","1","0","0","1","0","1","1","0","0","1","1","4","1","2","3","2","4","2","3","4","4","2","790355489568464897","刘","542","","","","","","","","","","","","","","","","","","","","","","","","","","","","","","feedback_test","","","","","","","","","","","",""
"939","","j","psychophysics","65","244073","0.0-7.0-0.0-1.0-0.0-0.28","3","4","4","3","3","4","3","3","4","4","4","5","5","4","4","5","5","4","4","5","1","2","1","1","2","2","2","1","2","1","0","1","0","1","0","0","1","0","1","1","0","0","1","1","4","1","2","3","2","4","2","3","4","4","2","790355489568464897","刘","542","","","","nonmatch","","","","","","","","","","","","","","key","j","16.66521739130435","640","356","j","true","nonmatch","img/pentagon.png","菱形","五边","ALT1_1","prac_ALT1_1","","","","","","","","","","","",""
"null","<span style='color:GreenYellow; font-size: 70px;'>正确! </span>","null","html-keyboard-response","66","244575","0.0-7.0-0.0-1.0-0.0-1.28","3","4","4","3","3","4","3","3","4","4","4","5","5","4","4","5","5","4","4","5","1","2","1","1","2","2","2","1","2","1","0","1","0","1","0","0","1","0","1","1","0","0","1","1","4","1","2","3","2","4","2","3","4","4","2","790355489568464897","刘","542","","","","","","","","","","","","","","","","","","","","","","","","","","","","","","feedback_test","","","","","","","","","","","",""
"718","","j","psychophysics","67","246295","0.0-7.0-0.0-1.0-0.0-0.29","3","4","4","3","3","4","3","3","4","4","4","5","5","4","4","5","5","4","4","5","1","2","1","1","2","2","2","1","2","1","0","1","0","1","0","0","1","0","1","1","0","0","1","1","4","1","2","3","2","4","2","3","4","4","2","790355489568464897","刘","542","","","","nonmatch","","","","","","","","","","","","","","key","j","16.660784313725433","640","356","j","true","nonmatch","img/triangle.png","椭圆","三角","ALT1_1","prac_ALT1_1","","","","","","","","","","","",""
"null","<span style='color:GreenYellow; font-size: 70px;'>正确! </span>","null","html-keyboard-response","68","246797","0.0-7.0-0.0-1.0-0.0-1.29","3","4","4","3","3","4","3","3","4","4","4","5","5","4","4","5","5","4","4","5","1","2","1","1","2","2","2","1","2","1","0","1","0","1","0","0","1","0","1","1","0","0","1","1","4","1","2","3","2","4","2","3","4","4","2","790355489568464897","刘","542","","","","","","","","","","","","","","","","","","","","","","","","","","","","","","feedback_test","","","","","","","","","","","",""
"1080","","j","psychophysics","69","248880","0.0-7.0-0.0-1.0-0.0-0.30","3","4","4","3","3","4","3","3","4","4","4","5","5","4","4","5","5","4","4","5","1","2","1","1","2","2","2","1","2","1","0","1","0","1","0","0","1","0","1","1","0","0","1","1","4","1","2","3","2","4","2","3","4","4","2","790355489568464897","刘","542","","","","nonmatch","","","","","","","","","","","","","","key","j","16.664516129032446","640","356","j","true","nonmatch","img/diamond.png","五边","菱形","ALT1_1","prac_ALT1_1","","","","","","","","","","","",""
"null","<span style='color:GreenYellow; font-size: 70px;'>正确! </span>","null","html-keyboard-response","70","249383","0.0-7.0-0.0-1.0-0.0-1.30","3","4","4","3","3","4","3","3","4","4","4","5","5","4","4","5","5","4","4","5","1","2","1","1","2","2","2","1","2","1","0","1","0","1","0","0","1","0","1","1","0","0","1","1","4","1","2","3","2","4","2","3","4","4","2","790355489568464897","刘","542","","","","","","","","","","","","","","","","","","","","","","","","","","","","","","feedback_test","","","","","","","","","","","",""
"693","","j","psychophysics","71","251078","0.0-7.0-0.0-1.0-0.0-0.31","3","4","4","3","3","4","3","3","4","4","4","5","5","4","4","5","5","4","4","5","1","2","1","1","2","2","2","1","2","1","0","1","0","1","0","0","1","0","1","1","0","0","1","1","4","1","2","3","2","4","2","3","4","4","2","790355489568464897","刘","542","","","","nonmatch","","","","","","","","","","","","","","key","j","16.668316831683168","640","356","j","true","nonmatch","img/ellipse.png","五边","椭圆","ALT1_1","prac_ALT1_1","","","","","","","","","","","",""
"null","<span style='color:GreenYellow; font-size: 70px;'>正确! </span>","null","html-keyboard-response","72","251580","0.0-7.0-0.0-1.0-0.0-1.31","3","4","4","3","3","4","3","3","4","4","4","5","5","4","4","5","5","4","4","5","1","2","1","1","2","2","2","1","2","1","0","1","0","1","0","0","1","0","1","1","0","0","1","1","4","1","2","3","2","4","2","3","4","4","2","790355489568464897","刘","542","","","","","","","","","","","","","","","","","","","","","","","","","","","","","","feedback_test","","","","","","","","","","","",""
"640","","f","psychophysics","73","253222","0.0-7.0-0.0-1.0-0.0-0.32","3","4","4","3","3","4","3","3","4","4","4","5","5","4","4","5","5","4","4","5","1","2","1","1","2","2","2","1","2","1","0","1","0","1","0","0","1","0","1","1","0","0","1","1","4","1","2","3","2","4","2","3","4","4","2","790355489568464897","刘","542","","","","match","","","","","","","","","","","","","","key","f","16.664948453608247","640","356","f","true","match","img/triangle.png","三角","三角","ALT1_1","prac_ALT1_1","","","","","","","","","","","",""
"null","<span style='color:GreenYellow; font-size: 70px;'>正确! </span>","null","html-keyboard-response","74","253725","0.0-7.0-0.0-1.0-0.0-1.32","3","4","4","3","3","4","3","3","4","4","4","5","5","4","4","5","5","4","4","5","1","2","1","1","2","2","2","1","2","1","0","1","0","1","0","0","1","0","1","1","0","0","1","1","4","1","2","3","2","4","2","3","4","4","2","790355489568464897","刘","542","","","","","","","","","","","","","","","","","","","","","","","","","","","","","","feedback_test","","","","","","","","","","","",""
"777","","j","psychophysics","75","255505","0.0-7.0-0.0-1.0-0.0-0.33","3","4","4","3","3","4","3","3","4","4","4","5","5","4","4","5","5","4","4","5","1","2","1","1","2","2","2","1","2","1","0","1","0","1","0","0","1","0","1","1","0","0","1","1","4","1","2","3","2","4","2","3","4","4","2","790355489568464897","刘","542","","","","nonmatch","","","","","","","","","","","","","","key","j","16.664761904761793","640","356","f","false","match","img/ellipse.png","椭圆","椭圆","ALT1_1","prac_ALT1_1","","","","","","","","","","","",""
"null","<span style='color:red; font-size: 70px;'>错误! </span>","null","html-keyboard-response","76","256006","0.0-7.0-0.0-1.0-0.0-1.33","3","4","4","3","3","4","3","3","4","4","4","5","5","4","4","5","5","4","4","5","1","2","1","1","2","2","2","1","2","1","0","1","0","1","0","0","1","0","1","1","0","0","1","1","4","1","2","3","2","4","2","3","4","4","2","790355489568464897","刘","542","","","","","","","","","","","","","","","","","","","","","","","","","","","","","","feedback_test","","","","","","","","","","","",""
"743","","j","psychophysics","77","257752","0.0-7.0-0.0-1.0-0.0-0.34","3","4","4","3","3","4","3","3","4","4","4","5","5","4","4","5","5","4","4","5","1","2","1","1","2","2","2","1","2","1","0","1","0","1","0","0","1","0","1","1","0","0","1","1","4","1","2","3","2","4","2","3","4","4","2","790355489568464897","刘","542","","","","nonmatch","","","","","","","","","","","","","","key","j","16.66699029126225","640","356","j","true","nonmatch","img/diamond.png","椭圆","菱形","ALT1_1","prac_ALT1_1","","","","","","","","","","","",""
"null","<span style='color:GreenYellow; font-size: 70px;'>正确! </span>","null","html-keyboard-response","78","258255","0.0-7.0-0.0-1.0-0.0-1.34","3","4","4","3","3","4","3","3","4","4","4","5","5","4","4","5","5","4","4","5","1","2","1","1","2","2","2","1","2","1","0","1","0","1","0","0","1","0","1","1","0","0","1","1","4","1","2","3","2","4","2","3","4","4","2","790355489568464897","刘","542","","","","","","","","","","","","","","","","","","","","","","","","","","","","","","feedback_test","","","","","","","","","","","",""
"792","","j","psychophysics","79","260048","0.0-7.0-0.0-1.0-0.0-0.35","3","4","4","3","3","4","3","3","4","4","4","5","5","4","4","5","5","4","4","5","1","2","1","1","2","2","2","1","2","1","0","1","0","1","0","0","1","0","1","1","0","0","1","1","4","1","2","3","2","4","2","3","4","4","2","790355489568464897","刘","542","","","","nonmatch","","","","","","","","","","","","","","key","j","16.66822429906569","640","356","j","true","nonmatch","img/ellipse.png","三角","椭圆","ALT1_1","prac_ALT1_1","","","","","","","","","","","",""
"null","<span style='color:GreenYellow; font-size: 70px;'>正确! </span>","null","html-keyboard-response","80","260551","0.0-7.0-0.0-1.0-0.0-1.35","3","4","4","3","3","4","3","3","4","4","4","5","5","4","4","5","5","4","4","5","1","2","1","1","2","2","2","1","2","1","0","1","0","1","0","0","1","0","1","1","0","0","1","1","4","1","2","3","2","4","2","3","4","4","2","790355489568464897","刘","542","","","","","","","","","","","","","","","","","","","","","","","","","","","","","","feedback_test","","","","","","","","","","","",""
"717","","f","psychophysics","81","262271","0.0-7.0-0.0-1.0-0.0-0.36","3","4","4","3","3","4","3","3","4","4","4","5","5","4","4","5","5","4","4","5","1","2","1","1","2","2","2","1","2","1","0","1","0","1","0","0","1","0","1","1","0","0","1","1","4","1","2","3","2","4","2","3","4","4","2","790355489568464897","刘","542","","","","match","","","","","","","","","","","","","","key","f","16.66764705882387","640","356","j","false","nonmatch","img/pentagon.png","椭圆","五边","ALT1_1","prac_ALT1_1","","","","","","","","","","","",""
"null","<span style='color:red; font-size: 70px;'>错误! </span>","null","html-keyboard-response","82","262772","0.0-7.0-0.0-1.0-0.0-1.36","3","4","4","3","3","4","3","3","4","4","4","5","5","4","4","5","5","4","4","5","1","2","1","1","2","2","2","1","2","1","0","1","0","1","0","0","1","0","1","1","0","0","1","1","4","1","2","3","2","4","2","3","4","4","2","790355489568464897","刘","542","","","","","","","","","","","","","","","","","","","","","","","","","","","","","","feedback_test","","","","","","","","","","","",""
"678","","j","psychophysics","83","264452","0.0-7.0-0.0-1.0-0.0-0.37","3","4","4","3","3","4","3","3","4","4","4","5","5","4","4","5","5","4","4","5","1","2","1","1","2","2","2","1","2","1","0","1","0","1","0","0","1","0","1","1","0","0","1","1","4","1","2","3","2","4","2","3","4","4","2","790355489568464897","刘","542","","","","nonmatch","","","","","","","","","","","","","","key","j","16.667676767676532","640","356","f","false","match","img/pentagon.png","五边","五边","ALT1_1","prac_ALT1_1","","","","","","","","","","","",""
"null","<span style='color:red; font-size: 70px;'>错误! </span>","null","html-keyboard-response","84","264954","0.0-7.0-0.0-1.0-0.0-1.37","3","4","4","3","3","4","3","3","4","4","4","5","5","4","4","5","5","4","4","5","1","2","1","1","2","2","2","1","2","1","0","1","0","1","0","0","1","0","1","1","0","0","1","1","4","1","2","3","2","4","2","3","4","4","2","790355489568464897","刘","542","","","","","","","","","","","","","","","","","","","","","","","","","","","","","","feedback_test","","","","","","","","","","","",""
"813","","f","psychophysics","85","266769","0.0-7.0-0.0-1.0-0.0-0.38","3","4","4","3","3","4","3","3","4","4","4","5","5","4","4","5","5","4","4","5","1","2","1","1","2","2","2","1","2","1","0","1","0","1","0","0","1","0","1","1","0","0","1","1","4","1","2","3","2","4","2","3","4","4","2","790355489568464897","刘","542","","","","match","","","","","","","","","","","","","","key","f","16.657009345794282","640","356","f","true","match","img/triangle.png","三角","三角","ALT1_1","prac_ALT1_1","","","","","","","","","","","",""
"null","<span style='color:GreenYellow; font-size: 70px;'>正确! </span>","null","html-keyboard-response","86","267271","0.0-7.0-0.0-1.0-0.0-1.38","3","4","4","3","3","4","3","3","4","4","4","5","5","4","4","5","5","4","4","5","1","2","1","1","2","2","2","1","2","1","0","1","0","1","0","0","1","0","1","1","0","0","1","1","4","1","2","3","2","4","2","3","4","4","2","790355489568464897","刘","542","","","","","","","","","","","","","","","","","","","","","","","","","","","","","","feedback_test","","","","","","","","","","","",""
"753","","f","psychophysics","87","269026","0.0-7.0-0.0-1.0-0.0-0.39","3","4","4","3","3","4","3","3","4","4","4","5","5","4","4","5","5","4","4","5","1","2","1","1","2","2","2","1","2","1","0","1","0","1","0","0","1","0","1","1","0","0","1","1","4","1","2","3","2","4","2","3","4","4","2","790355489568464897","刘","542","","","","match","","","","","","","","","","","","","","key","f","16.665384615384166","640","356","f","true","match","img/ellipse.png","椭圆","椭圆","ALT1_1","prac_ALT1_1","","","","","","","","","","","",""
"null","<span style='color:GreenYellow; font-size: 70px;'>正确! </span>","null","html-keyboard-response","88","269527","0.0-7.0-0.0-1.0-0.0-1.39","3","4","4","3","3","4","3","3","4","4","4","5","5","4","4","5","5","4","4","5","1","2","1","1","2","2","2","1","2","1","0","1","0","1","0","0","1","0","1","1","0","0","1","1","4","1","2","3","2","4","2","3","4","4","2","790355489568464897","刘","542","","","","","","","","","","","","","","","","","","","","","","","","","","","","","","feedback_test","","","","","","","","","","","",""
"729","","f","psychophysics","89","271258","0.0-7.0-0.0-1.0-0.0-0.40","3","4","4","3","3","4","3","3","4","4","4","5","5","4","4","5","5","4","4","5","1","2","1","1","2","2","2","1","2","1","0","1","0","1","0","0","1","0","1","1","0","0","1","1","4","1","2","3","2","4","2","3","4","4","2","790355489568464897","刘","542","","","","match","","","","","","","","","","","","","","key","f","16.667961165048432","640","356","f","true","match","img/pentagon.png","五边","五边","ALT1_1","prac_ALT1_1","","","","","","","","","","","",""
"null","<span style='color:GreenYellow; font-size: 70px;'>正确! </span>","null","html-keyboard-response","90","271761","0.0-7.0-0.0-1.0-0.0-1.40","3","4","4","3","3","4","3","3","4","4","4","5","5","4","4","5","5","4","4","5","1","2","1","1","2","2","2","1","2","1","0","1","0","1","0","0","1","0","1","1","0","0","1","1","4","1","2","3","2","4","2","3","4","4","2","790355489568464897","刘","542","","","","","","","","","","","","","","","","","","","","","","","","","","","","","","feedback_test","","","","","","","","","","","",""
"519","","f","psychophysics","91","273283","0.0-7.0-0.0-1.0-0.0-0.41","3","4","4","3","3","4","3","3","4","4","4","5","5","4","4","5","5","4","4","5","1","2","1","1","2","2","2","1","2","1","0","1","0","1","0","0","1","0","1","1","0","0","1","1","4","1","2","3","2","4","2","3","4","4","2","790355489568464897","刘","542","","","","match","","","","","","","","","","","","","","key","f","16.664444444444314","640","356","f","true","match","img/diamond.png","菱形","菱形","ALT1_1","prac_ALT1_1","","","","","","","","","","","",""
"null","<span style='color:GreenYellow; font-size: 70px;'>正确! </span>","null","html-keyboard-response","92","273784","0.0-7.0-0.0-1.0-0.0-1.41","3","4","4","3","3","4","3","3","4","4","4","5","5","4","4","5","5","4","4","5","1","2","1","1","2","2","2","1","2","1","0","1","0","1","0","0","1","0","1","1","0","0","1","1","4","1","2","3","2","4","2","3","4","4","2","790355489568464897","刘","542","","","","","","","","","","","","","","","","","","","","","","","","","","","","","","feedback_test","","","","","","","","","","","",""
"900","","j","psychophysics","93","275688","0.0-7.0-0.0-1.0-0.0-0.42","3","4","4","3","3","4","3","3","4","4","4","5","5","4","4","5","5","4","4","5","1","2","1","1","2","2","2","1","2","1","0","1","0","1","0","0","1","0","1","1","0","0","1","1","4","1","2","3","2","4","2","3","4","4","2","790355489568464897","刘","542","","","","nonmatch","","","","","","","","","","","","","","key","j","16.661946902654766","640","356","j","true","nonmatch","img/pentagon.png","三角","五边","ALT1_1","prac_ALT1_1","","","","","","","","","","","",""
"null","<span style='color:GreenYellow; font-size: 70px;'>正确! </span>","null","html-keyboard-response","94","276189","0.0-7.0-0.0-1.0-0.0-1.42","3","4","4","3","3","4","3","3","4","4","4","5","5","4","4","5","5","4","4","5","1","2","1","1","2","2","2","1","2","1","0","1","0","1","0","0","1","0","1","1","0","0","1","1","4","1","2","3","2","4","2","3","4","4","2","790355489568464897","刘","542","","","","","","","","","","","","","","","","","","","","","","","","","","","","","","feedback_test","","","","","","","","","","","",""
"667","","j","psychophysics","95","277859","0.0-7.0-0.0-1.0-0.0-0.43","3","4","4","3","3","4","3","3","4","4","4","5","5","4","4","5","5","4","4","5","1","2","1","1","2","2","2","1","2","1","0","1","0","1","0","0","1","0","1","1","0","0","1","1","4","1","2","3","2","4","2","3","4","4","2","790355489568464897","刘","542","","","","nonmatch","","","","","","","","","","","","","","key","j","16.668686868686986","640","356","f","false","match","img/diamond.png","菱形","菱形","ALT1_1","prac_ALT1_1","","","","","","","","","","","",""
"null","<span style='color:red; font-size: 70px;'>错误! </span>","null","html-keyboard-response","96","278361","0.0-7.0-0.0-1.0-0.0-1.43","3","4","4","3","3","4","3","3","4","4","4","5","5","4","4","5","5","4","4","5","1","2","1","1","2","2","2","1","2","1","0","1","0","1","0","0","1","0","1","1","0","0","1","1","4","1","2","3","2","4","2","3","4","4","2","790355489568464897","刘","542","","","","","","","","","","","","","","","","","","","","","","","","","","","","","","feedback_test","","","","","","","","","","","",""
"574","","f","psychophysics","97","279936","0.0-7.0-0.0-1.0-0.0-0.44","3","4","4","3","3","4","3","3","4","4","4","5","5","4","4","5","5","4","4","5","1","2","1","1","2","2","2","1","2","1","0","1","0","1","0","0","1","0","1","1","0","0","1","1","4","1","2","3","2","4","2","3","4","4","2","790355489568464897","刘","542","","","","match","","","","","","","","","","","","","","key","f","16.663440860214553","640","356","f","true","match","img/triangle.png","三角","三角","ALT1_1","prac_ALT1_1","","","","","","","","","","","",""
"null","<span style='color:GreenYellow; font-size: 70px;'>正确! </span>","null","html-keyboard-response","98","280437","0.0-7.0-0.0-1.0-0.0-1.44","3","4","4","3","3","4","3","3","4","4","4","5","5","4","4","5","5","4","4","5","1","2","1","1","2","2","2","1","2","1","0","1","0","1","0","0","1","0","1","1","0","0","1","1","4","1","2","3","2","4","2","3","4","4","2","790355489568464897","刘","542","","","","","","","","","","","","","","","","","","","","","","","","","","","","","","feedback_test","","","","","","","","","","","",""
"650","","j","psychophysics","99","282089","0.0-7.0-0.0-1.0-0.0-0.45","3","4","4","3","3","4","3","3","4","4","4","5","5","4","4","5","5","4","4","5","1","2","1","1","2","2","2","1","2","1","0","1","0","1","0","0","1","0","1","1","0","0","1","1","4","1","2","3","2","4","2","3","4","4","2","790355489568464897","刘","542","","","","nonmatch","","","","","","","","","","","","","","key","j","16.66224489795883","640","356","j","true","nonmatch","img/triangle.png","菱形","三角","ALT1_1","prac_ALT1_1","","","","","","","","","","","",""
"null","<span style='color:GreenYellow; font-size: 70px;'>正确! </span>","null","html-keyboard-response","100","282592","0.0-7.0-0.0-1.0-0.0-1.45","3","4","4","3","3","4","3","3","4","4","4","5","5","4","4","5","5","4","4","5","1","2","1","1","2","2","2","1","2","1","0","1","0","1","0","0","1","0","1","1","0","0","1","1","4","1","2","3","2","4","2","3","4","4","2","790355489568464897","刘","542","","","","","","","","","","","","","","","","","","","","","","","","","","","","","","feedback_test","","","","","","","","","","","",""
"722","","f","psychophysics","101","284316","0.0-7.0-0.0-1.0-0.0-0.46","3","4","4","3","3","4","3","3","4","4","4","5","5","4","4","5","5","4","4","5","1","2","1","1","2","2","2","1","2","1","0","1","0","1","0","0","1","0","1","1","0","0","1","1","4","1","2","3","2","4","2","3","4","4","2","790355489568464897","刘","542","","","","match","","","","","","","","","","","","","","key","f","16.667647058823302","640","356","f","true","match","img/pentagon.png","五边","五边","ALT1_1","prac_ALT1_1","","","","","","","","","","","",""
"null","<span style='color:GreenYellow; font-size: 70px;'>正确! </span>","null","html-keyboard-response","102","284818","0.0-7.0-0.0-1.0-0.0-1.46","3","4","4","3","3","4","3","3","4","4","4","5","5","4","4","5","5","4","4","5","1","2","1","1","2","2","2","1","2","1","0","1","0","1","0","0","1","0","1","1","0","0","1","1","4","1","2","3","2","4","2","3","4","4","2","790355489568464897","刘","542","","","","","","","","","","","","","","","","","","","","","","","","","","","","","","feedback_test","","","","","","","","","","","",""
"585","","f","psychophysics","103","286407","0.0-7.0-0.0-1.0-0.0-0.47","3","4","4","3","3","4","3","3","4","4","4","5","5","4","4","5","5","4","4","5","1","2","1","1","2","2","2","1","2","1","0","1","0","1","0","0","1","0","1","1","0","0","1","1","4","1","2","3","2","4","2","3","4","4","2","790355489568464897","刘","542","","","","match","","","","","","","","","","","","","","key","f","16.66842105263158","640","356","f","true","match","img/ellipse.png","椭圆","椭圆","ALT1_1","prac_ALT1_1","","","","","","","","","","","",""
"null","<span style='color:GreenYellow; font-size: 70px;'>正确! </span>","null","html-keyboard-response","104","286908","0.0-7.0-0.0-1.0-0.0-1.47","3","4","4","3","3","4","3","3","4","4","4","5","5","4","4","5","5","4","4","5","1","2","1","1","2","2","2","1","2","1","0","1","0","1","0","0","1","0","1","1","0","0","1","1","4","1","2","3","2","4","2","3","4","4","2","790355489568464897","刘","542","","","","","","","","","","","","","","","","","","","","","","","","","","","","","","feedback_test","","","","","","","","","","","",""
"25636","<style>.context{color:white; font-size: 35px; line-height:40px}</style>                            <div><p class='context'>您正确回答了65% 的试次。</p><p class='context'>您的平均反应时为790毫秒。</p><p class='context'>恭喜您完成练习。按空格键进入正式实验。</p><p class='footer' style='font-size: 35px; line-height:40px;'>请在进入正式实验之前将您的<span style='color: lightgreen;'>食指</span>放在电脑键盘的相应键位上进行按键。</p>"," ","html-keyboard-response","105","312549","0.0-7.0-0.0-2.0","3","4","4","3","3","4","3","3","4","4","4","5","5","4","4","5","5","4","4","5","1","2","1","1","2","2","2","1","2","1","0","1","0","1","0","0","1","0","1","1","0","0","1","1","4","1","2","3","2","4","2","3","4","4","2","790355489568464897","刘","542","","","","","","","","","","","","","","","","","","","","","","","","","","","","","","","","","","","","","","","","","",""
"2629","
    <p style='color: white; font-size: 22px'>请您将手指放在按键上，准备进入正式的匹配任务。</p>
    <p> <div style = ""color: green""><按空格键进入下一阶段的匹配任务></div></p>
    "," ","html-keyboard-response","106","315184","0.0-7.0-0.0-3.0","3","4","4","3","3","4","3","3","4","4","4","5","5","4","4","5","5","4","4","5","1","2","1","1","2","2","2","1","2","1","0","1","0","1","0","0","1","0","1","1","0","0","1","1","4","1","2","3","2","4","2","3","4","4","2","790355489568464897","刘","542","","","","","","","","","","","","","","","","","","","","","","","","","","","","","","","","","","","","","","","","","",""
"715","","f","psychophysics","107","316901","0.0-7.0-0.0-4.0-0.0-0.0","3","4","4","3","3","4","3","3","4","4","4","5","5","4","4","5","5","4","4","5","1","2","1","1","2","2","2","1","2","1","0","1","0","1","0","0","1","0","1","1","0","0","1","1","4","1","2","3","2","4","2","3","4","4","2","790355489568464897","刘","542","","","","match","","","","","","","","","","","","","","key","f","16.662745098039558","640","356","f","true","match","img/pentagon.png","五边","五边","ALT1","formal_ALT1_1","","","","","","","","","","","",""
"null","<span style='color:GreenYellow; font-size: 70px;'>正确! </span>","null","html-keyboard-response","108","317402","0.0-7.0-0.0-4.0-0.0-1.0","3","4","4","3","3","4","3","3","4","4","4","5","5","4","4","5","5","4","4","5","1","2","1","1","2","2","2","1","2","1","0","1","0","1","0","0","1","0","1","1","0","0","1","1","4","1","2","3","2","4","2","3","4","4","2","790355489568464897","刘","542","","","","","","","","","","","","","","","","","","","","","","","","","","","","","","feedback_test","","","","","","","","","","","",""
"627","","f","psychophysics","109","319032","0.0-7.0-0.0-4.0-0.0-0.1","3","4","4","3","3","4","3","3","4","4","4","5","5","4","4","5","5","4","4","5","1","2","1","1","2","2","2","1","2","1","0","1","0","1","0","0","1","0","1","1","0","0","1","1","4","1","2","3","2","4","2","3","4","4","2","790355489568464897","刘","542","","","","match","","","","","","","","","","","","","","key","f","16.66875000000012","640","356","f","true","match","img/diamond.png","菱形","菱形","ALT1","formal_ALT1_1","","","","","","","","","","","",""
"null","<span style='color:GreenYellow; font-size: 70px;'>正确! </span>","null","html-keyboard-response","110","319533","0.0-7.0-0.0-4.0-0.0-1.1","3","4","4","3","3","4","3","3","4","4","4","5","5","4","4","5","5","4","4","5","1","2","1","1","2","2","2","1","2","1","0","1","0","1","0","0","1","0","1","1","0","0","1","1","4","1","2","3","2","4","2","3","4","4","2","790355489568464897","刘","542","","","","","","","","","","","","","","","","","","","","","","","","","","","","","","feedback_test","","","","","","","","","","","",""
"576","","f","psychophysics","111","321111","0.0-7.0-0.0-4.0-0.0-0.2","3","4","4","3","3","4","3","3","4","4","4","5","5","4","4","5","5","4","4","5","1","2","1","1","2","2","2","1","2","1","0","1","0","1","0","0","1","0","1","1","0","0","1","1","4","1","2","3","2","4","2","3","4","4","2","790355489568464897","刘","542","","","","match","","","","","","","","","","","","","","key","f","16.665591397849713","640","356","f","true","match","img/ellipse.png","椭圆","椭圆","ALT1","formal_ALT1_1","","","","","","","","","","","",""
"null","<span style='color:GreenYellow; font-size: 70px;'>正确! </span>","null","html-keyboard-response","112","321612","0.0-7.0-0.0-4.0-0.0-1.2","3","4","4","3","3","4","3","3","4","4","4","5","5","4","4","5","5","4","4","5","1","2","1","1","2","2","2","1","2","1","0","1","0","1","0","0","1","0","1","1","0","0","1","1","4","1","2","3","2","4","2","3","4","4","2","790355489568464897","刘","542","","","","","","","","","","","","","","","","","","","","","","","","","","","","","","feedback_test","","","","","","","","","","","",""
"574","","f","psychophysics","113","323189","0.0-7.0-0.0-4.0-0.0-0.3","3","4","4","3","3","4","3","3","4","4","4","5","5","4","4","5","5","4","4","5","1","2","1","1","2","2","2","1","2","1","0","1","0","1","0","0","1","0","1","1","0","0","1","1","4","1","2","3","2","4","2","3","4","4","2","790355489568464897","刘","542","","","","match","","","","","","","","","","","","","","key","f","16.667021276595868","640","356","f","true","match","img/pentagon.png","五边","五边","ALT1","formal_ALT1_1","","","","","","","","","","","",""
"null","<span style='color:GreenYellow; font-size: 70px;'>正确! </span>","null","html-keyboard-response","114","323691","0.0-7.0-0.0-4.0-0.0-1.3","3","4","4","3","3","4","3","3","4","4","4","5","5","4","4","5","5","4","4","5","1","2","1","1","2","2","2","1","2","1","0","1","0","1","0","0","1","0","1","1","0","0","1","1","4","1","2","3","2","4","2","3","4","4","2","790355489568464897","刘","542","","","","","","","","","","","","","","","","","","","","","","","","","","","","","","feedback_test","","","","","","","","","","","",""
"516","","f","psychophysics","115","325210","0.0-7.0-0.0-4.0-0.0-0.4","3","4","4","3","3","4","3","3","4","4","4","5","5","4","4","5","5","4","4","5","1","2","1","1","2","2","2","1","2","1","0","1","0","1","0","0","1","0","1","1","0","0","1","1","4","1","2","3","2","4","2","3","4","4","2","790355489568464897","刘","542","","","","match","","","","","","","","","","","","","","key","f","16.665555555555166","640","356","f","true","match","img/ellipse.png","椭圆","椭圆","ALT1","formal_ALT1_1","","","","","","","","","","","",""
"null","<span style='color:GreenYellow; font-size: 70px;'>正确! </span>","null","html-keyboard-response","116","325712","0.0-7.0-0.0-4.0-0.0-1.4","3","4","4","3","3","4","3","3","4","4","4","5","5","4","4","5","5","4","4","5","1","2","1","1","2","2","2","1","2","1","0","1","0","1","0","0","1","0","1","1","0","0","1","1","4","1","2","3","2","4","2","3","4","4","2","790355489568464897","刘","542","","","","","","","","","","","","","","","","","","","","","","","","","","","","","","feedback_test","","","","","","","","","","","",""
"674","","j","psychophysics","117","327388","0.0-7.0-0.0-4.0-0.0-0.5","3","4","4","3","3","4","3","3","4","4","4","5","5","4","4","5","5","4","4","5","1","2","1","1","2","2","2","1","2","1","0","1","0","1","0","0","1","0","1","1","0","0","1","1","4","1","2","3","2","4","2","3","4","4","2","790355489568464897","刘","542","","","","nonmatch","","","","","","","","","","","","","","key","j","16.667999999999882","640","356","j","true","nonmatch","img/pentagon.png","椭圆","五边","ALT1","formal_ALT1_1","","","","","","","","","","","",""
"null","<span style='color:GreenYellow; font-size: 70px;'>正确! </span>","null","html-keyboard-response","118","327888","0.0-7.0-0.0-4.0-0.0-1.5","3","4","4","3","3","4","3","3","4","4","4","5","5","4","4","5","5","4","4","5","1","2","1","1","2","2","2","1","2","1","0","1","0","1","0","0","1","0","1","1","0","0","1","1","4","1","2","3","2","4","2","3","4","4","2","790355489568464897","刘","542","","","","","","","","","","","","","","","","","","","","","","","","","","","","","","feedback_test","","","","","","","","","","","",""
"688","","j","psychophysics","119","329579","0.0-7.0-0.0-4.0-0.0-0.6","3","4","4","3","3","4","3","3","4","4","4","5","5","4","4","5","5","4","4","5","1","2","1","1","2","2","2","1","2","1","0","1","0","1","0","0","1","0","1","1","0","0","1","1","4","1","2","3","2","4","2","3","4","4","2","790355489568464897","刘","542","","","","nonmatch","","","","","","","","","","","","","","key","j","16.67","640","356","j","true","nonmatch","img/diamond.png","椭圆","菱形","ALT1","formal_ALT1_1","","","","","","","","","","","",""
"null","<span style='color:GreenYellow; font-size: 70px;'>正确! </span>","null","html-keyboard-response","120","330080","0.0-7.0-0.0-4.0-0.0-1.6","3","4","4","3","3","4","3","3","4","4","4","5","5","4","4","5","5","4","4","5","1","2","1","1","2","2","2","1","2","1","0","1","0","1","0","0","1","0","1","1","0","0","1","1","4","1","2","3","2","4","2","3","4","4","2","790355489568464897","刘","542","","","","","","","","","","","","","","","","","","","","","","","","","","","","","","feedback_test","","","","","","","","","","","",""
"939","","f","psychophysics","121","332021","0.0-7.0-0.0-4.0-0.0-0.7","3","4","4","3","3","4","3","3","4","4","4","5","5","4","4","5","5","4","4","5","1","2","1","1","2","2","2","1","2","1","0","1","0","1","0","0","1","0","1","1","0","0","1","1","4","1","2","3","2","4","2","3","4","4","2","790355489568464897","刘","542","","","","match","","","","","","","","","","","","","","key","f","16.66434782608716","640","356","f","true","match","img/diamond.png","菱形","菱形","ALT1","formal_ALT1_1","","","","","","","","","","","",""
"null","<span style='color:GreenYellow; font-size: 70px;'>正确! </span>","null","html-keyboard-response","122","332523","0.0-7.0-0.0-4.0-0.0-1.7","3","4","4","3","3","4","3","3","4","4","4","5","5","4","4","5","5","4","4","5","1","2","1","1","2","2","2","1","2","1","0","1","0","1","0","0","1","0","1","1","0","0","1","1","4","1","2","3","2","4","2","3","4","4","2","790355489568464897","刘","542","","","","","","","","","","","","","","","","","","","","","","","","","","","","","","feedback_test","","","","","","","","","","","",""
"607","","f","psychophysics","123","334133","0.0-7.0-0.0-4.0-0.0-0.8","3","4","4","3","3","4","3","3","4","4","4","5","5","4","4","5","5","4","4","5","1","2","1","1","2","2","2","1","2","1","0","1","0","1","0","0","1","0","1","1","0","0","1","1","4","1","2","3","2","4","2","3","4","4","2","790355489568464897","刘","542","","","","match","","","","","","","","","","","","","","key","f","16.666666666666668","640","356","j","false","nonmatch","img/triangle.png","菱形","三角","ALT1","formal_ALT1_1","","","","","","","","","","","",""
"null","<span style='color:red; font-size: 70px;'>错误! </span>","null","html-keyboard-response","124","334635","0.0-7.0-0.0-4.0-0.0-1.8","3","4","4","3","3","4","3","3","4","4","4","5","5","4","4","5","5","4","4","5","1","2","1","1","2","2","2","1","2","1","0","1","0","1","0","0","1","0","1","1","0","0","1","1","4","1","2","3","2","4","2","3","4","4","2","790355489568464897","刘","542","","","","","","","","","","","","","","","","","","","","","","","","","","","","","","feedback_test","","","","","","","","","","","",""
"928","","j","psychophysics","125","336566","0.0-7.0-0.0-4.0-0.0-0.9","3","4","4","3","3","4","3","3","4","4","4","5","5","4","4","5","5","4","4","5","1","2","1","1","2","2","2","1","2","1","0","1","0","1","0","0","1","0","1","1","0","0","1","1","4","1","2","3","2","4","2","3","4","4","2","790355489568464897","刘","542","","","","nonmatch","","","","","","","","","","","","","","key","j","16.66521739130435","640","356","j","true","nonmatch","img/ellipse.png","菱形","椭圆","ALT1","formal_ALT1_1","","","","","","","","","","","",""
"null","<span style='color:GreenYellow; font-size: 70px;'>正确! </span>","null","html-keyboard-response","126","337083","0.0-7.0-0.0-4.0-0.0-1.9","3","4","4","3","3","4","3","3","4","4","4","5","5","4","4","5","5","4","4","5","1","2","1","1","2","2","2","1","2","1","0","1","0","1","0","0","1","0","1","1","0","0","1","1","4","1","2","3","2","4","2","3","4","4","2","790355489568464897","刘","542","","","","","","","","","","","","","","","","","","","","","","","","","","","","","","feedback_test","","","","","","","","","","","",""
"620","","j","psychophysics","127","338706","0.0-7.0-0.0-4.0-0.0-0.10","3","4","4","3","3","4","3","3","4","4","4","5","5","4","4","5","5","4","4","5","1","2","1","1","2","2","2","1","2","1","0","1","0","1","0","0","1","0","1","1","0","0","1","1","4","1","2","3","2","4","2","3","4","4","2","790355489568464897","刘","542","","","","nonmatch","","","","","","","","","","","","","","key","j","16.66875000000012","640","356","j","true","nonmatch","img/pentagon.png","菱形","五边","ALT1","formal_ALT1_1","","","","","","","","","","","",""
"null","<span style='color:GreenYellow; font-size: 70px;'>正确! </span>","null","html-keyboard-response","128","339208","0.0-7.0-0.0-4.0-0.0-1.10","3","4","4","3","3","4","3","3","4","4","4","5","5","4","4","5","5","4","4","5","1","2","1","1","2","2","2","1","2","1","0","1","0","1","0","0","1","0","1","1","0","0","1","1","4","1","2","3","2","4","2","3","4","4","2","790355489568464897","刘","542","","","","","","","","","","","","","","","","","","","","","","","","","","","","","","feedback_test","","","","","","","","","","","",""
"577","","f","psychophysics","129","340787","0.0-7.0-0.0-4.0-0.0-0.11","3","4","4","3","3","4","3","3","4","4","4","5","5","4","4","5","5","4","4","5","1","2","1","1","2","2","2","1","2","1","0","1","0","1","0","0","1","0","1","1","0","0","1","1","4","1","2","3","2","4","2","3","4","4","2","790355489568464897","刘","542","","","","match","","","","","","","","","","","","","","key","f","16.669148936170462","640","356","f","true","match","img/triangle.png","三角","三角","ALT1","formal_ALT1_1","","","","","","","","","","","",""
"null","<span style='color:GreenYellow; font-size: 70px;'>正确! </span>","null","html-keyboard-response","130","341288","0.0-7.0-0.0-4.0-0.0-1.11","3","4","4","3","3","4","3","3","4","4","4","5","5","4","4","5","5","4","4","5","1","2","1","1","2","2","2","1","2","1","0","1","0","1","0","0","1","0","1","1","0","0","1","1","4","1","2","3","2","4","2","3","4","4","2","790355489568464897","刘","542","","","","","","","","","","","","","","","","","","","","","","","","","","","","","","feedback_test","","","","","","","","","","","",""
"748","","f","psychophysics","131","343039","0.0-7.0-0.0-4.0-0.0-0.12","3","4","4","3","3","4","3","3","4","4","4","5","5","4","4","5","5","4","4","5","1","2","1","1","2","2","2","1","2","1","0","1","0","1","0","0","1","0","1","1","0","0","1","1","4","1","2","3","2","4","2","3","4","4","2","790355489568464897","刘","542","","","","match","","","","","","","","","","","","","","key","f","16.66826923076923","640","356","j","false","nonmatch","img/diamond.png","五边","菱形","ALT1","formal_ALT1_1","","","","","","","","","","","",""
"null","<span style='color:red; font-size: 70px;'>错误! </span>","null","html-keyboard-response","132","343540","0.0-7.0-0.0-4.0-0.0-1.12","3","4","4","3","3","4","3","3","4","4","4","5","5","4","4","5","5","4","4","5","1","2","1","1","2","2","2","1","2","1","0","1","0","1","0","0","1","0","1","1","0","0","1","1","4","1","2","3","2","4","2","3","4","4","2","790355489568464897","刘","542","","","","","","","","","","","","","","","","","","","","","","","","","","","","","","feedback_test","","","","","","","","","","","",""
"759","","j","psychophysics","133","345300","0.0-7.0-0.0-4.0-0.0-0.13","3","4","4","3","3","4","3","3","4","4","4","5","5","4","4","5","5","4","4","5","1","2","1","1","2","2","2","1","2","1","0","1","0","1","0","0","1","0","1","1","0","0","1","1","4","1","2","3","2","4","2","3","4","4","2","790355489568464897","刘","542","","","","nonmatch","","","","","","","","","","","","","","key","j","16.664761904761793","640","356","j","true","nonmatch","img/triangle.png","五边","三角","ALT1","formal_ALT1_1","","","","","","","","","","","",""
"null","<span style='color:GreenYellow; font-size: 70px;'>正确! </span>","null","html-keyboard-response","134","345802","0.0-7.0-0.0-4.0-0.0-1.13","3","4","4","3","3","4","3","3","4","4","4","5","5","4","4","5","5","4","4","5","1","2","1","1","2","2","2","1","2","1","0","1","0","1","0","0","1","0","1","1","0","0","1","1","4","1","2","3","2","4","2","3","4","4","2","790355489568464897","刘","542","","","","","","","","","","","","","","","","","","","","","","","","","","","","","","feedback_test","","","","","","","","","","","",""
"636","","f","psychophysics","135","347440","0.0-7.0-0.0-4.0-0.0-0.14","3","4","4","3","3","4","3","3","4","4","4","5","5","4","4","5","5","4","4","5","1","2","1","1","2","2","2","1","2","1","0","1","0","1","0","0","1","0","1","1","0","0","1","1","4","1","2","3","2","4","2","3","4","4","2","790355489568464897","刘","542","","","","match","","","","","","","","","","","","","","key","f","16.66597938144306","640","356","f","true","match","img/ellipse.png","椭圆","椭圆","ALT1","formal_ALT1_1","","","","","","","","","","","",""
"null","<span style='color:GreenYellow; font-size: 70px;'>正确! </span>","null","html-keyboard-response","136","347941","0.0-7.0-0.0-4.0-0.0-1.14","3","4","4","3","3","4","3","3","4","4","4","5","5","4","4","5","5","4","4","5","1","2","1","1","2","2","2","1","2","1","0","1","0","1","0","0","1","0","1","1","0","0","1","1","4","1","2","3","2","4","2","3","4","4","2","790355489568464897","刘","542","","","","","","","","","","","","","","","","","","","","","","","","","","","","","","feedback_test","","","","","","","","","","","",""
"790","","f","psychophysics","137","349733","0.0-7.0-0.0-4.0-0.0-0.15","3","4","4","3","3","4","3","3","4","4","4","5","5","4","4","5","5","4","4","5","1","2","1","1","2","2","2","1","2","1","0","1","0","1","0","0","1","0","1","1","0","0","1","1","4","1","2","3","2","4","2","3","4","4","2","790355489568464897","刘","542","","","","match","","","","","","","","","","","","","","key","f","16.669158878504454","640","356","f","true","match","img/triangle.png","三角","三角","ALT1","formal_ALT1_1","","","","","","","","","","","",""
"null","<span style='color:GreenYellow; font-size: 70px;'>正确! </span>","null","html-keyboard-response","138","350234","0.0-7.0-0.0-4.0-0.0-1.15","3","4","4","3","3","4","3","3","4","4","4","5","5","4","4","5","5","4","4","5","1","2","1","1","2","2","2","1","2","1","0","1","0","1","0","0","1","0","1","1","0","0","1","1","4","1","2","3","2","4","2","3","4","4","2","790355489568464897","刘","542","","","","","","","","","","","","","","","","","","","","","","","","","","","","","","feedback_test","","","","","","","","","","","",""
"681","","j","psychophysics","139","351918","0.0-7.0-0.0-4.0-0.0-0.16","3","4","4","3","3","4","3","3","4","4","4","5","5","4","4","5","5","4","4","5","1","2","1","1","2","2","2","1","2","1","0","1","0","1","0","0","1","0","1","1","0","0","1","1","4","1","2","3","2","4","2","3","4","4","2","790355489568464897","刘","542","","","","nonmatch","","","","","","","","","","","","","","key","j","16.667999999999882","640","356","j","true","nonmatch","img/triangle.png","椭圆","三角","ALT1","formal_ALT1_1","","","","","","","","","","","",""
"null","<span style='color:GreenYellow; font-size: 70px;'>正确! </span>","null","html-keyboard-response","140","352419","0.0-7.0-0.0-4.0-0.0-1.16","3","4","4","3","3","4","3","3","4","4","4","5","5","4","4","5","5","4","4","5","1","2","1","1","2","2","2","1","2","1","0","1","0","1","0","0","1","0","1","1","0","0","1","1","4","1","2","3","2","4","2","3","4","4","2","790355489568464897","刘","542","","","","","","","","","","","","","","","","","","","","","","","","","","","","","","feedback_test","","","","","","","","","","","",""
"661","","f","psychophysics","141","354083","0.0-7.0-0.0-4.0-0.0-0.17","3","4","4","3","3","4","3","3","4","4","4","5","5","4","4","5","5","4","4","5","1","2","1","1","2","2","2","1","2","1","0","1","0","1","0","0","1","0","1","1","0","0","1","1","4","1","2","3","2","4","2","3","4","4","2","790355489568464897","刘","542","","","","match","","","","","","","","","","","","","","key","f","16.666666666666668","640","356","f","true","match","img/diamond.png","菱形","菱形","ALT1","formal_ALT1_1","","","","","","","","","","","",""
"null","<span style='color:GreenYellow; font-size: 70px;'>正确! </span>","null","html-keyboard-response","142","354584","0.0-7.0-0.0-4.0-0.0-1.17","3","4","4","3","3","4","3","3","4","4","4","5","5","4","4","5","5","4","4","5","1","2","1","1","2","2","2","1","2","1","0","1","0","1","0","0","1","0","1","1","0","0","1","1","4","1","2","3","2","4","2","3","4","4","2","790355489568464897","刘","542","","","","","","","","","","","","","","","","","","","","","","","","","","","","","","feedback_test","","","","","","","","","","","",""
"564","","f","psychophysics","143","356150","0.0-7.0-0.0-4.0-0.0-0.18","3","4","4","3","3","4","3","3","4","4","4","5","5","4","4","5","5","4","4","5","1","2","1","1","2","2","2","1","2","1","0","1","0","1","0","0","1","0","1","1","0","0","1","1","4","1","2","3","2","4","2","3","4","4","2","790355489568464897","刘","542","","","","match","","","","","","","","","","","","","","key","f","16.66774193548362","640","356","f","true","match","img/triangle.png","三角","三角","ALT1","formal_ALT1_1","","","","","","","","","","","",""
"null","<span style='color:GreenYellow; font-size: 70px;'>正确! </span>","null","html-keyboard-response","144","356652","0.0-7.0-0.0-4.0-0.0-1.18","3","4","4","3","3","4","3","3","4","4","4","5","5","4","4","5","5","4","4","5","1","2","1","1","2","2","2","1","2","1","0","1","0","1","0","0","1","0","1","1","0","0","1","1","4","1","2","3","2","4","2","3","4","4","2","790355489568464897","刘","542","","","","","","","","","","","","","","","","","","","","","","","","","","","","","","feedback_test","","","","","","","","","","","",""
"642","","j","psychophysics","145","358296","0.0-7.0-0.0-4.0-0.0-0.19","3","4","4","3","3","4","3","3","4","4","4","5","5","4","4","5","5","4","4","5","1","2","1","1","2","2","2","1","2","1","0","1","0","1","0","0","1","0","1","1","0","0","1","1","4","1","2","3","2","4","2","3","4","4","2","790355489568464897","刘","542","","","","nonmatch","","","","","","","","","","","","","","key","j","16.669387755101802","640","356","j","true","nonmatch","img/ellipse.png","三角","椭圆","ALT1","formal_ALT1_1","","","","","","","","","","","",""
"null","<span style='color:GreenYellow; font-size: 70px;'>正确! </span>","null","html-keyboard-response","146","358797","0.0-7.0-0.0-4.0-0.0-1.19","3","4","4","3","3","4","3","3","4","4","4","5","5","4","4","5","5","4","4","5","1","2","1","1","2","2","2","1","2","1","0","1","0","1","0","0","1","0","1","1","0","0","1","1","4","1","2","3","2","4","2","3","4","4","2","790355489568464897","刘","542","","","","","","","","","","","","","","","","","","","","","","","","","","","","","","feedback_test","","","","","","","","","","","",""
"748","","j","psychophysics","147","360548","0.0-7.0-0.0-4.0-0.0-0.20","3","4","4","3","3","4","3","3","4","4","4","5","5","4","4","5","5","4","4","5","1","2","1","1","2","2","2","1","2","1","0","1","0","1","0","0","1","0","1","1","0","0","1","1","4","1","2","3","2","4","2","3","4","4","2","790355489568464897","刘","542","","","","nonmatch","","","","","","","","","","","","","","key","j","16.667307692307915","640","356","j","true","nonmatch","img/diamond.png","三角","菱形","ALT1","formal_ALT1_1","","","","","","","","","","","",""
"null","<span style='color:GreenYellow; font-size: 70px;'>正确! </span>","null","html-keyboard-response","148","361049","0.0-7.0-0.0-4.0-0.0-1.20","3","4","4","3","3","4","3","3","4","4","4","5","5","4","4","5","5","4","4","5","1","2","1","1","2","2","2","1","2","1","0","1","0","1","0","0","1","0","1","1","0","0","1","1","4","1","2","3","2","4","2","3","4","4","2","790355489568464897","刘","542","","","","","","","","","","","","","","","","","","","","","","","","","","","","","","feedback_test","","","","","","","","","","","",""
"686","","j","psychophysics","149","362738","0.0-7.0-0.0-4.0-0.0-0.21","3","4","4","3","3","4","3","3","4","4","4","5","5","4","4","5","5","4","4","5","1","2","1","1","2","2","2","1","2","1","0","1","0","1","0","0","1","0","1","1","0","0","1","1","4","1","2","3","2","4","2","3","4","4","2","790355489568464897","刘","542","","","","nonmatch","","","","","","","","","","","","","","key","j","16.665999999999766","640","356","j","true","nonmatch","img/pentagon.png","三角","五边","ALT1","formal_ALT1_1","","","","","","","","","","","",""
"null","<span style='color:GreenYellow; font-size: 70px;'>正确! </span>","null","html-keyboard-response","150","363241","0.0-7.0-0.0-4.0-0.0-1.21","3","4","4","3","3","4","3","3","4","4","4","5","5","4","4","5","5","4","4","5","1","2","1","1","2","2","2","1","2","1","0","1","0","1","0","0","1","0","1","1","0","0","1","1","4","1","2","3","2","4","2","3","4","4","2","790355489568464897","刘","542","","","","","","","","","","","","","","","","","","","","","","","","","","","","","","feedback_test","","","","","","","","","","","",""
"559","","f","psychophysics","151","364802","0.0-7.0-0.0-4.0-0.0-0.22","3","4","4","3","3","4","3","3","4","4","4","5","5","4","4","5","5","4","4","5","1","2","1","1","2","2","2","1","2","1","0","1","0","1","0","0","1","0","1","1","0","0","1","1","4","1","2","3","2","4","2","3","4","4","2","790355489568464897","刘","542","","","","match","","","","","","","","","","","","","","key","f","16.667741935484248","640","356","f","true","match","img/pentagon.png","五边","五边","ALT1","formal_ALT1_1","","","","","","","","","","","",""
"null","<span style='color:GreenYellow; font-size: 70px;'>正确! </span>","null","html-keyboard-response","152","365304","0.0-7.0-0.0-4.0-0.0-1.22","3","4","4","3","3","4","3","3","4","4","4","5","5","4","4","5","5","4","4","5","1","2","1","1","2","2","2","1","2","1","0","1","0","1","0","0","1","0","1","1","0","0","1","1","4","1","2","3","2","4","2","3","4","4","2","790355489568464897","刘","542","","","","","","","","","","","","","","","","","","","","","","","","","","","","","","feedback_test","","","","","","","","","","","",""
"734","","j","psychophysics","153","367040","0.0-7.0-0.0-4.0-0.0-0.23","3","4","4","3","3","4","3","3","4","4","4","5","5","4","4","5","5","4","4","5","1","2","1","1","2","2","2","1","2","1","0","1","0","1","0","0","1","0","1","1","0","0","1","1","4","1","2","3","2","4","2","3","4","4","2","790355489568464897","刘","542","","","","nonmatch","","","","","","","","","","","","","","key","j","16.667961165048997","640","356","j","true","nonmatch","img/ellipse.png","五边","椭圆","ALT1","formal_ALT1_1","","","","","","","","","","","",""
"null","<span style='color:GreenYellow; font-size: 70px;'>正确! </span>","null","html-keyboard-response","154","367542","0.0-7.0-0.0-4.0-0.0-1.23","3","4","4","3","3","4","3","3","4","4","4","5","5","4","4","5","5","4","4","5","1","2","1","1","2","2","2","1","2","1","0","1","0","1","0","0","1","0","1","1","0","0","1","1","4","1","2","3","2","4","2","3","4","4","2","790355489568464897","刘","542","","","","","","","","","","","","","","","","","","","","","","","","","","","","","","feedback_test","","","","","","","","","","","",""
"751","","j","psychophysics","155","369295","0.0-7.0-0.0-4.0-0.0-0.24","3","4","4","3","3","4","3","3","4","4","4","5","5","4","4","5","5","4","4","5","1","2","1","1","2","2","2","1","2","1","0","1","0","1","0","0","1","0","1","1","0","0","1","1","4","1","2","3","2","4","2","3","4","4","2","790355489568464897","刘","542","","","","nonmatch","","","","","","","","","","","","","","key","j","16.66346153846154","640","356","j","true","nonmatch","img/triangle.png","五边","三角","ALT1","formal_ALT1_1","","","","","","","","","","","",""
"null","<span style='color:GreenYellow; font-size: 70px;'>正确! </span>","null","html-keyboard-response","156","369807","0.0-7.0-0.0-4.0-0.0-1.24","3","4","4","3","3","4","3","3","4","4","4","5","5","4","4","5","5","4","4","5","1","2","1","1","2","2","2","1","2","1","0","1","0","1","0","0","1","0","1","1","0","0","1","1","4","1","2","3","2","4","2","3","4","4","2","790355489568464897","刘","542","","","","","","","","","","","","","","","","","","","","","","","","","","","","","","feedback_test","","","","","","","","","","","",""
"719","","f","psychophysics","157","371528","0.0-7.0-0.0-4.0-0.0-0.25","3","4","4","3","3","4","3","3","4","4","4","5","5","4","4","5","5","4","4","5","1","2","1","1","2","2","2","1","2","1","0","1","0","1","0","0","1","0","1","1","0","0","1","1","4","1","2","3","2","4","2","3","4","4","2","790355489568464897","刘","542","","","","match","","","","","","","","","","","","","","key","f","16.663725490196192","640","356","f","true","match","img/triangle.png","三角","三角","ALT1","formal_ALT1_1","","","","","","","","","","","",""
"null","<span style='color:GreenYellow; font-size: 70px;'>正确! </span>","null","html-keyboard-response","158","372031","0.0-7.0-0.0-4.0-0.0-1.25","3","4","4","3","3","4","3","3","4","4","4","5","5","4","4","5","5","4","4","5","1","2","1","1","2","2","2","1","2","1","0","1","0","1","0","0","1","0","1","1","0","0","1","1","4","1","2","3","2","4","2","3","4","4","2","790355489568464897","刘","542","","","","","","","","","","","","","","","","","","","","","","","","","","","","","","feedback_test","","","","","","","","","","","",""
"640","","j","psychophysics","159","373673","0.0-7.0-0.0-4.0-0.0-0.26","3","4","4","3","3","4","3","3","4","4","4","5","5","4","4","5","5","4","4","5","1","2","1","1","2","2","2","1","2","1","0","1","0","1","0","0","1","0","1","1","0","0","1","1","4","1","2","3","2","4","2","3","4","4","2","790355489568464897","刘","542","","","","nonmatch","","","","","","","","","","","","","","key","j","16.664948453608247","640","356","j","true","nonmatch","img/triangle.png","椭圆","三角","ALT1","formal_ALT1_1","","","","","","","","","","","",""
"null","<span style='color:GreenYellow; font-size: 70px;'>正确! </span>","null","html-keyboard-response","160","374174","0.0-7.0-0.0-4.0-0.0-1.26","3","4","4","3","3","4","3","3","4","4","4","5","5","4","4","5","5","4","4","5","1","2","1","1","2","2","2","1","2","1","0","1","0","1","0","0","1","0","1","1","0","0","1","1","4","1","2","3","2","4","2","3","4","4","2","790355489568464897","刘","542","","","","","","","","","","","","","","","","","","","","","","","","","","","","","","feedback_test","","","","","","","","","","","",""
"621","","f","psychophysics","161","375797","0.0-7.0-0.0-4.0-0.0-0.27","3","4","4","3","3","4","3","3","4","4","4","5","5","4","4","5","5","4","4","5","1","2","1","1","2","2","2","1","2","1","0","1","0","1","0","0","1","0","1","1","0","0","1","1","4","1","2","3","2","4","2","3","4","4","2","790355489568464897","刘","542","","","","match","","","","","","","","","","","","","","key","f","16.665625000000244","640","356","j","false","nonmatch","img/pentagon.png","菱形","五边","ALT1","formal_ALT1_1","","","","","","","","","","","",""
"null","<span style='color:red; font-size: 70px;'>错误! </span>","null","html-keyboard-response","162","376300","0.0-7.0-0.0-4.0-0.0-1.27","3","4","4","3","3","4","3","3","4","4","4","5","5","4","4","5","5","4","4","5","1","2","1","1","2","2","2","1","2","1","0","1","0","1","0","0","1","0","1","1","0","0","1","1","4","1","2","3","2","4","2","3","4","4","2","790355489568464897","刘","542","","","","","","","","","","","","","","","","","","","","","","","","","","","","","","feedback_test","","","","","","","","","","","",""
"669","","f","psychophysics","163","377970","0.0-7.0-0.0-4.0-0.0-0.28","3","4","4","3","3","4","3","3","4","4","4","5","5","4","4","5","5","4","4","5","1","2","1","1","2","2","2","1","2","1","0","1","0","1","0","0","1","0","1","1","0","0","1","1","4","1","2","3","2","4","2","3","4","4","2","790355489568464897","刘","542","","","","match","","","","","","","","","","","","","","key","f","16.667676767677122","640","356","f","true","match","img/triangle.png","三角","三角","ALT1","formal_ALT1_1","","","","","","","","","","","",""
"null","<span style='color:GreenYellow; font-size: 70px;'>正确! </span>","null","html-keyboard-response","164","378473","0.0-7.0-0.0-4.0-0.0-1.28","3","4","4","3","3","4","3","3","4","4","4","5","5","4","4","5","5","4","4","5","1","2","1","1","2","2","2","1","2","1","0","1","0","1","0","0","1","0","1","1","0","0","1","1","4","1","2","3","2","4","2","3","4","4","2","790355489568464897","刘","542","","","","","","","","","","","","","","","","","","","","","","","","","","","","","","feedback_test","","","","","","","","","","","",""
"948","","j","psychophysics","165","380423","0.0-7.0-0.0-4.0-0.0-0.29","3","4","4","3","3","4","3","3","4","4","4","5","5","4","4","5","5","4","4","5","1","2","1","1","2","2","2","1","2","1","0","1","0","1","0","0","1","0","1","1","0","0","1","1","4","1","2","3","2","4","2","3","4","4","2","790355489568464897","刘","542","","","","nonmatch","","","","","","","","","","","","","","key","j","16.65391304347836","640","356","j","true","nonmatch","img/pentagon.png","三角","五边","ALT1","formal_ALT1_1","","","","","","","","","","","",""
"null","<span style='color:GreenYellow; font-size: 70px;'>正确! </span>","null","html-keyboard-response","166","380925","0.0-7.0-0.0-4.0-0.0-1.29","3","4","4","3","3","4","3","3","4","4","4","5","5","4","4","5","5","4","4","5","1","2","1","1","2","2","2","1","2","1","0","1","0","1","0","0","1","0","1","1","0","0","1","1","4","1","2","3","2","4","2","3","4","4","2","790355489568464897","刘","542","","","","","","","","","","","","","","","","","","","","","","","","","","","","","","feedback_test","","","","","","","","","","","",""
"793","","f","psychophysics","167","382720","0.0-7.0-0.0-4.0-0.0-0.30","3","4","4","3","3","4","3","3","4","4","4","5","5","4","4","5","5","4","4","5","1","2","1","1","2","2","2","1","2","1","0","1","0","1","0","0","1","0","1","1","0","0","1","1","4","1","2","3","2","4","2","3","4","4","2","790355489568464897","刘","542","","","","match","","","","","","","","","","","","","","key","f","16.663207547170252","640","356","f","true","match","img/diamond.png","菱形","菱形","ALT1","formal_ALT1_1","","","","","","","","","","","",""
"null","<span style='color:GreenYellow; font-size: 70px;'>正确! </span>","null","html-keyboard-response","168","383222","0.0-7.0-0.0-4.0-0.0-1.30","3","4","4","3","3","4","3","3","4","4","4","5","5","4","4","5","5","4","4","5","1","2","1","1","2","2","2","1","2","1","0","1","0","1","0","0","1","0","1","1","0","0","1","1","4","1","2","3","2","4","2","3","4","4","2","790355489568464897","刘","542","","","","","","","","","","","","","","","","","","","","","","","","","","","","","","feedback_test","","","","","","","","","","","",""
"702","","j","psychophysics","169","384927","0.0-7.0-0.0-4.0-0.0-0.31","3","4","4","3","3","4","3","3","4","4","4","5","5","4","4","5","5","4","4","5","1","2","1","1","2","2","2","1","2","1","0","1","0","1","0","0","1","0","1","1","0","0","1","1","4","1","2","3","2","4","2","3","4","4","2","790355489568464897","刘","542","","","","nonmatch","","","","","","","","","","","","","","key","j","16.661386138613747","640","356","j","true","nonmatch","img/ellipse.png","三角","椭圆","ALT1","formal_ALT1_1","","","","","","","","","","","",""
"null","<span style='color:GreenYellow; font-size: 70px;'>正确! </span>","null","html-keyboard-response","170","385428","0.0-7.0-0.0-4.0-0.0-1.31","3","4","4","3","3","4","3","3","4","4","4","5","5","4","4","5","5","4","4","5","1","2","1","1","2","2","2","1","2","1","0","1","0","1","0","0","1","0","1","1","0","0","1","1","4","1","2","3","2","4","2","3","4","4","2","790355489568464897","刘","542","","","","","","","","","","","","","","","","","","","","","","","","","","","","","","feedback_test","","","","","","","","","","","",""
"580","","f","psychophysics","171","387010","0.0-7.0-0.0-4.0-0.0-0.32","3","4","4","3","3","4","3","3","4","4","4","5","5","4","4","5","5","4","4","5","1","2","1","1","2","2","2","1","2","1","0","1","0","1","0","0","1","0","1","1","0","0","1","1","4","1","2","3","2","4","2","3","4","4","2","790355489568464897","刘","542","","","","match","","","","","","","","","","","","","","key","f","16.665957446808264","640","356","f","true","match","img/pentagon.png","五边","五边","ALT1","formal_ALT1_1","","","","","","","","","","","",""
"null","<span style='color:GreenYellow; font-size: 70px;'>正确! </span>","null","html-keyboard-response","172","387512","0.0-7.0-0.0-4.0-0.0-1.32","3","4","4","3","3","4","3","3","4","4","4","5","5","4","4","5","5","4","4","5","1","2","1","1","2","2","2","1","2","1","0","1","0","1","0","0","1","0","1","1","0","0","1","1","4","1","2","3","2","4","2","3","4","4","2","790355489568464897","刘","542","","","","","","","","","","","","","","","","","","","","","","","","","","","","","","feedback_test","","","","","","","","","","","",""
"550","","j","psychophysics","173","389064","0.0-7.0-0.0-4.0-0.0-0.33","3","4","4","3","3","4","3","3","4","4","4","5","5","4","4","5","5","4","4","5","1","2","1","1","2","2","2","1","2","1","0","1","0","1","0","0","1","0","1","1","0","0","1","1","4","1","2","3","2","4","2","3","4","4","2","790355489568464897","刘","542","","","","nonmatch","","","","","","","","","","","","","","key","j","16.668478260869566","640","356","j","true","nonmatch","img/diamond.png","五边","菱形","ALT1","formal_ALT1_1","","","","","","","","","","","",""
"null","<span style='color:GreenYellow; font-size: 70px;'>正确! </span>","null","html-keyboard-response","174","389564","0.0-7.0-0.0-4.0-0.0-1.33","3","4","4","3","3","4","3","3","4","4","4","5","5","4","4","5","5","4","4","5","1","2","1","1","2","2","2","1","2","1","0","1","0","1","0","0","1","0","1","1","0","0","1","1","4","1","2","3","2","4","2","3","4","4","2","790355489568464897","刘","542","","","","","","","","","","","","","","","","","","","","","","","","","","","","","","feedback_test","","","","","","","","","","","",""
"746","","f","psychophysics","175","391314","0.0-7.0-0.0-4.0-0.0-0.34","3","4","4","3","3","4","3","3","4","4","4","5","5","4","4","5","5","4","4","5","1","2","1","1","2","2","2","1","2","1","0","1","0","1","0","0","1","0","1","1","0","0","1","1","4","1","2","3","2","4","2","3","4","4","2","790355489568464897","刘","542","","","","match","","","","","","","","","","","","","","key","f","16.666346153846042","640","356","f","true","match","img/diamond.png","菱形","菱形","ALT1","formal_ALT1_1","","","","","","","","","","","",""
"null","<span style='color:GreenYellow; font-size: 70px;'>正确! </span>","null","html-keyboard-response","176","391815","0.0-7.0-0.0-4.0-0.0-1.34","3","4","4","3","3","4","3","3","4","4","4","5","5","4","4","5","5","4","4","5","1","2","1","1","2","2","2","1","2","1","0","1","0","1","0","0","1","0","1","1","0","0","1","1","4","1","2","3","2","4","2","3","4","4","2","790355489568464897","刘","542","","","","","","","","","","","","","","","","","","","","","","","","","","","","","","feedback_test","","","","","","","","","","","",""
"671","","f","psychophysics","177","393488","0.0-7.0-0.0-4.0-0.0-0.35","3","4","4","3","3","4","3","3","4","4","4","5","5","4","4","5","5","4","4","5","1","2","1","1","2","2","2","1","2","1","0","1","0","1","0","0","1","0","1","1","0","0","1","1","4","1","2","3","2","4","2","3","4","4","2","790355489568464897","刘","542","","","","match","","","","","","","","","","","","","","key","f","16.668686868686397","640","356","f","true","match","img/ellipse.png","椭圆","椭圆","ALT1","formal_ALT1_1","","","","","","","","","","","",""
"null","<span style='color:GreenYellow; font-size: 70px;'>正确! </span>","null","html-keyboard-response","178","393990","0.0-7.0-0.0-4.0-0.0-1.35","3","4","4","3","3","4","3","3","4","4","4","5","5","4","4","5","5","4","4","5","1","2","1","1","2","2","2","1","2","1","0","1","0","1","0","0","1","0","1","1","0","0","1","1","4","1","2","3","2","4","2","3","4","4","2","790355489568464897","刘","542","","","","","","","","","","","","","","","","","","","","","","","","","","","","","","feedback_test","","","","","","","","","","","",""
"606","","j","psychophysics","179","395598","0.0-7.0-0.0-4.0-0.0-0.36","3","4","4","3","3","4","3","3","4","4","4","5","5","4","4","5","5","4","4","5","1","2","1","1","2","2","2","1","2","1","0","1","0","1","0","0","1","0","1","1","0","0","1","1","4","1","2","3","2","4","2","3","4","4","2","790355489568464897","刘","542","","","","nonmatch","","","","","","","","","","","","","","key","j","16.664210526316158","640","356","j","true","nonmatch","img/triangle.png","菱形","三角","ALT1","formal_ALT1_1","","","","","","","","","","","",""
"null","<span style='color:GreenYellow; font-size: 70px;'>正确! </span>","null","html-keyboard-response","180","396100","0.0-7.0-0.0-4.0-0.0-1.36","3","4","4","3","3","4","3","3","4","4","4","5","5","4","4","5","5","4","4","5","1","2","1","1","2","2","2","1","2","1","0","1","0","1","0","0","1","0","1","1","0","0","1","1","4","1","2","3","2","4","2","3","4","4","2","790355489568464897","刘","542","","","","","","","","","","","","","","","","","","","","","","","","","","","","","","feedback_test","","","","","","","","","","","",""
"591","","f","psychophysics","181","397693","0.0-7.0-0.0-4.0-0.0-0.37","3","4","4","3","3","4","3","3","4","4","4","5","5","4","4","5","5","4","4","5","1","2","1","1","2","2","2","1","2","1","0","1","0","1","0","0","1","0","1","1","0","0","1","1","4","1","2","3","2","4","2","3","4","4","2","790355489568464897","刘","542","","","","match","","","","","","","","","","","","","","key","f","16.66526315789486","640","356","f","true","match","img/ellipse.png","椭圆","椭圆","ALT1","formal_ALT1_1","","","","","","","","","","","",""
