"rt","stimulus","response","trial_type","trial_index","time_elapsed","internal_node_id","ses_1","ses_2","ses_3","ses_4","ses_5","ses_6","ses_7","ses_8","ses_9","ses_10","coreself_1","coreself_2","coreself_3","coreself_4","coreself_5","coreself_6","coreself_7","coreself_8","coreself_9","coreself_10","SGPS_1","SGPS_2","SGPS_3","SGPS_4","SGPS_5","SGPS_6","SGPS_7","SGPS_8","SGPS_9","NPI1","NPI2","NPI3","NPI4","NPI5","NPI6","NPI7","NPI8","NPI9","NPI10","NPI11","NPI12","NPI13","NPI14","NPI15","hsns_1","hsns_2","hsns_3","hsns_4","hsns_5","trap1","hsns_6","hsns_7","hsns_8","hsns_9","hsns_10","subj_idx","friend_name","ParticipantID","value","success","user_agent","responses","item_order","radio_event_ids","radio_event_times","key_event_times","mouse_event_times","straightlining","zigzagging","honeypot","timeout","failed_images","failed_audio","failed_video","version_attrib2","version_target2","correct","IAT","screen_id","task_id","RT","condition","word","varname","summary","version_attrib","version_target","time_stamp","view_history","response_type","key_press","avg_frame_time","center_x","center_y","correct_response","identity","Image","question_order","correct_answer","trap1_item"
"25214","
   <p><div style = ""color: white;font-size:25px;"">您好，欢迎参加本次实验。</div> </p>
   <p><div style = ""color: white;font-size:25px;"">为充分保障您的权利，请确保您已经知晓并同意《参与实验同意书》以及《数据公开知情同意书》。</div></p>
   <p><div style = ""color: white;font-size:25px;"">如果您未见过上述内容，请咨询实验员。</div></p>
   <p><div style = ""color: white;font-size:25px;"">如果您选择继续实验，则表示您已经清楚两份知情同意书的内容并同意。</div></p>
   <p><div style = ""color: pink;font-size:30px;"">请确保您记得day0的实验编号，您将在本次实验输入该编号，若您忘记，请咨询实验员后作答。</div></p>
   <p><div style = ""color: lightblue;font-size:25px;"">请您尽可能认真地作答，我们将依据您在各问卷和按键任务中的作答质量发放报酬。</div></p>
   <p> <div style = ""color: green;font-size:25px;""><按空格键至下页></div> </p>
   "," ","html-keyboard-response","0","25217","0.0-0.0","3","4","4","3","3","4","3","3","4","4","4","4","1","3","4","4","5","3","3","4","3","5","4","2","2","2","2","5","2","1","0","1","1","0","0","1","1","0","1","1","0","1","0","1","4","5","3","2","3","3","2","4","5","4","3","766385413542907906","梁","514","","","","","","","","","","","","","","","","","","","","","","","","","","","","","","","","","","","","","","","","","",""
"","","","call-function","1","25218","0.0-1.0-0.0","3","4","4","3","3","4","3","3","4","4","4","4","1","3","4","4","5","3","3","4","3","5","4","2","2","2","2","5","2","1","0","1","1","0","0","1","1","0","1","1","0","1","0","1","4","5","3","2","3","3","2","4","5","4","3","766385413542907906","梁","514","","","","","","","","","","","","","","","","","","","","","","","","","","","","","","","","","","","","","","","","","",""
"44722","","{""friend_name"":""梁"",""ParticipantID"":""514""}","survey-html-form","2","69941","0.0-1.0-1.0","3","4","4","3","3","4","3","3","4","4","4","4","1","3","4","4","5","3","3","4","3","5","4","2","2","2","2","5","2","1","0","1","1","0","0","1","1","0","1","1","0","1","0","1","4","5","3","2","3","3","2","4","5","4","3","766385413542907906","梁","514","","","","","","","","","","","","","","","","","","","","","","","","","","","","","","","","","","","","","","","","","",""
"","","","fullscreen","3","91397","0.0-2.0","3","4","4","3","3","4","3","3","4","4","4","4","1","3","4","4","5","3","3","4","3","5","4","2","2","2","2","5","2","1","0","1","1","0","0","1","1","0","1","1","0","1","0","1","4","5","3","2","3","3","2","4","5","4","3","766385413542907906","梁","514","","true","{}","","","","","","","","","","","","","","","","","","","","","","","","","","","","","","","","","","","","","","",""
"19204.30000001192","","{""Q01"":""3"",""Q02"":""4"",""Q03"":""4"",""Q04"":""3"",""Q05"":""3"",""Q06"":""4"",""Q07"":""3"",""Q08"":""3"",""Q09"":""4"",""Q10"":""4""}","survey-template","4","110604","0.0-3.0","3","4","4","3","3","4","3","3","4","4","4","4","1","3","4","4","5","3","3","4","3","5","4","2","2","2","2","5","2","1","0","1","1","0","0","1","1","0","1","1","0","1","0","1","4","5","3","2","3","3","2","4","5","4","3","766385413542907906","梁","514","","","","{""Q01"":""3"",""Q02"":""4"",""Q03"":""4"",""Q04"":""3"",""Q05"":""3"",""Q06"":""4"",""Q07"":""3"",""Q08"":""3"",""Q09"":""4"",""Q10"":""4""}","[0,1,2,3,4,5,6,7,8,9]","[""Q01"",""Q02"",""Q03"",""Q04"",""Q05"",""Q06"",""Q07"",""Q08"",""Q09"",""Q10""]","[4217.4000000059605,6415.5999999940395,7520.4000000059605,8759.40000000596,10908,12335.59999999404,14179.199999988079,16198.90000000596,17325.30000001192,18291.5]","[]","[3235.4000000059605,3759.300000011921,4217.4000000059605,6415.5999999940395,7520.4000000059605,8759.40000000596,10908,12335.59999999404,14179.199999988079,16198.90000000596,17325.30000001192,18291.5,19203.5]","0.3","0.6666666666666666","0","","","","","","","","","","","","","","","","","","","","","","","","","","","","","",""
"22784.09999999404","","{""Q01"":""4"",""Q02"":""4"",""Q03"":""1"",""Q04"":""3"",""Q05"":""4"",""Q06"":""4"",""Q07"":""5"",""Q08"":""3"",""Q09"":""3"",""Q10"":""4""}","survey-template","5","133394","0.0-4.0","3","4","4","3","3","4","3","3","4","4","4","4","1","3","4","4","5","3","3","4","3","5","4","2","2","2","2","5","2","1","0","1","1","0","0","1","1","0","1","1","0","1","0","1","4","5","3","2","3","3","2","4","5","4","3","766385413542907906","梁","514","","","","{""Q01"":""4"",""Q02"":""4"",""Q03"":""1"",""Q04"":""3"",""Q05"":""4"",""Q06"":""4"",""Q07"":""5"",""Q08"":""3"",""Q09"":""3"",""Q10"":""4""}","[0,1,2,3,4,5,6,7,8,9]","[""Q01"",""Q02"",""Q03"",""Q04"",""Q05"",""Q06"",""Q07"",""Q08"",""Q09"",""Q10""]","[4897.300000011921,6979.200000017881,10031.200000017881,11381.40000000596,14609.300000011921,16285.09999999404,17541.20000001788,19441.20000001788,20983.09999999404,22044]","[]","[4897.300000011921,5917.5999999940395,6979.200000017881,7897.4000000059605,9599.200000017881,10031.200000017881,10907.300000011921,11381.40000000596,14609.300000011921,16285.09999999404,17541.20000001788,19441.20000001788,20983.09999999404,22044,22783.20000001788]","0.3","0.2222222222222222","0","","","","","","","","","","","","","","","","","","","","","","","","","","","","","",""
"","","","preload","6","133609","0.0-5.0","3","4","4","3","3","4","3","3","4","4","4","4","1","3","4","4","5","3","3","4","3","5","4","2","2","2","2","5","2","1","0","1","1","0","0","1","1","0","1","1","0","1","0","1","4","5","3","2","3","3","2","4","5","4","3","766385413542907906","梁","514","","true","","","","","","","","","","","false","[]","[]","[]","","","","","","","","","","","","","","","","","","","","","","","","","",""
"17422","
    <h3>词语分类任务</h3>
    <p>在接下来的任务中，你需要对一系列词语进行分类。<p/>
    请先熟悉这些词语，这有利于你完成接下来的任务。</p>
    <table align=""center"" border=1 cellpadding=3 cellspacing=0>
    <tr> <th>类别</th> <th>词语</th> </tr>
    <tr> <td>&emsp;积极&emsp;</td> <td>&emsp;高尚、诚信、善良、君子、廉正、正直&emsp;</td> </tr>
    <tr> <td>&emsp;消极&emsp;</td> <td>&emsp;缺德、卑鄙、不孝、不仁、小人、黑心&emsp;</td> </tr>
    <tr> <td>&emsp;自我&emsp;</td> <td>&emsp;我、我的、自己、自己的、本人、本人的&emsp;</td> </tr>
    <tr> <td>&emsp;他人&emsp;</td> <td>&emsp;他、他的、别人、别人的、他人、他人的&emsp;</td> </tr>
    </table><br/>","0","html-button-response","7","151033","0.0-6.0-1.0-0.0","3","4","4","3","3","4","3","3","4","4","4","4","1","3","4","4","5","3","3","4","3","5","4","2","2","2","2","5","2","1","0","1","1","0","0","1","1","0","1","1","0","1","0","1","4","5","3","2","3","3","2","4","5","4","3","766385413542907906","梁","514","","","","","","","","","","","","","","","","","1","1","","","","","","","","","","","","","","","","","","","","","","","",""
"27964","
    <div class=""tag-bottom""><p>
    —— 任务1：对“自我”词和“他人”词分类 ——<p/>
    不同词语会出现在屏幕中央，类别标签将始终显示在屏幕上方<p/>   
    <span style=""color:#FFD866""><b>请根据上方标签的提示，尽可能正确并且快速地做出按键反应</b></span><p/>
    当按键错误时屏幕中会出现<span style=""color:red""> X </span>，需要按另一个键纠正才能继续<br/><p/>
    请把双手食指分别放在键盘的“E”键和“I”键上<p/>
    按<空格键>开始
    </p></div>"," ","html-keyboard-response","8","179000","0.0-6.0-1.0-1.0","3","4","4","3","3","4","3","3","4","4","4","4","1","3","4","4","5","3","3","4","3","5","4","2","2","2","2","5","2","1","0","1","1","0","0","1","1","0","1","1","0","1","0","1","4","5","3","2","3","3","2","4","5","4","3","766385413542907906","梁","514","","","","","","","","","","","","","","","","","","","","","","","","","","","","","","","","","","","","","","","","","",""
"null","","null","html-keyboard-response","9","179251","0.0-6.0-1.0-2.0-0.0","3","4","4","3","3","4","3","3","4","4","4","4","1","3","4","4","5","3","3","4","3","5","4","2","2","2","2","5","2","1","0","1","1","0","0","1","1","0","1","1","0","1","0","1","4","5","3","2","3","3","2","4","5","4","3","766385413542907906","梁","514","","","","","","","","","","","","","","","","","","","","","","","","","","","","","","","","","","","","","","","","","",""
"899","<p style=""color:rgb(150, 250, 100); font-size: 35px;"">别人</p>","i","categorize-html","10","180153","0.0-6.0-1.0-2.0-1.0","3","4","4","3","3","4","3","3","4","4","4","4","1","3","4","4","5","3","3","4","3","5","4","2","2","2","2","5","2","1","0","1","1","0","0","1","1","0","1","1","0","1","0","1","4","5","3","2","3","3","2","4","5","4","3","766385413542907906","梁","514","","","","","","","","","","","","","","","","","","","true","11","1","moral","899","other","别人","","","","","","","","","","","","","","","","",""
"null","","null","html-keyboard-response","11","180405","0.0-6.0-1.0-2.0-0.1","3","4","4","3","3","4","3","3","4","4","4","4","1","3","4","4","5","3","3","4","3","5","4","2","2","2","2","5","2","1","0","1","1","0","0","1","1","0","1","1","0","1","0","1","4","5","3","2","3","3","2","4","5","4","3","766385413542907906","梁","514","","","","","","","","","","","","","","","","","","","","","","","","","","","","","","","","","","","","","","","","","",""
"522","<p style=""color:rgb(150, 250, 100); font-size: 35px;"">自己的</p>","e","categorize-html","12","180931","0.0-6.0-1.0-2.0-1.1","3","4","4","3","3","4","3","3","4","4","4","4","1","3","4","4","5","3","3","4","3","5","4","2","2","2","2","5","2","1","0","1","1","0","0","1","1","0","1","1","0","1","0","1","4","5","3","2","3","3","2","4","5","4","3","766385413542907906","梁","514","","","","","","","","","","","","","","","","","","","true","11","1","moral","522","self","自己的","","","","","","","","","","","","","","","","",""
"null","","null","html-keyboard-response","13","181182","0.0-6.0-1.0-2.0-0.2","3","4","4","3","3","4","3","3","4","4","4","4","1","3","4","4","5","3","3","4","3","5","4","2","2","2","2","5","2","1","0","1","1","0","0","1","1","0","1","1","0","1","0","1","4","5","3","2","3","3","2","4","5","4","3","766385413542907906","梁","514","","","","","","","","","","","","","","","","","","","","","","","","","","","","","","","","","","","","","","","","","",""
"521","<p style=""color:rgb(150, 250, 100); font-size: 35px;"">本人的</p>","e","categorize-html","14","181706","0.0-6.0-1.0-2.0-1.2","3","4","4","3","3","4","3","3","4","4","4","4","1","3","4","4","5","3","3","4","3","5","4","2","2","2","2","5","2","1","0","1","1","0","0","1","1","0","1","1","0","1","0","1","4","5","3","2","3","3","2","4","5","4","3","766385413542907906","梁","514","","","","","","","","","","","","","","","","","","","true","11","1","moral","521","self","本人的","","","","","","","","","","","","","","","","",""
"null","","null","html-keyboard-response","15","181958","0.0-6.0-1.0-2.0-0.3","3","4","4","3","3","4","3","3","4","4","4","4","1","3","4","4","5","3","3","4","3","5","4","2","2","2","2","5","2","1","0","1","1","0","0","1","1","0","1","1","0","1","0","1","4","5","3","2","3","3","2","4","5","4","3","766385413542907906","梁","514","","","","","","","","","","","","","","","","","","","","","","","","","","","","","","","","","","","","","","","","","",""
"506","<p style=""color:rgb(150, 250, 100); font-size: 35px;"">本人</p>","e","categorize-html","16","182465","0.0-6.0-1.0-2.0-1.3","3","4","4","3","3","4","3","3","4","4","4","4","1","3","4","4","5","3","3","4","3","5","4","2","2","2","2","5","2","1","0","1","1","0","0","1","1","0","1","1","0","1","0","1","4","5","3","2","3","3","2","4","5","4","3","766385413542907906","梁","514","","","","","","","","","","","","","","","","","","","true","11","1","moral","506","self","本人","","","","","","","","","","","","","","","","",""
"null","","null","html-keyboard-response","17","182717","0.0-6.0-1.0-2.0-0.4","3","4","4","3","3","4","3","3","4","4","4","4","1","3","4","4","5","3","3","4","3","5","4","2","2","2","2","5","2","1","0","1","1","0","0","1","1","0","1","1","0","1","0","1","4","5","3","2","3","3","2","4","5","4","3","766385413542907906","梁","514","","","","","","","","","","","","","","","","","","","","","","","","","","","","","","","","","","","","","","","","","",""
"513","<p style=""color:rgb(150, 250, 100); font-size: 35px;"">别人的</p>","i","categorize-html","18","183233","0.0-6.0-1.0-2.0-1.4","3","4","4","3","3","4","3","3","4","4","4","4","1","3","4","4","5","3","3","4","3","5","4","2","2","2","2","5","2","1","0","1","1","0","0","1","1","0","1","1","0","1","0","1","4","5","3","2","3","3","2","4","5","4","3","766385413542907906","梁","514","","","","","","","","","","","","","","","","","","","true","11","1","moral","513","other","别人的","","","","","","","","","","","","","","","","",""
"null","","null","html-keyboard-response","19","183485","0.0-6.0-1.0-2.0-0.5","3","4","4","3","3","4","3","3","4","4","4","4","1","3","4","4","5","3","3","4","3","5","4","2","2","2","2","5","2","1","0","1","1","0","0","1","1","0","1","1","0","1","0","1","4","5","3","2","3","3","2","4","5","4","3","766385413542907906","梁","514","","","","","","","","","","","","","","","","","","","","","","","","","","","","","","","","","","","","","","","","","",""
"843","<p style=""color:rgb(150, 250, 100); font-size: 35px;"">他人</p>","i","categorize-html","20","184330","0.0-6.0-1.0-2.0-1.5","3","4","4","3","3","4","3","3","4","4","4","4","1","3","4","4","5","3","3","4","3","5","4","2","2","2","2","5","2","1","0","1","1","0","0","1","1","0","1","1","0","1","0","1","4","5","3","2","3","3","2","4","5","4","3","766385413542907906","梁","514","","","","","","","","","","","","","","","","","","","true","11","1","moral","843","other","他人","","","","","","","","","","","","","","","","",""
"null","","null","html-keyboard-response","21","184580","0.0-6.0-1.0-2.0-0.6","3","4","4","3","3","4","3","3","4","4","4","4","1","3","4","4","5","3","3","4","3","5","4","2","2","2","2","5","2","1","0","1","1","0","0","1","1","0","1","1","0","1","0","1","4","5","3","2","3","3","2","4","5","4","3","766385413542907906","梁","514","","","","","","","","","","","","","","","","","","","","","","","","","","","","","","","","","","","","","","","","","",""
"460","<p style=""color:rgb(150, 250, 100); font-size: 35px;"">我</p>","e","categorize-html","22","185043","0.0-6.0-1.0-2.0-1.6","3","4","4","3","3","4","3","3","4","4","4","4","1","3","4","4","5","3","3","4","3","5","4","2","2","2","2","5","2","1","0","1","1","0","0","1","1","0","1","1","0","1","0","1","4","5","3","2","3","3","2","4","5","4","3","766385413542907906","梁","514","","","","","","","","","","","","","","","","","","","true","11","1","moral","460","self","我","","","","","","","","","","","","","","","","",""
"null","","null","html-keyboard-response","23","185294","0.0-6.0-1.0-2.0-0.7","3","4","4","3","3","4","3","3","4","4","4","4","1","3","4","4","5","3","3","4","3","5","4","2","2","2","2","5","2","1","0","1","1","0","0","1","1","0","1","1","0","1","0","1","4","5","3","2","3","3","2","4","5","4","3","766385413542907906","梁","514","","","","","","","","","","","","","","","","","","","","","","","","","","","","","","","","","","","","","","","","","",""
"586","<p style=""color:rgb(150, 250, 100); font-size: 35px;"">他人的</p>","i","categorize-html","24","185882","0.0-6.0-1.0-2.0-1.7","3","4","4","3","3","4","3","3","4","4","4","4","1","3","4","4","5","3","3","4","3","5","4","2","2","2","2","5","2","1","0","1","1","0","0","1","1","0","1","1","0","1","0","1","4","5","3","2","3","3","2","4","5","4","3","766385413542907906","梁","514","","","","","","","","","","","","","","","","","","","true","11","1","moral","586","other","他人的","","","","","","","","","","","","","","","","",""
"null","","null","html-keyboard-response","25","186133","0.0-6.0-1.0-2.0-0.8","3","4","4","3","3","4","3","3","4","4","4","4","1","3","4","4","5","3","3","4","3","5","4","2","2","2","2","5","2","1","0","1","1","0","0","1","1","0","1","1","0","1","0","1","4","5","3","2","3","3","2","4","5","4","3","766385413542907906","梁","514","","","","","","","","","","","","","","","","","","","","","","","","","","","","","","","","","","","","","","","","","",""
"578","<p style=""color:rgb(150, 250, 100); font-size: 35px;"">他的</p>","i","categorize-html","26","186713","0.0-6.0-1.0-2.0-1.8","3","4","4","3","3","4","3","3","4","4","4","4","1","3","4","4","5","3","3","4","3","5","4","2","2","2","2","5","2","1","0","1","1","0","0","1","1","0","1","1","0","1","0","1","4","5","3","2","3","3","2","4","5","4","3","766385413542907906","梁","514","","","","","","","","","","","","","","","","","","","true","11","1","moral","578","other","他的","","","","","","","","","","","","","","","","",""
"null","","null","html-keyboard-response","27","186963","0.0-6.0-1.0-2.0-0.9","3","4","4","3","3","4","3","3","4","4","4","4","1","3","4","4","5","3","3","4","3","5","4","2","2","2","2","5","2","1","0","1","1","0","0","1","1","0","1","1","0","1","0","1","4","5","3","2","3","3","2","4","5","4","3","766385413542907906","梁","514","","","","","","","","","","","","","","","","","","","","","","","","","","","","","","","","","","","","","","","","","",""
"428","<p style=""color:rgb(150, 250, 100); font-size: 35px;"">我的</p>","e","categorize-html","28","187393","0.0-6.0-1.0-2.0-1.9","3","4","4","3","3","4","3","3","4","4","4","4","1","3","4","4","5","3","3","4","3","5","4","2","2","2","2","5","2","1","0","1","1","0","0","1","1","0","1","1","0","1","0","1","4","5","3","2","3","3","2","4","5","4","3","766385413542907906","梁","514","","","","","","","","","","","","","","","","","","","true","11","1","moral","428","self","我的","","","","","","","","","","","","","","","","",""
"null","","null","html-keyboard-response","29","187644","0.0-6.0-1.0-2.0-0.10","3","4","4","3","3","4","3","3","4","4","4","4","1","3","4","4","5","3","3","4","3","5","4","2","2","2","2","5","2","1","0","1","1","0","0","1","1","0","1","1","0","1","0","1","4","5","3","2","3","3","2","4","5","4","3","766385413542907906","梁","514","","","","","","","","","","","","","","","","","","","","","","","","","","","","","","","","","","","","","","","","","",""
"539","<p style=""color:rgb(150, 250, 100); font-size: 35px;"">自己</p>","e","categorize-html","30","188184","0.0-6.0-1.0-2.0-1.10","3","4","4","3","3","4","3","3","4","4","4","4","1","3","4","4","5","3","3","4","3","5","4","2","2","2","2","5","2","1","0","1","1","0","0","1","1","0","1","1","0","1","0","1","4","5","3","2","3","3","2","4","5","4","3","766385413542907906","梁","514","","","","","","","","","","","","","","","","","","","true","11","1","moral","539","self","自己","","","","","","","","","","","","","","","","",""
"null","","null","html-keyboard-response","31","188435","0.0-6.0-1.0-2.0-0.11","3","4","4","3","3","4","3","3","4","4","4","4","1","3","4","4","5","3","3","4","3","5","4","2","2","2","2","5","2","1","0","1","1","0","0","1","1","0","1","1","0","1","0","1","4","5","3","2","3","3","2","4","5","4","3","766385413542907906","梁","514","","","","","","","","","","","","","","","","","","","","","","","","","","","","","","","","","","","","","","","","","",""
"742","<p style=""color:rgb(150, 250, 100); font-size: 35px;"">他</p>","i","categorize-html","32","189182","0.0-6.0-1.0-2.0-1.11","3","4","4","3","3","4","3","3","4","4","4","4","1","3","4","4","5","3","3","4","3","5","4","2","2","2","2","5","2","1","0","1","1","0","0","1","1","0","1","1","0","1","0","1","4","5","3","2","3","3","2","4","5","4","3","766385413542907906","梁","514","","","","","","","","","","","","","","","","","","","true","11","1","moral","742","other","他","","","","","","","","","","","","","","","","",""
"11905","
    <div class=""tag-bottom""><p>
    —— 任务2：对“积极”词和“消极”词分类 ——<p/>   
    <span style=""color:#78DCE8""><b>注意上方，类别标签和需要分类的词语都已经改变</b></span><p/>
    <span style=""color:#FFD866""><b>请根据上方标签的提示，尽可能正确并且快速地做出按键反应</b></span><p/>
    当按键错误时屏幕中会出现<span style=""color:red""> X </span>，需要按另一个键纠正才能继续<br/><p/>
    请把双手食指分别放在键盘的“E”键和“I”键上<p/>
    按<空格键>开始
    </p></div>"," ","html-keyboard-response","33","201088","0.0-6.0-1.0-3.0","3","4","4","3","3","4","3","3","4","4","4","4","1","3","4","4","5","3","3","4","3","5","4","2","2","2","2","5","2","1","0","1","1","0","0","1","1","0","1","1","0","1","0","1","4","5","3","2","3","3","2","4","5","4","3","766385413542907906","梁","514","","","","","","","","","","","","","","","","","","","","","","","","","","","","","","","","","","","","","","","","","",""
"null","","null","html-keyboard-response","34","201340","0.0-6.0-1.0-4.0-0.0","3","4","4","3","3","4","3","3","4","4","4","4","1","3","4","4","5","3","3","4","3","5","4","2","2","2","2","5","2","1","0","1","1","0","0","1","1","0","1","1","0","1","0","1","4","5","3","2","3","3","2","4","5","4","3","766385413542907906","梁","514","","","","","","","","","","","","","","","","","","","","","","","","","","","","","","","","","","","","","","","","","",""
"875","<p style=""color:white; font-size: 35px;"">廉正</p>","e","categorize-html","35","202216","0.0-6.0-1.0-4.0-1.0","3","4","4","3","3","4","3","3","4","4","4","4","1","3","4","4","5","3","3","4","3","5","4","2","2","2","2","5","2","1","0","1","1","0","0","1","1","0","1","1","0","1","0","1","4","5","3","2","3","3","2","4","5","4","3","766385413542907906","梁","514","","","","","","","","","","","","","","","","","","","true","12","2","moral","875","positive","廉正","","","","","","","","","","","","","","","","",""
"null","","null","html-keyboard-response","36","202468","0.0-6.0-1.0-4.0-0.1","3","4","4","3","3","4","3","3","4","4","4","4","1","3","4","4","5","3","3","4","3","5","4","2","2","2","2","5","2","1","0","1","1","0","0","1","1","0","1","1","0","1","0","1","4","5","3","2","3","3","2","4","5","4","3","766385413542907906","梁","514","","","","","","","","","","","","","","","","","","","","","","","","","","","","","","","","","","","","","","","","","",""
"540","<p style=""color:white; font-size: 35px;"">缺德</p>","i","categorize-html","37","203011","0.0-6.0-1.0-4.0-1.1","3","4","4","3","3","4","3","3","4","4","4","4","1","3","4","4","5","3","3","4","3","5","4","2","2","2","2","5","2","1","0","1","1","0","0","1","1","0","1","1","0","1","0","1","4","5","3","2","3","3","2","4","5","4","3","766385413542907906","梁","514","","","","","","","","","","","","","","","","","","","true","12","2","moral","540","negative","缺德","","","","","","","","","","","","","","","","",""
"null","","null","html-keyboard-response","38","203262","0.0-6.0-1.0-4.0-0.2","3","4","4","3","3","4","3","3","4","4","4","4","1","3","4","4","5","3","3","4","3","5","4","2","2","2","2","5","2","1","0","1","1","0","0","1","1","0","1","1","0","1","0","1","4","5","3","2","3","3","2","4","5","4","3","766385413542907906","梁","514","","","","","","","","","","","","","","","","","","","","","","","","","","","","","","","","","","","","","","","","","",""
"1001","<p style=""color:white; font-size: 35px;"">不孝</p>","i","categorize-html","39","204265","0.0-6.0-1.0-4.0-1.2","3","4","4","3","3","4","3","3","4","4","4","4","1","3","4","4","5","3","3","4","3","5","4","2","2","2","2","5","2","1","0","1","1","0","0","1","1","0","1","1","0","1","0","1","4","5","3","2","3","3","2","4","5","4","3","766385413542907906","梁","514","","","","","","","","","","","","","","","","","","","true","12","2","moral","1001","negative","不孝","","","","","","","","","","","","","","","","",""
"null","","null","html-keyboard-response","40","204516","0.0-6.0-1.0-4.0-0.3","3","4","4","3","3","4","3","3","4","4","4","4","1","3","4","4","5","3","3","4","3","5","4","2","2","2","2","5","2","1","0","1","1","0","0","1","1","0","1","1","0","1","0","1","4","5","3","2","3","3","2","4","5","4","3","766385413542907906","梁","514","","","","","","","","","","","","","","","","","","","","","","","","","","","","","","","","","","","","","","","","","",""
"843","<p style=""color:white; font-size: 35px;"">不仁</p>","i","categorize-html","41","205361","0.0-6.0-1.0-4.0-1.3","3","4","4","3","3","4","3","3","4","4","4","4","1","3","4","4","5","3","3","4","3","5","4","2","2","2","2","5","2","1","0","1","1","0","0","1","1","0","1","1","0","1","0","1","4","5","3","2","3","3","2","4","5","4","3","766385413542907906","梁","514","","","","","","","","","","","","","","","","","","","true","12","2","moral","843","negative","不仁","","","","","","","","","","","","","","","","",""
"null","","null","html-keyboard-response","42","205612","0.0-6.0-1.0-4.0-0.4","3","4","4","3","3","4","3","3","4","4","4","4","1","3","4","4","5","3","3","4","3","5","4","2","2","2","2","5","2","1","0","1","1","0","0","1","1","0","1","1","0","1","0","1","4","5","3","2","3","3","2","4","5","4","3","766385413542907906","梁","514","","","","","","","","","","","","","","","","","","","","","","","","","","","","","","","","","","","","","","","","","",""
"578","<p style=""color:white; font-size: 35px;"">卑鄙</p>","i","categorize-html","43","206193","0.0-6.0-1.0-4.0-1.4","3","4","4","3","3","4","3","3","4","4","4","4","1","3","4","4","5","3","3","4","3","5","4","2","2","2","2","5","2","1","0","1","1","0","0","1","1","0","1","1","0","1","0","1","4","5","3","2","3","3","2","4","5","4","3","766385413542907906","梁","514","","","","","","","","","","","","","","","","","","","true","12","2","moral","578","negative","卑鄙","","","","","","","","","","","","","","","","",""
"null","","null","html-keyboard-response","44","206444","0.0-6.0-1.0-4.0-0.5","3","4","4","3","3","4","3","3","4","4","4","4","1","3","4","4","5","3","3","4","3","5","4","2","2","2","2","5","2","1","0","1","1","0","0","1","1","0","1","1","0","1","0","1","4","5","3","2","3","3","2","4","5","4","3","766385413542907906","梁","514","","","","","","","","","","","","","","","","","","","","","","","","","","","","","","","","","","","","","","","","","",""
"571","<p style=""color:white; font-size: 35px;"">正直</p>","e","categorize-html","45","207017","0.0-6.0-1.0-4.0-1.5","3","4","4","3","3","4","3","3","4","4","4","4","1","3","4","4","5","3","3","4","3","5","4","2","2","2","2","5","2","1","0","1","1","0","0","1","1","0","1","1","0","1","0","1","4","5","3","2","3","3","2","4","5","4","3","766385413542907906","梁","514","","","","","","","","","","","","","","","","","","","true","12","2","moral","571","positive","正直","","","","","","","","","","","","","","","","",""
"null","","null","html-keyboard-response","46","207268","0.0-6.0-1.0-4.0-0.6","3","4","4","3","3","4","3","3","4","4","4","4","1","3","4","4","5","3","3","4","3","5","4","2","2","2","2","5","2","1","0","1","1","0","0","1","1","0","1","1","0","1","0","1","4","5","3","2","3","3","2","4","5","4","3","766385413542907906","梁","514","","","","","","","","","","","","","","","","","","","","","","","","","","","","","","","","","","","","","","","","","",""
"484","<p style=""color:white; font-size: 35px;"">君子</p>","e","categorize-html","47","207754","0.0-6.0-1.0-4.0-1.6","3","4","4","3","3","4","3","3","4","4","4","4","1","3","4","4","5","3","3","4","3","5","4","2","2","2","2","5","2","1","0","1","1","0","0","1","1","0","1","1","0","1","0","1","4","5","3","2","3","3","2","4","5","4","3","766385413542907906","梁","514","","","","","","","","","","","","","","","","","","","true","12","2","moral","484","positive","君子","","","","","","","","","","","","","","","","",""
"null","","null","html-keyboard-response","48","208005","0.0-6.0-1.0-4.0-0.7","3","4","4","3","3","4","3","3","4","4","4","4","1","3","4","4","5","3","3","4","3","5","4","2","2","2","2","5","2","1","0","1","1","0","0","1","1","0","1","1","0","1","0","1","4","5","3","2","3","3","2","4","5","4","3","766385413542907906","梁","514","","","","","","","","","","","","","","","","","","","","","","","","","","","","","","","","","","","","","","","","","",""
"466","<p style=""color:white; font-size: 35px;"">高尚</p>","e","categorize-html","49","208473","0.0-6.0-1.0-4.0-1.7","3","4","4","3","3","4","3","3","4","4","4","4","1","3","4","4","5","3","3","4","3","5","4","2","2","2","2","5","2","1","0","1","1","0","0","1","1","0","1","1","0","1","0","1","4","5","3","2","3","3","2","4","5","4","3","766385413542907906","梁","514","","","","","","","","","","","","","","","","","","","true","12","2","moral","466","positive","高尚","","","","","","","","","","","","","","","","",""
"null","","null","html-keyboard-response","50","208726","0.0-6.0-1.0-4.0-0.8","3","4","4","3","3","4","3","3","4","4","4","4","1","3","4","4","5","3","3","4","3","5","4","2","2","2","2","5","2","1","0","1","1","0","0","1","1","0","1","1","0","1","0","1","4","5","3","2","3","3","2","4","5","4","3","766385413542907906","梁","514","","","","","","","","","","","","","","","","","","","","","","","","","","","","","","","","","","","","","","","","","",""
"704","<p style=""color:white; font-size: 35px;"">黑心</p>","i","categorize-html","51","209433","0.0-6.0-1.0-4.0-1.8","3","4","4","3","3","4","3","3","4","4","4","4","1","3","4","4","5","3","3","4","3","5","4","2","2","2","2","5","2","1","0","1","1","0","0","1","1","0","1","1","0","1","0","1","4","5","3","2","3","3","2","4","5","4","3","766385413542907906","梁","514","","","","","","","","","","","","","","","","","","","true","12","2","moral","704","negative","黑心","","","","","","","","","","","","","","","","",""
"null","","null","html-keyboard-response","52","209683","0.0-6.0-1.0-4.0-0.9","3","4","4","3","3","4","3","3","4","4","4","4","1","3","4","4","5","3","3","4","3","5","4","2","2","2","2","5","2","1","0","1","1","0","0","1","1","0","1","1","0","1","0","1","4","5","3","2","3","3","2","4","5","4","3","766385413542907906","梁","514","","","","","","","","","","","","","","","","","","","","","","","","","","","","","","","","","","","","","","","","","",""
"589","<p style=""color:white; font-size: 35px;"">善良</p>","e","categorize-html","53","210275","0.0-6.0-1.0-4.0-1.9","3","4","4","3","3","4","3","3","4","4","4","4","1","3","4","4","5","3","3","4","3","5","4","2","2","2","2","5","2","1","0","1","1","0","0","1","1","0","1","1","0","1","0","1","4","5","3","2","3","3","2","4","5","4","3","766385413542907906","梁","514","","","","","","","","","","","","","","","","","","","true","12","2","moral","589","positive","善良","","","","","","","","","","","","","","","","",""
"null","","null","html-keyboard-response","54","210526","0.0-6.0-1.0-4.0-0.10","3","4","4","3","3","4","3","3","4","4","4","4","1","3","4","4","5","3","3","4","3","5","4","2","2","2","2","5","2","1","0","1","1","0","0","1","1","0","1","1","0","1","0","1","4","5","3","2","3","3","2","4","5","4","3","766385413542907906","梁","514","","","","","","","","","","","","","","","","","","","","","","","","","","","","","","","","","","","","","","","","","",""
"601","<p style=""color:white; font-size: 35px;"">小人</p>","i","categorize-html","55","211129","0.0-6.0-1.0-4.0-1.10","3","4","4","3","3","4","3","3","4","4","4","4","1","3","4","4","5","3","3","4","3","5","4","2","2","2","2","5","2","1","0","1","1","0","0","1","1","0","1","1","0","1","0","1","4","5","3","2","3","3","2","4","5","4","3","766385413542907906","梁","514","","","","","","","","","","","","","","","","","","","true","12","2","moral","601","negative","小人","","","","","","","","","","","","","","","","",""
"null","","null","html-keyboard-response","56","211381","0.0-6.0-1.0-4.0-0.11","3","4","4","3","3","4","3","3","4","4","4","4","1","3","4","4","5","3","3","4","3","5","4","2","2","2","2","5","2","1","0","1","1","0","0","1","1","0","1","1","0","1","0","1","4","5","3","2","3","3","2","4","5","4","3","766385413542907906","梁","514","","","","","","","","","","","","","","","","","","","","","","","","","","","","","","","","","","","","","","","","","",""
"754","<p style=""color:white; font-size: 35px;"">诚信</p>","e","categorize-html","57","212137","0.0-6.0-1.0-4.0-1.11","3","4","4","3","3","4","3","3","4","4","4","4","1","3","4","4","5","3","3","4","3","5","4","2","2","2","2","5","2","1","0","1","1","0","0","1","1","0","1","1","0","1","0","1","4","5","3","2","3","3","2","4","5","4","3","766385413542907906","梁","514","","","","","","","","","","","","","","","","","","","true","12","2","moral","754","positive","诚信","","","","","","","","","","","","","","","","",""
"20304","
    <div class=""tag-bottom""><p>
    —— 任务3：对“自我/积极”词和“他人/消极”词分类 ——<p/>
    <span style=""color:#78DCE8""><b>注意上方，之前的四类词语将混合在一起交替呈现</b></span><p/>
    <span style=""color:#FFD866""><b>请根据上方标签的提示，尽可能正确并且快速地做出按键反应</b></span><p/>
    当按键错误时屏幕中会出现<span style=""color:red""> X </span>，需要按另一个键纠正才能继续<br/><p/>
    请把双手食指分别放在键盘的“E”键和“I”键上<p/>
    按<空格键>开始
    </p></div>"," ","html-keyboard-response","58","232442","0.0-6.0-1.0-5.0","3","4","4","3","3","4","3","3","4","4","4","4","1","3","4","4","5","3","3","4","3","5","4","2","2","2","2","5","2","1","0","1","1","0","0","1","1","0","1","1","0","1","0","1","4","5","3","2","3","3","2","4","5","4","3","766385413542907906","梁","514","","","","","","","","","","","","","","","","","","","","","","","","","","","","","","","","","","","","","","","","","",""
"null","","null","html-keyboard-response","59","232694","0.0-6.0-1.0-6.0-0.0","3","4","4","3","3","4","3","3","4","4","4","4","1","3","4","4","5","3","3","4","3","5","4","2","2","2","2","5","2","1","0","1","1","0","0","1","1","0","1","1","0","1","0","1","4","5","3","2","3","3","2","4","5","4","3","766385413542907906","梁","514","","","","","","","","","","","","","","","","","","","","","","","","","","","","","","","","","","","","","","","","","",""
"1161","<p style=""color:rgb(150, 250, 100); font-size: 35px;"">我的</p>","e","categorize-html","60","233859","0.0-6.0-1.0-6.0-1.0","3","4","4","3","3","4","3","3","4","4","4","4","1","3","4","4","5","3","3","4","3","5","4","2","2","2","2","5","2","1","0","1","1","0","0","1","1","0","1","1","0","1","0","1","4","5","3","2","3","3","2","4","5","4","3","766385413542907906","梁","514","","","","","","","","","","","","","","","","","","","true","13","3","moral","1161","self","我的","","","","","","","","","","","","","","","","",""
"null","","null","html-keyboard-response","61","234110","0.0-6.0-1.0-6.0-0.1","3","4","4","3","3","4","3","3","4","4","4","4","1","3","4","4","5","3","3","4","3","5","4","2","2","2","2","5","2","1","0","1","1","0","0","1","1","0","1","1","0","1","0","1","4","5","3","2","3","3","2","4","5","4","3","766385413542907906","梁","514","","","","","","","","","","","","","","","","","","","","","","","","","","","","","","","","","","","","","","","","","",""
"650","<p style=""color:white; font-size: 35px;"">黑心</p>","i","categorize-html","62","234761","0.0-6.0-1.0-6.0-1.1","3","4","4","3","3","4","3","3","4","4","4","4","1","3","4","4","5","3","3","4","3","5","4","2","2","2","2","5","2","1","0","1","1","0","0","1","1","0","1","1","0","1","0","1","4","5","3","2","3","3","2","4","5","4","3","766385413542907906","梁","514","","","","","","","","","","","","","","","","","","","true","13","3","moral","650","negative","黑心","","","","","","","","","","","","","","","","",""
"null","","null","html-keyboard-response","63","235013","0.0-6.0-1.0-6.0-0.2","3","4","4","3","3","4","3","3","4","4","4","4","1","3","4","4","5","3","3","4","3","5","4","2","2","2","2","5","2","1","0","1","1","0","0","1","1","0","1","1","0","1","0","1","4","5","3","2","3","3","2","4","5","4","3","766385413542907906","梁","514","","","","","","","","","","","","","","","","","","","","","","","","","","","","","","","","","","","","","","","","","",""
"753","<p style=""color:rgb(150, 250, 100); font-size: 35px;"">别人</p>","i","categorize-html","64","235770","0.0-6.0-1.0-6.0-1.2","3","4","4","3","3","4","3","3","4","4","4","4","1","3","4","4","5","3","3","4","3","5","4","2","2","2","2","5","2","1","0","1","1","0","0","1","1","0","1","1","0","1","0","1","4","5","3","2","3","3","2","4","5","4","3","766385413542907906","梁","514","","","","","","","","","","","","","","","","","","","true","13","3","moral","753","other","别人","","","","","","","","","","","","","","","","",""
"null","","null","html-keyboard-response","65","236022","0.0-6.0-1.0-6.0-0.3","3","4","4","3","3","4","3","3","4","4","4","4","1","3","4","4","5","3","3","4","3","5","4","2","2","2","2","5","2","1","0","1","1","0","0","1","1","0","1","1","0","1","0","1","4","5","3","2","3","3","2","4","5","4","3","766385413542907906","梁","514","","","","","","","","","","","","","","","","","","","","","","","","","","","","","","","","","","","","","","","","","",""
"696","<p style=""color:white; font-size: 35px;"">诚信</p>","e","categorize-html","66","236722","0.0-6.0-1.0-6.0-1.3","3","4","4","3","3","4","3","3","4","4","4","4","1","3","4","4","5","3","3","4","3","5","4","2","2","2","2","5","2","1","0","1","1","0","0","1","1","0","1","1","0","1","0","1","4","5","3","2","3","3","2","4","5","4","3","766385413542907906","梁","514","","","","","","","","","","","","","","","","","","","true","13","3","moral","696","positive","诚信","","","","","","","","","","","","","","","","",""
"null","","null","html-keyboard-response","67","237000","0.0-6.0-1.0-6.0-0.4","3","4","4","3","3","4","3","3","4","4","4","4","1","3","4","4","5","3","3","4","3","5","4","2","2","2","2","5","2","1","0","1","1","0","0","1","1","0","1","1","0","1","0","1","4","5","3","2","3","3","2","4","5","4","3","766385413542907906","梁","514","","","","","","","","","","","","","","","","","","","","","","","","","","","","","","","","","","","","","","","","","",""
"591","<p style=""color:rgb(150, 250, 100); font-size: 35px;"">自己</p>","e","categorize-html","68","237593","0.0-6.0-1.0-6.0-1.4","3","4","4","3","3","4","3","3","4","4","4","4","1","3","4","4","5","3","3","4","3","5","4","2","2","2","2","5","2","1","0","1","1","0","0","1","1","0","1","1","0","1","0","1","4","5","3","2","3","3","2","4","5","4","3","766385413542907906","梁","514","","","","","","","","","","","","","","","","","","","true","13","3","moral","591","self","自己","","","","","","","","","","","","","","","","",""
"null","","null","html-keyboard-response","69","237849","0.0-6.0-1.0-6.0-0.5","3","4","4","3","3","4","3","3","4","4","4","4","1","3","4","4","5","3","3","4","3","5","4","2","2","2","2","5","2","1","0","1","1","0","0","1","1","0","1","1","0","1","0","1","4","5","3","2","3","3","2","4","5","4","3","766385413542907906","梁","514","","","","","","","","","","","","","","","","","","","","","","","","","","","","","","","","","","","","","","","","","",""
"629","<p style=""color:white; font-size: 35px;"">高尚</p>","e","categorize-html","70","238481","0.0-6.0-1.0-6.0-1.5","3","4","4","3","3","4","3","3","4","4","4","4","1","3","4","4","5","3","3","4","3","5","4","2","2","2","2","5","2","1","0","1","1","0","0","1","1","0","1","1","0","1","0","1","4","5","3","2","3","3","2","4","5","4","3","766385413542907906","梁","514","","","","","","","","","","","","","","","","","","","true","13","3","moral","629","positive","高尚","","","","","","","","","","","","","","","","",""
"null","","null","html-keyboard-response","71","238734","0.0-6.0-1.0-6.0-0.6","3","4","4","3","3","4","3","3","4","4","4","4","1","3","4","4","5","3","3","4","3","5","4","2","2","2","2","5","2","1","0","1","1","0","0","1","1","0","1","1","0","1","0","1","4","5","3","2","3","3","2","4","5","4","3","766385413542907906","梁","514","","","","","","","","","","","","","","","","","","","","","","","","","","","","","","","","","","","","","","","","","",""
"633","<p style=""color:rgb(150, 250, 100); font-size: 35px;"">他人</p>","i","categorize-html","72","239369","0.0-6.0-1.0-6.0-1.6","3","4","4","3","3","4","3","3","4","4","4","4","1","3","4","4","5","3","3","4","3","5","4","2","2","2","2","5","2","1","0","1","1","0","0","1","1","0","1","1","0","1","0","1","4","5","3","2","3","3","2","4","5","4","3","766385413542907906","梁","514","","","","","","","","","","","","","","","","","","","true","13","3","moral","633","other","他人","","","","","","","","","","","","","","","","",""
"null","","null","html-keyboard-response","73","239635","0.0-6.0-1.0-6.0-0.7","3","4","4","3","3","4","3","3","4","4","4","4","1","3","4","4","5","3","3","4","3","5","4","2","2","2","2","5","2","1","0","1","1","0","0","1","1","0","1","1","0","1","0","1","4","5","3","2","3","3","2","4","5","4","3","766385413542907906","梁","514","","","","","","","","","","","","","","","","","","","","","","","","","","","","","","","","","","","","","","","","","",""
"524","<p style=""color:white; font-size: 35px;"">不孝</p>","i","categorize-html","74","240161","0.0-6.0-1.0-6.0-1.7","3","4","4","3","3","4","3","3","4","4","4","4","1","3","4","4","5","3","3","4","3","5","4","2","2","2","2","5","2","1","0","1","1","0","0","1","1","0","1","1","0","1","0","1","4","5","3","2","3","3","2","4","5","4","3","766385413542907906","梁","514","","","","","","","","","","","","","","","","","","","true","13","3","moral","524","negative","不孝","","","","","","","","","","","","","","","","",""
"null","","null","html-keyboard-response","75","240413","0.0-6.0-1.0-6.0-0.8","3","4","4","3","3","4","3","3","4","4","4","4","1","3","4","4","5","3","3","4","3","5","4","2","2","2","2","5","2","1","0","1","1","0","0","1","1","0","1","1","0","1","0","1","4","5","3","2","3","3","2","4","5","4","3","766385413542907906","梁","514","","","","","","","","","","","","","","","","","","","","","","","","","","","","","","","","","","","","","","","","","",""
"658","<p style=""color:rgb(150, 250, 100); font-size: 35px;"">我</p>","e","categorize-html","76","241073","0.0-6.0-1.0-6.0-1.8","3","4","4","3","3","4","3","3","4","4","4","4","1","3","4","4","5","3","3","4","3","5","4","2","2","2","2","5","2","1","0","1","1","0","0","1","1","0","1","1","0","1","0","1","4","5","3","2","3","3","2","4","5","4","3","766385413542907906","梁","514","","","","","","","","","","","","","","","","","","","true","13","3","moral","658","self","我","","","","","","","","","","","","","","","","",""
"null","","null","html-keyboard-response","77","241328","0.0-6.0-1.0-6.0-0.9","3","4","4","3","3","4","3","3","4","4","4","4","1","3","4","4","5","3","3","4","3","5","4","2","2","2","2","5","2","1","0","1","1","0","0","1","1","0","1","1","0","1","0","1","4","5","3","2","3","3","2","4","5","4","3","766385413542907906","梁","514","","","","","","","","","","","","","","","","","","","","","","","","","","","","","","","","","","","","","","","","","",""
"623","<p style=""color:white; font-size: 35px;"">正直</p>","e","categorize-html","78","241953","0.0-6.0-1.0-6.0-1.9","3","4","4","3","3","4","3","3","4","4","4","4","1","3","4","4","5","3","3","4","3","5","4","2","2","2","2","5","2","1","0","1","1","0","0","1","1","0","1","1","0","1","0","1","4","5","3","2","3","3","2","4","5","4","3","766385413542907906","梁","514","","","","","","","","","","","","","","","","","","","true","13","3","moral","623","positive","正直","","","","","","","","","","","","","","","","",""
"null","","null","html-keyboard-response","79","242204","0.0-6.0-1.0-6.0-0.10","3","4","4","3","3","4","3","3","4","4","4","4","1","3","4","4","5","3","3","4","3","5","4","2","2","2","2","5","2","1","0","1","1","0","0","1","1","0","1","1","0","1","0","1","4","5","3","2","3","3","2","4","5","4","3","766385413542907906","梁","514","","","","","","","","","","","","","","","","","","","","","","","","","","","","","","","","","","","","","","","","","",""
"563","<p style=""color:rgb(150, 250, 100); font-size: 35px;"">他人的</p>","i","categorize-html","80","242770","0.0-6.0-1.0-6.0-1.10","3","4","4","3","3","4","3","3","4","4","4","4","1","3","4","4","5","3","3","4","3","5","4","2","2","2","2","5","2","1","0","1","1","0","0","1","1","0","1","1","0","1","0","1","4","5","3","2","3","3","2","4","5","4","3","766385413542907906","梁","514","","","","","","","","","","","","","","","","","","","true","13","3","moral","563","other","他人的","","","","","","","","","","","","","","","","",""
"null","","null","html-keyboard-response","81","243022","0.0-6.0-1.0-6.0-0.11","3","4","4","3","3","4","3","3","4","4","4","4","1","3","4","4","5","3","3","4","3","5","4","2","2","2","2","5","2","1","0","1","1","0","0","1","1","0","1","1","0","1","0","1","4","5","3","2","3","3","2","4","5","4","3","766385413542907906","梁","514","","","","","","","","","","","","","","","","","","","","","","","","","","","","","","","","","","","","","","","","","",""
"513","<p style=""color:white; font-size: 35px;"">卑鄙</p>","i","categorize-html","82","243537","0.0-6.0-1.0-6.0-1.11","3","4","4","3","3","4","3","3","4","4","4","4","1","3","4","4","5","3","3","4","3","5","4","2","2","2","2","5","2","1","0","1","1","0","0","1","1","0","1","1","0","1","0","1","4","5","3","2","3","3","2","4","5","4","3","766385413542907906","梁","514","","","","","","","","","","","","","","","","","","","true","13","3","moral","513","negative","卑鄙","","","","","","","","","","","","","","","","",""
"null","","null","html-keyboard-response","83","243790","0.0-6.0-1.0-6.0-0.12","3","4","4","3","3","4","3","3","4","4","4","4","1","3","4","4","5","3","3","4","3","5","4","2","2","2","2","5","2","1","0","1","1","0","0","1","1","0","1","1","0","1","0","1","4","5","3","2","3","3","2","4","5","4","3","766385413542907906","梁","514","","","","","","","","","","","","","","","","","","","","","","","","","","","","","","","","","","","","","","","","","",""
"545","<p style=""color:rgb(150, 250, 100); font-size: 35px;"">他</p>","i","categorize-html","84","244338","0.0-6.0-1.0-6.0-1.12","3","4","4","3","3","4","3","3","4","4","4","4","1","3","4","4","5","3","3","4","3","5","4","2","2","2","2","5","2","1","0","1","1","0","0","1","1","0","1","1","0","1","0","1","4","5","3","2","3","3","2","4","5","4","3","766385413542907906","梁","514","","","","","","","","","","","","","","","","","","","true","13","3","moral","545","other","他","","","","","","","","","","","","","","","","",""
"null","","null","html-keyboard-response","85","244591","0.0-6.0-1.0-6.0-0.13","3","4","4","3","3","4","3","3","4","4","4","4","1","3","4","4","5","3","3","4","3","5","4","2","2","2","2","5","2","1","0","1","1","0","0","1","1","0","1","1","0","1","0","1","4","5","3","2","3","3","2","4","5","4","3","766385413542907906","梁","514","","","","","","","","","","","","","","","","","","","","","","","","","","","","","","","","","","","","","","","","","",""
"632","<p style=""color:white; font-size: 35px;"">君子</p>","e","categorize-html","86","245225","0.0-6.0-1.0-6.0-1.13","3","4","4","3","3","4","3","3","4","4","4","4","1","3","4","4","5","3","3","4","3","5","4","2","2","2","2","5","2","1","0","1","1","0","0","1","1","0","1","1","0","1","0","1","4","5","3","2","3","3","2","4","5","4","3","766385413542907906","梁","514","","","","","","","","","","","","","","","","","","","true","13","3","moral","632","positive","君子","","","","","","","","","","","","","","","","",""
"null","","null","html-keyboard-response","87","245490","0.0-6.0-1.0-6.0-0.14","3","4","4","3","3","4","3","3","4","4","4","4","1","3","4","4","5","3","3","4","3","5","4","2","2","2","2","5","2","1","0","1","1","0","0","1","1","0","1","1","0","1","0","1","4","5","3","2","3","3","2","4","5","4","3","766385413542907906","梁","514","","","","","","","","","","","","","","","","","","","","","","","","","","","","","","","","","","","","","","","","","",""
"588","<p style=""color:rgb(150, 250, 100); font-size: 35px;"">自己的</p>","e","categorize-html","88","246081","0.0-6.0-1.0-6.0-1.14","3","4","4","3","3","4","3","3","4","4","4","4","1","3","4","4","5","3","3","4","3","5","4","2","2","2","2","5","2","1","0","1","1","0","0","1","1","0","1","1","0","1","0","1","4","5","3","2","3","3","2","4","5","4","3","766385413542907906","梁","514","","","","","","","","","","","","","","","","","","","true","13","3","moral","588","self","自己的","","","","","","","","","","","","","","","","",""
"null","","null","html-keyboard-response","89","246332","0.0-6.0-1.0-6.0-0.15","3","4","4","3","3","4","3","3","4","4","4","4","1","3","4","4","5","3","3","4","3","5","4","2","2","2","2","5","2","1","0","1","1","0","0","1","1","0","1","1","0","1","0","1","4","5","3","2","3","3","2","4","5","4","3","766385413542907906","梁","514","","","","","","","","","","","","","","","","","","","","","","","","","","","","","","","","","","","","","","","","","",""
"787","<p style=""color:white; font-size: 35px;"">小人</p>","i","categorize-html","90","247123","0.0-6.0-1.0-6.0-1.15","3","4","4","3","3","4","3","3","4","4","4","4","1","3","4","4","5","3","3","4","3","5","4","2","2","2","2","5","2","1","0","1","1","0","0","1","1","0","1","1","0","1","0","1","4","5","3","2","3","3","2","4","5","4","3","766385413542907906","梁","514","","","","","","","","","","","","","","","","","","","true","13","3","moral","787","negative","小人","","","","","","","","","","","","","","","","",""
"null","","null","html-keyboard-response","91","247375","0.0-6.0-1.0-6.0-0.16","3","4","4","3","3","4","3","3","4","4","4","4","1","3","4","4","5","3","3","4","3","5","4","2","2","2","2","5","2","1","0","1","1","0","0","1","1","0","1","1","0","1","0","1","4","5","3","2","3","3","2","4","5","4","3","766385413542907906","梁","514","","","","","","","","","","","","","","","","","","","","","","","","","","","","","","","","","","","","","","","","","",""
"608","<p style=""color:rgb(150, 250, 100); font-size: 35px;"">他的</p>","i","categorize-html","92","247985","0.0-6.0-1.0-6.0-1.16","3","4","4","3","3","4","3","3","4","4","4","4","1","3","4","4","5","3","3","4","3","5","4","2","2","2","2","5","2","1","0","1","1","0","0","1","1","0","1","1","0","1","0","1","4","5","3","2","3","3","2","4","5","4","3","766385413542907906","梁","514","","","","","","","","","","","","","","","","","","","true","13","3","moral","608","other","他的","","","","","","","","","","","","","","","","",""
"null","","null","html-keyboard-response","93","248236","0.0-6.0-1.0-6.0-0.17","3","4","4","3","3","4","3","3","4","4","4","4","1","3","4","4","5","3","3","4","3","5","4","2","2","2","2","5","2","1","0","1","1","0","0","1","1","0","1","1","0","1","0","1","4","5","3","2","3","3","2","4","5","4","3","766385413542907906","梁","514","","","","","","","","","","","","","","","","","","","","","","","","","","","","","","","","","","","","","","","","","",""
"1110","<p style=""color:white; font-size: 35px;"">缺德</p>","i","categorize-html","94","249348","0.0-6.0-1.0-6.0-1.17","3","4","4","3","3","4","3","3","4","4","4","4","1","3","4","4","5","3","3","4","3","5","4","2","2","2","2","5","2","1","0","1","1","0","0","1","1","0","1","1","0","1","0","1","4","5","3","2","3","3","2","4","5","4","3","766385413542907906","梁","514","","","","","","","","","","","","","","","","","","","true","13","3","moral","1110","negative","缺德","","","","","","","","","","","","","","","","",""
"null","","null","html-keyboard-response","95","249600","0.0-6.0-1.0-6.0-0.18","3","4","4","3","3","4","3","3","4","4","4","4","1","3","4","4","5","3","3","4","3","5","4","2","2","2","2","5","2","1","0","1","1","0","0","1","1","0","1","1","0","1","0","1","4","5","3","2","3","3","2","4","5","4","3","766385413542907906","梁","514","","","","","","","","","","","","","","","","","","","","","","","","","","","","","","","","","","","","","","","","","",""
"634","<p style=""color:rgb(150, 250, 100); font-size: 35px;"">本人的</p>","e","categorize-html","96","250236","0.0-6.0-1.0-6.0-1.18","3","4","4","3","3","4","3","3","4","4","4","4","1","3","4","4","5","3","3","4","3","5","4","2","2","2","2","5","2","1","0","1","1","0","0","1","1","0","1","1","0","1","0","1","4","5","3","2","3","3","2","4","5","4","3","766385413542907906","梁","514","","","","","","","","","","","","","","","","","","","true","13","3","moral","634","self","本人的","","","","","","","","","","","","","","","","",""
"null","","null","html-keyboard-response","97","250487","0.0-6.0-1.0-6.0-0.19","3","4","4","3","3","4","3","3","4","4","4","4","1","3","4","4","5","3","3","4","3","5","4","2","2","2","2","5","2","1","0","1","1","0","0","1","1","0","1","1","0","1","0","1","4","5","3","2","3","3","2","4","5","4","3","766385413542907906","梁","514","","","","","","","","","","","","","","","","","","","","","","","","","","","","","","","","","","","","","","","","","",""
"592","<p style=""color:white; font-size: 35px;"">廉正</p>","e","categorize-html","98","251081","0.0-6.0-1.0-6.0-1.19","3","4","4","3","3","4","3","3","4","4","4","4","1","3","4","4","5","3","3","4","3","5","4","2","2","2","2","5","2","1","0","1","1","0","0","1","1","0","1","1","0","1","0","1","4","5","3","2","3","3","2","4","5","4","3","766385413542907906","梁","514","","","","","","","","","","","","","","","","","","","true","13","3","moral","592","positive","廉正","","","","","","","","","","","","","","","","",""
"null","","null","html-keyboard-response","99","251337","0.0-6.0-1.0-6.0-0.20","3","4","4","3","3","4","3","3","4","4","4","4","1","3","4","4","5","3","3","4","3","5","4","2","2","2","2","5","2","1","0","1","1","0","0","1","1","0","1","1","0","1","0","1","4","5","3","2","3","3","2","4","5","4","3","766385413542907906","梁","514","","","","","","","","","","","","","","","","","","","","","","","","","","","","","","","","","","","","","","","","","",""
"726","<p style=""color:rgb(150, 250, 100); font-size: 35px;"">别人的</p>","i","categorize-html","100","252065","0.0-6.0-1.0-6.0-1.20","3","4","4","3","3","4","3","3","4","4","4","4","1","3","4","4","5","3","3","4","3","5","4","2","2","2","2","5","2","1","0","1","1","0","0","1","1","0","1","1","0","1","0","1","4","5","3","2","3","3","2","4","5","4","3","766385413542907906","梁","514","","","","","","","","","","","","","","","","","","","true","13","3","moral","726","other","别人的","","","","","","","","","","","","","","","","",""
"null","","null","html-keyboard-response","101","252317","0.0-6.0-1.0-6.0-0.21","3","4","4","3","3","4","3","3","4","4","4","4","1","3","4","4","5","3","3","4","3","5","4","2","2","2","2","5","2","1","0","1","1","0","0","1","1","0","1","1","0","1","0","1","4","5","3","2","3","3","2","4","5","4","3","766385413542907906","梁","514","","","","","","","","","","","","","","","","","","","","","","","","","","","","","","","","","","","","","","","","","",""
"634","<p style=""color:white; font-size: 35px;"">善良</p>","e","categorize-html","102","252954","0.0-6.0-1.0-6.0-1.21","3","4","4","3","3","4","3","3","4","4","4","4","1","3","4","4","5","3","3","4","3","5","4","2","2","2","2","5","2","1","0","1","1","0","0","1","1","0","1","1","0","1","0","1","4","5","3","2","3","3","2","4","5","4","3","766385413542907906","梁","514","","","","","","","","","","","","","","","","","","","true","13","3","moral","634","positive","善良","","","","","","","","","","","","","","","","",""
"null","","null","html-keyboard-response","103","253205","0.0-6.0-1.0-6.0-0.22","3","4","4","3","3","4","3","3","4","4","4","4","1","3","4","4","5","3","3","4","3","5","4","2","2","2","2","5","2","1","0","1","1","0","0","1","1","0","1","1","0","1","0","1","4","5","3","2","3","3","2","4","5","4","3","766385413542907906","梁","514","","","","","","","","","","","","","","","","","","","","","","","","","","","","","","","","","","","","","","","","","",""
"514","<p style=""color:rgb(150, 250, 100); font-size: 35px;"">本人</p>","e","categorize-html","104","253721","0.0-6.0-1.0-6.0-1.22","3","4","4","3","3","4","3","3","4","4","4","4","1","3","4","4","5","3","3","4","3","5","4","2","2","2","2","5","2","1","0","1","1","0","0","1","1","0","1","1","0","1","0","1","4","5","3","2","3","3","2","4","5","4","3","766385413542907906","梁","514","","","","","","","","","","","","","","","","","","","true","13","3","moral","514","self","本人","","","","","","","","","","","","","","","","",""
"null","","null","html-keyboard-response","105","253973","0.0-6.0-1.0-6.0-0.23","3","4","4","3","3","4","3","3","4","4","4","4","1","3","4","4","5","3","3","4","3","5","4","2","2","2","2","5","2","1","0","1","1","0","0","1","1","0","1","1","0","1","0","1","4","5","3","2","3","3","2","4","5","4","3","766385413542907906","梁","514","","","","","","","","","","","","","","","","","","","","","","","","","","","","","","","","","","","","","","","","","",""
"954","<p style=""color:white; font-size: 35px;"">不仁</p>","i","categorize-html","106","254929","0.0-6.0-1.0-6.0-1.23","3","4","4","3","3","4","3","3","4","4","4","4","1","3","4","4","5","3","3","4","3","5","4","2","2","2","2","5","2","1","0","1","1","0","0","1","1","0","1","1","0","1","0","1","4","5","3","2","3","3","2","4","5","4","3","766385413542907906","梁","514","","","","","","","","","","","","","","","","","","","true","13","3","moral","954","negative","不仁","","","","","","","","","","","","","","","","",""
"13518","
    <div class=""tag-bottom""><p>
    —— 任务4：对“自我/积极”词和“他人/消极”词分类 ——<p/>
    <span style=""color:#78DCE8""><b>与刚才的任务完全相同，请再次对这四类词语分类</b></span><p/>
    <span style=""color:#FFD866""><b>请根据上方标签的提示，尽可能正确并且快速地做出按键反应</b></span><p/>
    当按键错误时屏幕中会出现<span style=""color:red""> X </span>，需要按另一个键纠正才能继续<br/><p/>
    请把双手食指分别放在键盘的“E”键和“I”键上<p/>
    按<空格键>开始
    </p></div>"," ","html-keyboard-response","107","268448","0.0-6.0-1.0-7.0","3","4","4","3","3","4","3","3","4","4","4","4","1","3","4","4","5","3","3","4","3","5","4","2","2","2","2","5","2","1","0","1","1","0","0","1","1","0","1","1","0","1","0","1","4","5","3","2","3","3","2","4","5","4","3","766385413542907906","梁","514","","","","","","","","","","","","","","","","","","","","","","","","","","","","","","","","","","","","","","","","","",""
"null","","null","html-keyboard-response","108","268699","0.0-6.0-1.0-8.0-0.0","3","4","4","3","3","4","3","3","4","4","4","4","1","3","4","4","5","3","3","4","3","5","4","2","2","2","2","5","2","1","0","1","1","0","0","1","1","0","1","1","0","1","0","1","4","5","3","2","3","3","2","4","5","4","3","766385413542907906","梁","514","","","","","","","","","","","","","","","","","","","","","","","","","","","","","","","","","","","","","","","","","",""
"1459","<p style=""color:rgb(150, 250, 100); font-size: 35px;"">本人的</p>","e","categorize-html","109","270161","0.0-6.0-1.0-8.0-1.0","3","4","4","3","3","4","3","3","4","4","4","4","1","3","4","4","5","3","3","4","3","5","4","2","2","2","2","5","2","1","0","1","1","0","0","1","1","0","1","1","0","1","0","1","4","5","3","2","3","3","2","4","5","4","3","766385413542907906","梁","514","","","","","","","","","","","","","","","","","","","true","14","4","moral","1459","self","本人的","","","","","","","","","","","","","","","","",""
"null","","null","html-keyboard-response","110","270412","0.0-6.0-1.0-8.0-0.1","3","4","4","3","3","4","3","3","4","4","4","4","1","3","4","4","5","3","3","4","3","5","4","2","2","2","2","5","2","1","0","1","1","0","0","1","1","0","1","1","0","1","0","1","4","5","3","2","3","3","2","4","5","4","3","766385413542907906","梁","514","","","","","","","","","","","","","","","","","","","","","","","","","","","","","","","","","","","","","","","","","",""
"580","<p style=""color:white; font-size: 35px;"">廉正</p>","e","categorize-html","111","270993","0.0-6.0-1.0-8.0-1.1","3","4","4","3","3","4","3","3","4","4","4","4","1","3","4","4","5","3","3","4","3","5","4","2","2","2","2","5","2","1","0","1","1","0","0","1","1","0","1","1","0","1","0","1","4","5","3","2","3","3","2","4","5","4","3","766385413542907906","梁","514","","","","","","","","","","","","","","","","","","","true","14","4","moral","580","positive","廉正","","","","","","","","","","","","","","","","",""
"null","","null","html-keyboard-response","112","271245","0.0-6.0-1.0-8.0-0.2","3","4","4","3","3","4","3","3","4","4","4","4","1","3","4","4","5","3","3","4","3","5","4","2","2","2","2","5","2","1","0","1","1","0","0","1","1","0","1","1","0","1","0","1","4","5","3","2","3","3","2","4","5","4","3","766385413542907906","梁","514","","","","","","","","","","","","","","","","","","","","","","","","","","","","","","","","","","","","","","","","","",""
"490","<p style=""color:rgb(150, 250, 100); font-size: 35px;"">别人的</p>","i","categorize-html","113","271737","0.0-6.0-1.0-8.0-1.2","3","4","4","3","3","4","3","3","4","4","4","4","1","3","4","4","5","3","3","4","3","5","4","2","2","2","2","5","2","1","0","1","1","0","0","1","1","0","1","1","0","1","0","1","4","5","3","2","3","3","2","4","5","4","3","766385413542907906","梁","514","","","","","","","","","","","","","","","","","","","true","14","4","moral","490","other","别人的","","","","","","","","","","","","","","","","",""
"null","","null","html-keyboard-response","114","271988","0.0-6.0-1.0-8.0-0.3","3","4","4","3","3","4","3","3","4","4","4","4","1","3","4","4","5","3","3","4","3","5","4","2","2","2","2","5","2","1","0","1","1","0","0","1","1","0","1","1","0","1","0","1","4","5","3","2","3","3","2","4","5","4","3","766385413542907906","梁","514","","","","","","","","","","","","","","","","","","","","","","","","","","","","","","","","","","","","","","","","","",""
"452","<p style=""color:white; font-size: 35px;"">不孝</p>","i","categorize-html","115","272443","0.0-6.0-1.0-8.0-1.3","3","4","4","3","3","4","3","3","4","4","4","4","1","3","4","4","5","3","3","4","3","5","4","2","2","2","2","5","2","1","0","1","1","0","0","1","1","0","1","1","0","1","0","1","4","5","3","2","3","3","2","4","5","4","3","766385413542907906","梁","514","","","","","","","","","","","","","","","","","","","true","14","4","moral","452","negative","不孝","","","","","","","","","","","","","","","","",""
"null","","null","html-keyboard-response","116","272695","0.0-6.0-1.0-8.0-0.4","3","4","4","3","3","4","3","3","4","4","4","4","1","3","4","4","5","3","3","4","3","5","4","2","2","2","2","5","2","1","0","1","1","0","0","1","1","0","1","1","0","1","0","1","4","5","3","2","3","3","2","4","5","4","3","766385413542907906","梁","514","","","","","","","","","","","","","","","","","","","","","","","","","","","","","","","","","","","","","","","","","",""
"505","<p style=""color:rgb(150, 250, 100); font-size: 35px;"">自己</p>","e","categorize-html","117","273202","0.0-6.0-1.0-8.0-1.4","3","4","4","3","3","4","3","3","4","4","4","4","1","3","4","4","5","3","3","4","3","5","4","2","2","2","2","5","2","1","0","1","1","0","0","1","1","0","1","1","0","1","0","1","4","5","3","2","3","3","2","4","5","4","3","766385413542907906","梁","514","","","","","","","","","","","","","","","","","","","true","14","4","moral","505","self","自己","","","","","","","","","","","","","","","","",""
"null","","null","html-keyboard-response","118","273465","0.0-6.0-1.0-8.0-0.5","3","4","4","3","3","4","3","3","4","4","4","4","1","3","4","4","5","3","3","4","3","5","4","2","2","2","2","5","2","1","0","1","1","0","0","1","1","0","1","1","0","1","0","1","4","5","3","2","3","3","2","4","5","4","3","766385413542907906","梁","514","","","","","","","","","","","","","","","","","","","","","","","","","","","","","","","","","","","","","","","","","",""
"494","<p style=""color:white; font-size: 35px;"">正直</p>","e","categorize-html","119","273961","0.0-6.0-1.0-8.0-1.5","3","4","4","3","3","4","3","3","4","4","4","4","1","3","4","4","5","3","3","4","3","5","4","2","2","2","2","5","2","1","0","1","1","0","0","1","1","0","1","1","0","1","0","1","4","5","3","2","3","3","2","4","5","4","3","766385413542907906","梁","514","","","","","","","","","","","","","","","","","","","true","14","4","moral","494","positive","正直","","","","","","","","","","","","","","","","",""
"null","","null","html-keyboard-response","120","274212","0.0-6.0-1.0-8.0-0.6","3","4","4","3","3","4","3","3","4","4","4","4","1","3","4","4","5","3","3","4","3","5","4","2","2","2","2","5","2","1","0","1","1","0","0","1","1","0","1","1","0","1","0","1","4","5","3","2","3","3","2","4","5","4","3","766385413542907906","梁","514","","","","","","","","","","","","","","","","","","","","","","","","","","","","","","","","","","","","","","","","","",""
"540","<p style=""color:rgb(150, 250, 100); font-size: 35px;"">他人</p>","i","categorize-html","121","274755","0.0-6.0-1.0-8.0-1.6","3","4","4","3","3","4","3","3","4","4","4","4","1","3","4","4","5","3","3","4","3","5","4","2","2","2","2","5","2","1","0","1","1","0","0","1","1","0","1","1","0","1","0","1","4","5","3","2","3","3","2","4","5","4","3","766385413542907906","梁","514","","","","","","","","","","","","","","","","","","","true","14","4","moral","540","other","他人","","","","","","","","","","","","","","","","",""
"null","","null","html-keyboard-response","122","275006","0.0-6.0-1.0-8.0-0.7","3","4","4","3","3","4","3","3","4","4","4","4","1","3","4","4","5","3","3","4","3","5","4","2","2","2","2","5","2","1","0","1","1","0","0","1","1","0","1","1","0","1","0","1","4","5","3","2","3","3","2","4","5","4","3","766385413542907906","梁","514","","","","","","","","","","","","","","","","","","","","","","","","","","","","","","","","","","","","","","","","","",""
"417","<p style=""color:white; font-size: 35px;"">卑鄙</p>","i","categorize-html","123","275425","0.0-6.0-1.0-8.0-1.7","3","4","4","3","3","4","3","3","4","4","4","4","1","3","4","4","5","3","3","4","3","5","4","2","2","2","2","5","2","1","0","1","1","0","0","1","1","0","1","1","0","1","0","1","4","5","3","2","3","3","2","4","5","4","3","766385413542907906","梁","514","","","","","","","","","","","","","","","","","","","true","14","4","moral","417","negative","卑鄙","","","","","","","","","","","","","","","","",""
"null","","null","html-keyboard-response","124","275676","0.0-6.0-1.0-8.0-0.8","3","4","4","3","3","4","3","3","4","4","4","4","1","3","4","4","5","3","3","4","3","5","4","2","2","2","2","5","2","1","0","1","1","0","0","1","1","0","1","1","0","1","0","1","4","5","3","2","3","3","2","4","5","4","3","766385413542907906","梁","514","","","","","","","","","","","","","","","","","","","","","","","","","","","","","","","","","","","","","","","","","",""
"547","<p style=""color:rgb(150, 250, 100); font-size: 35px;"">他人的</p>","i","categorize-html","125","276225","0.0-6.0-1.0-8.0-1.8","3","4","4","3","3","4","3","3","4","4","4","4","1","3","4","4","5","3","3","4","3","5","4","2","2","2","2","5","2","1","0","1","1","0","0","1","1","0","1","1","0","1","0","1","4","5","3","2","3","3","2","4","5","4","3","766385413542907906","梁","514","","","","","","","","","","","","","","","","","","","true","14","4","moral","547","other","他人的","","","","","","","","","","","","","","","","",""
"null","","null","html-keyboard-response","126","276476","0.0-6.0-1.0-8.0-0.9","3","4","4","3","3","4","3","3","4","4","4","4","1","3","4","4","5","3","3","4","3","5","4","2","2","2","2","5","2","1","0","1","1","0","0","1","1","0","1","1","0","1","0","1","4","5","3","2","3","3","2","4","5","4","3","766385413542907906","梁","514","","","","","","","","","","","","","","","","","","","","","","","","","","","","","","","","","","","","","","","","","",""
"427","<p style=""color:white; font-size: 35px;"">缺德</p>","i","categorize-html","127","276905","0.0-6.0-1.0-8.0-1.9","3","4","4","3","3","4","3","3","4","4","4","4","1","3","4","4","5","3","3","4","3","5","4","2","2","2","2","5","2","1","0","1","1","0","0","1","1","0","1","1","0","1","0","1","4","5","3","2","3","3","2","4","5","4","3","766385413542907906","梁","514","","","","","","","","","","","","","","","","","","","true","14","4","moral","427","negative","缺德","","","","","","","","","","","","","","","","",""
"null","","null","html-keyboard-response","128","277156","0.0-6.0-1.0-8.0-0.10","3","4","4","3","3","4","3","3","4","4","4","4","1","3","4","4","5","3","3","4","3","5","4","2","2","2","2","5","2","1","0","1","1","0","0","1","1","0","1","1","0","1","0","1","4","5","3","2","3","3","2","4","5","4","3","766385413542907906","梁","514","","","","","","","","","","","","","","","","","","","","","","","","","","","","","","","","","","","","","","","","","",""
"492","<p style=""color:rgb(150, 250, 100); font-size: 35px;"">自己的</p>","e","categorize-html","129","277651","0.0-6.0-1.0-8.0-1.10","3","4","4","3","3","4","3","3","4","4","4","4","1","3","4","4","5","3","3","4","3","5","4","2","2","2","2","5","2","1","0","1","1","0","0","1","1","0","1","1","0","1","0","1","4","5","3","2","3","3","2","4","5","4","3","766385413542907906","梁","514","","","","","","","","","","","","","","","","","","","true","14","4","moral","492","self","自己的","","","","","","","","","","","","","","","","",""
"null","","null","html-keyboard-response","130","277902","0.0-6.0-1.0-8.0-0.11","3","4","4","3","3","4","3","3","4","4","4","4","1","3","4","4","5","3","3","4","3","5","4","2","2","2","2","5","2","1","0","1","1","0","0","1","1","0","1","1","0","1","0","1","4","5","3","2","3","3","2","4","5","4","3","766385413542907906","梁","514","","","","","","","","","","","","","","","","","","","","","","","","","","","","","","","","","","","","","","","","","",""
"515","<p style=""color:white; font-size: 35px;"">君子</p>","e","categorize-html","131","278419","0.0-6.0-1.0-8.0-1.11","3","4","4","3","3","4","3","3","4","4","4","4","1","3","4","4","5","3","3","4","3","5","4","2","2","2","2","5","2","1","0","1","1","0","0","1","1","0","1","1","0","1","0","1","4","5","3","2","3","3","2","4","5","4","3","766385413542907906","梁","514","","","","","","","","","","","","","","","","","","","true","14","4","moral","515","positive","君子","","","","","","","","","","","","","","","","",""
"null","","null","html-keyboard-response","132","278670","0.0-6.0-1.0-8.0-0.12","3","4","4","3","3","4","3","3","4","4","4","4","1","3","4","4","5","3","3","4","3","5","4","2","2","2","2","5","2","1","0","1","1","0","0","1","1","0","1","1","0","1","0","1","4","5","3","2","3","3","2","4","5","4","3","766385413542907906","梁","514","","","","","","","","","","","","","","","","","","","","","","","","","","","","","","","","","","","","","","","","","",""
"552","<p style=""color:rgb(150, 250, 100); font-size: 35px;"">他的</p>","i","categorize-html","133","279225","0.0-6.0-1.0-8.0-1.12","3","4","4","3","3","4","3","3","4","4","4","4","1","3","4","4","5","3","3","4","3","5","4","2","2","2","2","5","2","1","0","1","1","0","0","1","1","0","1","1","0","1","0","1","4","5","3","2","3","3","2","4","5","4","3","766385413542907906","梁","514","","","","","","","","","","","","","","","","","","","true","14","4","moral","552","other","他的","","","","","","","","","","","","","","","","",""
"null","","null","html-keyboard-response","134","279476","0.0-6.0-1.0-8.0-0.13","3","4","4","3","3","4","3","3","4","4","4","4","1","3","4","4","5","3","3","4","3","5","4","2","2","2","2","5","2","1","0","1","1","0","0","1","1","0","1","1","0","1","0","1","4","5","3","2","3","3","2","4","5","4","3","766385413542907906","梁","514","","","","","","","","","","","","","","","","","","","","","","","","","","","","","","","","","","","","","","","","","",""
"1043","<p style=""color:white; font-size: 35px;"">缺德</p>","i","categorize-html","135","280521","0.0-6.0-1.0-8.0-1.13","3","4","4","3","3","4","3","3","4","4","4","4","1","3","4","4","5","3","3","4","3","5","4","2","2","2","2","5","2","1","0","1","1","0","0","1","1","0","1","1","0","1","0","1","4","5","3","2","3","3","2","4","5","4","3","766385413542907906","梁","514","","","","","","","","","","","","","","","","","","","true","14","4","moral","1043","negative","缺德","","","","","","","","","","","","","","","","",""
"null","","null","html-keyboard-response","136","280771","0.0-6.0-1.0-8.0-0.14","3","4","4","3","3","4","3","3","4","4","4","4","1","3","4","4","5","3","3","4","3","5","4","2","2","2","2","5","2","1","0","1","1","0","0","1","1","0","1","1","0","1","0","1","4","5","3","2","3","3","2","4","5","4","3","766385413542907906","梁","514","","","","","","","","","","","","","","","","","","","","","","","","","","","","","","","","","","","","","","","","","",""
"580","<p style=""color:rgb(150, 250, 100); font-size: 35px;"">本人的</p>","e","categorize-html","137","281354","0.0-6.0-1.0-8.0-1.14","3","4","4","3","3","4","3","3","4","4","4","4","1","3","4","4","5","3","3","4","3","5","4","2","2","2","2","5","2","1","0","1","1","0","0","1","1","0","1","1","0","1","0","1","4","5","3","2","3","3","2","4","5","4","3","766385413542907906","梁","514","","","","","","","","","","","","","","","","","","","true","14","4","moral","580","self","本人的","","","","","","","","","","","","","","","","",""
"null","","null","html-keyboard-response","138","281605","0.0-6.0-1.0-8.0-0.15","3","4","4","3","3","4","3","3","4","4","4","4","1","3","4","4","5","3","3","4","3","5","4","2","2","2","2","5","2","1","0","1","1","0","0","1","1","0","1","1","0","1","0","1","4","5","3","2","3","3","2","4","5","4","3","766385413542907906","梁","514","","","","","","","","","","","","","","","","","","","","","","","","","","","","","","","","","","","","","","","","","",""
"985","<p style=""color:white; font-size: 35px;"">善良</p>","e","categorize-html","139","282593","0.0-6.0-1.0-8.0-1.15","3","4","4","3","3","4","3","3","4","4","4","4","1","3","4","4","5","3","3","4","3","5","4","2","2","2","2","5","2","1","0","1","1","0","0","1","1","0","1","1","0","1","0","1","4","5","3","2","3","3","2","4","5","4","3","766385413542907906","梁","514","","","","","","","","","","","","","","","","","","","true","14","4","moral","985","positive","善良","","","","","","","","","","","","","","","","",""
"null","","null","html-keyboard-response","140","282843","0.0-6.0-1.0-8.0-0.16","3","4","4","3","3","4","3","3","4","4","4","4","1","3","4","4","5","3","3","4","3","5","4","2","2","2","2","5","2","1","0","1","1","0","0","1","1","0","1","1","0","1","0","1","4","5","3","2","3","3","2","4","5","4","3","766385413542907906","梁","514","","","","","","","","","","","","","","","","","","","","","","","","","","","","","","","","","","","","","","","","","",""
"804","<p style=""color:rgb(150, 250, 100); font-size: 35px;"">他</p>","i","categorize-html","141","283651","0.0-6.0-1.0-8.0-1.16","3","4","4","3","3","4","3","3","4","4","4","4","1","3","4","4","5","3","3","4","3","5","4","2","2","2","2","5","2","1","0","1","1","0","0","1","1","0","1","1","0","1","0","1","4","5","3","2","3","3","2","4","5","4","3","766385413542907906","梁","514","","","","","","","","","","","","","","","","","","","true","14","4","moral","804","other","他","","","","","","","","","","","","","","","","",""
"null","","null","html-keyboard-response","142","283902","0.0-6.0-1.0-8.0-0.17","3","4","4","3","3","4","3","3","4","4","4","4","1","3","4","4","5","3","3","4","3","5","4","2","2","2","2","5","2","1","0","1","1","0","0","1","1","0","1","1","0","1","0","1","4","5","3","2","3","3","2","4","5","4","3","766385413542907906","梁","514","","","","","","","","","","","","","","","","","","","","","","","","","","","","","","","","","","","","","","","","","",""
"839","<p style=""color:white; font-size: 35px;"">卑鄙</p>","i","categorize-html","143","284745","0.0-6.0-1.0-8.0-1.17","3","4","4","3","3","4","3","3","4","4","4","4","1","3","4","4","5","3","3","4","3","5","4","2","2","2","2","5","2","1","0","1","1","0","0","1","1","0","1","1","0","1","0","1","4","5","3","2","3","3","2","4","5","4","3","766385413542907906","梁","514","","","","","","","","","","","","","","","","","","","true","14","4","moral","839","negative","卑鄙","","","","","","","","","","","","","","","","",""
"null","","null","html-keyboard-response","144","284996","0.0-6.0-1.0-8.0-0.18","3","4","4","3","3","4","3","3","4","4","4","4","1","3","4","4","5","3","3","4","3","5","4","2","2","2","2","5","2","1","0","1","1","0","0","1","1","0","1","1","0","1","0","1","4","5","3","2","3","3","2","4","5","4","3","766385413542907906","梁","514","","","","","","","","","","","","","","","","","","","","","","","","","","","","","","","","","","","","","","","","","",""
"555","<p style=""color:rgb(150, 250, 100); font-size: 35px;"">自己的</p>","e","categorize-html","145","285554","0.0-6.0-1.0-8.0-1.18","3","4","4","3","3","4","3","3","4","4","4","4","1","3","4","4","5","3","3","4","3","5","4","2","2","2","2","5","2","1","0","1","1","0","0","1","1","0","1","1","0","1","0","1","4","5","3","2","3","3","2","4","5","4","3","766385413542907906","梁","514","","","","","","","","","","","","","","","","","","","true","14","4","moral","555","self","自己的","","","","","","","","","","","","","","","","",""
"null","","null","html-keyboard-response","146","285805","0.0-6.0-1.0-8.0-0.19","3","4","4","3","3","4","3","3","4","4","4","4","1","3","4","4","5","3","3","4","3","5","4","2","2","2","2","5","2","1","0","1","1","0","0","1","1","0","1","1","0","1","0","1","4","5","3","2","3","3","2","4","5","4","3","766385413542907906","梁","514","","","","","","","","","","","","","","","","","","","","","","","","","","","","","","","","","","","","","","","","","",""
"474","<p style=""color:white; font-size: 35px;"">正直</p>","e","categorize-html","147","286281","0.0-6.0-1.0-8.0-1.19","3","4","4","3","3","4","3","3","4","4","4","4","1","3","4","4","5","3","3","4","3","5","4","2","2","2","2","5","2","1","0","1","1","0","0","1","1","0","1","1","0","1","0","1","4","5","3","2","3","3","2","4","5","4","3","766385413542907906","梁","514","","","","","","","","","","","","","","","","","","","true","14","4","moral","474","positive","正直","","","","","","","","","","","","","","","","",""
"null","","null","html-keyboard-response","148","286532","0.0-6.0-1.0-8.0-0.20","3","4","4","3","3","4","3","3","4","4","4","4","1","3","4","4","5","3","3","4","3","5","4","2","2","2","2","5","2","1","0","1","1","0","0","1","1","0","1","1","0","1","0","1","4","5","3","2","3","3","2","4","5","4","3","766385413542907906","梁","514","","","","","","","","","","","","","","","","","","","","","","","","","","","","","","","","","","","","","","","","","",""
"386","<p style=""color:rgb(150, 250, 100); font-size: 35px;"">我的</p>","e","categorize-html","149","286921","0.0-6.0-1.0-8.0-1.20","3","4","4","3","3","4","3","3","4","4","4","4","1","3","4","4","5","3","3","4","3","5","4","2","2","2","2","5","2","1","0","1","1","0","0","1","1","0","1","1","0","1","0","1","4","5","3","2","3","3","2","4","5","4","3","766385413542907906","梁","514","","","","","","","","","","","","","","","","","","","true","14","4","moral","386","self","我的","","","","","","","","","","","","","","","","",""
"null","","null","html-keyboard-response","150","287172","0.0-6.0-1.0-8.0-0.21","3","4","4","3","3","4","3","3","4","4","4","4","1","3","4","4","5","3","3","4","3","5","4","2","2","2","2","5","2","1","0","1","1","0","0","1","1","0","1","1","0","1","0","1","4","5","3","2","3","3","2","4","5","4","3","766385413542907906","梁","514","","","","","","","","","","","","","","","","","","","","","","","","","","","","","","","","","","","","","","","","","",""
"427","<p style=""color:white; font-size: 35px;"">诚信</p>","e","categorize-html","151","287601","0.0-6.0-1.0-8.0-1.21","3","4","4","3","3","4","3","3","4","4","4","4","1","3","4","4","5","3","3","4","3","5","4","2","2","2","2","5","2","1","0","1","1","0","0","1","1","0","1","1","0","1","0","1","4","5","3","2","3","3","2","4","5","4","3","766385413542907906","梁","514","","","","","","","","","","","","","","","","","","","true","14","4","moral","427","positive","诚信","","","","","","","","","","","","","","","","",""
"null","","null","html-keyboard-response","152","287852","0.0-6.0-1.0-8.0-0.22","3","4","4","3","3","4","3","3","4","4","4","4","1","3","4","4","5","3","3","4","3","5","4","2","2","2","2","5","2","1","0","1","1","0","0","1","1","0","1","1","0","1","0","1","4","5","3","2","3","3","2","4","5","4","3","766385413542907906","梁","514","","","","","","","","","","","","","","","","","","","","","","","","","","","","","","","","","","","","","","","","","",""
"516","<p style=""color:rgb(150, 250, 100); font-size: 35px;"">别人</p>","i","categorize-html","153","288370","0.0-6.0-1.0-8.0-1.22","3","4","4","3","3","4","3","3","4","4","4","4","1","3","4","4","5","3","3","4","3","5","4","2","2","2","2","5","2","1","0","1","1","0","0","1","1","0","1","1","0","1","0","1","4","5","3","2","3","3","2","4","5","4","3","766385413542907906","梁","514","","","","","","","","","","","","","","","","","","","true","14","4","moral","516","other","别人","","","","","","","","","","","","","","","","",""
"null","","null","html-keyboard-response","154","288620","0.0-6.0-1.0-8.0-0.23","3","4","4","3","3","4","3","3","4","4","4","4","1","3","4","4","5","3","3","4","3","5","4","2","2","2","2","5","2","1","0","1","1","0","0","1","1","0","1","1","0","1","0","1","4","5","3","2","3","3","2","4","5","4","3","766385413542907906","梁","514","","","","","","","","","","","","","","","","","","","","","","","","","","","","","","","","","","","","","","","","","",""
"1747","<p style=""color:white; font-size: 35px;"">黑心</p>","i","categorize-html","155","290369","0.0-6.0-1.0-8.0-1.23","3","4","4","3","3","4","3","3","4","4","4","4","1","3","4","4","5","3","3","4","3","5","4","2","2","2","2","5","2","1","0","1","1","0","0","1","1","0","1","1","0","1","0","1","4","5","3","2","3","3","2","4","5","4","3","766385413542907906","梁","514","","","","","","","","","","","","","","","","","","","true","14","4","moral","1747","negative","黑心","","","","","","","","","","","","","","","","",""
"null","","null","html-keyboard-response","156","290621","0.0-6.0-1.0-8.0-0.24","3","4","4","3","3","4","3","3","4","4","4","4","1","3","4","4","5","3","3","4","3","5","4","2","2","2","2","5","2","1","0","1","1","0","0","1","1","0","1","1","0","1","0","1","4","5","3","2","3","3","2","4","5","4","3","766385413542907906","梁","514","","","","","","","","","","","","","","","","","","","","","","","","","","","","","","","","","","","","","","","","","",""
"594","<p style=""color:rgb(150, 250, 100); font-size: 35px;"">他人的</p>","i","categorize-html","157","291217","0.0-6.0-1.0-8.0-1.24","3","4","4","3","3","4","3","3","4","4","4","4","1","3","4","4","5","3","3","4","3","5","4","2","2","2","2","5","2","1","0","1","1","0","0","1","1","0","1","1","0","1","0","1","4","5","3","2","3","3","2","4","5","4","3","766385413542907906","梁","514","","","","","","","","","","","","","","","","","","","true","14","4","moral","594","other","他人的","","","","","","","","","","","","","","","","",""
"null","","null","html-keyboard-response","158","291468","0.0-6.0-1.0-8.0-0.25","3","4","4","3","3","4","3","3","4","4","4","4","1","3","4","4","5","3","3","4","3","5","4","2","2","2","2","5","2","1","0","1","1","0","0","1","1","0","1","1","0","1","0","1","4","5","3","2","3","3","2","4","5","4","3","766385413542907906","梁","514","","","","","","","","","","","","","","","","","","","","","","","","","","","","","","","","","","","","","","","","","",""
"1347","<p style=""color:white; font-size: 35px;"">高尚</p>","e","categorize-html","159","292817","0.0-6.0-1.0-8.0-1.25","3","4","4","3","3","4","3","3","4","4","4","4","1","3","4","4","5","3","3","4","3","5","4","2","2","2","2","5","2","1","0","1","1","0","0","1","1","0","1","1","0","1","0","1","4","5","3","2","3","3","2","4","5","4","3","766385413542907906","梁","514","","","","","","","","","","","","","","","","","","","true","14","4","moral","1347","positive","高尚","","","","","","","","","","","","","","","","",""
"null","","null","html-keyboard-response","160","293069","0.0-6.0-1.0-8.0-0.26","3","4","4","3","3","4","3","3","4","4","4","4","1","3","4","4","5","3","3","4","3","5","4","2","2","2","2","5","2","1","0","1","1","0","0","1","1","0","1","1","0","1","0","1","4","5","3","2","3","3","2","4","5","4","3","766385413542907906","梁","514","","","","","","","","","","","","","","","","","","","","","","","","","","","","","","","","","","","","","","","","","",""
"801","<p style=""color:rgb(150, 250, 100); font-size: 35px;"">我的</p>","e","categorize-html","161","293873","0.0-6.0-1.0-8.0-1.26","3","4","4","3","3","4","3","3","4","4","4","4","1","3","4","4","5","3","3","4","3","5","4","2","2","2","2","5","2","1","0","1","1","0","0","1","1","0","1","1","0","1","0","1","4","5","3","2","3","3","2","4","5","4","3","766385413542907906","梁","514","","","","","","","","","","","","","","","","","","","true","14","4","moral","801","self","我的","","","","","","","","","","","","","","","","",""
"null","","null","html-keyboard-response","162","294125","0.0-6.0-1.0-8.0-0.27","3","4","4","3","3","4","3","3","4","4","4","4","1","3","4","4","5","3","3","4","3","5","4","2","2","2","2","5","2","1","0","1","1","0","0","1","1","0","1","1","0","1","0","1","4","5","3","2","3","3","2","4","5","4","3","766385413542907906","梁","514","","","","","","","","","","","","","","","","","","","","","","","","","","","","","","","","","","","","","","","","","",""
"666","<p style=""color:white; font-size: 35px;"">不仁</p>","i","categorize-html","163","294792","0.0-6.0-1.0-8.0-1.27","3","4","4","3","3","4","3","3","4","4","4","4","1","3","4","4","5","3","3","4","3","5","4","2","2","2","2","5","2","1","0","1","1","0","0","1","1","0","1","1","0","1","0","1","4","5","3","2","3","3","2","4","5","4","3","766385413542907906","梁","514","","","","","","","","","","","","","","","","","","","true","14","4","moral","666","negative","不仁","","","","","","","","","","","","","","","","",""
"null","","null","html-keyboard-response","164","295043","0.0-6.0-1.0-8.0-0.28","3","4","4","3","3","4","3","3","4","4","4","4","1","3","4","4","5","3","3","4","3","5","4","2","2","2","2","5","2","1","0","1","1","0","0","1","1","0","1","1","0","1","0","1","4","5","3","2","3","3","2","4","5","4","3","766385413542907906","梁","514","","","","","","","","","","","","","","","","","","","","","","","","","","","","","","","","","","","","","","","","","",""
"836","<p style=""color:rgb(150, 250, 100); font-size: 35px;"">他</p>","i","categorize-html","165","295881","0.0-6.0-1.0-8.0-1.28","3","4","4","3","3","4","3","3","4","4","4","4","1","3","4","4","5","3","3","4","3","5","4","2","2","2","2","5","2","1","0","1","1","0","0","1","1","0","1","1","0","1","0","1","4","5","3","2","3","3","2","4","5","4","3","766385413542907906","梁","514","","","","","","","","","","","","","","","","","","","true","14","4","moral","836","other","他","","","","","","","","","","","","","","","","",""
"null","","null","html-keyboard-response","166","296132","0.0-6.0-1.0-8.0-0.29","3","4","4","3","3","4","3","3","4","4","4","4","1","3","4","4","5","3","3","4","3","5","4","2","2","2","2","5","2","1","0","1","1","0","0","1","1","0","1","1","0","1","0","1","4","5","3","2","3","3","2","4","5","4","3","766385413542907906","梁","514","","","","","","","","","","","","","","","","","","","","","","","","","","","","","","","","","","","","","","","","","",""
"563","<p style=""color:white; font-size: 35px;"">小人</p>","i","categorize-html","167","296697","0.0-6.0-1.0-8.0-1.29","3","4","4","3","3","4","3","3","4","4","4","4","1","3","4","4","5","3","3","4","3","5","4","2","2","2","2","5","2","1","0","1","1","0","0","1","1","0","1","1","0","1","0","1","4","5","3","2","3","3","2","4","5","4","3","766385413542907906","梁","514","","","","","","","","","","","","","","","","","","","true","14","4","moral","563","negative","小人","","","","","","","","","","","","","","","","",""
"null","","null","html-keyboard-response","168","296949","0.0-6.0-1.0-8.0-0.30","3","4","4","3","3","4","3","3","4","4","4","4","1","3","4","4","5","3","3","4","3","5","4","2","2","2","2","5","2","1","0","1","1","0","0","1","1","0","1","1","0","1","0","1","4","5","3","2","3","3","2","4","5","4","3","766385413542907906","梁","514","","","","","","","","","","","","","","","","","","","","","","","","","","","","","","","","","","","","","","","","","",""
"515","<p style=""color:rgb(150, 250, 100); font-size: 35px;"">我</p>","e","categorize-html","169","297466","0.0-6.0-1.0-8.0-1.30","3","4","4","3","3","4","3","3","4","4","4","4","1","3","4","4","5","3","3","4","3","5","4","2","2","2","2","5","2","1","0","1","1","0","0","1","1","0","1","1","0","1","0","1","4","5","3","2","3","3","2","4","5","4","3","766385413542907906","梁","514","","","","","","","","","","","","","","","","","","","true","14","4","moral","515","self","我","","","","","","","","","","","","","","","","",""
"null","","null","html-keyboard-response","170","297717","0.0-6.0-1.0-8.0-0.31","3","4","4","3","3","4","3","3","4","4","4","4","1","3","4","4","5","3","3","4","3","5","4","2","2","2","2","5","2","1","0","1","1","0","0","1","1","0","1","1","0","1","0","1","4","5","3","2","3","3","2","4","5","4","3","766385413542907906","梁","514","","","","","","","","","","","","","","","","","","","","","","","","","","","","","","","","","","","","","","","","","",""
"859","<p style=""color:white; font-size: 35px;"">善良</p>","e","categorize-html","171","298578","0.0-6.0-1.0-8.0-1.31","3","4","4","3","3","4","3","3","4","4","4","4","1","3","4","4","5","3","3","4","3","5","4","2","2","2","2","5","2","1","0","1","1","0","0","1","1","0","1","1","0","1","0","1","4","5","3","2","3","3","2","4","5","4","3","766385413542907906","梁","514","","","","","","","","","","","","","","","","","","","true","14","4","moral","859","positive","善良","","","","","","","","","","","","","","","","",""
"null","","null","html-keyboard-response","172","298829","0.0-6.0-1.0-8.0-0.32","3","4","4","3","3","4","3","3","4","4","4","4","1","3","4","4","5","3","3","4","3","5","4","2","2","2","2","5","2","1","0","1","1","0","0","1","1","0","1","1","0","1","0","1","4","5","3","2","3","3","2","4","5","4","3","766385413542907906","梁","514","","","","","","","","","","","","","","","","","","","","","","","","","","","","","","","","","","","","","","","","","",""
"682","<p style=""color:rgb(150, 250, 100); font-size: 35px;"">别人</p>","i","categorize-html","173","299513","0.0-6.0-1.0-8.0-1.32","3","4","4","3","3","4","3","3","4","4","4","4","1","3","4","4","5","3","3","4","3","5","4","2","2","2","2","5","2","1","0","1","1","0","0","1","1","0","1","1","0","1","0","1","4","5","3","2","3","3","2","4","5","4","3","766385413542907906","梁","514","","","","","","","","","","","","","","","","","","","true","14","4","moral","682","other","别人","","","","","","","","","","","","","","","","",""
"null","","null","html-keyboard-response","174","299764","0.0-6.0-1.0-8.0-0.33","3","4","4","3","3","4","3","3","4","4","4","4","1","3","4","4","5","3","3","4","3","5","4","2","2","2","2","5","2","1","0","1","1","0","0","1","1","0","1","1","0","1","0","1","4","5","3","2","3","3","2","4","5","4","3","766385413542907906","梁","514","","","","","","","","","","","","","","","","","","","","","","","","","","","","","","","","","","","","","","","","","",""
"1339","<p style=""color:white; font-size: 35px;"">黑心</p>","i","categorize-html","175","301105","0.0-6.0-1.0-8.0-1.33","3","4","4","3","3","4","3","3","4","4","4","4","1","3","4","4","5","3","3","4","3","5","4","2","2","2","2","5","2","1","0","1","1","0","0","1","1","0","1","1","0","1","0","1","4","5","3","2","3","3","2","4","5","4","3","766385413542907906","梁","514","","","","","","","","","","","","","","","","","","","true","14","4","moral","1339","negative","黑心","","","","","","","","","","","","","","","","",""
"null","","null","html-keyboard-response","176","301355","0.0-6.0-1.0-8.0-0.34","3","4","4","3","3","4","3","3","4","4","4","4","1","3","4","4","5","3","3","4","3","5","4","2","2","2","2","5","2","1","0","1","1","0","0","1","1","0","1","1","0","1","0","1","4","5","3","2","3","3","2","4","5","4","3","766385413542907906","梁","514","","","","","","","","","","","","","","","","","","","","","","","","","","","","","","","","","","","","","","","","","",""
"652","<p style=""color:rgb(150, 250, 100); font-size: 35px;"">本人</p>","e","categorize-html","177","302009","0.0-6.0-1.0-8.0-1.34","3","4","4","3","3","4","3","3","4","4","4","4","1","3","4","4","5","3","3","4","3","5","4","2","2","2","2","5","2","1","0","1","1","0","0","1","1","0","1","1","0","1","0","1","4","5","3","2","3","3","2","4","5","4","3","766385413542907906","梁","514","","","","","","","","","","","","","","","","","","","true","14","4","moral","652","self","本人","","","","","","","","","","","","","","","","",""
"null","","null","html-keyboard-response","178","302262","0.0-6.0-1.0-8.0-0.35","3","4","4","3","3","4","3","3","4","4","4","4","1","3","4","4","5","3","3","4","3","5","4","2","2","2","2","5","2","1","0","1","1","0","0","1","1","0","1","1","0","1","0","1","4","5","3","2","3","3","2","4","5","4","3","766385413542907906","梁","514","","","","","","","","","","","","","","","","","","","","","","","","","","","","","","","","","","","","","","","","","",""
"548","<p style=""color:white; font-size: 35px;"">廉正</p>","e","categorize-html","179","302811","0.0-6.0-1.0-8.0-1.35","3","4","4","3","3","4","3","3","4","4","4","4","1","3","4","4","5","3","3","4","3","5","4","2","2","2","2","5","2","1","0","1","1","0","0","1","1","0","1","1","0","1","0","1","4","5","3","2","3","3","2","4","5","4","3","766385413542907906","梁","514","","","","","","","","","","","","","","","","","","","true","14","4","moral","548","positive","廉正","","","","","","","","","","","","","","","","",""
"null","","null","html-keyboard-response","180","303062","0.0-6.0-1.0-8.0-0.36","3","4","4","3","3","4","3","3","4","4","4","4","1","3","4","4","5","3","3","4","3","5","4","2","2","2","2","5","2","1","0","1","1","0","0","1","1","0","1","1","0","1","0","1","4","5","3","2","3","3","2","4","5","4","3","766385413542907906","梁","514","","","","","","","","","","","","","","","","","","","","","","","","","","","","","","","","","","","","","","","","","",""
"994","<p style=""color:rgb(150, 250, 100); font-size: 35px;"">别人的</p>","i","categorize-html","181","304058","0.0-6.0-1.0-8.0-1.36","3","4","4","3","3","4","3","3","4","4","4","4","1","3","4","4","5","3","3","4","3","5","4","2","2","2","2","5","2","1","0","1","1","0","0","1","1","0","1","1","0","1","0","1","4","5","3","2","3","3","2","4","5","4","3","766385413542907906","梁","514","","","","","","","","","","","","","","","","","","","true","14","4","moral","994","other","别人的","","","","","","","","","","","","","","","","",""
"null","","null","html-keyboard-response","182","304309","0.0-6.0-1.0-8.0-0.37","3","4","4","3","3","4","3","3","4","4","4","4","1","3","4","4","5","3","3","4","3","5","4","2","2","2","2","5","2","1","0","1","1","0","0","1","1","0","1","1","0","1","0","1","4","5","3","2","3","3","2","4","5","4","3","766385413542907906","梁","514","","","","","","","","","","","","","","","","","","","","","","","","","","","","","","","","","","","","","","","","","",""
"546","<p style=""color:white; font-size: 35px;"">高尚</p>","e","categorize-html","183","304857","0.0-6.0-1.0-8.0-1.37","3","4","4","3","3","4","3","3","4","4","4","4","1","3","4","4","5","3","3","4","3","5","4","2","2","2","2","5","2","1","0","1","1","0","0","1","1","0","1","1","0","1","0","1","4","5","3","2","3","3","2","4","5","4","3","766385413542907906","梁","514","","","","","","","","","","","","","","","","","","","true","14","4","moral","546","positive","高尚","","","","","","","","","","","","","","","","",""
"null","","null","html-keyboard-response","184","305108","0.0-6.0-1.0-8.0-0.38","3","4","4","3","3","4","3","3","4","4","4","4","1","3","4","4","5","3","3","4","3","5","4","2","2","2","2","5","2","1","0","1","1","0","0","1","1","0","1","1","0","1","0","1","4","5","3","2","3","3","2","4","5","4","3","766385413542907906","梁","514","","","","","","","","","","","","","","","","","","","","","","","","","","","","","","","","","","","","","","","","","",""
"506","<p style=""color:rgb(150, 250, 100); font-size: 35px;"">本人</p>","e","categorize-html","185","305617","0.0-6.0-1.0-8.0-1.38","3","4","4","3","3","4","3","3","4","4","4","4","1","3","4","4","5","3","3","4","3","5","4","2","2","2","2","5","2","1","0","1","1","0","0","1","1","0","1","1","0","1","0","1","4","5","3","2","3","3","2","4","5","4","3","766385413542907906","梁","514","","","","","","","","","","","","","","","","","","","true","14","4","moral","506","self","本人","","","","","","","","","","","","","","","","",""
"null","","null","html-keyboard-response","186","305868","0.0-6.0-1.0-8.0-0.39","3","4","4","3","3","4","3","3","4","4","4","4","1","3","4","4","5","3","3","4","3","5","4","2","2","2","2","5","2","1","0","1","1","0","0","1","1","0","1","1","0","1","0","1","4","5","3","2","3","3","2","4","5","4","3","766385413542907906","梁","514","","","","","","","","","","","","","","","","","","","","","","","","","","","","","","","","","","","","","","","","","",""
"603","<p style=""color:white; font-size: 35px;"">不孝</p>","i","categorize-html","187","306474","0.0-6.0-1.0-8.0-1.39","3","4","4","3","3","4","3","3","4","4","4","4","1","3","4","4","5","3","3","4","3","5","4","2","2","2","2","5","2","1","0","1","1","0","0","1","1","0","1","1","0","1","0","1","4","5","3","2","3","3","2","4","5","4","3","766385413542907906","梁","514","","","","","","","","","","","","","","","","","","","true","14","4","moral","603","negative","不孝","","","","","","","","","","","","","","","","",""
"null","","null","html-keyboard-response","188","306726","0.0-6.0-1.0-8.0-0.40","3","4","4","3","3","4","3","3","4","4","4","4","1","3","4","4","5","3","3","4","3","5","4","2","2","2","2","5","2","1","0","1","1","0","0","1","1","0","1","1","0","1","0","1","4","5","3","2","3","3","2","4","5","4","3","766385413542907906","梁","514","","","","","","","","","","","","","","","","","","","","","","","","","","","","","","","","","","","","","","","","","",""
"658","<p style=""color:rgb(150, 250, 100); font-size: 35px;"">自己</p>","e","categorize-html","189","307387","0.0-6.0-1.0-8.0-1.40","3","4","4","3","3","4","3","3","4","4","4","4","1","3","4","4","5","3","3","4","3","5","4","2","2","2","2","5","2","1","0","1","1","0","0","1","1","0","1","1","0","1","0","1","4","5","3","2","3","3","2","4","5","4","3","766385413542907906","梁","514","","","","","","","","","","","","","","","","","","","true","14","4","moral","658","self","自己","","","","","","","","","","","","","","","","",""
"null","","null","html-keyboard-response","190","307638","0.0-6.0-1.0-8.0-0.41","3","4","4","3","3","4","3","3","4","4","4","4","1","3","4","4","5","3","3","4","3","5","4","2","2","2","2","5","2","1","0","1","1","0","0","1","1","0","1","1","0","1","0","1","4","5","3","2","3","3","2","4","5","4","3","766385413542907906","梁","514","","","","","","","","","","","","","","","","","","","","","","","","","","","","","","","","","","","","","","","","","",""
"849","<p style=""color:white; font-size: 35px;"">诚信</p>","e","categorize-html","191","308489","0.0-6.0-1.0-8.0-1.41","3","4","4","3","3","4","3","3","4","4","4","4","1","3","4","4","5","3","3","4","3","5","4","2","2","2","2","5","2","1","0","1","1","0","0","1","1","0","1","1","0","1","0","1","4","5","3","2","3","3","2","4","5","4","3","766385413542907906","梁","514","","","","","","","","","","","","","","","","","","","true","14","4","moral","849","positive","诚信","","","","","","","","","","","","","","","","",""
"null","","null","html-keyboard-response","192","308741","0.0-6.0-1.0-8.0-0.42","3","4","4","3","3","4","3","3","4","4","4","4","1","3","4","4","5","3","3","4","3","5","4","2","2","2","2","5","2","1","0","1","1","0","0","1","1","0","1","1","0","1","0","1","4","5","3","2","3","3","2","4","5","4","3","766385413542907906","梁","514","","","","","","","","","","","","","","","","","","","","","","","","","","","","","","","","","","","","","","","","","",""
"450","<p style=""color:rgb(150, 250, 100); font-size: 35px;"">他人</p>","i","categorize-html","193","309193","0.0-6.0-1.0-8.0-1.42","3","4","4","3","3","4","3","3","4","4","4","4","1","3","4","4","5","3","3","4","3","5","4","2","2","2","2","5","2","1","0","1","1","0","0","1","1","0","1","1","0","1","0","1","4","5","3","2","3","3","2","4","5","4","3","766385413542907906","梁","514","","","","","","","","","","","","","","","","","","","true","14","4","moral","450","other","他人","","","","","","","","","","","","","","","","",""
