"rt","stimulus","response","trial_type","trial_index","time_elapsed","internal_node_id","ses_1","ses_2","ses_3","ses_4","ses_5","ses_6","ses_7","ses_8","ses_9","ses_10","coreself_1","coreself_2","coreself_3","coreself_4","coreself_5","coreself_6","coreself_7","coreself_8","coreself_9","coreself_10","SGPS_1","SGPS_2","SGPS_3","SGPS_4","SGPS_5","SGPS_6","SGPS_7","SGPS_8","SGPS_9","NPI1","NPI2","NPI3","NPI4","NPI5","NPI6","NPI7","NPI8","NPI9","NPI10","NPI11","NPI12","NPI13","NPI14","NPI15","hsns_1","hsns_2","hsns_3","hsns_4","hsns_5","trap1","hsns_6","hsns_7","hsns_8","hsns_9","hsns_10","subj_idx","friend_name","ParticipantID","value","success","user_agent","responses","item_order","radio_event_ids","radio_event_times","key_event_times","mouse_event_times","straightlining","zigzagging","honeypot","timeout","failed_images","failed_audio","failed_video","version_attrib2","version_target2","correct","IAT","screen_id","task_id","RT","condition","word","varname","summary","version_attrib","version_target","time_stamp","view_history","response_type","key_press","avg_frame_time","center_x","center_y","correct_response","identity","Image","question_order","correct_answer","trap1_item"
"12187","
   <p><div style = ""color: white;font-size:25px;"">您好，欢迎参加本次实验。</div> </p>
   <p><div style = ""color: white;font-size:25px;"">为充分保障您的权利，请确保您已经知晓并同意《参与实验同意书》以及《数据公开知情同意书》。</div></p>
   <p><div style = ""color: white;font-size:25px;"">如果您未见过上述内容，请咨询实验员。</div></p>
   <p><div style = ""color: white;font-size:25px;"">如果您选择继续实验，则表示您已经清楚两份知情同意书的内容并同意。</div></p>
   <p><div style = ""color: pink;font-size:30px;"">请确保您记得day0的实验编号，您将在本次实验输入该编号，若您忘记，请咨询实验员后作答。</div></p>
   <p><div style = ""color: lightblue;font-size:25px;"">请您尽可能认真地作答，我们将依据您在各问卷和按键任务中的作答质量发放报酬。</div></p>
   <p> <div style = ""color: green;font-size:25px;""><按空格键至下页></div> </p>
   "," ","html-keyboard-response","0","12193","0.0-0.0","4","4","4","3","3","4","3","3","4","4","4","4","4","4","4","4","4","3","4","4","4","2","3","2","2","2","3","3","2","1","0","1","0","0","0","1","1","0","1","0","0","0","0","1","4","3","4","3","4","4","3","4","3","3","2","676146482423791616","李","690","","","","","","","","","","","","","","","","","","","","","","","","","","","","","","","","","","","","","","","","","",""
"","","","call-function","1","12194","0.0-1.0-0.0","4","4","4","3","3","4","3","3","4","4","4","4","4","4","4","4","4","3","4","4","4","2","3","2","2","2","3","3","2","1","0","1","0","0","0","1","1","0","1","0","0","0","0","1","4","3","4","3","4","4","3","4","3","3","2","676146482423791616","李","690","","","","","","","","","","","","","","","","","","","","","","","","","","","","","","","","","","","","","","","","","",""
"52989","","{""friend_name"":""李"",""ParticipantID"":""690""}","survey-html-form","2","65185","0.0-1.0-1.0","4","4","4","3","3","4","3","3","4","4","4","4","4","4","4","4","4","3","4","4","4","2","3","2","2","2","3","3","2","1","0","1","0","0","0","1","1","0","1","0","0","0","0","1","4","3","4","3","4","4","3","4","3","3","2","676146482423791616","李","690","","","","","","","","","","","","","","","","","","","","","","","","","","","","","","","","","","","","","","","","","",""
"","","","fullscreen","3","86944","0.0-2.0","4","4","4","3","3","4","3","3","4","4","4","4","4","4","4","4","4","3","4","4","4","2","3","2","2","2","3","3","2","1","0","1","0","0","0","1","1","0","1","0","0","0","0","1","4","3","4","3","4","4","3","4","3","3","2","676146482423791616","李","690","","true","{}","","","","","","","","","","","","","","","","","","","","","","","","","","","","","","","","","","","","","","",""
"41342.199999999255","","{""Q01"":""4"",""Q02"":""4"",""Q03"":""4"",""Q04"":""3"",""Q05"":""3"",""Q06"":""4"",""Q07"":""3"",""Q08"":""3"",""Q09"":""4"",""Q10"":""4""}","survey-template","4","128288","0.0-3.0","4","4","4","3","3","4","3","3","4","4","4","4","4","4","4","4","4","3","4","4","4","2","3","2","2","2","3","3","2","1","0","1","0","0","0","1","1","0","1","0","0","0","0","1","4","3","4","3","4","4","3","4","3","3","2","676146482423791616","李","690","","","","{""Q01"":""4"",""Q02"":""4"",""Q03"":""4"",""Q04"":""3"",""Q05"":""3"",""Q06"":""4"",""Q07"":""3"",""Q08"":""3"",""Q09"":""4"",""Q10"":""4""}","[0,1,2,3,4,5,6,7,8,9]","[""Q01"",""Q02"",""Q03"",""Q04"",""Q05"",""Q06"",""Q07"",""Q08"",""Q09"",""Q10""]","[9895.5,12316.10000000149,20158.800000000745,22446.10000000149,24390.10000000149,26389.699999999255,27901.800000000745,31022.199999999255,37973,40277.10000000149]","[]","[9895.5,12316.10000000149,20158.800000000745,22446.10000000149,24390.10000000149,26389.699999999255,27901.800000000745,31022.199999999255,37973,40277.10000000149,41341]","0.3","0.5555555555555556","0","","","","","","","","","","","","","","","","","","","","","","","","","","","","","",""
"55755.60000000149","","{""Q01"":""4"",""Q02"":""4"",""Q03"":""4"",""Q04"":""4"",""Q05"":""4"",""Q06"":""4"",""Q07"":""4"",""Q08"":""3"",""Q09"":""4"",""Q10"":""4""}","survey-template","5","184054","0.0-4.0","4","4","4","3","3","4","3","3","4","4","4","4","4","4","4","4","4","3","4","4","4","2","3","2","2","2","3","3","2","1","0","1","0","0","0","1","1","0","1","0","0","0","0","1","4","3","4","3","4","4","3","4","3","3","2","676146482423791616","李","690","","","","{""Q01"":""4"",""Q02"":""4"",""Q03"":""4"",""Q04"":""4"",""Q05"":""4"",""Q06"":""4"",""Q07"":""4"",""Q08"":""3"",""Q09"":""4"",""Q10"":""4""}","[0,1,2,3,4,5,6,7,8,9]","[""Q01"",""Q02"",""Q04"",""Q05"",""Q06"",""Q07"",""Q08"",""Q09"",""Q10"",""Q03"",""Q03""]","[19865.5,22089,30519.89999999851,34472,35527.199999999255,36975.10000000149,40742.800000000745,43175.5,45512.699999999255,49199.10000000149,52278.5]","[]","[19865.5,22089,30519.89999999851,34472,35527.199999999255,36975.10000000149,40039.800000000745,40742.800000000745,43175.5,45512.699999999255,49199.10000000149,52278.5,55751.39999999851]","0.5","0.2222222222222222","0","","","","","","","","","","","","","","","","","","","","","","","","","","","","","",""
"","","","preload","6","184396","0.0-5.0","4","4","4","3","3","4","3","3","4","4","4","4","4","4","4","4","4","3","4","4","4","2","3","2","2","2","3","3","2","1","0","1","0","0","0","1","1","0","1","0","0","0","0","1","4","3","4","3","4","4","3","4","3","3","2","676146482423791616","李","690","","true","","","","","","","","","","","false","[]","[]","[]","","","","","","","","","","","","","","","","","","","","","","","","","",""
"72262","
    <h3>词语分类任务</h3>
    <p>在接下来的任务中，你需要对一系列词语进行分类。<p/>
    请先熟悉这些词语，这有利于你完成接下来的任务。</p>
    <table align=""center"" border=1 cellpadding=3 cellspacing=0>
    <tr> <th>类别</th> <th>词语</th> </tr>
    <tr> <td>&emsp;积极&emsp;</td> <td>&emsp;高尚、诚信、善良、君子、廉正、正直&emsp;</td> </tr>
    <tr> <td>&emsp;消极&emsp;</td> <td>&emsp;缺德、卑鄙、不孝、不仁、小人、黑心&emsp;</td> </tr>
    <tr> <td>&emsp;自我&emsp;</td> <td>&emsp;我、我的、自己、自己的、本人、本人的&emsp;</td> </tr>
    <tr> <td>&emsp;他人&emsp;</td> <td>&emsp;他、他的、别人、别人的、他人、他人的&emsp;</td> </tr>
    </table><br/>","0","html-button-response","7","256663","0.0-6.0-1.0-0.0","4","4","4","3","3","4","3","3","4","4","4","4","4","4","4","4","4","3","4","4","4","2","3","2","2","2","3","3","2","1","0","1","0","0","0","1","1","0","1","0","0","0","0","1","4","3","4","3","4","4","3","4","3","3","2","676146482423791616","李","690","","","","","","","","","","","","","","","","","1","1","","","","","","","","","","","","","","","","","","","","","","","",""
"64887","
    <div class=""tag-bottom""><p>
    —— 任务1：对“自我”词和“他人”词分类 ——<p/>
    不同词语会出现在屏幕中央，类别标签将始终显示在屏幕上方<p/>   
    <span style=""color:#FFD866""><b>请根据上方标签的提示，尽可能正确并且快速地做出按键反应</b></span><p/>
    当按键错误时屏幕中会出现<span style=""color:red""> X </span>，需要按另一个键纠正才能继续<br/><p/>
    请把双手食指分别放在键盘的“E”键和“I”键上<p/>
    按<空格键>开始
    </p></div>"," ","html-keyboard-response","8","321562","0.0-6.0-1.0-1.0","4","4","4","3","3","4","3","3","4","4","4","4","4","4","4","4","4","3","4","4","4","2","3","2","2","2","3","3","2","1","0","1","0","0","0","1","1","0","1","0","0","0","0","1","4","3","4","3","4","4","3","4","3","3","2","676146482423791616","李","690","","","","","","","","","","","","","","","","","","","","","","","","","","","","","","","","","","","","","","","","","",""
"null","","null","html-keyboard-response","9","321813","0.0-6.0-1.0-2.0-0.0","4","4","4","3","3","4","3","3","4","4","4","4","4","4","4","4","4","3","4","4","4","2","3","2","2","2","3","3","2","1","0","1","0","0","0","1","1","0","1","0","0","0","0","1","4","3","4","3","4","4","3","4","3","3","2","676146482423791616","李","690","","","","","","","","","","","","","","","","","","","","","","","","","","","","","","","","","","","","","","","","","",""
"802","<p style=""color:rgb(150, 250, 100); font-size: 35px;"">他人</p>","i","categorize-html","10","322616","0.0-6.0-1.0-2.0-1.0","4","4","4","3","3","4","3","3","4","4","4","4","4","4","4","4","4","3","4","4","4","2","3","2","2","2","3","3","2","1","0","1","0","0","0","1","1","0","1","0","0","0","0","1","4","3","4","3","4","4","3","4","3","3","2","676146482423791616","李","690","","","","","","","","","","","","","","","","","","","true","11","1","moral","802","other","他人","","","","","","","","","","","","","","","","",""
"null","","null","html-keyboard-response","11","322867","0.0-6.0-1.0-2.0-0.1","4","4","4","3","3","4","3","3","4","4","4","4","4","4","4","4","4","3","4","4","4","2","3","2","2","2","3","3","2","1","0","1","0","0","0","1","1","0","1","0","0","0","0","1","4","3","4","3","4","4","3","4","3","3","2","676146482423791616","李","690","","","","","","","","","","","","","","","","","","","","","","","","","","","","","","","","","","","","","","","","","",""
"646","<p style=""color:rgb(150, 250, 100); font-size: 35px;"">别人</p>","i","categorize-html","12","323514","0.0-6.0-1.0-2.0-1.1","4","4","4","3","3","4","3","3","4","4","4","4","4","4","4","4","4","3","4","4","4","2","3","2","2","2","3","3","2","1","0","1","0","0","0","1","1","0","1","0","0","0","0","1","4","3","4","3","4","4","3","4","3","3","2","676146482423791616","李","690","","","","","","","","","","","","","","","","","","","true","11","1","moral","646","other","别人","","","","","","","","","","","","","","","","",""
"null","","null","html-keyboard-response","13","323765","0.0-6.0-1.0-2.0-0.2","4","4","4","3","3","4","3","3","4","4","4","4","4","4","4","4","4","3","4","4","4","2","3","2","2","2","3","3","2","1","0","1","0","0","0","1","1","0","1","0","0","0","0","1","4","3","4","3","4","4","3","4","3","3","2","676146482423791616","李","690","","","","","","","","","","","","","","","","","","","","","","","","","","","","","","","","","","","","","","","","","",""
"571","<p style=""color:rgb(150, 250, 100); font-size: 35px;"">他</p>","i","categorize-html","14","324337","0.0-6.0-1.0-2.0-1.2","4","4","4","3","3","4","3","3","4","4","4","4","4","4","4","4","4","3","4","4","4","2","3","2","2","2","3","3","2","1","0","1","0","0","0","1","1","0","1","0","0","0","0","1","4","3","4","3","4","4","3","4","3","3","2","676146482423791616","李","690","","","","","","","","","","","","","","","","","","","true","11","1","moral","571","other","他","","","","","","","","","","","","","","","","",""
"null","","null","html-keyboard-response","15","324588","0.0-6.0-1.0-2.0-0.3","4","4","4","3","3","4","3","3","4","4","4","4","4","4","4","4","4","3","4","4","4","2","3","2","2","2","3","3","2","1","0","1","0","0","0","1","1","0","1","0","0","0","0","1","4","3","4","3","4","4","3","4","3","3","2","676146482423791616","李","690","","","","","","","","","","","","","","","","","","","","","","","","","","","","","","","","","","","","","","","","","",""
"561","<p style=""color:rgb(150, 250, 100); font-size: 35px;"">我的</p>","e","categorize-html","16","325152","0.0-6.0-1.0-2.0-1.3","4","4","4","3","3","4","3","3","4","4","4","4","4","4","4","4","4","3","4","4","4","2","3","2","2","2","3","3","2","1","0","1","0","0","0","1","1","0","1","0","0","0","0","1","4","3","4","3","4","4","3","4","3","3","2","676146482423791616","李","690","","","","","","","","","","","","","","","","","","","true","11","1","moral","561","self","我的","","","","","","","","","","","","","","","","",""
"null","","null","html-keyboard-response","17","325403","0.0-6.0-1.0-2.0-0.4","4","4","4","3","3","4","3","3","4","4","4","4","4","4","4","4","4","3","4","4","4","2","3","2","2","2","3","3","2","1","0","1","0","0","0","1","1","0","1","0","0","0","0","1","4","3","4","3","4","4","3","4","3","3","2","676146482423791616","李","690","","","","","","","","","","","","","","","","","","","","","","","","","","","","","","","","","","","","","","","","","",""
"502","<p style=""color:rgb(150, 250, 100); font-size: 35px;"">本人的</p>","e","categorize-html","18","325908","0.0-6.0-1.0-2.0-1.4","4","4","4","3","3","4","3","3","4","4","4","4","4","4","4","4","4","3","4","4","4","2","3","2","2","2","3","3","2","1","0","1","0","0","0","1","1","0","1","0","0","0","0","1","4","3","4","3","4","4","3","4","3","3","2","676146482423791616","李","690","","","","","","","","","","","","","","","","","","","true","11","1","moral","502","self","本人的","","","","","","","","","","","","","","","","",""
"null","","null","html-keyboard-response","19","326166","0.0-6.0-1.0-2.0-0.5","4","4","4","3","3","4","3","3","4","4","4","4","4","4","4","4","4","3","4","4","4","2","3","2","2","2","3","3","2","1","0","1","0","0","0","1","1","0","1","0","0","0","0","1","4","3","4","3","4","4","3","4","3","3","2","676146482423791616","李","690","","","","","","","","","","","","","","","","","","","","","","","","","","","","","","","","","","","","","","","","","",""
"539","<p style=""color:rgb(150, 250, 100); font-size: 35px;"">他的</p>","i","categorize-html","20","326708","0.0-6.0-1.0-2.0-1.5","4","4","4","3","3","4","3","3","4","4","4","4","4","4","4","4","4","3","4","4","4","2","3","2","2","2","3","3","2","1","0","1","0","0","0","1","1","0","1","0","0","0","0","1","4","3","4","3","4","4","3","4","3","3","2","676146482423791616","李","690","","","","","","","","","","","","","","","","","","","true","11","1","moral","539","other","他的","","","","","","","","","","","","","","","","",""
"null","","null","html-keyboard-response","21","326960","0.0-6.0-1.0-2.0-0.6","4","4","4","3","3","4","3","3","4","4","4","4","4","4","4","4","4","3","4","4","4","2","3","2","2","2","3","3","2","1","0","1","0","0","0","1","1","0","1","0","0","0","0","1","4","3","4","3","4","4","3","4","3","3","2","676146482423791616","李","690","","","","","","","","","","","","","","","","","","","","","","","","","","","","","","","","","","","","","","","","","",""
"617","<p style=""color:rgb(150, 250, 100); font-size: 35px;"">本人</p>","e","categorize-html","22","327580","0.0-6.0-1.0-2.0-1.6","4","4","4","3","3","4","3","3","4","4","4","4","4","4","4","4","4","3","4","4","4","2","3","2","2","2","3","3","2","1","0","1","0","0","0","1","1","0","1","0","0","0","0","1","4","3","4","3","4","4","3","4","3","3","2","676146482423791616","李","690","","","","","","","","","","","","","","","","","","","true","11","1","moral","617","self","本人","","","","","","","","","","","","","","","","",""
"null","","null","html-keyboard-response","23","327849","0.0-6.0-1.0-2.0-0.7","4","4","4","3","3","4","3","3","4","4","4","4","4","4","4","4","4","3","4","4","4","2","3","2","2","2","3","3","2","1","0","1","0","0","0","1","1","0","1","0","0","0","0","1","4","3","4","3","4","4","3","4","3","3","2","676146482423791616","李","690","","","","","","","","","","","","","","","","","","","","","","","","","","","","","","","","","","","","","","","","","",""
"655","<p style=""color:rgb(150, 250, 100); font-size: 35px;"">别人的</p>","i","categorize-html","24","328505","0.0-6.0-1.0-2.0-1.7","4","4","4","3","3","4","3","3","4","4","4","4","4","4","4","4","4","3","4","4","4","2","3","2","2","2","3","3","2","1","0","1","0","0","0","1","1","0","1","0","0","0","0","1","4","3","4","3","4","4","3","4","3","3","2","676146482423791616","李","690","","","","","","","","","","","","","","","","","","","true","11","1","moral","655","other","别人的","","","","","","","","","","","","","","","","",""
"null","","null","html-keyboard-response","25","328756","0.0-6.0-1.0-2.0-0.8","4","4","4","3","3","4","3","3","4","4","4","4","4","4","4","4","4","3","4","4","4","2","3","2","2","2","3","3","2","1","0","1","0","0","0","1","1","0","1","0","0","0","0","1","4","3","4","3","4","4","3","4","3","3","2","676146482423791616","李","690","","","","","","","","","","","","","","","","","","","","","","","","","","","","","","","","","","","","","","","","","",""
"509","<p style=""color:rgb(150, 250, 100); font-size: 35px;"">自己</p>","e","categorize-html","26","329297","0.0-6.0-1.0-2.0-1.8","4","4","4","3","3","4","3","3","4","4","4","4","4","4","4","4","4","3","4","4","4","2","3","2","2","2","3","3","2","1","0","1","0","0","0","1","1","0","1","0","0","0","0","1","4","3","4","3","4","4","3","4","3","3","2","676146482423791616","李","690","","","","","","","","","","","","","","","","","","","true","11","1","moral","509","self","自己","","","","","","","","","","","","","","","","",""
"null","","null","html-keyboard-response","27","329547","0.0-6.0-1.0-2.0-0.9","4","4","4","3","3","4","3","3","4","4","4","4","4","4","4","4","4","3","4","4","4","2","3","2","2","2","3","3","2","1","0","1","0","0","0","1","1","0","1","0","0","0","0","1","4","3","4","3","4","4","3","4","3","3","2","676146482423791616","李","690","","","","","","","","","","","","","","","","","","","","","","","","","","","","","","","","","","","","","","","","","",""
"477","<p style=""color:rgb(150, 250, 100); font-size: 35px;"">我</p>","e","categorize-html","28","330026","0.0-6.0-1.0-2.0-1.9","4","4","4","3","3","4","3","3","4","4","4","4","4","4","4","4","4","3","4","4","4","2","3","2","2","2","3","3","2","1","0","1","0","0","0","1","1","0","1","0","0","0","0","1","4","3","4","3","4","4","3","4","3","3","2","676146482423791616","李","690","","","","","","","","","","","","","","","","","","","true","11","1","moral","477","self","我","","","","","","","","","","","","","","","","",""
"null","","null","html-keyboard-response","29","330277","0.0-6.0-1.0-2.0-0.10","4","4","4","3","3","4","3","3","4","4","4","4","4","4","4","4","4","3","4","4","4","2","3","2","2","2","3","3","2","1","0","1","0","0","0","1","1","0","1","0","0","0","0","1","4","3","4","3","4","4","3","4","3","3","2","676146482423791616","李","690","","","","","","","","","","","","","","","","","","","","","","","","","","","","","","","","","","","","","","","","","",""
"539","<p style=""color:rgb(150, 250, 100); font-size: 35px;"">自己的</p>","e","categorize-html","30","330817","0.0-6.0-1.0-2.0-1.10","4","4","4","3","3","4","3","3","4","4","4","4","4","4","4","4","4","3","4","4","4","2","3","2","2","2","3","3","2","1","0","1","0","0","0","1","1","0","1","0","0","0","0","1","4","3","4","3","4","4","3","4","3","3","2","676146482423791616","李","690","","","","","","","","","","","","","","","","","","","true","11","1","moral","539","self","自己的","","","","","","","","","","","","","","","","",""
"null","","null","html-keyboard-response","31","331068","0.0-6.0-1.0-2.0-0.11","4","4","4","3","3","4","3","3","4","4","4","4","4","4","4","4","4","3","4","4","4","2","3","2","2","2","3","3","2","1","0","1","0","0","0","1","1","0","1","0","0","0","0","1","4","3","4","3","4","4","3","4","3","3","2","676146482423791616","李","690","","","","","","","","","","","","","","","","","","","","","","","","","","","","","","","","","","","","","","","","","",""
"653","<p style=""color:rgb(150, 250, 100); font-size: 35px;"">他人的</p>","i","categorize-html","32","331722","0.0-6.0-1.0-2.0-1.11","4","4","4","3","3","4","3","3","4","4","4","4","4","4","4","4","4","3","4","4","4","2","3","2","2","2","3","3","2","1","0","1","0","0","0","1","1","0","1","0","0","0","0","1","4","3","4","3","4","4","3","4","3","3","2","676146482423791616","李","690","","","","","","","","","","","","","","","","","","","true","11","1","moral","653","other","他人的","","","","","","","","","","","","","","","","",""
"6118","
    <div class=""tag-bottom""><p>
    —— 任务2：对“积极”词和“消极”词分类 ——<p/>   
    <span style=""color:#78DCE8""><b>注意上方，类别标签和需要分类的词语都已经改变</b></span><p/>
    <span style=""color:#FFD866""><b>请根据上方标签的提示，尽可能正确并且快速地做出按键反应</b></span><p/>
    当按键错误时屏幕中会出现<span style=""color:red""> X </span>，需要按另一个键纠正才能继续<br/><p/>
    请把双手食指分别放在键盘的“E”键和“I”键上<p/>
    按<空格键>开始
    </p></div>"," ","html-keyboard-response","33","337841","0.0-6.0-1.0-3.0","4","4","4","3","3","4","3","3","4","4","4","4","4","4","4","4","4","3","4","4","4","2","3","2","2","2","3","3","2","1","0","1","0","0","0","1","1","0","1","0","0","0","0","1","4","3","4","3","4","4","3","4","3","3","2","676146482423791616","李","690","","","","","","","","","","","","","","","","","","","","","","","","","","","","","","","","","","","","","","","","","",""
"null","","null","html-keyboard-response","34","338093","0.0-6.0-1.0-4.0-0.0","4","4","4","3","3","4","3","3","4","4","4","4","4","4","4","4","4","3","4","4","4","2","3","2","2","2","3","3","2","1","0","1","0","0","0","1","1","0","1","0","0","0","0","1","4","3","4","3","4","4","3","4","3","3","2","676146482423791616","李","690","","","","","","","","","","","","","","","","","","","","","","","","","","","","","","","","","","","","","","","","","",""
"787","<p style=""color:white; font-size: 35px;"">善良</p>","e","categorize-html","35","338882","0.0-6.0-1.0-4.0-1.0","4","4","4","3","3","4","3","3","4","4","4","4","4","4","4","4","4","3","4","4","4","2","3","2","2","2","3","3","2","1","0","1","0","0","0","1","1","0","1","0","0","0","0","1","4","3","4","3","4","4","3","4","3","3","2","676146482423791616","李","690","","","","","","","","","","","","","","","","","","","true","12","2","moral","787","positive","善良","","","","","","","","","","","","","","","","",""
"null","","null","html-keyboard-response","36","339132","0.0-6.0-1.0-4.0-0.1","4","4","4","3","3","4","3","3","4","4","4","4","4","4","4","4","4","3","4","4","4","2","3","2","2","2","3","3","2","1","0","1","0","0","0","1","1","0","1","0","0","0","0","1","4","3","4","3","4","4","3","4","3","3","2","676146482423791616","李","690","","","","","","","","","","","","","","","","","","","","","","","","","","","","","","","","","","","","","","","","","",""
"534","<p style=""color:white; font-size: 35px;"">高尚</p>","e","categorize-html","37","339667","0.0-6.0-1.0-4.0-1.1","4","4","4","3","3","4","3","3","4","4","4","4","4","4","4","4","4","3","4","4","4","2","3","2","2","2","3","3","2","1","0","1","0","0","0","1","1","0","1","0","0","0","0","1","4","3","4","3","4","4","3","4","3","3","2","676146482423791616","李","690","","","","","","","","","","","","","","","","","","","true","12","2","moral","534","positive","高尚","","","","","","","","","","","","","","","","",""
"null","","null","html-keyboard-response","38","339918","0.0-6.0-1.0-4.0-0.2","4","4","4","3","3","4","3","3","4","4","4","4","4","4","4","4","4","3","4","4","4","2","3","2","2","2","3","3","2","1","0","1","0","0","0","1","1","0","1","0","0","0","0","1","4","3","4","3","4","4","3","4","3","3","2","676146482423791616","李","690","","","","","","","","","","","","","","","","","","","","","","","","","","","","","","","","","","","","","","","","","",""
"498","<p style=""color:white; font-size: 35px;"">廉正</p>","e","categorize-html","39","340419","0.0-6.0-1.0-4.0-1.2","4","4","4","3","3","4","3","3","4","4","4","4","4","4","4","4","4","3","4","4","4","2","3","2","2","2","3","3","2","1","0","1","0","0","0","1","1","0","1","0","0","0","0","1","4","3","4","3","4","4","3","4","3","3","2","676146482423791616","李","690","","","","","","","","","","","","","","","","","","","true","12","2","moral","498","positive","廉正","","","","","","","","","","","","","","","","",""
"null","","null","html-keyboard-response","40","340670","0.0-6.0-1.0-4.0-0.3","4","4","4","3","3","4","3","3","4","4","4","4","4","4","4","4","4","3","4","4","4","2","3","2","2","2","3","3","2","1","0","1","0","0","0","1","1","0","1","0","0","0","0","1","4","3","4","3","4","4","3","4","3","3","2","676146482423791616","李","690","","","","","","","","","","","","","","","","","","","","","","","","","","","","","","","","","","","","","","","","","",""
"633","<p style=""color:white; font-size: 35px;"">缺德</p>","i","categorize-html","41","341305","0.0-6.0-1.0-4.0-1.3","4","4","4","3","3","4","3","3","4","4","4","4","4","4","4","4","4","3","4","4","4","2","3","2","2","2","3","3","2","1","0","1","0","0","0","1","1","0","1","0","0","0","0","1","4","3","4","3","4","4","3","4","3","3","2","676146482423791616","李","690","","","","","","","","","","","","","","","","","","","true","12","2","moral","633","negative","缺德","","","","","","","","","","","","","","","","",""
"null","","null","html-keyboard-response","42","341556","0.0-6.0-1.0-4.0-0.4","4","4","4","3","3","4","3","3","4","4","4","4","4","4","4","4","4","3","4","4","4","2","3","2","2","2","3","3","2","1","0","1","0","0","0","1","1","0","1","0","0","0","0","1","4","3","4","3","4","4","3","4","3","3","2","676146482423791616","李","690","","","","","","","","","","","","","","","","","","","","","","","","","","","","","","","","","","","","","","","","","",""
"516","<p style=""color:white; font-size: 35px;"">卑鄙</p>","i","categorize-html","43","342075","0.0-6.0-1.0-4.0-1.4","4","4","4","3","3","4","3","3","4","4","4","4","4","4","4","4","4","3","4","4","4","2","3","2","2","2","3","3","2","1","0","1","0","0","0","1","1","0","1","0","0","0","0","1","4","3","4","3","4","4","3","4","3","3","2","676146482423791616","李","690","","","","","","","","","","","","","","","","","","","true","12","2","moral","516","negative","卑鄙","","","","","","","","","","","","","","","","",""
"null","","null","html-keyboard-response","44","342326","0.0-6.0-1.0-4.0-0.5","4","4","4","3","3","4","3","3","4","4","4","4","4","4","4","4","4","3","4","4","4","2","3","2","2","2","3","3","2","1","0","1","0","0","0","1","1","0","1","0","0","0","0","1","4","3","4","3","4","4","3","4","3","3","2","676146482423791616","李","690","","","","","","","","","","","","","","","","","","","","","","","","","","","","","","","","","","","","","","","","","",""
"562","<p style=""color:white; font-size: 35px;"">小人</p>","i","categorize-html","45","342891","0.0-6.0-1.0-4.0-1.5","4","4","4","3","3","4","3","3","4","4","4","4","4","4","4","4","4","3","4","4","4","2","3","2","2","2","3","3","2","1","0","1","0","0","0","1","1","0","1","0","0","0","0","1","4","3","4","3","4","4","3","4","3","3","2","676146482423791616","李","690","","","","","","","","","","","","","","","","","","","true","12","2","moral","562","negative","小人","","","","","","","","","","","","","","","","",""
"null","","null","html-keyboard-response","46","343157","0.0-6.0-1.0-4.0-0.6","4","4","4","3","3","4","3","3","4","4","4","4","4","4","4","4","4","3","4","4","4","2","3","2","2","2","3","3","2","1","0","1","0","0","0","1","1","0","1","0","0","0","0","1","4","3","4","3","4","4","3","4","3","3","2","676146482423791616","李","690","","","","","","","","","","","","","","","","","","","","","","","","","","","","","","","","","","","","","","","","","",""
"539","<p style=""color:white; font-size: 35px;"">不孝</p>","i","categorize-html","47","343699","0.0-6.0-1.0-4.0-1.6","4","4","4","3","3","4","3","3","4","4","4","4","4","4","4","4","4","3","4","4","4","2","3","2","2","2","3","3","2","1","0","1","0","0","0","1","1","0","1","0","0","0","0","1","4","3","4","3","4","4","3","4","3","3","2","676146482423791616","李","690","","","","","","","","","","","","","","","","","","","true","12","2","moral","539","negative","不孝","","","","","","","","","","","","","","","","",""
"null","","null","html-keyboard-response","48","343951","0.0-6.0-1.0-4.0-0.7","4","4","4","3","3","4","3","3","4","4","4","4","4","4","4","4","4","3","4","4","4","2","3","2","2","2","3","3","2","1","0","1","0","0","0","1","1","0","1","0","0","0","0","1","4","3","4","3","4","4","3","4","3","3","2","676146482423791616","李","690","","","","","","","","","","","","","","","","","","","","","","","","","","","","","","","","","","","","","","","","","",""
"609","<p style=""color:white; font-size: 35px;"">君子</p>","e","categorize-html","49","344561","0.0-6.0-1.0-4.0-1.7","4","4","4","3","3","4","3","3","4","4","4","4","4","4","4","4","4","3","4","4","4","2","3","2","2","2","3","3","2","1","0","1","0","0","0","1","1","0","1","0","0","0","0","1","4","3","4","3","4","4","3","4","3","3","2","676146482423791616","李","690","","","","","","","","","","","","","","","","","","","true","12","2","moral","609","positive","君子","","","","","","","","","","","","","","","","",""
"null","","null","html-keyboard-response","50","344813","0.0-6.0-1.0-4.0-0.8","4","4","4","3","3","4","3","3","4","4","4","4","4","4","4","4","4","3","4","4","4","2","3","2","2","2","3","3","2","1","0","1","0","0","0","1","1","0","1","0","0","0","0","1","4","3","4","3","4","4","3","4","3","3","2","676146482423791616","李","690","","","","","","","","","","","","","","","","","","","","","","","","","","","","","","","","","","","","","","","","","",""
"530","<p style=""color:white; font-size: 35px;"">诚信</p>","e","categorize-html","51","345346","0.0-6.0-1.0-4.0-1.8","4","4","4","3","3","4","3","3","4","4","4","4","4","4","4","4","4","3","4","4","4","2","3","2","2","2","3","3","2","1","0","1","0","0","0","1","1","0","1","0","0","0","0","1","4","3","4","3","4","4","3","4","3","3","2","676146482423791616","李","690","","","","","","","","","","","","","","","","","","","true","12","2","moral","530","positive","诚信","","","","","","","","","","","","","","","","",""
"null","","null","html-keyboard-response","52","345598","0.0-6.0-1.0-4.0-0.9","4","4","4","3","3","4","3","3","4","4","4","4","4","4","4","4","4","3","4","4","4","2","3","2","2","2","3","3","2","1","0","1","0","0","0","1","1","0","1","0","0","0","0","1","4","3","4","3","4","4","3","4","3","3","2","676146482423791616","李","690","","","","","","","","","","","","","","","","","","","","","","","","","","","","","","","","","","","","","","","","","",""
"602","<p style=""color:white; font-size: 35px;"">黑心</p>","i","categorize-html","53","346201","0.0-6.0-1.0-4.0-1.9","4","4","4","3","3","4","3","3","4","4","4","4","4","4","4","4","4","3","4","4","4","2","3","2","2","2","3","3","2","1","0","1","0","0","0","1","1","0","1","0","0","0","0","1","4","3","4","3","4","4","3","4","3","3","2","676146482423791616","李","690","","","","","","","","","","","","","","","","","","","true","12","2","moral","602","negative","黑心","","","","","","","","","","","","","","","","",""
"null","","null","html-keyboard-response","54","346452","0.0-6.0-1.0-4.0-0.10","4","4","4","3","3","4","3","3","4","4","4","4","4","4","4","4","4","3","4","4","4","2","3","2","2","2","3","3","2","1","0","1","0","0","0","1","1","0","1","0","0","0","0","1","4","3","4","3","4","4","3","4","3","3","2","676146482423791616","李","690","","","","","","","","","","","","","","","","","","","","","","","","","","","","","","","","","","","","","","","","","",""
"772","<p style=""color:white; font-size: 35px;"">不仁</p>","i","categorize-html","55","347224","0.0-6.0-1.0-4.0-1.10","4","4","4","3","3","4","3","3","4","4","4","4","4","4","4","4","4","3","4","4","4","2","3","2","2","2","3","3","2","1","0","1","0","0","0","1","1","0","1","0","0","0","0","1","4","3","4","3","4","4","3","4","3","3","2","676146482423791616","李","690","","","","","","","","","","","","","","","","","","","true","12","2","moral","772","negative","不仁","","","","","","","","","","","","","","","","",""
"null","","null","html-keyboard-response","56","347476","0.0-6.0-1.0-4.0-0.11","4","4","4","3","3","4","3","3","4","4","4","4","4","4","4","4","4","3","4","4","4","2","3","2","2","2","3","3","2","1","0","1","0","0","0","1","1","0","1","0","0","0","0","1","4","3","4","3","4","4","3","4","3","3","2","676146482423791616","李","690","","","","","","","","","","","","","","","","","","","","","","","","","","","","","","","","","","","","","","","","","",""
"636","<p style=""color:white; font-size: 35px;"">正直</p>","e","categorize-html","57","348115","0.0-6.0-1.0-4.0-1.11","4","4","4","3","3","4","3","3","4","4","4","4","4","4","4","4","4","3","4","4","4","2","3","2","2","2","3","3","2","1","0","1","0","0","0","1","1","0","1","0","0","0","0","1","4","3","4","3","4","4","3","4","3","3","2","676146482423791616","李","690","","","","","","","","","","","","","","","","","","","true","12","2","moral","636","positive","正直","","","","","","","","","","","","","","","","",""
"6668","
    <div class=""tag-bottom""><p>
    —— 任务3：对“自我/积极”词和“他人/消极”词分类 ——<p/>
    <span style=""color:#78DCE8""><b>注意上方，之前的四类词语将混合在一起交替呈现</b></span><p/>
    <span style=""color:#FFD866""><b>请根据上方标签的提示，尽可能正确并且快速地做出按键反应</b></span><p/>
    当按键错误时屏幕中会出现<span style=""color:red""> X </span>，需要按另一个键纠正才能继续<br/><p/>
    请把双手食指分别放在键盘的“E”键和“I”键上<p/>
    按<空格键>开始
    </p></div>"," ","html-keyboard-response","58","354784","0.0-6.0-1.0-5.0","4","4","4","3","3","4","3","3","4","4","4","4","4","4","4","4","4","3","4","4","4","2","3","2","2","2","3","3","2","1","0","1","0","0","0","1","1","0","1","0","0","0","0","1","4","3","4","3","4","4","3","4","3","3","2","676146482423791616","李","690","","","","","","","","","","","","","","","","","","","","","","","","","","","","","","","","","","","","","","","","","",""
"null","","null","html-keyboard-response","59","355035","0.0-6.0-1.0-6.0-0.0","4","4","4","3","3","4","3","3","4","4","4","4","4","4","4","4","4","3","4","4","4","2","3","2","2","2","3","3","2","1","0","1","0","0","0","1","1","0","1","0","0","0","0","1","4","3","4","3","4","4","3","4","3","3","2","676146482423791616","李","690","","","","","","","","","","","","","","","","","","","","","","","","","","","","","","","","","","","","","","","","","",""
"610","<p style=""color:rgb(150, 250, 100); font-size: 35px;"">我</p>","e","categorize-html","60","355648","0.0-6.0-1.0-6.0-1.0","4","4","4","3","3","4","3","3","4","4","4","4","4","4","4","4","4","3","4","4","4","2","3","2","2","2","3","3","2","1","0","1","0","0","0","1","1","0","1","0","0","0","0","1","4","3","4","3","4","4","3","4","3","3","2","676146482423791616","李","690","","","","","","","","","","","","","","","","","","","true","13","3","moral","610","self","我","","","","","","","","","","","","","","","","",""
"null","","null","html-keyboard-response","61","355899","0.0-6.0-1.0-6.0-0.1","4","4","4","3","3","4","3","3","4","4","4","4","4","4","4","4","4","3","4","4","4","2","3","2","2","2","3","3","2","1","0","1","0","0","0","1","1","0","1","0","0","0","0","1","4","3","4","3","4","4","3","4","3","3","2","676146482423791616","李","690","","","","","","","","","","","","","","","","","","","","","","","","","","","","","","","","","","","","","","","","","",""
"515","<p style=""color:white; font-size: 35px;"">善良</p>","e","categorize-html","62","356416","0.0-6.0-1.0-6.0-1.1","4","4","4","3","3","4","3","3","4","4","4","4","4","4","4","4","4","3","4","4","4","2","3","2","2","2","3","3","2","1","0","1","0","0","0","1","1","0","1","0","0","0","0","1","4","3","4","3","4","4","3","4","3","3","2","676146482423791616","李","690","","","","","","","","","","","","","","","","","","","true","13","3","moral","515","positive","善良","","","","","","","","","","","","","","","","",""
"null","","null","html-keyboard-response","63","356666","0.0-6.0-1.0-6.0-0.2","4","4","4","3","3","4","3","3","4","4","4","4","4","4","4","4","4","3","4","4","4","2","3","2","2","2","3","3","2","1","0","1","0","0","0","1","1","0","1","0","0","0","0","1","4","3","4","3","4","4","3","4","3","3","2","676146482423791616","李","690","","","","","","","","","","","","","","","","","","","","","","","","","","","","","","","","","","","","","","","","","",""
"844","<p style=""color:rgb(150, 250, 100); font-size: 35px;"">他</p>","i","categorize-html","64","357512","0.0-6.0-1.0-6.0-1.2","4","4","4","3","3","4","3","3","4","4","4","4","4","4","4","4","4","3","4","4","4","2","3","2","2","2","3","3","2","1","0","1","0","0","0","1","1","0","1","0","0","0","0","1","4","3","4","3","4","4","3","4","3","3","2","676146482423791616","李","690","","","","","","","","","","","","","","","","","","","true","13","3","moral","844","other","他","","","","","","","","","","","","","","","","",""
"null","","null","html-keyboard-response","65","357763","0.0-6.0-1.0-6.0-0.3","4","4","4","3","3","4","3","3","4","4","4","4","4","4","4","4","4","3","4","4","4","2","3","2","2","2","3","3","2","1","0","1","0","0","0","1","1","0","1","0","0","0","0","1","4","3","4","3","4","4","3","4","3","3","2","676146482423791616","李","690","","","","","","","","","","","","","","","","","","","","","","","","","","","","","","","","","","","","","","","","","",""
"620","<p style=""color:white; font-size: 35px;"">缺德</p>","i","categorize-html","66","358386","0.0-6.0-1.0-6.0-1.3","4","4","4","3","3","4","3","3","4","4","4","4","4","4","4","4","4","3","4","4","4","2","3","2","2","2","3","3","2","1","0","1","0","0","0","1","1","0","1","0","0","0","0","1","4","3","4","3","4","4","3","4","3","3","2","676146482423791616","李","690","","","","","","","","","","","","","","","","","","","true","13","3","moral","620","negative","缺德","","","","","","","","","","","","","","","","",""
"null","","null","html-keyboard-response","67","358638","0.0-6.0-1.0-6.0-0.4","4","4","4","3","3","4","3","3","4","4","4","4","4","4","4","4","4","3","4","4","4","2","3","2","2","2","3","3","2","1","0","1","0","0","0","1","1","0","1","0","0","0","0","1","4","3","4","3","4","4","3","4","3","3","2","676146482423791616","李","690","","","","","","","","","","","","","","","","","","","","","","","","","","","","","","","","","","","","","","","","","",""
"889","<p style=""color:rgb(150, 250, 100); font-size: 35px;"">本人的</p>","e","categorize-html","68","359531","0.0-6.0-1.0-6.0-1.4","4","4","4","3","3","4","3","3","4","4","4","4","4","4","4","4","4","3","4","4","4","2","3","2","2","2","3","3","2","1","0","1","0","0","0","1","1","0","1","0","0","0","0","1","4","3","4","3","4","4","3","4","3","3","2","676146482423791616","李","690","","","","","","","","","","","","","","","","","","","true","13","3","moral","889","self","本人的","","","","","","","","","","","","","","","","",""
"null","","null","html-keyboard-response","69","359785","0.0-6.0-1.0-6.0-0.5","4","4","4","3","3","4","3","3","4","4","4","4","4","4","4","4","4","3","4","4","4","2","3","2","2","2","3","3","2","1","0","1","0","0","0","1","1","0","1","0","0","0","0","1","4","3","4","3","4","4","3","4","3","3","2","676146482423791616","李","690","","","","","","","","","","","","","","","","","","","","","","","","","","","","","","","","","","","","","","","","","",""
"726","<p style=""color:white; font-size: 35px;"">卑鄙</p>","i","categorize-html","70","360514","0.0-6.0-1.0-6.0-1.5","4","4","4","3","3","4","3","3","4","4","4","4","4","4","4","4","4","3","4","4","4","2","3","2","2","2","3","3","2","1","0","1","0","0","0","1","1","0","1","0","0","0","0","1","4","3","4","3","4","4","3","4","3","3","2","676146482423791616","李","690","","","","","","","","","","","","","","","","","","","true","13","3","moral","726","negative","卑鄙","","","","","","","","","","","","","","","","",""
"null","","null","html-keyboard-response","71","360766","0.0-6.0-1.0-6.0-0.6","4","4","4","3","3","4","3","3","4","4","4","4","4","4","4","4","4","3","4","4","4","2","3","2","2","2","3","3","2","1","0","1","0","0","0","1","1","0","1","0","0","0","0","1","4","3","4","3","4","4","3","4","3","3","2","676146482423791616","李","690","","","","","","","","","","","","","","","","","","","","","","","","","","","","","","","","","","","","","","","","","",""
"640","<p style=""color:rgb(150, 250, 100); font-size: 35px;"">他人的</p>","i","categorize-html","72","361410","0.0-6.0-1.0-6.0-1.6","4","4","4","3","3","4","3","3","4","4","4","4","4","4","4","4","4","3","4","4","4","2","3","2","2","2","3","3","2","1","0","1","0","0","0","1","1","0","1","0","0","0","0","1","4","3","4","3","4","4","3","4","3","3","2","676146482423791616","李","690","","","","","","","","","","","","","","","","","","","true","13","3","moral","640","other","他人的","","","","","","","","","","","","","","","","",""
"null","","null","html-keyboard-response","73","361661","0.0-6.0-1.0-6.0-0.7","4","4","4","3","3","4","3","3","4","4","4","4","4","4","4","4","4","3","4","4","4","2","3","2","2","2","3","3","2","1","0","1","0","0","0","1","1","0","1","0","0","0","0","1","4","3","4","3","4","4","3","4","3","3","2","676146482423791616","李","690","","","","","","","","","","","","","","","","","","","","","","","","","","","","","","","","","","","","","","","","","",""
"697","<p style=""color:white; font-size: 35px;"">高尚</p>","e","categorize-html","74","362360","0.0-6.0-1.0-6.0-1.7","4","4","4","3","3","4","3","3","4","4","4","4","4","4","4","4","4","3","4","4","4","2","3","2","2","2","3","3","2","1","0","1","0","0","0","1","1","0","1","0","0","0","0","1","4","3","4","3","4","4","3","4","3","3","2","676146482423791616","李","690","","","","","","","","","","","","","","","","","","","true","13","3","moral","697","positive","高尚","","","","","","","","","","","","","","","","",""
"null","","null","html-keyboard-response","75","362611","0.0-6.0-1.0-6.0-0.8","4","4","4","3","3","4","3","3","4","4","4","4","4","4","4","4","4","3","4","4","4","2","3","2","2","2","3","3","2","1","0","1","0","0","0","1","1","0","1","0","0","0","0","1","4","3","4","3","4","4","3","4","3","3","2","676146482423791616","李","690","","","","","","","","","","","","","","","","","","","","","","","","","","","","","","","","","","","","","","","","","",""
"738","<p style=""color:rgb(150, 250, 100); font-size: 35px;"">他的</p>","i","categorize-html","76","363351","0.0-6.0-1.0-6.0-1.8","4","4","4","3","3","4","3","3","4","4","4","4","4","4","4","4","4","3","4","4","4","2","3","2","2","2","3","3","2","1","0","1","0","0","0","1","1","0","1","0","0","0","0","1","4","3","4","3","4","4","3","4","3","3","2","676146482423791616","李","690","","","","","","","","","","","","","","","","","","","true","13","3","moral","738","other","他的","","","","","","","","","","","","","","","","",""
"null","","null","html-keyboard-response","77","363601","0.0-6.0-1.0-6.0-0.9","4","4","4","3","3","4","3","3","4","4","4","4","4","4","4","4","4","3","4","4","4","2","3","2","2","2","3","3","2","1","0","1","0","0","0","1","1","0","1","0","0","0","0","1","4","3","4","3","4","4","3","4","3","3","2","676146482423791616","李","690","","","","","","","","","","","","","","","","","","","","","","","","","","","","","","","","","","","","","","","","","",""
"773","<p style=""color:white; font-size: 35px;"">正直</p>","e","categorize-html","78","364375","0.0-6.0-1.0-6.0-1.9","4","4","4","3","3","4","3","3","4","4","4","4","4","4","4","4","4","3","4","4","4","2","3","2","2","2","3","3","2","1","0","1","0","0","0","1","1","0","1","0","0","0","0","1","4","3","4","3","4","4","3","4","3","3","2","676146482423791616","李","690","","","","","","","","","","","","","","","","","","","true","13","3","moral","773","positive","正直","","","","","","","","","","","","","","","","",""
"null","","null","html-keyboard-response","79","364633","0.0-6.0-1.0-6.0-0.10","4","4","4","3","3","4","3","3","4","4","4","4","4","4","4","4","4","3","4","4","4","2","3","2","2","2","3","3","2","1","0","1","0","0","0","1","1","0","1","0","0","0","0","1","4","3","4","3","4","4","3","4","3","3","2","676146482423791616","李","690","","","","","","","","","","","","","","","","","","","","","","","","","","","","","","","","","","","","","","","","","",""
"598","<p style=""color:rgb(150, 250, 100); font-size: 35px;"">自己的</p>","e","categorize-html","80","365234","0.0-6.0-1.0-6.0-1.10","4","4","4","3","3","4","3","3","4","4","4","4","4","4","4","4","4","3","4","4","4","2","3","2","2","2","3","3","2","1","0","1","0","0","0","1","1","0","1","0","0","0","0","1","4","3","4","3","4","4","3","4","3","3","2","676146482423791616","李","690","","","","","","","","","","","","","","","","","","","true","13","3","moral","598","self","自己的","","","","","","","","","","","","","","","","",""
"null","","null","html-keyboard-response","81","365485","0.0-6.0-1.0-6.0-0.11","4","4","4","3","3","4","3","3","4","4","4","4","4","4","4","4","4","3","4","4","4","2","3","2","2","2","3","3","2","1","0","1","0","0","0","1","1","0","1","0","0","0","0","1","4","3","4","3","4","4","3","4","3","3","2","676146482423791616","李","690","","","","","","","","","","","","","","","","","","","","","","","","","","","","","","","","","","","","","","","","","",""
"584","<p style=""color:white; font-size: 35px;"">黑心</p>","i","categorize-html","82","366072","0.0-6.0-1.0-6.0-1.11","4","4","4","3","3","4","3","3","4","4","4","4","4","4","4","4","4","3","4","4","4","2","3","2","2","2","3","3","2","1","0","1","0","0","0","1","1","0","1","0","0","0","0","1","4","3","4","3","4","4","3","4","3","3","2","676146482423791616","李","690","","","","","","","","","","","","","","","","","","","true","13","3","moral","584","negative","黑心","","","","","","","","","","","","","","","","",""
"null","","null","html-keyboard-response","83","366323","0.0-6.0-1.0-6.0-0.12","4","4","4","3","3","4","3","3","4","4","4","4","4","4","4","4","4","3","4","4","4","2","3","2","2","2","3","3","2","1","0","1","0","0","0","1","1","0","1","0","0","0","0","1","4","3","4","3","4","4","3","4","3","3","2","676146482423791616","李","690","","","","","","","","","","","","","","","","","","","","","","","","","","","","","","","","","","","","","","","","","",""
"763","<p style=""color:rgb(150, 250, 100); font-size: 35px;"">他人</p>","i","categorize-html","84","367089","0.0-6.0-1.0-6.0-1.12","4","4","4","3","3","4","3","3","4","4","4","4","4","4","4","4","4","3","4","4","4","2","3","2","2","2","3","3","2","1","0","1","0","0","0","1","1","0","1","0","0","0","0","1","4","3","4","3","4","4","3","4","3","3","2","676146482423791616","李","690","","","","","","","","","","","","","","","","","","","true","13","3","moral","763","other","他人","","","","","","","","","","","","","","","","",""
"null","","null","html-keyboard-response","85","367340","0.0-6.0-1.0-6.0-0.13","4","4","4","3","3","4","3","3","4","4","4","4","4","4","4","4","4","3","4","4","4","2","3","2","2","2","3","3","2","1","0","1","0","0","0","1","1","0","1","0","0","0","0","1","4","3","4","3","4","4","3","4","3","3","2","676146482423791616","李","690","","","","","","","","","","","","","","","","","","","","","","","","","","","","","","","","","","","","","","","","","",""
"563","<p style=""color:white; font-size: 35px;"">君子</p>","e","categorize-html","86","367906","0.0-6.0-1.0-6.0-1.13","4","4","4","3","3","4","3","3","4","4","4","4","4","4","4","4","4","3","4","4","4","2","3","2","2","2","3","3","2","1","0","1","0","0","0","1","1","0","1","0","0","0","0","1","4","3","4","3","4","4","3","4","3","3","2","676146482423791616","李","690","","","","","","","","","","","","","","","","","","","true","13","3","moral","563","positive","君子","","","","","","","","","","","","","","","","",""
"null","","null","html-keyboard-response","87","368158","0.0-6.0-1.0-6.0-0.14","4","4","4","3","3","4","3","3","4","4","4","4","4","4","4","4","4","3","4","4","4","2","3","2","2","2","3","3","2","1","0","1","0","0","0","1","1","0","1","0","0","0","0","1","4","3","4","3","4","4","3","4","3","3","2","676146482423791616","李","690","","","","","","","","","","","","","","","","","","","","","","","","","","","","","","","","","","","","","","","","","",""
"560","<p style=""color:rgb(150, 250, 100); font-size: 35px;"">自己</p>","e","categorize-html","88","368722","0.0-6.0-1.0-6.0-1.14","4","4","4","3","3","4","3","3","4","4","4","4","4","4","4","4","4","3","4","4","4","2","3","2","2","2","3","3","2","1","0","1","0","0","0","1","1","0","1","0","0","0","0","1","4","3","4","3","4","4","3","4","3","3","2","676146482423791616","李","690","","","","","","","","","","","","","","","","","","","true","13","3","moral","560","self","自己","","","","","","","","","","","","","","","","",""
"null","","null","html-keyboard-response","89","368987","0.0-6.0-1.0-6.0-0.15","4","4","4","3","3","4","3","3","4","4","4","4","4","4","4","4","4","3","4","4","4","2","3","2","2","2","3","3","2","1","0","1","0","0","0","1","1","0","1","0","0","0","0","1","4","3","4","3","4","4","3","4","3","3","2","676146482423791616","李","690","","","","","","","","","","","","","","","","","","","","","","","","","","","","","","","","","","","","","","","","","",""
"670","<p style=""color:white; font-size: 35px;"">不仁</p>","i","categorize-html","90","369658","0.0-6.0-1.0-6.0-1.15","4","4","4","3","3","4","3","3","4","4","4","4","4","4","4","4","4","3","4","4","4","2","3","2","2","2","3","3","2","1","0","1","0","0","0","1","1","0","1","0","0","0","0","1","4","3","4","3","4","4","3","4","3","3","2","676146482423791616","李","690","","","","","","","","","","","","","","","","","","","true","13","3","moral","670","negative","不仁","","","","","","","","","","","","","","","","",""
"null","","null","html-keyboard-response","91","369908","0.0-6.0-1.0-6.0-0.16","4","4","4","3","3","4","3","3","4","4","4","4","4","4","4","4","4","3","4","4","4","2","3","2","2","2","3","3","2","1","0","1","0","0","0","1","1","0","1","0","0","0","0","1","4","3","4","3","4","4","3","4","3","3","2","676146482423791616","李","690","","","","","","","","","","","","","","","","","","","","","","","","","","","","","","","","","","","","","","","","","",""
"562","<p style=""color:rgb(150, 250, 100); font-size: 35px;"">我的</p>","e","categorize-html","92","370472","0.0-6.0-1.0-6.0-1.16","4","4","4","3","3","4","3","3","4","4","4","4","4","4","4","4","4","3","4","4","4","2","3","2","2","2","3","3","2","1","0","1","0","0","0","1","1","0","1","0","0","0","0","1","4","3","4","3","4","4","3","4","3","3","2","676146482423791616","李","690","","","","","","","","","","","","","","","","","","","true","13","3","moral","562","self","我的","","","","","","","","","","","","","","","","",""
"null","","null","html-keyboard-response","93","370723","0.0-6.0-1.0-6.0-0.17","4","4","4","3","3","4","3","3","4","4","4","4","4","4","4","4","4","3","4","4","4","2","3","2","2","2","3","3","2","1","0","1","0","0","0","1","1","0","1","0","0","0","0","1","4","3","4","3","4","4","3","4","3","3","2","676146482423791616","李","690","","","","","","","","","","","","","","","","","","","","","","","","","","","","","","","","","","","","","","","","","",""
"574","<p style=""color:white; font-size: 35px;"">小人</p>","i","categorize-html","94","371298","0.0-6.0-1.0-6.0-1.17","4","4","4","3","3","4","3","3","4","4","4","4","4","4","4","4","4","3","4","4","4","2","3","2","2","2","3","3","2","1","0","1","0","0","0","1","1","0","1","0","0","0","0","1","4","3","4","3","4","4","3","4","3","3","2","676146482423791616","李","690","","","","","","","","","","","","","","","","","","","true","13","3","moral","574","negative","小人","","","","","","","","","","","","","","","","",""
"null","","null","html-keyboard-response","95","371549","0.0-6.0-1.0-6.0-0.18","4","4","4","3","3","4","3","3","4","4","4","4","4","4","4","4","4","3","4","4","4","2","3","2","2","2","3","3","2","1","0","1","0","0","0","1","1","0","1","0","0","0","0","1","4","3","4","3","4","4","3","4","3","3","2","676146482423791616","李","690","","","","","","","","","","","","","","","","","","","","","","","","","","","","","","","","","","","","","","","","","",""
"641","<p style=""color:rgb(150, 250, 100); font-size: 35px;"">别人</p>","i","categorize-html","96","372191","0.0-6.0-1.0-6.0-1.18","4","4","4","3","3","4","3","3","4","4","4","4","4","4","4","4","4","3","4","4","4","2","3","2","2","2","3","3","2","1","0","1","0","0","0","1","1","0","1","0","0","0","0","1","4","3","4","3","4","4","3","4","3","3","2","676146482423791616","李","690","","","","","","","","","","","","","","","","","","","true","13","3","moral","641","other","别人","","","","","","","","","","","","","","","","",""
"null","","null","html-keyboard-response","97","372442","0.0-6.0-1.0-6.0-0.19","4","4","4","3","3","4","3","3","4","4","4","4","4","4","4","4","4","3","4","4","4","2","3","2","2","2","3","3","2","1","0","1","0","0","0","1","1","0","1","0","0","0","0","1","4","3","4","3","4","4","3","4","3","3","2","676146482423791616","李","690","","","","","","","","","","","","","","","","","","","","","","","","","","","","","","","","","","","","","","","","","",""
"740","<p style=""color:white; font-size: 35px;"">廉正</p>","e","categorize-html","98","373184","0.0-6.0-1.0-6.0-1.19","4","4","4","3","3","4","3","3","4","4","4","4","4","4","4","4","4","3","4","4","4","2","3","2","2","2","3","3","2","1","0","1","0","0","0","1","1","0","1","0","0","0","0","1","4","3","4","3","4","4","3","4","3","3","2","676146482423791616","李","690","","","","","","","","","","","","","","","","","","","true","13","3","moral","740","positive","廉正","","","","","","","","","","","","","","","","",""
"null","","null","html-keyboard-response","99","373436","0.0-6.0-1.0-6.0-0.20","4","4","4","3","3","4","3","3","4","4","4","4","4","4","4","4","4","3","4","4","4","2","3","2","2","2","3","3","2","1","0","1","0","0","0","1","1","0","1","0","0","0","0","1","4","3","4","3","4","4","3","4","3","3","2","676146482423791616","李","690","","","","","","","","","","","","","","","","","","","","","","","","","","","","","","","","","","","","","","","","","",""
"571","<p style=""color:rgb(150, 250, 100); font-size: 35px;"">本人</p>","e","categorize-html","100","374011","0.0-6.0-1.0-6.0-1.20","4","4","4","3","3","4","3","3","4","4","4","4","4","4","4","4","4","3","4","4","4","2","3","2","2","2","3","3","2","1","0","1","0","0","0","1","1","0","1","0","0","0","0","1","4","3","4","3","4","4","3","4","3","3","2","676146482423791616","李","690","","","","","","","","","","","","","","","","","","","true","13","3","moral","571","self","本人","","","","","","","","","","","","","","","","",""
"null","","null","html-keyboard-response","101","374263","0.0-6.0-1.0-6.0-0.21","4","4","4","3","3","4","3","3","4","4","4","4","4","4","4","4","4","3","4","4","4","2","3","2","2","2","3","3","2","1","0","1","0","0","0","1","1","0","1","0","0","0","0","1","4","3","4","3","4","4","3","4","3","3","2","676146482423791616","李","690","","","","","","","","","","","","","","","","","","","","","","","","","","","","","","","","","","","","","","","","","",""
"671","<p style=""color:white; font-size: 35px;"">不孝</p>","i","categorize-html","102","374934","0.0-6.0-1.0-6.0-1.21","4","4","4","3","3","4","3","3","4","4","4","4","4","4","4","4","4","3","4","4","4","2","3","2","2","2","3","3","2","1","0","1","0","0","0","1","1","0","1","0","0","0","0","1","4","3","4","3","4","4","3","4","3","3","2","676146482423791616","李","690","","","","","","","","","","","","","","","","","","","true","13","3","moral","671","negative","不孝","","","","","","","","","","","","","","","","",""
"null","","null","html-keyboard-response","103","375185","0.0-6.0-1.0-6.0-0.22","4","4","4","3","3","4","3","3","4","4","4","4","4","4","4","4","4","3","4","4","4","2","3","2","2","2","3","3","2","1","0","1","0","0","0","1","1","0","1","0","0","0","0","1","4","3","4","3","4","4","3","4","3","3","2","676146482423791616","李","690","","","","","","","","","","","","","","","","","","","","","","","","","","","","","","","","","","","","","","","","","",""
"902","<p style=""color:rgb(150, 250, 100); font-size: 35px;"">别人的</p>","i","categorize-html","104","376090","0.0-6.0-1.0-6.0-1.22","4","4","4","3","3","4","3","3","4","4","4","4","4","4","4","4","4","3","4","4","4","2","3","2","2","2","3","3","2","1","0","1","0","0","0","1","1","0","1","0","0","0","0","1","4","3","4","3","4","4","3","4","3","3","2","676146482423791616","李","690","","","","","","","","","","","","","","","","","","","true","13","3","moral","902","other","别人的","","","","","","","","","","","","","","","","",""
"null","","null","html-keyboard-response","105","376341","0.0-6.0-1.0-6.0-0.23","4","4","4","3","3","4","3","3","4","4","4","4","4","4","4","4","4","3","4","4","4","2","3","2","2","2","3","3","2","1","0","1","0","0","0","1","1","0","1","0","0","0","0","1","4","3","4","3","4","4","3","4","3","3","2","676146482423791616","李","690","","","","","","","","","","","","","","","","","","","","","","","","","","","","","","","","","","","","","","","","","",""
"801","<p style=""color:white; font-size: 35px;"">诚信</p>","e","categorize-html","106","377144","0.0-6.0-1.0-6.0-1.23","4","4","4","3","3","4","3","3","4","4","4","4","4","4","4","4","4","3","4","4","4","2","3","2","2","2","3","3","2","1","0","1","0","0","0","1","1","0","1","0","0","0","0","1","4","3","4","3","4","4","3","4","3","3","2","676146482423791616","李","690","","","","","","","","","","","","","","","","","","","true","13","3","moral","801","positive","诚信","","","","","","","","","","","","","","","","",""
"3837","
    <div class=""tag-bottom""><p>
    —— 任务4：对“自我/积极”词和“他人/消极”词分类 ——<p/>
    <span style=""color:#78DCE8""><b>与刚才的任务完全相同，请再次对这四类词语分类</b></span><p/>
    <span style=""color:#FFD866""><b>请根据上方标签的提示，尽可能正确并且快速地做出按键反应</b></span><p/>
    当按键错误时屏幕中会出现<span style=""color:red""> X </span>，需要按另一个键纠正才能继续<br/><p/>
    请把双手食指分别放在键盘的“E”键和“I”键上<p/>
    按<空格键>开始
    </p></div>"," ","html-keyboard-response","107","380982","0.0-6.0-1.0-7.0","4","4","4","3","3","4","3","3","4","4","4","4","4","4","4","4","4","3","4","4","4","2","3","2","2","2","3","3","2","1","0","1","0","0","0","1","1","0","1","0","0","0","0","1","4","3","4","3","4","4","3","4","3","3","2","676146482423791616","李","690","","","","","","","","","","","","","","","","","","","","","","","","","","","","","","","","","","","","","","","","","",""
"null","","null","html-keyboard-response","108","381232","0.0-6.0-1.0-8.0-0.0","4","4","4","3","3","4","3","3","4","4","4","4","4","4","4","4","4","3","4","4","4","2","3","2","2","2","3","3","2","1","0","1","0","0","0","1","1","0","1","0","0","0","0","1","4","3","4","3","4","4","3","4","3","3","2","676146482423791616","李","690","","","","","","","","","","","","","","","","","","","","","","","","","","","","","","","","","","","","","","","","","",""
"805","<p style=""color:rgb(150, 250, 100); font-size: 35px;"">他人的</p>","i","categorize-html","109","382043","0.0-6.0-1.0-8.0-1.0","4","4","4","3","3","4","3","3","4","4","4","4","4","4","4","4","4","3","4","4","4","2","3","2","2","2","3","3","2","1","0","1","0","0","0","1","1","0","1","0","0","0","0","1","4","3","4","3","4","4","3","4","3","3","2","676146482423791616","李","690","","","","","","","","","","","","","","","","","","","true","14","4","moral","805","other","他人的","","","","","","","","","","","","","","","","",""
"null","","null","html-keyboard-response","110","382294","0.0-6.0-1.0-8.0-0.1","4","4","4","3","3","4","3","3","4","4","4","4","4","4","4","4","4","3","4","4","4","2","3","2","2","2","3","3","2","1","0","1","0","0","0","1","1","0","1","0","0","0","0","1","4","3","4","3","4","4","3","4","3","3","2","676146482423791616","李","690","","","","","","","","","","","","","","","","","","","","","","","","","","","","","","","","","","","","","","","","","",""
"579","<p style=""color:white; font-size: 35px;"">黑心</p>","i","categorize-html","111","382875","0.0-6.0-1.0-8.0-1.1","4","4","4","3","3","4","3","3","4","4","4","4","4","4","4","4","4","3","4","4","4","2","3","2","2","2","3","3","2","1","0","1","0","0","0","1","1","0","1","0","0","0","0","1","4","3","4","3","4","4","3","4","3","3","2","676146482423791616","李","690","","","","","","","","","","","","","","","","","","","true","14","4","moral","579","negative","黑心","","","","","","","","","","","","","","","","",""
"null","","null","html-keyboard-response","112","383125","0.0-6.0-1.0-8.0-0.2","4","4","4","3","3","4","3","3","4","4","4","4","4","4","4","4","4","3","4","4","4","2","3","2","2","2","3","3","2","1","0","1","0","0","0","1","1","0","1","0","0","0","0","1","4","3","4","3","4","4","3","4","3","3","2","676146482423791616","李","690","","","","","","","","","","","","","","","","","","","","","","","","","","","","","","","","","","","","","","","","","",""
"595","<p style=""color:rgb(150, 250, 100); font-size: 35px;"">我</p>","e","categorize-html","113","383722","0.0-6.0-1.0-8.0-1.2","4","4","4","3","3","4","3","3","4","4","4","4","4","4","4","4","4","3","4","4","4","2","3","2","2","2","3","3","2","1","0","1","0","0","0","1","1","0","1","0","0","0","0","1","4","3","4","3","4","4","3","4","3","3","2","676146482423791616","李","690","","","","","","","","","","","","","","","","","","","true","14","4","moral","595","self","我","","","","","","","","","","","","","","","","",""
"null","","null","html-keyboard-response","114","383973","0.0-6.0-1.0-8.0-0.3","4","4","4","3","3","4","3","3","4","4","4","4","4","4","4","4","4","3","4","4","4","2","3","2","2","2","3","3","2","1","0","1","0","0","0","1","1","0","1","0","0","0","0","1","4","3","4","3","4","4","3","4","3","3","2","676146482423791616","李","690","","","","","","","","","","","","","","","","","","","","","","","","","","","","","","","","","","","","","","","","","",""
"620","<p style=""color:white; font-size: 35px;"">廉正</p>","e","categorize-html","115","384594","0.0-6.0-1.0-8.0-1.3","4","4","4","3","3","4","3","3","4","4","4","4","4","4","4","4","4","3","4","4","4","2","3","2","2","2","3","3","2","1","0","1","0","0","0","1","1","0","1","0","0","0","0","1","4","3","4","3","4","4","3","4","3","3","2","676146482423791616","李","690","","","","","","","","","","","","","","","","","","","true","14","4","moral","620","positive","廉正","","","","","","","","","","","","","","","","",""
"null","","null","html-keyboard-response","116","384845","0.0-6.0-1.0-8.0-0.4","4","4","4","3","3","4","3","3","4","4","4","4","4","4","4","4","4","3","4","4","4","2","3","2","2","2","3","3","2","1","0","1","0","0","0","1","1","0","1","0","0","0","0","1","4","3","4","3","4","4","3","4","3","3","2","676146482423791616","李","690","","","","","","","","","","","","","","","","","","","","","","","","","","","","","","","","","","","","","","","","","",""
"531","<p style=""color:rgb(150, 250, 100); font-size: 35px;"">本人</p>","e","categorize-html","117","385378","0.0-6.0-1.0-8.0-1.4","4","4","4","3","3","4","3","3","4","4","4","4","4","4","4","4","4","3","4","4","4","2","3","2","2","2","3","3","2","1","0","1","0","0","0","1","1","0","1","0","0","0","0","1","4","3","4","3","4","4","3","4","3","3","2","676146482423791616","李","690","","","","","","","","","","","","","","","","","","","true","14","4","moral","531","self","本人","","","","","","","","","","","","","","","","",""
"null","","null","html-keyboard-response","118","385629","0.0-6.0-1.0-8.0-0.5","4","4","4","3","3","4","3","3","4","4","4","4","4","4","4","4","4","3","4","4","4","2","3","2","2","2","3","3","2","1","0","1","0","0","0","1","1","0","1","0","0","0","0","1","4","3","4","3","4","4","3","4","3","3","2","676146482423791616","李","690","","","","","","","","","","","","","","","","","","","","","","","","","","","","","","","","","","","","","","","","","",""
"780","<p style=""color:white; font-size: 35px;"">缺德</p>","i","categorize-html","119","386413","0.0-6.0-1.0-8.0-1.5","4","4","4","3","3","4","3","3","4","4","4","4","4","4","4","4","4","3","4","4","4","2","3","2","2","2","3","3","2","1","0","1","0","0","0","1","1","0","1","0","0","0","0","1","4","3","4","3","4","4","3","4","3","3","2","676146482423791616","李","690","","","","","","","","","","","","","","","","","","","true","14","4","moral","780","negative","缺德","","","","","","","","","","","","","","","","",""
"null","","null","html-keyboard-response","120","386669","0.0-6.0-1.0-8.0-0.6","4","4","4","3","3","4","3","3","4","4","4","4","4","4","4","4","4","3","4","4","4","2","3","2","2","2","3","3","2","1","0","1","0","0","0","1","1","0","1","0","0","0","0","1","4","3","4","3","4","4","3","4","3","3","2","676146482423791616","李","690","","","","","","","","","","","","","","","","","","","","","","","","","","","","","","","","","","","","","","","","","",""
"604","<p style=""color:rgb(150, 250, 100); font-size: 35px;"">别人的</p>","i","categorize-html","121","387275","0.0-6.0-1.0-8.0-1.6","4","4","4","3","3","4","3","3","4","4","4","4","4","4","4","4","4","3","4","4","4","2","3","2","2","2","3","3","2","1","0","1","0","0","0","1","1","0","1","0","0","0","0","1","4","3","4","3","4","4","3","4","3","3","2","676146482423791616","李","690","","","","","","","","","","","","","","","","","","","true","14","4","moral","604","other","别人的","","","","","","","","","","","","","","","","",""
"null","","null","html-keyboard-response","122","387526","0.0-6.0-1.0-8.0-0.7","4","4","4","3","3","4","3","3","4","4","4","4","4","4","4","4","4","3","4","4","4","2","3","2","2","2","3","3","2","1","0","1","0","0","0","1","1","0","1","0","0","0","0","1","4","3","4","3","4","4","3","4","3","3","2","676146482423791616","李","690","","","","","","","","","","","","","","","","","","","","","","","","","","","","","","","","","","","","","","","","","",""
"539","<p style=""color:white; font-size: 35px;"">正直</p>","e","categorize-html","123","388069","0.0-6.0-1.0-8.0-1.7","4","4","4","3","3","4","3","3","4","4","4","4","4","4","4","4","4","3","4","4","4","2","3","2","2","2","3","3","2","1","0","1","0","0","0","1","1","0","1","0","0","0","0","1","4","3","4","3","4","4","3","4","3","3","2","676146482423791616","李","690","","","","","","","","","","","","","","","","","","","true","14","4","moral","539","positive","正直","","","","","","","","","","","","","","","","",""
"null","","null","html-keyboard-response","124","388320","0.0-6.0-1.0-8.0-0.8","4","4","4","3","3","4","3","3","4","4","4","4","4","4","4","4","4","3","4","4","4","2","3","2","2","2","3","3","2","1","0","1","0","0","0","1","1","0","1","0","0","0","0","1","4","3","4","3","4","4","3","4","3","3","2","676146482423791616","李","690","","","","","","","","","","","","","","","","","","","","","","","","","","","","","","","","","","","","","","","","","",""
"585","<p style=""color:rgb(150, 250, 100); font-size: 35px;"">自己的</p>","e","categorize-html","125","388965","0.0-6.0-1.0-8.0-1.8","4","4","4","3","3","4","3","3","4","4","4","4","4","4","4","4","4","3","4","4","4","2","3","2","2","2","3","3","2","1","0","1","0","0","0","1","1","0","1","0","0","0","0","1","4","3","4","3","4","4","3","4","3","3","2","676146482423791616","李","690","","","","","","","","","","","","","","","","","","","true","14","4","moral","585","self","自己的","","","","","","","","","","","","","","","","",""
"null","","null","html-keyboard-response","126","389216","0.0-6.0-1.0-8.0-0.9","4","4","4","3","3","4","3","3","4","4","4","4","4","4","4","4","4","3","4","4","4","2","3","2","2","2","3","3","2","1","0","1","0","0","0","1","1","0","1","0","0","0","0","1","4","3","4","3","4","4","3","4","3","3","2","676146482423791616","李","690","","","","","","","","","","","","","","","","","","","","","","","","","","","","","","","","","","","","","","","","","",""
"648","<p style=""color:white; font-size: 35px;"">不仁</p>","i","categorize-html","127","389865","0.0-6.0-1.0-8.0-1.9","4","4","4","3","3","4","3","3","4","4","4","4","4","4","4","4","4","3","4","4","4","2","3","2","2","2","3","3","2","1","0","1","0","0","0","1","1","0","1","0","0","0","0","1","4","3","4","3","4","4","3","4","3","3","2","676146482423791616","李","690","","","","","","","","","","","","","","","","","","","true","14","4","moral","648","negative","不仁","","","","","","","","","","","","","","","","",""
"null","","null","html-keyboard-response","128","390116","0.0-6.0-1.0-8.0-0.10","4","4","4","3","3","4","3","3","4","4","4","4","4","4","4","4","4","3","4","4","4","2","3","2","2","2","3","3","2","1","0","1","0","0","0","1","1","0","1","0","0","0","0","1","4","3","4","3","4","4","3","4","3","3","2","676146482423791616","李","690","","","","","","","","","","","","","","","","","","","","","","","","","","","","","","","","","","","","","","","","","",""
"700","<p style=""color:rgb(150, 250, 100); font-size: 35px;"">别人的</p>","i","categorize-html","129","390820","0.0-6.0-1.0-8.0-1.10","4","4","4","3","3","4","3","3","4","4","4","4","4","4","4","4","4","3","4","4","4","2","3","2","2","2","3","3","2","1","0","1","0","0","0","1","1","0","1","0","0","0","0","1","4","3","4","3","4","4","3","4","3","3","2","676146482423791616","李","690","","","","","","","","","","","","","","","","","","","true","14","4","moral","700","other","别人的","","","","","","","","","","","","","","","","",""
"null","","null","html-keyboard-response","130","391071","0.0-6.0-1.0-8.0-0.11","4","4","4","3","3","4","3","3","4","4","4","4","4","4","4","4","4","3","4","4","4","2","3","2","2","2","3","3","2","1","0","1","0","0","0","1","1","0","1","0","0","0","0","1","4","3","4","3","4","4","3","4","3","3","2","676146482423791616","李","690","","","","","","","","","","","","","","","","","","","","","","","","","","","","","","","","","","","","","","","","","",""
"585","<p style=""color:white; font-size: 35px;"">诚信</p>","e","categorize-html","131","391660","0.0-6.0-1.0-8.0-1.11","4","4","4","3","3","4","3","3","4","4","4","4","4","4","4","4","4","3","4","4","4","2","3","2","2","2","3","3","2","1","0","1","0","0","0","1","1","0","1","0","0","0","0","1","4","3","4","3","4","4","3","4","3","3","2","676146482423791616","李","690","","","","","","","","","","","","","","","","","","","true","14","4","moral","585","positive","诚信","","","","","","","","","","","","","","","","",""
"null","","null","html-keyboard-response","132","391923","0.0-6.0-1.0-8.0-0.12","4","4","4","3","3","4","3","3","4","4","4","4","4","4","4","4","4","3","4","4","4","2","3","2","2","2","3","3","2","1","0","1","0","0","0","1","1","0","1","0","0","0","0","1","4","3","4","3","4","4","3","4","3","3","2","676146482423791616","李","690","","","","","","","","","","","","","","","","","","","","","","","","","","","","","","","","","","","","","","","","","",""
"694","<p style=""color:rgb(150, 250, 100); font-size: 35px;"">他的</p>","i","categorize-html","133","392617","0.0-6.0-1.0-8.0-1.12","4","4","4","3","3","4","3","3","4","4","4","4","4","4","4","4","4","3","4","4","4","2","3","2","2","2","3","3","2","1","0","1","0","0","0","1","1","0","1","0","0","0","0","1","4","3","4","3","4","4","3","4","3","3","2","676146482423791616","李","690","","","","","","","","","","","","","","","","","","","true","14","4","moral","694","other","他的","","","","","","","","","","","","","","","","",""
"null","","null","html-keyboard-response","134","392869","0.0-6.0-1.0-8.0-0.13","4","4","4","3","3","4","3","3","4","4","4","4","4","4","4","4","4","3","4","4","4","2","3","2","2","2","3","3","2","1","0","1","0","0","0","1","1","0","1","0","0","0","0","1","4","3","4","3","4","4","3","4","3","3","2","676146482423791616","李","690","","","","","","","","","","","","","","","","","","","","","","","","","","","","","","","","","","","","","","","","","",""
"620","<p style=""color:white; font-size: 35px;"">不仁</p>","i","categorize-html","135","393492","0.0-6.0-1.0-8.0-1.13","4","4","4","3","3","4","3","3","4","4","4","4","4","4","4","4","4","3","4","4","4","2","3","2","2","2","3","3","2","1","0","1","0","0","0","1","1","0","1","0","0","0","0","1","4","3","4","3","4","4","3","4","3","3","2","676146482423791616","李","690","","","","","","","","","","","","","","","","","","","true","14","4","moral","620","negative","不仁","","","","","","","","","","","","","","","","",""
"null","","null","html-keyboard-response","136","393743","0.0-6.0-1.0-8.0-0.14","4","4","4","3","3","4","3","3","4","4","4","4","4","4","4","4","4","3","4","4","4","2","3","2","2","2","3","3","2","1","0","1","0","0","0","1","1","0","1","0","0","0","0","1","4","3","4","3","4","4","3","4","3","3","2","676146482423791616","李","690","","","","","","","","","","","","","","","","","","","","","","","","","","","","","","","","","","","","","","","","","",""
"609","<p style=""color:rgb(150, 250, 100); font-size: 35px;"">我</p>","e","categorize-html","137","394356","0.0-6.0-1.0-8.0-1.14","4","4","4","3","3","4","3","3","4","4","4","4","4","4","4","4","4","3","4","4","4","2","3","2","2","2","3","3","2","1","0","1","0","0","0","1","1","0","1","0","0","0","0","1","4","3","4","3","4","4","3","4","3","3","2","676146482423791616","李","690","","","","","","","","","","","","","","","","","","","true","14","4","moral","609","self","我","","","","","","","","","","","","","","","","",""
"null","","null","html-keyboard-response","138","394609","0.0-6.0-1.0-8.0-0.15","4","4","4","3","3","4","3","3","4","4","4","4","4","4","4","4","4","3","4","4","4","2","3","2","2","2","3","3","2","1","0","1","0","0","0","1","1","0","1","0","0","0","0","1","4","3","4","3","4","4","3","4","3","3","2","676146482423791616","李","690","","","","","","","","","","","","","","","","","","","","","","","","","","","","","","","","","","","","","","","","","",""
"527","<p style=""color:white; font-size: 35px;"">善良</p>","e","categorize-html","139","395137","0.0-6.0-1.0-8.0-1.15","4","4","4","3","3","4","3","3","4","4","4","4","4","4","4","4","4","3","4","4","4","2","3","2","2","2","3","3","2","1","0","1","0","0","0","1","1","0","1","0","0","0","0","1","4","3","4","3","4","4","3","4","3","3","2","676146482423791616","李","690","","","","","","","","","","","","","","","","","","","true","14","4","moral","527","positive","善良","","","","","","","","","","","","","","","","",""
"null","","null","html-keyboard-response","140","395388","0.0-6.0-1.0-8.0-0.16","4","4","4","3","3","4","3","3","4","4","4","4","4","4","4","4","4","3","4","4","4","2","3","2","2","2","3","3","2","1","0","1","0","0","0","1","1","0","1","0","0","0","0","1","4","3","4","3","4","4","3","4","3","3","2","676146482423791616","李","690","","","","","","","","","","","","","","","","","","","","","","","","","","","","","","","","","","","","","","","","","",""
"604","<p style=""color:rgb(150, 250, 100); font-size: 35px;"">他的</p>","i","categorize-html","141","395996","0.0-6.0-1.0-8.0-1.16","4","4","4","3","3","4","3","3","4","4","4","4","4","4","4","4","4","3","4","4","4","2","3","2","2","2","3","3","2","1","0","1","0","0","0","1","1","0","1","0","0","0","0","1","4","3","4","3","4","4","3","4","3","3","2","676146482423791616","李","690","","","","","","","","","","","","","","","","","","","true","14","4","moral","604","other","他的","","","","","","","","","","","","","","","","",""
"null","","null","html-keyboard-response","142","396247","0.0-6.0-1.0-8.0-0.17","4","4","4","3","3","4","3","3","4","4","4","4","4","4","4","4","4","3","4","4","4","2","3","2","2","2","3","3","2","1","0","1","0","0","0","1","1","0","1","0","0","0","0","1","4","3","4","3","4","4","3","4","3","3","2","676146482423791616","李","690","","","","","","","","","","","","","","","","","","","","","","","","","","","","","","","","","","","","","","","","","",""
"681","<p style=""color:white; font-size: 35px;"">小人</p>","i","categorize-html","143","396930","0.0-6.0-1.0-8.0-1.17","4","4","4","3","3","4","3","3","4","4","4","4","4","4","4","4","4","3","4","4","4","2","3","2","2","2","3","3","2","1","0","1","0","0","0","1","1","0","1","0","0","0","0","1","4","3","4","3","4","4","3","4","3","3","2","676146482423791616","李","690","","","","","","","","","","","","","","","","","","","true","14","4","moral","681","negative","小人","","","","","","","","","","","","","","","","",""
"null","","null","html-keyboard-response","144","397181","0.0-6.0-1.0-8.0-0.18","4","4","4","3","3","4","3","3","4","4","4","4","4","4","4","4","4","3","4","4","4","2","3","2","2","2","3","3","2","1","0","1","0","0","0","1","1","0","1","0","0","0","0","1","4","3","4","3","4","4","3","4","3","3","2","676146482423791616","李","690","","","","","","","","","","","","","","","","","","","","","","","","","","","","","","","","","","","","","","","","","",""
"916","<p style=""color:rgb(150, 250, 100); font-size: 35px;"">我的</p>","e","categorize-html","145","398098","0.0-6.0-1.0-8.0-1.18","4","4","4","3","3","4","3","3","4","4","4","4","4","4","4","4","4","3","4","4","4","2","3","2","2","2","3","3","2","1","0","1","0","0","0","1","1","0","1","0","0","0","0","1","4","3","4","3","4","4","3","4","3","3","2","676146482423791616","李","690","","","","","","","","","","","","","","","","","","","true","14","4","moral","916","self","我的","","","","","","","","","","","","","","","","",""
"null","","null","html-keyboard-response","146","398349","0.0-6.0-1.0-8.0-0.19","4","4","4","3","3","4","3","3","4","4","4","4","4","4","4","4","4","3","4","4","4","2","3","2","2","2","3","3","2","1","0","1","0","0","0","1","1","0","1","0","0","0","0","1","4","3","4","3","4","4","3","4","3","3","2","676146482423791616","李","690","","","","","","","","","","","","","","","","","","","","","","","","","","","","","","","","","","","","","","","","","",""
"1034","<p style=""color:white; font-size: 35px;"">君子</p>","e","categorize-html","147","399386","0.0-6.0-1.0-8.0-1.19","4","4","4","3","3","4","3","3","4","4","4","4","4","4","4","4","4","3","4","4","4","2","3","2","2","2","3","3","2","1","0","1","0","0","0","1","1","0","1","0","0","0","0","1","4","3","4","3","4","4","3","4","3","3","2","676146482423791616","李","690","","","","","","","","","","","","","","","","","","","true","14","4","moral","1034","positive","君子","","","","","","","","","","","","","","","","",""
"null","","null","html-keyboard-response","148","399637","0.0-6.0-1.0-8.0-0.20","4","4","4","3","3","4","3","3","4","4","4","4","4","4","4","4","4","3","4","4","4","2","3","2","2","2","3","3","2","1","0","1","0","0","0","1","1","0","1","0","0","0","0","1","4","3","4","3","4","4","3","4","3","3","2","676146482423791616","李","690","","","","","","","","","","","","","","","","","","","","","","","","","","","","","","","","","","","","","","","","","",""
"667","<p style=""color:rgb(150, 250, 100); font-size: 35px;"">自己</p>","e","categorize-html","149","400306","0.0-6.0-1.0-8.0-1.20","4","4","4","3","3","4","3","3","4","4","4","4","4","4","4","4","4","3","4","4","4","2","3","2","2","2","3","3","2","1","0","1","0","0","0","1","1","0","1","0","0","0","0","1","4","3","4","3","4","4","3","4","3","3","2","676146482423791616","李","690","","","","","","","","","","","","","","","","","","","true","14","4","moral","667","self","自己","","","","","","","","","","","","","","","","",""
"null","","null","html-keyboard-response","150","400557","0.0-6.0-1.0-8.0-0.21","4","4","4","3","3","4","3","3","4","4","4","4","4","4","4","4","4","3","4","4","4","2","3","2","2","2","3","3","2","1","0","1","0","0","0","1","1","0","1","0","0","0","0","1","4","3","4","3","4","4","3","4","3","3","2","676146482423791616","李","690","","","","","","","","","","","","","","","","","","","","","","","","","","","","","","","","","","","","","","","","","",""
"563","<p style=""color:white; font-size: 35px;"">善良</p>","e","categorize-html","151","401123","0.0-6.0-1.0-8.0-1.21","4","4","4","3","3","4","3","3","4","4","4","4","4","4","4","4","4","3","4","4","4","2","3","2","2","2","3","3","2","1","0","1","0","0","0","1","1","0","1","0","0","0","0","1","4","3","4","3","4","4","3","4","3","3","2","676146482423791616","李","690","","","","","","","","","","","","","","","","","","","true","14","4","moral","563","positive","善良","","","","","","","","","","","","","","","","",""
"null","","null","html-keyboard-response","152","401386","0.0-6.0-1.0-8.0-0.22","4","4","4","3","3","4","3","3","4","4","4","4","4","4","4","4","4","3","4","4","4","2","3","2","2","2","3","3","2","1","0","1","0","0","0","1","1","0","1","0","0","0","0","1","4","3","4","3","4","4","3","4","3","3","2","676146482423791616","李","690","","","","","","","","","","","","","","","","","","","","","","","","","","","","","","","","","","","","","","","","","",""
"597","<p style=""color:rgb(150, 250, 100); font-size: 35px;"">他</p>","i","categorize-html","153","401985","0.0-6.0-1.0-8.0-1.22","4","4","4","3","3","4","3","3","4","4","4","4","4","4","4","4","4","3","4","4","4","2","3","2","2","2","3","3","2","1","0","1","0","0","0","1","1","0","1","0","0","0","0","1","4","3","4","3","4","4","3","4","3","3","2","676146482423791616","李","690","","","","","","","","","","","","","","","","","","","true","14","4","moral","597","other","他","","","","","","","","","","","","","","","","",""
"null","","null","html-keyboard-response","154","402236","0.0-6.0-1.0-8.0-0.23","4","4","4","3","3","4","3","3","4","4","4","4","4","4","4","4","4","3","4","4","4","2","3","2","2","2","3","3","2","1","0","1","0","0","0","1","1","0","1","0","0","0","0","1","4","3","4","3","4","4","3","4","3","3","2","676146482423791616","李","690","","","","","","","","","","","","","","","","","","","","","","","","","","","","","","","","","","","","","","","","","",""
"578","<p style=""color:white; font-size: 35px;"">卑鄙</p>","i","categorize-html","155","402815","0.0-6.0-1.0-8.0-1.23","4","4","4","3","3","4","3","3","4","4","4","4","4","4","4","4","4","3","4","4","4","2","3","2","2","2","3","3","2","1","0","1","0","0","0","1","1","0","1","0","0","0","0","1","4","3","4","3","4","4","3","4","3","3","2","676146482423791616","李","690","","","","","","","","","","","","","","","","","","","true","14","4","moral","578","negative","卑鄙","","","","","","","","","","","","","","","","",""
"null","","null","html-keyboard-response","156","403066","0.0-6.0-1.0-8.0-0.24","4","4","4","3","3","4","3","3","4","4","4","4","4","4","4","4","4","3","4","4","4","2","3","2","2","2","3","3","2","1","0","1","0","0","0","1","1","0","1","0","0","0","0","1","4","3","4","3","4","4","3","4","3","3","2","676146482423791616","李","690","","","","","","","","","","","","","","","","","","","","","","","","","","","","","","","","","","","","","","","","","",""
"614","<p style=""color:rgb(150, 250, 100); font-size: 35px;"">他</p>","i","categorize-html","157","403681","0.0-6.0-1.0-8.0-1.24","4","4","4","3","3","4","3","3","4","4","4","4","4","4","4","4","4","3","4","4","4","2","3","2","2","2","3","3","2","1","0","1","0","0","0","1","1","0","1","0","0","0","0","1","4","3","4","3","4","4","3","4","3","3","2","676146482423791616","李","690","","","","","","","","","","","","","","","","","","","true","14","4","moral","614","other","他","","","","","","","","","","","","","","","","",""
"null","","null","html-keyboard-response","158","403932","0.0-6.0-1.0-8.0-0.25","4","4","4","3","3","4","3","3","4","4","4","4","4","4","4","4","4","3","4","4","4","2","3","2","2","2","3","3","2","1","0","1","0","0","0","1","1","0","1","0","0","0","0","1","4","3","4","3","4","4","3","4","3","3","2","676146482423791616","李","690","","","","","","","","","","","","","","","","","","","","","","","","","","","","","","","","","","","","","","","","","",""
"787","<p style=""color:white; font-size: 35px;"">小人</p>","i","categorize-html","159","404720","0.0-6.0-1.0-8.0-1.25","4","4","4","3","3","4","3","3","4","4","4","4","4","4","4","4","4","3","4","4","4","2","3","2","2","2","3","3","2","1","0","1","0","0","0","1","1","0","1","0","0","0","0","1","4","3","4","3","4","4","3","4","3","3","2","676146482423791616","李","690","","","","","","","","","","","","","","","","","","","true","14","4","moral","787","negative","小人","","","","","","","","","","","","","","","","",""
"null","","null","html-keyboard-response","160","404971","0.0-6.0-1.0-8.0-0.26","4","4","4","3","3","4","3","3","4","4","4","4","4","4","4","4","4","3","4","4","4","2","3","2","2","2","3","3","2","1","0","1","0","0","0","1","1","0","1","0","0","0","0","1","4","3","4","3","4","4","3","4","3","3","2","676146482423791616","李","690","","","","","","","","","","","","","","","","","","","","","","","","","","","","","","","","","","","","","","","","","",""
"652","<p style=""color:rgb(150, 250, 100); font-size: 35px;"">本人的</p>","e","categorize-html","161","405625","0.0-6.0-1.0-8.0-1.26","4","4","4","3","3","4","3","3","4","4","4","4","4","4","4","4","4","3","4","4","4","2","3","2","2","2","3","3","2","1","0","1","0","0","0","1","1","0","1","0","0","0","0","1","4","3","4","3","4","4","3","4","3","3","2","676146482423791616","李","690","","","","","","","","","","","","","","","","","","","true","14","4","moral","652","self","本人的","","","","","","","","","","","","","","","","",""
"null","","null","html-keyboard-response","162","405876","0.0-6.0-1.0-8.0-0.27","4","4","4","3","3","4","3","3","4","4","4","4","4","4","4","4","4","3","4","4","4","2","3","2","2","2","3","3","2","1","0","1","0","0","0","1","1","0","1","0","0","0","0","1","4","3","4","3","4","4","3","4","3","3","2","676146482423791616","李","690","","","","","","","","","","","","","","","","","","","","","","","","","","","","","","","","","","","","","","","","","",""
"507","<p style=""color:white; font-size: 35px;"">君子</p>","e","categorize-html","163","406385","0.0-6.0-1.0-8.0-1.27","4","4","4","3","3","4","3","3","4","4","4","4","4","4","4","4","4","3","4","4","4","2","3","2","2","2","3","3","2","1","0","1","0","0","0","1","1","0","1","0","0","0","0","1","4","3","4","3","4","4","3","4","3","3","2","676146482423791616","李","690","","","","","","","","","","","","","","","","","","","true","14","4","moral","507","positive","君子","","","","","","","","","","","","","","","","",""
"null","","null","html-keyboard-response","164","406636","0.0-6.0-1.0-8.0-0.28","4","4","4","3","3","4","3","3","4","4","4","4","4","4","4","4","4","3","4","4","4","2","3","2","2","2","3","3","2","1","0","1","0","0","0","1","1","0","1","0","0","0","0","1","4","3","4","3","4","4","3","4","3","3","2","676146482423791616","李","690","","","","","","","","","","","","","","","","","","","","","","","","","","","","","","","","","","","","","","","","","",""
"556","<p style=""color:rgb(150, 250, 100); font-size: 35px;"">别人</p>","i","categorize-html","165","407195","0.0-6.0-1.0-8.0-1.28","4","4","4","3","3","4","3","3","4","4","4","4","4","4","4","4","4","3","4","4","4","2","3","2","2","2","3","3","2","1","0","1","0","0","0","1","1","0","1","0","0","0","0","1","4","3","4","3","4","4","3","4","3","3","2","676146482423791616","李","690","","","","","","","","","","","","","","","","","","","true","14","4","moral","556","other","别人","","","","","","","","","","","","","","","","",""
"null","","null","html-keyboard-response","166","407454","0.0-6.0-1.0-8.0-0.29","4","4","4","3","3","4","3","3","4","4","4","4","4","4","4","4","4","3","4","4","4","2","3","2","2","2","3","3","2","1","0","1","0","0","0","1","1","0","1","0","0","0","0","1","4","3","4","3","4","4","3","4","3","3","2","676146482423791616","李","690","","","","","","","","","","","","","","","","","","","","","","","","","","","","","","","","","","","","","","","","","",""
"570","<p style=""color:white; font-size: 35px;"">高尚</p>","e","categorize-html","167","408027","0.0-6.0-1.0-8.0-1.29","4","4","4","3","3","4","3","3","4","4","4","4","4","4","4","4","4","3","4","4","4","2","3","2","2","2","3","3","2","1","0","1","0","0","0","1","1","0","1","0","0","0","0","1","4","3","4","3","4","4","3","4","3","3","2","676146482423791616","李","690","","","","","","","","","","","","","","","","","","","true","14","4","moral","570","positive","高尚","","","","","","","","","","","","","","","","",""
"null","","null","html-keyboard-response","168","408283","0.0-6.0-1.0-8.0-0.30","4","4","4","3","3","4","3","3","4","4","4","4","4","4","4","4","4","3","4","4","4","2","3","2","2","2","3","3","2","1","0","1","0","0","0","1","1","0","1","0","0","0","0","1","4","3","4","3","4","4","3","4","3","3","2","676146482423791616","李","690","","","","","","","","","","","","","","","","","","","","","","","","","","","","","","","","","","","","","","","","","",""
"524","<p style=""color:rgb(150, 250, 100); font-size: 35px;"">本人</p>","e","categorize-html","169","408811","0.0-6.0-1.0-8.0-1.30","4","4","4","3","3","4","3","3","4","4","4","4","4","4","4","4","4","3","4","4","4","2","3","2","2","2","3","3","2","1","0","1","0","0","0","1","1","0","1","0","0","0","0","1","4","3","4","3","4","4","3","4","3","3","2","676146482423791616","李","690","","","","","","","","","","","","","","","","","","","true","14","4","moral","524","self","本人","","","","","","","","","","","","","","","","",""
"null","","null","html-keyboard-response","170","409062","0.0-6.0-1.0-8.0-0.31","4","4","4","3","3","4","3","3","4","4","4","4","4","4","4","4","4","3","4","4","4","2","3","2","2","2","3","3","2","1","0","1","0","0","0","1","1","0","1","0","0","0","0","1","4","3","4","3","4","4","3","4","3","3","2","676146482423791616","李","690","","","","","","","","","","","","","","","","","","","","","","","","","","","","","","","","","","","","","","","","","",""
"504","<p style=""color:white; font-size: 35px;"">不孝</p>","i","categorize-html","171","409568","0.0-6.0-1.0-8.0-1.31","4","4","4","3","3","4","3","3","4","4","4","4","4","4","4","4","4","3","4","4","4","2","3","2","2","2","3","3","2","1","0","1","0","0","0","1","1","0","1","0","0","0","0","1","4","3","4","3","4","4","3","4","3","3","2","676146482423791616","李","690","","","","","","","","","","","","","","","","","","","true","14","4","moral","504","negative","不孝","","","","","","","","","","","","","","","","",""
"null","","null","html-keyboard-response","172","409819","0.0-6.0-1.0-8.0-0.32","4","4","4","3","3","4","3","3","4","4","4","4","4","4","4","4","4","3","4","4","4","2","3","2","2","2","3","3","2","1","0","1","0","0","0","1","1","0","1","0","0","0","0","1","4","3","4","3","4","4","3","4","3","3","2","676146482423791616","李","690","","","","","","","","","","","","","","","","","","","","","","","","","","","","","","","","","","","","","","","","","",""
"612","<p style=""color:rgb(150, 250, 100); font-size: 35px;"">他人</p>","i","categorize-html","173","410432","0.0-6.0-1.0-8.0-1.32","4","4","4","3","3","4","3","3","4","4","4","4","4","4","4","4","4","3","4","4","4","2","3","2","2","2","3","3","2","1","0","1","0","0","0","1","1","0","1","0","0","0","0","1","4","3","4","3","4","4","3","4","3","3","2","676146482423791616","李","690","","","","","","","","","","","","","","","","","","","true","14","4","moral","612","other","他人","","","","","","","","","","","","","","","","",""
"null","","null","html-keyboard-response","174","410682","0.0-6.0-1.0-8.0-0.33","4","4","4","3","3","4","3","3","4","4","4","4","4","4","4","4","4","3","4","4","4","2","3","2","2","2","3","3","2","1","0","1","0","0","0","1","1","0","1","0","0","0","0","1","4","3","4","3","4","4","3","4","3","3","2","676146482423791616","李","690","","","","","","","","","","","","","","","","","","","","","","","","","","","","","","","","","","","","","","","","","",""
"581","<p style=""color:white; font-size: 35px;"">缺德</p>","i","categorize-html","175","411265","0.0-6.0-1.0-8.0-1.33","4","4","4","3","3","4","3","3","4","4","4","4","4","4","4","4","4","3","4","4","4","2","3","2","2","2","3","3","2","1","0","1","0","0","0","1","1","0","1","0","0","0","0","1","4","3","4","3","4","4","3","4","3","3","2","676146482423791616","李","690","","","","","","","","","","","","","","","","","","","true","14","4","moral","581","negative","缺德","","","","","","","","","","","","","","","","",""
"null","","null","html-keyboard-response","176","411516","0.0-6.0-1.0-8.0-0.34","4","4","4","3","3","4","3","3","4","4","4","4","4","4","4","4","4","3","4","4","4","2","3","2","2","2","3","3","2","1","0","1","0","0","0","1","1","0","1","0","0","0","0","1","4","3","4","3","4","4","3","4","3","3","2","676146482423791616","李","690","","","","","","","","","","","","","","","","","","","","","","","","","","","","","","","","","","","","","","","","","",""
"571","<p style=""color:rgb(150, 250, 100); font-size: 35px;"">我的</p>","e","categorize-html","177","412089","0.0-6.0-1.0-8.0-1.34","4","4","4","3","3","4","3","3","4","4","4","4","4","4","4","4","4","3","4","4","4","2","3","2","2","2","3","3","2","1","0","1","0","0","0","1","1","0","1","0","0","0","0","1","4","3","4","3","4","4","3","4","3","3","2","676146482423791616","李","690","","","","","","","","","","","","","","","","","","","true","14","4","moral","571","self","我的","","","","","","","","","","","","","","","","",""
"null","","null","html-keyboard-response","178","412340","0.0-6.0-1.0-8.0-0.35","4","4","4","3","3","4","3","3","4","4","4","4","4","4","4","4","4","3","4","4","4","2","3","2","2","2","3","3","2","1","0","1","0","0","0","1","1","0","1","0","0","0","0","1","4","3","4","3","4","4","3","4","3","3","2","676146482423791616","李","690","","","","","","","","","","","","","","","","","","","","","","","","","","","","","","","","","","","","","","","","","",""
"492","<p style=""color:white; font-size: 35px;"">正直</p>","e","categorize-html","179","412833","0.0-6.0-1.0-8.0-1.35","4","4","4","3","3","4","3","3","4","4","4","4","4","4","4","4","4","3","4","4","4","2","3","2","2","2","3","3","2","1","0","1","0","0","0","1","1","0","1","0","0","0","0","1","4","3","4","3","4","4","3","4","3","3","2","676146482423791616","李","690","","","","","","","","","","","","","","","","","","","true","14","4","moral","492","positive","正直","","","","","","","","","","","","","","","","",""
"null","","null","html-keyboard-response","180","413083","0.0-6.0-1.0-8.0-0.36","4","4","4","3","3","4","3","3","4","4","4","4","4","4","4","4","4","3","4","4","4","2","3","2","2","2","3","3","2","1","0","1","0","0","0","1","1","0","1","0","0","0","0","1","4","3","4","3","4","4","3","4","3","3","2","676146482423791616","李","690","","","","","","","","","","","","","","","","","","","","","","","","","","","","","","","","","","","","","","","","","",""
"604","<p style=""color:rgb(150, 250, 100); font-size: 35px;"">他人</p>","i","categorize-html","181","413690","0.0-6.0-1.0-8.0-1.36","4","4","4","3","3","4","3","3","4","4","4","4","4","4","4","4","4","3","4","4","4","2","3","2","2","2","3","3","2","1","0","1","0","0","0","1","1","0","1","0","0","0","0","1","4","3","4","3","4","4","3","4","3","3","2","676146482423791616","李","690","","","","","","","","","","","","","","","","","","","true","14","4","moral","604","other","他人","","","","","","","","","","","","","","","","",""
"null","","null","html-keyboard-response","182","413962","0.0-6.0-1.0-8.0-0.37","4","4","4","3","3","4","3","3","4","4","4","4","4","4","4","4","4","3","4","4","4","2","3","2","2","2","3","3","2","1","0","1","0","0","0","1","1","0","1","0","0","0","0","1","4","3","4","3","4","4","3","4","3","3","2","676146482423791616","李","690","","","","","","","","","","","","","","","","","","","","","","","","","","","","","","","","","","","","","","","","","",""
"669","<p style=""color:white; font-size: 35px;"">黑心</p>","i","categorize-html","183","414632","0.0-6.0-1.0-8.0-1.37","4","4","4","3","3","4","3","3","4","4","4","4","4","4","4","4","4","3","4","4","4","2","3","2","2","2","3","3","2","1","0","1","0","0","0","1","1","0","1","0","0","0","0","1","4","3","4","3","4","4","3","4","3","3","2","676146482423791616","李","690","","","","","","","","","","","","","","","","","","","true","14","4","moral","669","negative","黑心","","","","","","","","","","","","","","","","",""
"null","","null","html-keyboard-response","184","414882","0.0-6.0-1.0-8.0-0.38","4","4","4","3","3","4","3","3","4","4","4","4","4","4","4","4","4","3","4","4","4","2","3","2","2","2","3","3","2","1","0","1","0","0","0","1","1","0","1","0","0","0","0","1","4","3","4","3","4","4","3","4","3","3","2","676146482423791616","李","690","","","","","","","","","","","","","","","","","","","","","","","","","","","","","","","","","","","","","","","","","",""
"540","<p style=""color:rgb(150, 250, 100); font-size: 35px;"">自己的</p>","e","categorize-html","185","415424","0.0-6.0-1.0-8.0-1.38","4","4","4","3","3","4","3","3","4","4","4","4","4","4","4","4","4","3","4","4","4","2","3","2","2","2","3","3","2","1","0","1","0","0","0","1","1","0","1","0","0","0","0","1","4","3","4","3","4","4","3","4","3","3","2","676146482423791616","李","690","","","","","","","","","","","","","","","","","","","true","14","4","moral","540","self","自己的","","","","","","","","","","","","","","","","",""
"null","","null","html-keyboard-response","186","415686","0.0-6.0-1.0-8.0-0.39","4","4","4","3","3","4","3","3","4","4","4","4","4","4","4","4","4","3","4","4","4","2","3","2","2","2","3","3","2","1","0","1","0","0","0","1","1","0","1","0","0","0","0","1","4","3","4","3","4","4","3","4","3","3","2","676146482423791616","李","690","","","","","","","","","","","","","","","","","","","","","","","","","","","","","","","","","","","","","","","","","",""
"562","<p style=""color:white; font-size: 35px;"">高尚</p>","e","categorize-html","187","416250","0.0-6.0-1.0-8.0-1.39","4","4","4","3","3","4","3","3","4","4","4","4","4","4","4","4","4","3","4","4","4","2","3","2","2","2","3","3","2","1","0","1","0","0","0","1","1","0","1","0","0","0","0","1","4","3","4","3","4","4","3","4","3","3","2","676146482423791616","李","690","","","","","","","","","","","","","","","","","","","true","14","4","moral","562","positive","高尚","","","","","","","","","","","","","","","","",""
"null","","null","html-keyboard-response","188","416501","0.0-6.0-1.0-8.0-0.40","4","4","4","3","3","4","3","3","4","4","4","4","4","4","4","4","4","3","4","4","4","2","3","2","2","2","3","3","2","1","0","1","0","0","0","1","1","0","1","0","0","0","0","1","4","3","4","3","4","4","3","4","3","3","2","676146482423791616","李","690","","","","","","","","","","","","","","","","","","","","","","","","","","","","","","","","","","","","","","","","","",""
"481","<p style=""color:rgb(150, 250, 100); font-size: 35px;"">本人的</p>","e","categorize-html","189","416984","0.0-6.0-1.0-8.0-1.40","4","4","4","3","3","4","3","3","4","4","4","4","4","4","4","4","4","3","4","4","4","2","3","2","2","2","3","3","2","1","0","1","0","0","0","1","1","0","1","0","0","0","0","1","4","3","4","3","4","4","3","4","3","3","2","676146482423791616","李","690","","","","","","","","","","","","","","","","","","","true","14","4","moral","481","self","本人的","","","","","","","","","","","","","","","","",""
"null","","null","html-keyboard-response","190","417235","0.0-6.0-1.0-8.0-0.41","4","4","4","3","3","4","3","3","4","4","4","4","4","4","4","4","4","3","4","4","4","2","3","2","2","2","3","3","2","1","0","1","0","0","0","1","1","0","1","0","0","0","0","1","4","3","4","3","4","4","3","4","3","3","2","676146482423791616","李","690","","","","","","","","","","","","","","","","","","","","","","","","","","","","","","","","","","","","","","","","","",""
"515","<p style=""color:white; font-size: 35px;"">诚信</p>","e","categorize-html","191","417753","0.0-6.0-1.0-8.0-1.41","4","4","4","3","3","4","3","3","4","4","4","4","4","4","4","4","4","3","4","4","4","2","3","2","2","2","3","3","2","1","0","1","0","0","0","1","1","0","1","0","0","0","0","1","4","3","4","3","4","4","3","4","3","3","2","676146482423791616","李","690","","","","","","","","","","","","","","","","","","","true","14","4","moral","515","positive","诚信","","","","","","","","","","","","","","","","",""
"null","","null","html-keyboard-response","192","418003","0.0-6.0-1.0-8.0-0.42","4","4","4","3","3","4","3","3","4","4","4","4","4","4","4","4","4","3","4","4","4","2","3","2","2","2","3","3","2","1","0","1","0","0","0","1","1","0","1","0","0","0","0","1","4","3","4","3","4","4","3","4","3","3","2","676146482423791616","李","690","","","","","","","","","","","","","","","","","","","","","","","","","","","","","","","","","","","","","","","","","",""
"595","<p style=""color:rgb(150, 250, 100); font-size: 35px;"">他人的</p>","i","categorize-html","193","418601","0.0-6.0-1.0-8.0-1.42","4","4","4","3","3","4","3","3","4","4","4","4","4","4","4","4","4","3","4","4","4","2","3","2","2","2","3","3","2","1","0","1","0","0","0","1","1","0","1","0","0","0","0","1","4","3","4","3","4","4","3","4","3","3","2","676146482423791616","李","690","","","","","","","","","","","","","","","","","","","true","14","4","moral","595","other","他人的","","","","","","","","","","","","","","","","",""
