"rt","stimulus","response","trial_type","trial_index","time_elapsed","internal_node_id","ses_1","ses_2","ses_3","ses_4","ses_5","ses_6","ses_7","ses_8","ses_9","ses_10","coreself_1","coreself_2","coreself_3","coreself_4","coreself_5","coreself_6","coreself_7","coreself_8","coreself_9","coreself_10","SGPS_1","SGPS_2","SGPS_3","SGPS_4","SGPS_5","SGPS_6","SGPS_7","SGPS_8","SGPS_9","NPI1","NPI2","NPI3","NPI4","NPI5","NPI6","NPI7","NPI8","NPI9","NPI10","NPI11","NPI12","NPI13","NPI14","NPI15","hsns_1","hsns_2","hsns_3","hsns_4","hsns_5","trap1","hsns_6","hsns_7","hsns_8","hsns_9","hsns_10","subj_idx","friend_name","ParticipantID","value","success","user_agent","responses","item_order","radio_event_ids","radio_event_times","key_event_times","mouse_event_times","straightlining","zigzagging","honeypot","timeout","failed_images","failed_audio","failed_video","view_history","response_type","key_press","avg_frame_time","center_x","center_y","correct_response","correct","identity","Image","word","condition","task_id","screen_id","time_stamp","version_attrib","version_target","IAT","RT","varname","summary","version_attrib2","version_target2","question_order","correct_answer","trap1_item"
"19708","
   <p><div style = ""color: white;font-size:25px;"">您好，欢迎参加本次实验。</div> </p>
   <p><div style = ""color: white;font-size:25px;"">为充分保障您的权利，请确保您已经知晓并同意《参与实验同意书》以及《数据公开知情同意书》。</div></p>
   <p><div style = ""color: white;font-size:25px;"">如果您未见过上述内容，请咨询实验员。</div></p>
   <p><div style = ""color: white;font-size:25px;"">如果您选择继续实验，则表示您已经清楚两份知情同意书的内容并同意。</div></p>
   <p><div style = ""color: pink;font-size:30px;"">请确保您记得day0的实验编号，您将在本次实验输入该编号，若您忘记，请咨询实验员后作答。</div></p>
   <p><div style = ""color: lightblue;font-size:25px;"">请您尽可能认真地作答，我们将依据您在各问卷和按键任务中的作答质量发放报酬。</div></p>
   <p> <div style = ""color: green;font-size:25px;""><按空格键至下页></div> </p>
   "," ","html-keyboard-response","0","19716","0.0-0.0","4","3","4","4","3","4","4","4","3","4","4","5","4","4","1","2","4","4","4","5","1","2","2","3","2","3","2","2","2","1","0","0","1","0","0","1","1","0","1","1","0","0","0","0","4","2","1","1","2","1","3","4","4","4","2","778036466176757761","刘","467","","","","","","","","","","","","","","","","","","","","","","","","","","","","","","","","","","","","","","","","","",""
"","","","call-function","1","19719","0.0-1.0-0.0","4","3","4","4","3","4","4","4","3","4","4","5","4","4","1","2","4","4","4","5","1","2","2","3","2","3","2","2","2","1","0","0","1","0","0","1","1","0","1","1","0","0","0","0","4","2","1","1","2","1","3","4","4","4","2","778036466176757761","刘","467","","","","","","","","","","","","","","","","","","","","","","","","","","","","","","","","","","","","","","","","","",""
"25480","","{""friend_name"":""刘"",""ParticipantID"":""467""}","survey-html-form","2","45202","0.0-1.0-1.0","4","3","4","4","3","4","4","4","3","4","4","5","4","4","1","2","4","4","4","5","1","2","2","3","2","3","2","2","2","1","0","0","1","0","0","1","1","0","1","1","0","0","0","0","4","2","1","1","2","1","3","4","4","4","2","778036466176757761","刘","467","","","","","","","","","","","","","","","","","","","","","","","","","","","","","","","","","","","","","","","","","",""
"","","","fullscreen","3","66614","0.0-2.0","4","3","4","4","3","4","4","4","3","4","4","5","4","4","1","2","4","4","4","5","1","2","2","3","2","3","2","2","2","1","0","0","1","0","0","1","1","0","1","1","0","0","0","0","4","2","1","1","2","1","3","4","4","4","2","778036466176757761","刘","467","","true","{}","","","","","","","","","","","","","","","","","","","","","","","","","","","","","","","","","","","","","","",""
"55247.60000002384","","{""Q01"":""4"",""Q02"":""3"",""Q03"":""4"",""Q04"":""4"",""Q05"":""3"",""Q06"":""4"",""Q07"":""4"",""Q08"":""4"",""Q09"":""3"",""Q10"":""4""}","survey-template","4","121868","0.0-3.0","4","3","4","4","3","4","4","4","3","4","4","5","4","4","1","2","4","4","4","5","1","2","2","3","2","3","2","2","2","1","0","0","1","0","0","1","1","0","1","1","0","0","0","0","4","2","1","1","2","1","3","4","4","4","2","778036466176757761","刘","467","","","","{""Q01"":""4"",""Q02"":""3"",""Q03"":""4"",""Q04"":""4"",""Q05"":""3"",""Q06"":""4"",""Q07"":""4"",""Q08"":""4"",""Q09"":""3"",""Q10"":""4""}","[0,1,2,3,4,5,6,7,8,9]","[""Q01"",""Q02"",""Q03"",""Q04"",""Q05"",""Q06"",""Q07"",""Q08"",""Q09"",""Q10""]","[16305.300000071526,19947.900000095367,23362.5,26119.800000071526,31618.600000023842,34278.300000071526,36154.90000009537,45642.10000002384,49564.800000071526,51086.300000071526]","[]","[15173.700000047684,16305.300000071526,19947.900000095367,23362.5,26119.800000071526,31618.600000023842,34278.300000071526,36154.90000009537,42140,45642.10000002384,49564.800000071526,51086.300000071526,55245.90000009537]","0.4","0.5555555555555556","0","","","","","","","","","","","","","","","","","","","","","","","","","","","","","",""
"49869.09999990463","","{""Q01"":""4"",""Q02"":""5"",""Q03"":""4"",""Q04"":""4"",""Q05"":""1"",""Q06"":""2"",""Q07"":""4"",""Q08"":""4"",""Q09"":""4"",""Q10"":""5""}","survey-template","5","171745","0.0-4.0","4","3","4","4","3","4","4","4","3","4","4","5","4","4","1","2","4","4","4","5","1","2","2","3","2","3","2","2","2","1","0","0","1","0","0","1","1","0","1","1","0","0","0","0","4","2","1","1","2","1","3","4","4","4","2","778036466176757761","刘","467","","","","{""Q01"":""4"",""Q02"":""5"",""Q03"":""4"",""Q04"":""4"",""Q05"":""1"",""Q06"":""2"",""Q07"":""4"",""Q08"":""4"",""Q09"":""4"",""Q10"":""5""}","[0,1,2,3,4,5,6,7,8,9]","[""Q01"",""Q02"",""Q03"",""Q04"",""Q05"",""Q06"",""Q07"",""Q08"",""Q09"",""Q10""]","[5639.899999976158,8942,11068.599999904633,13978.799999952316,15897.799999952316,17995.399999976158,28352.299999952316,39484,43294.799999952316,46262.59999990463]","[]","[5639.899999976158,8942,11068.599999904633,13978.799999952316,15897.799999952316,17995.399999976158,27192.199999928474,28352.299999952316,39484,43294.799999952316,46262.59999990463,49867]","0.4","0.2222222222222222","0","","","","","","","","","","","","","","","","","","","","","","","","","","","","","",""
"","","","preload","6","172123","0.0-5.0","4","3","4","4","3","4","4","4","3","4","4","5","4","4","1","2","4","4","4","5","1","2","2","3","2","3","2","2","2","1","0","0","1","0","0","1","1","0","1","1","0","0","0","0","4","2","1","1","2","1","3","4","4","4","2","778036466176757761","刘","467","","true","","","","","","","","","","","false","[]","[]","[]","","","","","","","","","","","","","","","","","","","","","","","","","",""
"27306","","","instructions","7","199432","0.0-6.0","4","3","4","4","3","4","4","4","3","4","4","5","4","4","1","2","4","4","4","5","1","2","2","3","2","3","2","2","2","1","0","0","1","0","0","1","1","0","1","1","0","0","0","0","4","2","1","1","2","1","3","4","4","4","2","778036466176757761","刘","467","","","","","","","","","","","","","","","","","[{""page_index"":0,""viewing_time"":27306}]","","","","","","","","","","","","","","","","","","","","","","","","",""
"33196","","","instructions","8","232629","0.0-7.0-1.0-0.0","4","3","4","4","3","4","4","4","3","4","4","5","4","4","1","2","4","4","4","5","1","2","2","3","2","3","2","2","2","1","0","0","1","0","0","1","1","0","1","1","0","0","0","0","4","2","1","1","2","1","3","4","4","4","2","778036466176757761","刘","467","","","","","","","","","","","","","","","","","[{""page_index"":0,""viewing_time"":19089},{""page_index"":1,""viewing_time"":10383},{""page_index"":2,""viewing_time"":3723}]","","","","","","","","","","","","","","","","","","","","","","","","",""
"809","","j","psychophysics","9","234445","0.0-7.0-1.0-1.0-0.0-0.0","4","3","4","4","3","4","4","4","3","4","4","5","4","4","1","2","4","4","4","5","1","2","2","3","2","3","2","2","2","1","0","0","1","0","0","1","1","0","1","1","0","0","0","0","4","2","1","1","2","1","3","4","4","4","2","778036466176757761","刘","467","","","","match","","","","","","","","","","","","","","key","j","16.667289719626115","960","536","f","false","nonmatch","img/circle.png","五边","圆形","ALT1_2","prac_ALT1_2","","","","","","","","","","","",""
"null","<span style='color:red; font-size: 70px;'>错误! </span>","null","html-keyboard-response","10","234951","0.0-7.0-1.0-1.0-0.0-1.0","4","3","4","4","3","4","4","4","3","4","4","5","4","4","1","2","4","4","4","5","1","2","2","3","2","3","2","2","2","1","0","0","1","0","0","1","1","0","1","1","0","0","0","0","4","2","1","1","2","1","3","4","4","4","2","778036466176757761","刘","467","","","","","","","","","","","","","","","","","","","","","","","","","","","","","","feedback_test","","","","","","","","","","","",""
"1142","","j","psychophysics","11","237104","0.0-7.0-1.0-1.0-0.0-0.1","4","3","4","4","3","4","4","4","3","4","4","5","4","4","1","2","4","4","4","5","1","2","2","3","2","3","2","2","2","1","0","0","1","0","0","1","1","0","1","1","0","0","0","0","4","2","1","1","2","1","3","4","4","4","2","778036466176757761","刘","467","","","","match","","","","","","","","","","","","","","key","j","16.6640625","960","536","f","false","nonmatch","img/diamond.png","五边","菱形","ALT1_2","prac_ALT1_2","","","","","","","","","","","",""
"null","<span style='color:red; font-size: 70px;'>错误! </span>","null","html-keyboard-response","12","237618","0.0-7.0-1.0-1.0-0.0-1.1","4","3","4","4","3","4","4","4","3","4","4","5","4","4","1","2","4","4","4","5","1","2","2","3","2","3","2","2","2","1","0","0","1","0","0","1","1","0","1","1","0","0","0","0","4","2","1","1","2","1","3","4","4","4","2","778036466176757761","刘","467","","","","","","","","","","","","","","","","","","","","","","","","","","","","","","feedback_test","","","","","","","","","","","",""
"null","","null","psychophysics","13","239854","0.0-7.0-1.0-1.0-0.0-0.2","4","3","4","4","3","4","4","4","3","4","4","5","4","4","1","2","4","4","4","5","1","2","2","3","2","3","2","2","2","1","0","0","1","0","0","1","1","0","1","1","0","0","0","0","4","2","1","1","2","1","3","4","4","4","2","778036466176757761","刘","467","","","","null","","","","","","","","","","","","","","key","null","16.66691729323317","960","536","f","false","nonmatch","img/circle.png","三角","圆形","ALT1_2","prac_ALT1_2","","","","","","","","","","","",""
"null","<span class='add_' style='color:yellow; font-size: 70px;'> 太慢! </span>","null","html-keyboard-response","14","240361","0.0-7.0-1.0-1.0-0.0-1.2","4","3","4","4","3","4","4","4","3","4","4","5","4","4","1","2","4","4","4","5","1","2","2","3","2","3","2","2","2","1","0","0","1","0","0","1","1","0","1","1","0","0","0","0","4","2","1","1","2","1","3","4","4","4","2","778036466176757761","刘","467","","","","","","","","","","","","","","","","","","","","","","","","","","","","","","feedback_test","","","","","","","","","","","",""
"549","","f","psychophysics","15","241915","0.0-7.0-1.0-1.0-0.0-0.3","4","3","4","4","3","4","4","4","3","4","4","5","4","4","1","2","4","4","4","5","1","2","2","3","2","3","2","2","2","1","0","0","1","0","0","1","1","0","1","1","0","0","0","0","4","2","1","1","2","1","3","4","4","4","2","778036466176757761","刘","467","","","","nonmatch","","","","","","","","","","","","","","key","f","16.665217391304157","960","536","j","false","match","img/circle.png","圆形","圆形","ALT1_2","prac_ALT1_2","","","","","","","","","","","",""
"null","<span style='color:red; font-size: 70px;'>错误! </span>","null","html-keyboard-response","16","242419","0.0-7.0-1.0-1.0-0.0-1.3","4","3","4","4","3","4","4","4","3","4","4","5","4","4","1","2","4","4","4","5","1","2","2","3","2","3","2","2","2","1","0","0","1","0","0","1","1","0","1","1","0","0","0","0","4","2","1","1","2","1","3","4","4","4","2","778036466176757761","刘","467","","","","","","","","","","","","","","","","","","","","","","","","","","","","","","feedback_test","","","","","","","","","","","",""
"567","","j","psychophysics","17","243996","0.0-7.0-1.0-1.0-0.0-0.4","4","3","4","4","3","4","4","4","3","4","4","5","4","4","1","2","4","4","4","5","1","2","2","3","2","3","2","2","2","1","0","0","1","0","0","1","1","0","1","1","0","0","0","0","4","2","1","1","2","1","3","4","4","4","2","778036466176757761","刘","467","","","","match","","","","","","","","","","","","","","key","j","16.666666666666668","960","536","j","true","match","img/triangle.png","三角","三角","ALT1_2","prac_ALT1_2","","","","","","","","","","","",""
"null","<span style='color:GreenYellow; font-size: 70px;'>正确! </span>","null","html-keyboard-response","18","244502","0.0-7.0-1.0-1.0-0.0-1.4","4","3","4","4","3","4","4","4","3","4","4","5","4","4","1","2","4","4","4","5","1","2","2","3","2","3","2","2","2","1","0","0","1","0","0","1","1","0","1","1","0","0","0","0","4","2","1","1","2","1","3","4","4","4","2","778036466176757761","刘","467","","","","","","","","","","","","","","","","","","","","","","","","","","","","","","feedback_test","","","","","","","","","","","",""
"680","","j","psychophysics","19","246204","0.0-7.0-1.0-1.0-0.0-0.5","4","3","4","4","3","4","4","4","3","4","4","5","4","4","1","2","4","4","4","5","1","2","2","3","2","3","2","2","2","1","0","0","1","0","0","1","1","0","1","1","0","0","0","0","4","2","1","1","2","1","3","4","4","4","2","778036466176757761","刘","467","","","","match","","","","","","","","","","","","","","key","j","16.666336633663253","960","536","j","true","match","img/triangle.png","三角","三角","ALT1_2","prac_ALT1_2","","","","","","","","","","","",""
"null","<span style='color:GreenYellow; font-size: 70px;'>正确! </span>","null","html-keyboard-response","20","246716","0.0-7.0-1.0-1.0-0.0-1.5","4","3","4","4","3","4","4","4","3","4","4","5","4","4","1","2","4","4","4","5","1","2","2","3","2","3","2","2","2","1","0","0","1","0","0","1","1","0","1","1","0","0","0","0","4","2","1","1","2","1","3","4","4","4","2","778036466176757761","刘","467","","","","","","","","","","","","","","","","","","","","","","","","","","","","","","feedback_test","","","","","","","","","","","",""
"434","","f","psychophysics","21","248154","0.0-7.0-1.0-1.0-0.0-0.6","4","3","4","4","3","4","4","4","3","4","4","5","4","4","1","2","4","4","4","5","1","2","2","3","2","3","2","2","2","1","0","0","1","0","0","1","1","0","1","1","0","0","0","0","4","2","1","1","2","1","3","4","4","4","2","778036466176757761","刘","467","","","","nonmatch","","","","","","","","","","","","","","key","f","16.668235294117512","960","536","j","false","match","img/pentagon.png","五边","五边","ALT1_2","prac_ALT1_2","","","","","","","","","","","",""
"null","<span style='color:red; font-size: 70px;'>错误! </span>","null","html-keyboard-response","22","248664","0.0-7.0-1.0-1.0-0.0-1.6","4","3","4","4","3","4","4","4","3","4","4","5","4","4","1","2","4","4","4","5","1","2","2","3","2","3","2","2","2","1","0","0","1","0","0","1","1","0","1","1","0","0","0","0","4","2","1","1","2","1","3","4","4","4","2","778036466176757761","刘","467","","","","","","","","","","","","","","","","","","","","","","","","","","","","","","feedback_test","","","","","","","","","","","",""
"676","","j","psychophysics","23","250343","0.0-7.0-1.0-1.0-0.0-0.7","4","3","4","4","3","4","4","4","3","4","4","5","4","4","1","2","4","4","4","5","1","2","2","3","2","3","2","2","2","1","0","0","1","0","0","1","1","0","1","1","0","0","0","0","4","2","1","1","2","1","3","4","4","4","2","778036466176757761","刘","467","","","","match","","","","","","","","","","","","","","key","j","16.66868686868669","960","536","f","false","nonmatch","img/pentagon.png","菱形","五边","ALT1_2","prac_ALT1_2","","","","","","","","","","","",""
"null","<span style='color:red; font-size: 70px;'>错误! </span>","null","html-keyboard-response","24","250855","0.0-7.0-1.0-1.0-0.0-1.7","4","3","4","4","3","4","4","4","3","4","4","5","4","4","1","2","4","4","4","5","1","2","2","3","2","3","2","2","2","1","0","0","1","0","0","1","1","0","1","1","0","0","0","0","4","2","1","1","2","1","3","4","4","4","2","778036466176757761","刘","467","","","","","","","","","","","","","","","","","","","","","","","","","","","","","","feedback_test","","","","","","","","","","","",""
"856","","j","psychophysics","25","252717","0.0-7.0-1.0-1.0-0.0-0.8","4","3","4","4","3","4","4","4","3","4","4","5","4","4","1","2","4","4","4","5","1","2","2","3","2","3","2","2","2","1","0","0","1","0","0","1","1","0","1","1","0","0","0","0","4","2","1","1","2","1","3","4","4","4","2","778036466176757761","刘","467","","","","match","","","","","","","","","","","","","","key","j","16.66756756756762","960","536","j","true","match","img/triangle.png","三角","三角","ALT1_2","prac_ALT1_2","","","","","","","","","","","",""
"null","<span style='color:GreenYellow; font-size: 70px;'>正确! </span>","null","html-keyboard-response","26","253222","0.0-7.0-1.0-1.0-0.0-1.8","4","3","4","4","3","4","4","4","3","4","4","5","4","4","1","2","4","4","4","5","1","2","2","3","2","3","2","2","2","1","0","0","1","0","0","1","1","0","1","1","0","0","0","0","4","2","1","1","2","1","3","4","4","4","2","778036466176757761","刘","467","","","","","","","","","","","","","","","","","","","","","","","","","","","","","","feedback_test","","","","","","","","","","","",""
"805","","f","psychophysics","27","255033","0.0-7.0-1.0-1.0-0.0-0.9","4","3","4","4","3","4","4","4","3","4","4","5","4","4","1","2","4","4","4","5","1","2","2","3","2","3","2","2","2","1","0","0","1","0","0","1","1","0","1","1","0","0","0","0","4","2","1","1","2","1","3","4","4","4","2","778036466176757761","刘","467","","","","nonmatch","","","","","","","","","","","","","","key","f","16.669444444444608","960","536","f","true","nonmatch","img/triangle.png","菱形","三角","ALT1_2","prac_ALT1_2","","","","","","","","","","","",""
"null","<span style='color:GreenYellow; font-size: 70px;'>正确! </span>","null","html-keyboard-response","28","255539","0.0-7.0-1.0-1.0-0.0-1.9","4","3","4","4","3","4","4","4","3","4","4","5","4","4","1","2","4","4","4","5","1","2","2","3","2","3","2","2","2","1","0","0","1","0","0","1","1","0","1","1","0","0","0","0","4","2","1","1","2","1","3","4","4","4","2","778036466176757761","刘","467","","","","","","","","","","","","","","","","","","","","","","","","","","","","","","feedback_test","","","","","","","","","","","",""
"1089","","f","psychophysics","29","257632","0.0-7.0-1.0-1.0-0.0-0.10","4","3","4","4","3","4","4","4","3","4","4","5","4","4","1","2","4","4","4","5","1","2","2","3","2","3","2","2","2","1","0","0","1","0","0","1","1","0","1","1","0","0","0","0","4","2","1","1","2","1","3","4","4","4","2","778036466176757761","刘","467","","","","nonmatch","","","","","","","","","","","","","","key","f","16.668","960","536","f","true","nonmatch","img/diamond.png","圆形","菱形","ALT1_2","prac_ALT1_2","","","","","","","","","","","",""
"null","<span style='color:GreenYellow; font-size: 70px;'>正确! </span>","null","html-keyboard-response","30","258137","0.0-7.0-1.0-1.0-0.0-1.10","4","3","4","4","3","4","4","4","3","4","4","5","4","4","1","2","4","4","4","5","1","2","2","3","2","3","2","2","2","1","0","0","1","0","0","1","1","0","1","1","0","0","0","0","4","2","1","1","2","1","3","4","4","4","2","778036466176757761","刘","467","","","","","","","","","","","","","","","","","","","","","","","","","","","","","","feedback_test","","","","","","","","","","","",""
"819","","j","psychophysics","31","259962","0.0-7.0-1.0-1.0-0.0-0.11","4","3","4","4","3","4","4","4","3","4","4","5","4","4","1","2","4","4","4","5","1","2","2","3","2","3","2","2","2","1","0","0","1","0","0","1","1","0","1","1","0","0","0","0","4","2","1","1","2","1","3","4","4","4","2","778036466176757761","刘","467","","","","match","","","","","","","","","","","","","","key","j","16.66605504587188","960","536","f","false","nonmatch","img/pentagon.png","圆形","五边","ALT1_2","prac_ALT1_2","","","","","","","","","","","",""
"null","<span style='color:red; font-size: 70px;'>错误! </span>","null","html-keyboard-response","32","260470","0.0-7.0-1.0-1.0-0.0-1.11","4","3","4","4","3","4","4","4","3","4","4","5","4","4","1","2","4","4","4","5","1","2","2","3","2","3","2","2","2","1","0","0","1","0","0","1","1","0","1","1","0","0","0","0","4","2","1","1","2","1","3","4","4","4","2","778036466176757761","刘","467","","","","","","","","","","","","","","","","","","","","","","","","","","","","","","feedback_test","","","","","","","","","","","",""
"900","","f","psychophysics","33","262376","0.0-7.0-1.0-1.0-0.0-0.12","4","3","4","4","3","4","4","4","3","4","4","5","4","4","1","2","4","4","4","5","1","2","2","3","2","3","2","2","2","1","0","0","1","0","0","1","1","0","1","1","0","0","0","0","4","2","1","1","2","1","3","4","4","4","2","778036466176757761","刘","467","","","","nonmatch","","","","","","","","","","","","","","key","f","16.66637168141634","960","536","f","true","nonmatch","img/triangle.png","圆形","三角","ALT1_2","prac_ALT1_2","","","","","","","","","","","",""
"null","<span style='color:GreenYellow; font-size: 70px;'>正确! </span>","null","html-keyboard-response","34","262903","0.0-7.0-1.0-1.0-0.0-1.12","4","3","4","4","3","4","4","4","3","4","4","5","4","4","1","2","4","4","4","5","1","2","2","3","2","3","2","2","2","1","0","0","1","0","0","1","1","0","1","1","0","0","0","0","4","2","1","1","2","1","3","4","4","4","2","778036466176757761","刘","467","","","","","","","","","","","","","","","","","","","","","","","","","","","","","","feedback_test","","","","","","","","","","","",""
"889","","j","psychophysics","35","264803","0.0-7.0-1.0-1.0-0.0-0.13","4","3","4","4","3","4","4","4","3","4","4","5","4","4","1","2","4","4","4","5","1","2","2","3","2","3","2","2","2","1","0","0","1","0","0","1","1","0","1","1","0","0","0","0","4","2","1","1","2","1","3","4","4","4","2","778036466176757761","刘","467","","","","match","","","","","","","","","","","","","","key","j","16.66548672566382","960","536","j","true","match","img/pentagon.png","五边","五边","ALT1_2","prac_ALT1_2","","","","","","","","","","","",""
"null","<span style='color:GreenYellow; font-size: 70px;'>正确! </span>","null","html-keyboard-response","36","265307","0.0-7.0-1.0-1.0-0.0-1.13","4","3","4","4","3","4","4","4","3","4","4","5","4","4","1","2","4","4","4","5","1","2","2","3","2","3","2","2","2","1","0","0","1","0","0","1","1","0","1","1","0","0","0","0","4","2","1","1","2","1","3","4","4","4","2","778036466176757761","刘","467","","","","","","","","","","","","","","","","","","","","","","","","","","","","","","feedback_test","","","","","","","","","","","",""
"603","","f","psychophysics","37","266914","0.0-7.0-1.0-1.0-0.0-0.14","4","3","4","4","3","4","4","4","3","4","4","5","4","4","1","2","4","4","4","5","1","2","2","3","2","3","2","2","2","1","0","0","1","0","0","1","1","0","1","1","0","0","0","0","4","2","1","1","2","1","3","4","4","4","2","778036466176757761","刘","467","","","","nonmatch","","","","","","","","","","","","","","key","f","16.648421052631335","960","536","j","false","match","img/pentagon.png","五边","五边","ALT1_2","prac_ALT1_2","","","","","","","","","","","",""
"null","<span style='color:red; font-size: 70px;'>错误! </span>","null","html-keyboard-response","38","267422","0.0-7.0-1.0-1.0-0.0-1.14","4","3","4","4","3","4","4","4","3","4","4","5","4","4","1","2","4","4","4","5","1","2","2","3","2","3","2","2","2","1","0","0","1","0","0","1","1","0","1","1","0","0","0","0","4","2","1","1","2","1","3","4","4","4","2","778036466176757761","刘","467","","","","","","","","","","","","","","","","","","","","","","","","","","","","","","feedback_test","","","","","","","","","","","",""
"810","","f","psychophysics","39","269236","0.0-7.0-1.0-1.0-0.0-0.15","4","3","4","4","3","4","4","4","3","4","4","5","4","4","1","2","4","4","4","5","1","2","2","3","2","3","2","2","2","1","0","0","1","0","0","1","1","0","1","1","0","0","0","0","4","2","1","1","2","1","3","4","4","4","2","778036466176757761","刘","467","","","","nonmatch","","","","","","","","","","","","","","key","f","16.666666666666668","960","536","f","true","nonmatch","img/pentagon.png","三角","五边","ALT1_2","prac_ALT1_2","","","","","","","","","","","",""
"null","<span style='color:GreenYellow; font-size: 70px;'>正确! </span>","null","html-keyboard-response","40","269741","0.0-7.0-1.0-1.0-0.0-1.15","4","3","4","4","3","4","4","4","3","4","4","5","4","4","1","2","4","4","4","5","1","2","2","3","2","3","2","2","2","1","0","0","1","0","0","1","1","0","1","1","0","0","0","0","4","2","1","1","2","1","3","4","4","4","2","778036466176757761","刘","467","","","","","","","","","","","","","","","","","","","","","","","","","","","","","","feedback_test","","","","","","","","","","","",""
"844","","f","psychophysics","41","271604","0.0-7.0-1.0-1.0-0.0-0.16","4","3","4","4","3","4","4","4","3","4","4","5","4","4","1","2","4","4","4","5","1","2","2","3","2","3","2","2","2","1","0","0","1","0","0","1","1","0","1","1","0","0","0","0","4","2","1","1","2","1","3","4","4","4","2","778036466176757761","刘","467","","","","nonmatch","","","","","","","","","","","","","","key","f","16.663636363636364","960","536","f","true","nonmatch","img/circle.png","菱形","圆形","ALT1_2","prac_ALT1_2","","","","","","","","","","","",""
"null","<span style='color:GreenYellow; font-size: 70px;'>正确! </span>","null","html-keyboard-response","42","272109","0.0-7.0-1.0-1.0-0.0-1.16","4","3","4","4","3","4","4","4","3","4","4","5","4","4","1","2","4","4","4","5","1","2","2","3","2","3","2","2","2","1","0","0","1","0","0","1","1","0","1","1","0","0","0","0","4","2","1","1","2","1","3","4","4","4","2","778036466176757761","刘","467","","","","","","","","","","","","","","","","","","","","","","","","","","","","","","feedback_test","","","","","","","","","","","",""
"812","","f","psychophysics","43","273924","0.0-7.0-1.0-1.0-0.0-0.17","4","3","4","4","3","4","4","4","3","4","4","5","4","4","1","2","4","4","4","5","1","2","2","3","2","3","2","2","2","1","0","0","1","0","0","1","1","0","1","1","0","0","0","0","4","2","1","1","2","1","3","4","4","4","2","778036466176757761","刘","467","","","","nonmatch","","","","","","","","","","","","","","key","f","16.666355140187353","960","536","j","false","match","img/diamond.png","菱形","菱形","ALT1_2","prac_ALT1_2","","","","","","","","","","","",""
"null","<span style='color:red; font-size: 70px;'>错误! </span>","null","html-keyboard-response","44","274426","0.0-7.0-1.0-1.0-0.0-1.17","4","3","4","4","3","4","4","4","3","4","4","5","4","4","1","2","4","4","4","5","1","2","2","3","2","3","2","2","2","1","0","0","1","0","0","1","1","0","1","1","0","0","0","0","4","2","1","1","2","1","3","4","4","4","2","778036466176757761","刘","467","","","","","","","","","","","","","","","","","","","","","","","","","","","","","","feedback_test","","","","","","","","","","","",""
"855","","f","psychophysics","45","276286","0.0-7.0-1.0-1.0-0.0-0.18","4","3","4","4","3","4","4","4","3","4","4","5","4","4","1","2","4","4","4","5","1","2","2","3","2","3","2","2","2","1","0","0","1","0","0","1","1","0","1","1","0","0","0","0","4","2","1","1","2","1","3","4","4","4","2","778036466176757761","刘","467","","","","nonmatch","","","","","","","","","","","","","","key","f","16.66454545454577","960","536","f","true","nonmatch","img/diamond.png","三角","菱形","ALT1_2","prac_ALT1_2","","","","","","","","","","","",""
"null","<span style='color:GreenYellow; font-size: 70px;'>正确! </span>","null","html-keyboard-response","46","276818","0.0-7.0-1.0-1.0-0.0-1.18","4","3","4","4","3","4","4","4","3","4","4","5","4","4","1","2","4","4","4","5","1","2","2","3","2","3","2","2","2","1","0","0","1","0","0","1","1","0","1","1","0","0","0","0","4","2","1","1","2","1","3","4","4","4","2","778036466176757761","刘","467","","","","","","","","","","","","","","","","","","","","","","","","","","","","","","feedback_test","","","","","","","","","","","",""
"738","","j","psychophysics","47","278581","0.0-7.0-1.0-1.0-0.0-0.19","4","3","4","4","3","4","4","4","3","4","4","5","4","4","1","2","4","4","4","5","1","2","2","3","2","3","2","2","2","1","0","0","1","0","0","1","1","0","1","1","0","0","0","0","4","2","1","1","2","1","3","4","4","4","2","778036466176757761","刘","467","","","","match","","","","","","","","","","","","","","key","j","16.667619047618825","960","536","j","true","match","img/diamond.png","菱形","菱形","ALT1_2","prac_ALT1_2","","","","","","","","","","","",""
"null","<span style='color:GreenYellow; font-size: 70px;'>正确! </span>","null","html-keyboard-response","48","279087","0.0-7.0-1.0-1.0-0.0-1.19","4","3","4","4","3","4","4","4","3","4","4","5","4","4","1","2","4","4","4","5","1","2","2","3","2","3","2","2","2","1","0","0","1","0","0","1","1","0","1","1","0","0","0","0","4","2","1","1","2","1","3","4","4","4","2","778036466176757761","刘","467","","","","","","","","","","","","","","","","","","","","","","","","","","","","","","feedback_test","","","","","","","","","","","",""
"759","","j","psychophysics","49","280851","0.0-7.0-1.0-1.0-0.0-0.20","4","3","4","4","3","4","4","4","3","4","4","5","4","4","1","2","4","4","4","5","1","2","2","3","2","3","2","2","2","1","0","0","1","0","0","1","1","0","1","1","0","0","0","0","4","2","1","1","2","1","3","4","4","4","2","778036466176757761","刘","467","","","","match","","","","","","","","","","","","","","key","j","16.667307692307357","960","536","j","true","match","img/circle.png","圆形","圆形","ALT1_2","prac_ALT1_2","","","","","","","","","","","",""
"null","<span style='color:GreenYellow; font-size: 70px;'>正确! </span>","null","html-keyboard-response","50","281355","0.0-7.0-1.0-1.0-0.0-1.20","4","3","4","4","3","4","4","4","3","4","4","5","4","4","1","2","4","4","4","5","1","2","2","3","2","3","2","2","2","1","0","0","1","0","0","1","1","0","1","1","0","0","0","0","4","2","1","1","2","1","3","4","4","4","2","778036466176757761","刘","467","","","","","","","","","","","","","","","","","","","","","","","","","","","","","","feedback_test","","","","","","","","","","","",""
"722","","j","psychophysics","51","283081","0.0-7.0-1.0-1.0-0.0-0.21","4","3","4","4","3","4","4","4","3","4","4","5","4","4","1","2","4","4","4","5","1","2","2","3","2","3","2","2","2","1","0","0","1","0","0","1","1","0","1","1","0","0","0","0","4","2","1","1","2","1","3","4","4","4","2","778036466176757761","刘","467","","","","match","","","","","","","","","","","","","","key","j","16.66990291262136","960","536","j","true","match","img/circle.png","圆形","圆形","ALT1_2","prac_ALT1_2","","","","","","","","","","","",""
"null","<span style='color:GreenYellow; font-size: 70px;'>正确! </span>","null","html-keyboard-response","52","283591","0.0-7.0-1.0-1.0-0.0-1.21","4","3","4","4","3","4","4","4","3","4","4","5","4","4","1","2","4","4","4","5","1","2","2","3","2","3","2","2","2","1","0","0","1","0","0","1","1","0","1","1","0","0","0","0","4","2","1","1","2","1","3","4","4","4","2","778036466176757761","刘","467","","","","","","","","","","","","","","","","","","","","","","","","","","","","","","feedback_test","","","","","","","","","","","",""
"818","","f","psychophysics","53","285439","0.0-7.0-1.0-1.0-0.0-0.22","4","3","4","4","3","4","4","4","3","4","4","5","4","4","1","2","4","4","4","5","1","2","2","3","2","3","2","2","2","1","0","0","1","0","0","1","1","0","1","1","0","0","0","0","4","2","1","1","2","1","3","4","4","4","2","778036466176757761","刘","467","","","","nonmatch","","","","","","","","","","","","","","key","f","16.666972477064327","960","536","f","true","nonmatch","img/triangle.png","五边","三角","ALT1_2","prac_ALT1_2","","","","","","","","","","","",""
"null","<span style='color:GreenYellow; font-size: 70px;'>正确! </span>","null","html-keyboard-response","54","285944","0.0-7.0-1.0-1.0-0.0-1.22","4","3","4","4","3","4","4","4","3","4","4","5","4","4","1","2","4","4","4","5","1","2","2","3","2","3","2","2","2","1","0","0","1","0","0","1","1","0","1","1","0","0","0","0","4","2","1","1","2","1","3","4","4","4","2","778036466176757761","刘","467","","","","","","","","","","","","","","","","","","","","","","","","","","","","","","feedback_test","","","","","","","","","","","",""
"1069","","j","psychophysics","55","288018","0.0-7.0-1.0-1.0-0.0-0.23","4","3","4","4","3","4","4","4","3","4","4","5","4","4","1","2","4","4","4","5","1","2","2","3","2","3","2","2","2","1","0","0","1","0","0","1","1","0","1","1","0","0","0","0","4","2","1","1","2","1","3","4","4","4","2","778036466176757761","刘","467","","","","match","","","","","","","","","","","","","","key","j","16.66747967479656","960","536","j","true","match","img/diamond.png","菱形","菱形","ALT1_2","prac_ALT1_2","","","","","","","","","","","",""
"null","<span style='color:GreenYellow; font-size: 70px;'>正确! </span>","null","html-keyboard-response","56","288527","0.0-7.0-1.0-1.0-0.0-1.23","4","3","4","4","3","4","4","4","3","4","4","5","4","4","1","2","4","4","4","5","1","2","2","3","2","3","2","2","2","1","0","0","1","0","0","1","1","0","1","1","0","0","0","0","4","2","1","1","2","1","3","4","4","4","2","778036466176757761","刘","467","","","","","","","","","","","","","","","","","","","","","","","","","","","","","","feedback_test","","","","","","","","","","","",""
"830","","j","psychophysics","57","290368","0.0-7.0-1.0-1.0-0.0-0.24","4","3","4","4","3","4","4","4","3","4","4","5","4","4","1","2","4","4","4","5","1","2","2","3","2","3","2","2","2","1","0","0","1","0","0","1","1","0","1","1","0","0","0","0","4","2","1","1","2","1","3","4","4","4","2","778036466176757761","刘","467","","","","match","","","","","","","","","","","","","","key","j","16.666972477064327","960","536","j","true","match","img/diamond.png","菱形","菱形","ALT1_2","prac_ALT1_2","","","","","","","","","","","",""
"null","<span style='color:GreenYellow; font-size: 70px;'>正确! </span>","null","html-keyboard-response","58","290873","0.0-7.0-1.0-1.0-0.0-1.24","4","3","4","4","3","4","4","4","3","4","4","5","4","4","1","2","4","4","4","5","1","2","2","3","2","3","2","2","2","1","0","0","1","0","0","1","1","0","1","1","0","0","0","0","4","2","1","1","2","1","3","4","4","4","2","778036466176757761","刘","467","","","","","","","","","","","","","","","","","","","","","","","","","","","","","","feedback_test","","","","","","","","","","","",""
"855","","j","psychophysics","59","292733","0.0-7.0-1.0-1.0-0.0-0.25","4","3","4","4","3","4","4","4","3","4","4","5","4","4","1","2","4","4","4","5","1","2","2","3","2","3","2","2","2","1","0","0","1","0","0","1","1","0","1","1","0","0","0","0","4","2","1","1","2","1","3","4","4","4","2","778036466176757761","刘","467","","","","match","","","","","","","","","","","","","","key","j","16.65181818181776","960","536","j","true","match","img/circle.png","圆形","圆形","ALT1_2","prac_ALT1_2","","","","","","","","","","","",""
"null","<span style='color:GreenYellow; font-size: 70px;'>正确! </span>","null","html-keyboard-response","60","293245","0.0-7.0-1.0-1.0-0.0-1.25","4","3","4","4","3","4","4","4","3","4","4","5","4","4","1","2","4","4","4","5","1","2","2","3","2","3","2","2","2","1","0","0","1","0","0","1","1","0","1","1","0","0","0","0","4","2","1","1","2","1","3","4","4","4","2","778036466176757761","刘","467","","","","","","","","","","","","","","","","","","","","","","","","","","","","","","feedback_test","","","","","","","","","","","",""
"897","","f","psychophysics","61","295147","0.0-7.0-1.0-1.0-0.0-0.26","4","3","4","4","3","4","4","4","3","4","4","5","4","4","1","2","4","4","4","5","1","2","2","3","2","3","2","2","2","1","0","0","1","0","0","1","1","0","1","1","0","0","0","0","4","2","1","1","2","1","3","4","4","4","2","778036466176757761","刘","467","","","","nonmatch","","","","","","","","","","","","","","key","f","16.668141592920353","960","536","f","true","nonmatch","img/pentagon.png","三角","五边","ALT1_2","prac_ALT1_2","","","","","","","","","","","",""
"null","<span style='color:GreenYellow; font-size: 70px;'>正确! </span>","null","html-keyboard-response","62","295653","0.0-7.0-1.0-1.0-0.0-1.26","4","3","4","4","3","4","4","4","3","4","4","5","4","4","1","2","4","4","4","5","1","2","2","3","2","3","2","2","2","1","0","0","1","0","0","1","1","0","1","1","0","0","0","0","4","2","1","1","2","1","3","4","4","4","2","778036466176757761","刘","467","","","","","","","","","","","","","","","","","","","","","","","","","","","","","","feedback_test","","","","","","","","","","","",""
"671","","j","psychophysics","63","297346","0.0-7.0-1.0-1.0-0.0-0.27","4","3","4","4","3","4","4","4","3","4","4","5","4","4","1","2","4","4","4","5","1","2","2","3","2","3","2","2","2","1","0","0","1","0","0","1","1","0","1","1","0","0","0","0","4","2","1","1","2","1","3","4","4","4","2","778036466176757761","刘","467","","","","match","","","","","","","","","","","","","","key","j","16.663366336633665","960","536","j","true","match","img/triangle.png","三角","三角","ALT1_2","prac_ALT1_2","","","","","","","","","","","",""
"null","<span style='color:GreenYellow; font-size: 70px;'>正确! </span>","null","html-keyboard-response","64","297849","0.0-7.0-1.0-1.0-0.0-1.27","4","3","4","4","3","4","4","4","3","4","4","5","4","4","1","2","4","4","4","5","1","2","2","3","2","3","2","2","2","1","0","0","1","0","0","1","1","0","1","1","0","0","0","0","4","2","1","1","2","1","3","4","4","4","2","778036466176757761","刘","467","","","","","","","","","","","","","","","","","","","","","","","","","","","","","","feedback_test","","","","","","","","","","","",""
"802","","j","psychophysics","65","299661","0.0-7.0-1.0-1.0-0.0-0.28","4","3","4","4","3","4","4","4","3","4","4","5","4","4","1","2","4","4","4","5","1","2","2","3","2","3","2","2","2","1","0","0","1","0","0","1","1","0","1","1","0","0","0","0","4","2","1","1","2","1","3","4","4","4","2","778036466176757761","刘","467","","","","match","","","","","","","","","","","","","","key","j","16.666666666666668","960","536","j","true","match","img/pentagon.png","五边","五边","ALT1_2","prac_ALT1_2","","","","","","","","","","","",""
"null","<span style='color:GreenYellow; font-size: 70px;'>正确! </span>","null","html-keyboard-response","66","300171","0.0-7.0-1.0-1.0-0.0-1.28","4","3","4","4","3","4","4","4","3","4","4","5","4","4","1","2","4","4","4","5","1","2","2","3","2","3","2","2","2","1","0","0","1","0","0","1","1","0","1","1","0","0","0","0","4","2","1","1","2","1","3","4","4","4","2","778036466176757761","刘","467","","","","","","","","","","","","","","","","","","","","","","","","","","","","","","feedback_test","","","","","","","","","","","",""
"793","","f","psychophysics","67","301968","0.0-7.0-1.0-1.0-0.0-0.29","4","3","4","4","3","4","4","4","3","4","4","5","4","4","1","2","4","4","4","5","1","2","2","3","2","3","2","2","2","1","0","0","1","0","0","1","1","0","1","1","0","0","0","0","4","2","1","1","2","1","3","4","4","4","2","778036466176757761","刘","467","","","","nonmatch","","","","","","","","","","","","","","key","f","16.66822429906542","960","536","f","true","nonmatch","img/circle.png","三角","圆形","ALT1_2","prac_ALT1_2","","","","","","","","","","","",""
"null","<span style='color:GreenYellow; font-size: 70px;'>正确! </span>","null","html-keyboard-response","68","302497","0.0-7.0-1.0-1.0-0.0-1.29","4","3","4","4","3","4","4","4","3","4","4","5","4","4","1","2","4","4","4","5","1","2","2","3","2","3","2","2","2","1","0","0","1","0","0","1","1","0","1","1","0","0","0","0","4","2","1","1","2","1","3","4","4","4","2","778036466176757761","刘","467","","","","","","","","","","","","","","","","","","","","","","","","","","","","","","feedback_test","","","","","","","","","","","",""
"357","","j","psychophysics","69","303879","0.0-7.0-1.0-1.0-0.0-0.30","4","3","4","4","3","4","4","4","3","4","4","5","4","4","1","2","4","4","4","5","1","2","2","3","2","3","2","2","2","1","0","0","1","0","0","1","1","0","1","1","0","0","0","0","4","2","1","1","2","1","3","4","4","4","2","778036466176757761","刘","467","","","","match","","","","","","","","","","","","","","key","j","16.66707317073185","960","536","j","true","match","img/circle.png","圆形","圆形","ALT1_2","prac_ALT1_2","","","","","","","","","","","",""
"null","<span style='color:GreenYellow; font-size: 70px;'>正确! </span>","null","html-keyboard-response","70","304387","0.0-7.0-1.0-1.0-0.0-1.30","4","3","4","4","3","4","4","4","3","4","4","5","4","4","1","2","4","4","4","5","1","2","2","3","2","3","2","2","2","1","0","0","1","0","0","1","1","0","1","1","0","0","0","0","4","2","1","1","2","1","3","4","4","4","2","778036466176757761","刘","467","","","","","","","","","","","","","","","","","","","","","","","","","","","","","","feedback_test","","","","","","","","","","","",""
"860","","j","psychophysics","71","306251","0.0-7.0-1.0-1.0-0.0-0.31","4","3","4","4","3","4","4","4","3","4","4","5","4","4","1","2","4","4","4","5","1","2","2","3","2","3","2","2","2","1","0","0","1","0","0","1","1","0","1","1","0","0","0","0","4","2","1","1","2","1","3","4","4","4","2","778036466176757761","刘","467","","","","match","","","","","","","","","","","","","","key","j","16.665765765765975","960","536","j","true","match","img/pentagon.png","五边","五边","ALT1_2","prac_ALT1_2","","","","","","","","","","","",""
"null","<span style='color:GreenYellow; font-size: 70px;'>正确! </span>","null","html-keyboard-response","72","306754","0.0-7.0-1.0-1.0-0.0-1.31","4","3","4","4","3","4","4","4","3","4","4","5","4","4","1","2","4","4","4","5","1","2","2","3","2","3","2","2","2","1","0","0","1","0","0","1","1","0","1","1","0","0","0","0","4","2","1","1","2","1","3","4","4","4","2","778036466176757761","刘","467","","","","","","","","","","","","","","","","","","","","","","","","","","","","","","feedback_test","","","","","","","","","","","",""
"746","","j","psychophysics","73","308503","0.0-7.0-1.0-1.0-0.0-0.32","4","3","4","4","3","4","4","4","3","4","4","5","4","4","1","2","4","4","4","5","1","2","2","3","2","3","2","2","2","1","0","0","1","0","0","1","1","0","1","1","0","0","0","0","4","2","1","1","2","1","3","4","4","4","2","778036466176757761","刘","467","","","","match","","","","","","","","","","","","","","key","j","16.6647058823534","960","536","j","true","match","img/diamond.png","菱形","菱形","ALT1_2","prac_ALT1_2","","","","","","","","","","","",""
"null","<span style='color:GreenYellow; font-size: 70px;'>正确! </span>","null","html-keyboard-response","74","309035","0.0-7.0-1.0-1.0-0.0-1.32","4","3","4","4","3","4","4","4","3","4","4","5","4","4","1","2","4","4","4","5","1","2","2","3","2","3","2","2","2","1","0","0","1","0","0","1","1","0","1","1","0","0","0","0","4","2","1","1","2","1","3","4","4","4","2","778036466176757761","刘","467","","","","","","","","","","","","","","","","","","","","","","","","","","","","","","feedback_test","","","","","","","","","","","",""
"905","","j","psychophysics","75","310962","0.0-7.0-1.0-1.0-0.0-0.33","4","3","4","4","3","4","4","4","3","4","4","5","4","4","1","2","4","4","4","5","1","2","2","3","2","3","2","2","2","1","0","0","1","0","0","1","1","0","1","1","0","0","0","0","4","2","1","1","2","1","3","4","4","4","2","778036466176757761","刘","467","","","","match","","","","","","","","","","","","","","key","j","16.666086956521536","960","536","f","false","nonmatch","img/triangle.png","五边","三角","ALT1_2","prac_ALT1_2","","","","","","","","","","","",""
"null","<span style='color:red; font-size: 70px;'>错误! </span>","null","html-keyboard-response","76","311466","0.0-7.0-1.0-1.0-0.0-1.33","4","3","4","4","3","4","4","4","3","4","4","5","4","4","1","2","4","4","4","5","1","2","2","3","2","3","2","2","2","1","0","0","1","0","0","1","1","0","1","1","0","0","0","0","4","2","1","1","2","1","3","4","4","4","2","778036466176757761","刘","467","","","","","","","","","","","","","","","","","","","","","","","","","","","","","","feedback_test","","","","","","","","","","","",""
"939","","j","psychophysics","77","313412","0.0-7.0-1.0-1.0-0.0-0.34","4","3","4","4","3","4","4","4","3","4","4","5","4","4","1","2","4","4","4","5","1","2","2","3","2","3","2","2","2","1","0","0","1","0","0","1","1","0","1","1","0","0","0","0","4","2","1","1","2","1","3","4","4","4","2","778036466176757761","刘","467","","","","match","","","","","","","","","","","","","","key","j","16.666379310344727","960","536","f","false","nonmatch","img/pentagon.png","菱形","五边","ALT1_2","prac_ALT1_2","","","","","","","","","","","",""
"null","<span style='color:red; font-size: 70px;'>错误! </span>","null","html-keyboard-response","78","313919","0.0-7.0-1.0-1.0-0.0-1.34","4","3","4","4","3","4","4","4","3","4","4","5","4","4","1","2","4","4","4","5","1","2","2","3","2","3","2","2","2","1","0","0","1","0","0","1","1","0","1","1","0","0","0","0","4","2","1","1","2","1","3","4","4","4","2","778036466176757761","刘","467","","","","","","","","","","","","","","","","","","","","","","","","","","","","","","feedback_test","","","","","","","","","","","",""
"921","","j","psychophysics","79","315846","0.0-7.0-1.0-1.0-0.0-0.35","4","3","4","4","3","4","4","4","3","4","4","5","4","4","1","2","4","4","4","5","1","2","2","3","2","3","2","2","2","1","0","0","1","0","0","1","1","0","1","1","0","0","0","0","4","2","1","1","2","1","3","4","4","4","2","778036466176757761","刘","467","","","","match","","","","","","","","","","","","","","key","j","16.669565217391305","960","536","f","false","nonmatch","img/diamond.png","五边","菱形","ALT1_2","prac_ALT1_2","","","","","","","","","","","",""
"null","<span style='color:red; font-size: 70px;'>错误! </span>","null","html-keyboard-response","80","316349","0.0-7.0-1.0-1.0-0.0-1.35","4","3","4","4","3","4","4","4","3","4","4","5","4","4","1","2","4","4","4","5","1","2","2","3","2","3","2","2","2","1","0","0","1","0","0","1","1","0","1","1","0","0","0","0","4","2","1","1","2","1","3","4","4","4","2","778036466176757761","刘","467","","","","","","","","","","","","","","","","","","","","","","","","","","","","","","feedback_test","","","","","","","","","","","",""
"864","","f","psychophysics","81","318218","0.0-7.0-1.0-1.0-0.0-0.36","4","3","4","4","3","4","4","4","3","4","4","5","4","4","1","2","4","4","4","5","1","2","2","3","2","3","2","2","2","1","0","0","1","0","0","1","1","0","1","1","0","0","0","0","4","2","1","1","2","1","3","4","4","4","2","778036466176757761","刘","467","","","","nonmatch","","","","","","","","","","","","","","key","f","16.668468468468575","960","536","f","true","nonmatch","img/pentagon.png","圆形","五边","ALT1_2","prac_ALT1_2","","","","","","","","","","","",""
"null","<span style='color:GreenYellow; font-size: 70px;'>正确! </span>","null","html-keyboard-response","82","318728","0.0-7.0-1.0-1.0-0.0-1.36","4","3","4","4","3","4","4","4","3","4","4","5","4","4","1","2","4","4","4","5","1","2","2","3","2","3","2","2","2","1","0","0","1","0","0","1","1","0","1","1","0","0","0","0","4","2","1","1","2","1","3","4","4","4","2","778036466176757761","刘","467","","","","","","","","","","","","","","","","","","","","","","","","","","","","","","feedback_test","","","","","","","","","","","",""
"650","","f","psychophysics","83","320387","0.0-7.0-1.0-1.0-0.0-0.37","4","3","4","4","3","4","4","4","3","4","4","5","4","4","1","2","4","4","4","5","1","2","2","3","2","3","2","2","2","1","0","0","1","0","0","1","1","0","1","1","0","0","0","0","4","2","1","1","2","1","3","4","4","4","2","778036466176757761","刘","467","","","","nonmatch","","","","","","","","","","","","","","key","f","16.666326530612125","960","536","j","false","match","img/circle.png","圆形","圆形","ALT1_2","prac_ALT1_2","","","","","","","","","","","",""
"null","<span style='color:red; font-size: 70px;'>错误! </span>","null","html-keyboard-response","84","320893","0.0-7.0-1.0-1.0-0.0-1.37","4","3","4","4","3","4","4","4","3","4","4","5","4","4","1","2","4","4","4","5","1","2","2","3","2","3","2","2","2","1","0","0","1","0","0","1","1","0","1","1","0","0","0","0","4","2","1","1","2","1","3","4","4","4","2","778036466176757761","刘","467","","","","","","","","","","","","","","","","","","","","","","","","","","","","","","feedback_test","","","","","","","","","","","",""
"675","","f","psychophysics","85","322582","0.0-7.0-1.0-1.0-0.0-0.38","4","3","4","4","3","4","4","4","3","4","4","5","4","4","1","2","4","4","4","5","1","2","2","3","2","3","2","2","2","1","0","0","1","0","0","1","1","0","1","1","0","0","0","0","4","2","1","1","2","1","3","4","4","4","2","778036466176757761","刘","467","","","","nonmatch","","","","","","","","","","","","","","key","f","16.67","960","536","j","false","match","img/triangle.png","三角","三角","ALT1_2","prac_ALT1_2","","","","","","","","","","","",""
"null","<span style='color:red; font-size: 70px;'>错误! </span>","null","html-keyboard-response","86","323092","0.0-7.0-1.0-1.0-0.0-1.38","4","3","4","4","3","4","4","4","3","4","4","5","4","4","1","2","4","4","4","5","1","2","2","3","2","3","2","2","2","1","0","0","1","0","0","1","1","0","1","1","0","0","0","0","4","2","1","1","2","1","3","4","4","4","2","778036466176757761","刘","467","","","","","","","","","","","","","","","","","","","","","","","","","","","","","","feedback_test","","","","","","","","","","","",""
"834","","f","psychophysics","87","324931","0.0-7.0-1.0-1.0-0.0-0.39","4","3","4","4","3","4","4","4","3","4","4","5","4","4","1","2","4","4","4","5","1","2","2","3","2","3","2","2","2","1","0","0","1","0","0","1","1","0","1","1","0","0","0","0","4","2","1","1","2","1","3","4","4","4","2","778036466176757761","刘","467","","","","nonmatch","","","","","","","","","","","","","","key","f","16.668807339449756","960","536","f","true","nonmatch","img/triangle.png","菱形","三角","ALT1_2","prac_ALT1_2","","","","","","","","","","","",""
"null","<span style='color:GreenYellow; font-size: 70px;'>正确! </span>","null","html-keyboard-response","88","325436","0.0-7.0-1.0-1.0-0.0-1.39","4","3","4","4","3","4","4","4","3","4","4","5","4","4","1","2","4","4","4","5","1","2","2","3","2","3","2","2","2","1","0","0","1","0","0","1","1","0","1","1","0","0","0","0","4","2","1","1","2","1","3","4","4","4","2","778036466176757761","刘","467","","","","","","","","","","","","","","","","","","","","","","","","","","","","","","feedback_test","","","","","","","","","","","",""
"805","","f","psychophysics","89","327246","0.0-7.0-1.0-1.0-0.0-0.40","4","3","4","4","3","4","4","4","3","4","4","5","4","4","1","2","4","4","4","5","1","2","2","3","2","3","2","2","2","1","0","0","1","0","0","1","1","0","1","1","0","0","0","0","4","2","1","1","2","1","3","4","4","4","2","778036466176757761","刘","467","","","","nonmatch","","","","","","","","","","","","","","key","f","16.668518518518088","960","536","f","true","nonmatch","img/circle.png","菱形","圆形","ALT1_2","prac_ALT1_2","","","","","","","","","","","",""
"null","<span style='color:GreenYellow; font-size: 70px;'>正确! </span>","null","html-keyboard-response","90","327758","0.0-7.0-1.0-1.0-0.0-1.40","4","3","4","4","3","4","4","4","3","4","4","5","4","4","1","2","4","4","4","5","1","2","2","3","2","3","2","2","2","1","0","0","1","0","0","1","1","0","1","1","0","0","0","0","4","2","1","1","2","1","3","4","4","4","2","778036466176757761","刘","467","","","","","","","","","","","","","","","","","","","","","","","","","","","","","","feedback_test","","","","","","","","","","","",""
"646","","j","psychophysics","91","329419","0.0-7.0-1.0-1.0-0.0-0.41","4","3","4","4","3","4","4","4","3","4","4","5","4","4","1","2","4","4","4","5","1","2","2","3","2","3","2","2","2","1","0","0","1","0","0","1","1","0","1","1","0","0","0","0","4","2","1","1","2","1","3","4","4","4","2","778036466176757761","刘","467","","","","match","","","","","","","","","","","","","","key","j","16.66632653061272","960","536","j","true","match","img/pentagon.png","五边","五边","ALT1_2","prac_ALT1_2","","","","","","","","","","","",""
"null","<span style='color:GreenYellow; font-size: 70px;'>正确! </span>","null","html-keyboard-response","92","329928","0.0-7.0-1.0-1.0-0.0-1.41","4","3","4","4","3","4","4","4","3","4","4","5","4","4","1","2","4","4","4","5","1","2","2","3","2","3","2","2","2","1","0","0","1","0","0","1","1","0","1","1","0","0","0","0","4","2","1","1","2","1","3","4","4","4","2","778036466176757761","刘","467","","","","","","","","","","","","","","","","","","","","","","","","","","","","","","feedback_test","","","","","","","","","","","",""
"709","","j","psychophysics","93","331647","0.0-7.0-1.0-1.0-0.0-0.42","4","3","4","4","3","4","4","4","3","4","4","5","4","4","1","2","4","4","4","5","1","2","2","3","2","3","2","2","2","1","0","0","1","0","0","1","1","0","1","1","0","0","0","0","4","2","1","1","2","1","3","4","4","4","2","778036466176757761","刘","467","","","","match","","","","","","","","","","","","","","key","j","16.666666666666668","960","536","j","true","match","img/diamond.png","菱形","菱形","ALT1_2","prac_ALT1_2","","","","","","","","","","","",""
"null","<span style='color:GreenYellow; font-size: 70px;'>正确! </span>","null","html-keyboard-response","94","332152","0.0-7.0-1.0-1.0-0.0-1.42","4","3","4","4","3","4","4","4","3","4","4","5","4","4","1","2","4","4","4","5","1","2","2","3","2","3","2","2","2","1","0","0","1","0","0","1","1","0","1","1","0","0","0","0","4","2","1","1","2","1","3","4","4","4","2","778036466176757761","刘","467","","","","","","","","","","","","","","","","","","","","","","","","","","","","","","feedback_test","","","","","","","","","","","",""
"746","","f","psychophysics","95","333901","0.0-7.0-1.0-1.0-0.0-0.43","4","3","4","4","3","4","4","4","3","4","4","5","4","4","1","2","4","4","4","5","1","2","2","3","2","3","2","2","2","1","0","0","1","0","0","1","1","0","1","1","0","0","0","0","4","2","1","1","2","1","3","4","4","4","2","778036466176757761","刘","467","","","","nonmatch","","","","","","","","","","","","","","key","f","16.665384615384728","960","536","f","true","nonmatch","img/circle.png","五边","圆形","ALT1_2","prac_ALT1_2","","","","","","","","","","","",""
"null","<span style='color:GreenYellow; font-size: 70px;'>正确! </span>","null","html-keyboard-response","96","334403","0.0-7.0-1.0-1.0-0.0-1.43","4","3","4","4","3","4","4","4","3","4","4","5","4","4","1","2","4","4","4","5","1","2","2","3","2","3","2","2","2","1","0","0","1","0","0","1","1","0","1","1","0","0","0","0","4","2","1","1","2","1","3","4","4","4","2","778036466176757761","刘","467","","","","","","","","","","","","","","","","","","","","","","","","","","","","","","feedback_test","","","","","","","","","","","",""
"865","","f","psychophysics","97","336300","0.0-7.0-1.0-1.0-0.0-0.44","4","3","4","4","3","4","4","4","3","4","4","5","4","4","1","2","4","4","4","5","1","2","2","3","2","3","2","2","2","1","0","0","1","0","0","1","1","0","1","1","0","0","0","0","4","2","1","1","2","1","3","4","4","4","2","778036466176757761","刘","467","","","","nonmatch","","","","","","","","","","","","","","key","f","16.586607142857247","960","536","f","true","nonmatch","img/diamond.png","圆形","菱形","ALT1_2","prac_ALT1_2","","","","","","","","","","","",""
"null","<span style='color:GreenYellow; font-size: 70px;'>正确! </span>","null","html-keyboard-response","98","336809","0.0-7.0-1.0-1.0-0.0-1.44","4","3","4","4","3","4","4","4","3","4","4","5","4","4","1","2","4","4","4","5","1","2","2","3","2","3","2","2","2","1","0","0","1","0","0","1","1","0","1","1","0","0","0","0","4","2","1","1","2","1","3","4","4","4","2","778036466176757761","刘","467","","","","","","","","","","","","","","","","","","","","","","","","","","","","","","feedback_test","","","","","","","","","","","",""
"963","","f","psychophysics","99","338785","0.0-7.0-1.0-1.0-0.0-0.45","4","3","4","4","3","4","4","4","3","4","4","5","4","4","1","2","4","4","4","5","1","2","2","3","2","3","2","2","2","1","0","0","1","0","0","1","1","0","1","1","0","0","0","0","4","2","1","1","2","1","3","4","4","4","2","778036466176757761","刘","467","","","","nonmatch","","","","","","","","","","","","","","key","f","16.811206896551525","960","536","f","true","nonmatch","img/triangle.png","圆形","三角","ALT1_2","prac_ALT1_2","","","","","","","","","","","",""
"null","<span style='color:GreenYellow; font-size: 70px;'>正确! </span>","null","html-keyboard-response","100","339290","0.0-7.0-1.0-1.0-0.0-1.45","4","3","4","4","3","4","4","4","3","4","4","5","4","4","1","2","4","4","4","5","1","2","2","3","2","3","2","2","2","1","0","0","1","0","0","1","1","0","1","1","0","0","0","0","4","2","1","1","2","1","3","4","4","4","2","778036466176757761","刘","467","","","","","","","","","","","","","","","","","","","","","","","","","","","","","","feedback_test","","","","","","","","","","","",""
"818","","j","psychophysics","101","341110","0.0-7.0-1.0-1.0-0.0-0.46","4","3","4","4","3","4","4","4","3","4","4","5","4","4","1","2","4","4","4","5","1","2","2","3","2","3","2","2","2","1","0","0","1","0","0","1","1","0","1","1","0","0","0","0","4","2","1","1","2","1","3","4","4","4","2","778036466176757761","刘","467","","","","match","","","","","","","","","","","","","","key","j","16.666666666666668","960","536","j","true","match","img/triangle.png","三角","三角","ALT1_2","prac_ALT1_2","","","","","","","","","","","",""
"null","<span style='color:GreenYellow; font-size: 70px;'>正确! </span>","null","html-keyboard-response","102","341645","0.0-7.0-1.0-1.0-0.0-1.46","4","3","4","4","3","4","4","4","3","4","4","5","4","4","1","2","4","4","4","5","1","2","2","3","2","3","2","2","2","1","0","0","1","0","0","1","1","0","1","1","0","0","0","0","4","2","1","1","2","1","3","4","4","4","2","778036466176757761","刘","467","","","","","","","","","","","","","","","","","","","","","","","","","","","","","","feedback_test","","","","","","","","","","","",""
"871","","f","psychophysics","103","343533","0.0-7.0-1.0-1.0-0.0-0.47","4","3","4","4","3","4","4","4","3","4","4","5","4","4","1","2","4","4","4","5","1","2","2","3","2","3","2","2","2","1","0","0","1","0","0","1","1","0","1","1","0","0","0","0","4","2","1","1","2","1","3","4","4","4","2","778036466176757761","刘","467","","","","nonmatch","","","","","","","","","","","","","","key","f","16.66696428571439","960","536","f","true","nonmatch","img/diamond.png","三角","菱形","ALT1_2","prac_ALT1_2","","","","","","","","","","","",""
"null","<span style='color:GreenYellow; font-size: 70px;'>正确! </span>","null","html-keyboard-response","104","344044","0.0-7.0-1.0-1.0-0.0-1.47","4","3","4","4","3","4","4","4","3","4","4","5","4","4","1","2","4","4","4","5","1","2","2","3","2","3","2","2","2","1","0","0","1","0","0","1","1","0","1","1","0","0","0","0","4","2","1","1","2","1","3","4","4","4","2","778036466176757761","刘","467","","","","","","","","","","","","","","","","","","","","","","","","","","","","","","feedback_test","","","","","","","","","","","",""
"6274","<style>.context{color:white; font-size: 35px; line-height:40px}</style>                          <div><p class='context'>您正确回答了71% 的试次。</p><p class='context'>您的平均反应时为804毫秒。</p><p class='context'>恭喜您完成练习。按空格键进入正式实验。</p><p class='footer' style='font-size: 35px; line-height:40px;'>请在进入正式实验实验之前将您的<span style='color: lightgreen;'>食指</span>放在电脑键盘的相应键位上进行按键。</p>"," ","html-keyboard-response","105","350322","0.0-7.0-1.0-2.0","4","3","4","4","3","4","4","4","3","4","4","5","4","4","1","2","4","4","4","5","1","2","2","3","2","3","2","2","2","1","0","0","1","0","0","1","1","0","1","1","0","0","0","0","4","2","1","1","2","1","3","4","4","4","2","778036466176757761","刘","467","","","","","","","","","","","","","","","","","","","","","","","","","","","","","","","","","","","","","","","","","",""
"1640","
  <p style='color: white; font-size: 22px'>请您将手指放在按键上，准备进入正式的匹配任务。</p>
  <p> <div style = ""color: green""><按空格键进入下一阶段的匹配任务></div></p>
  "," ","html-keyboard-response","106","351968","0.0-7.0-1.0-3.0","4","3","4","4","3","4","4","4","3","4","4","5","4","4","1","2","4","4","4","5","1","2","2","3","2","3","2","2","2","1","0","0","1","0","0","1","1","0","1","1","0","0","0","0","4","2","1","1","2","1","3","4","4","4","2","778036466176757761","刘","467","","","","","","","","","","","","","","","","","","","","","","","","","","","","","","","","","","","","","","","","","",""
"null","","null","psychophysics","107","354174","0.0-7.0-1.0-4.0-0.0-0.0","4","3","4","4","3","4","4","4","3","4","4","5","4","4","1","2","4","4","4","5","1","2","2","3","2","3","2","2","2","1","0","0","1","0","0","1","1","0","1","1","0","0","0","0","4","2","1","1","2","1","3","4","4","4","2","778036466176757761","刘","467","","","","null","","","","","","","","","","","","","","key","null","16.665151515151425","960","536","j","false","match","img/triangle.png","三角","三角","ALT1","formal_ALT1_2","","","","","","","","","","","",""
"null","<span class='add_' style='color:yellow; font-size: 70px;'> 太慢! </span>","null","html-keyboard-response","108","354677","0.0-7.0-1.0-4.0-0.0-1.0","4","3","4","4","3","4","4","4","3","4","4","5","4","4","1","2","4","4","4","5","1","2","2","3","2","3","2","2","2","1","0","0","1","0","0","1","1","0","1","1","0","0","0","0","4","2","1","1","2","1","3","4","4","4","2","778036466176757761","刘","467","","","","","","","","","","","","","","","","","","","","","","","","","","","","","","feedback_test","","","","","","","","","","","",""
"775","","f","psychophysics","109","356459","0.0-7.0-1.0-4.0-0.0-0.1","4","3","4","4","3","4","4","4","3","4","4","5","4","4","1","2","4","4","4","5","1","2","2","3","2","3","2","2","2","1","0","0","1","0","0","1","1","0","1","1","0","0","0","0","4","2","1","1","2","1","3","4","4","4","2","778036466176757761","刘","467","","","","nonmatch","","","","","","","","","","","","","","key","f","16.66698113207558","960","536","f","true","nonmatch","img/diamond.png","圆形","菱形","ALT1","formal_ALT1_2","","","","","","","","","","","",""
"null","<span style='color:GreenYellow; font-size: 70px;'>正确! </span>","null","html-keyboard-response","110","356966","0.0-7.0-1.0-4.0-0.0-1.1","4","3","4","4","3","4","4","4","3","4","4","5","4","4","1","2","4","4","4","5","1","2","2","3","2","3","2","2","2","1","0","0","1","0","0","1","1","0","1","1","0","0","0","0","4","2","1","1","2","1","3","4","4","4","2","778036466176757761","刘","467","","","","","","","","","","","","","","","","","","","","","","","","","","","","","","feedback_test","","","","","","","","","","","",""
"908","","j","psychophysics","111","358878","0.0-7.0-1.0-4.0-0.0-0.2","4","3","4","4","3","4","4","4","3","4","4","5","4","4","1","2","4","4","4","5","1","2","2","3","2","3","2","2","2","1","0","0","1","0","0","1","1","0","1","1","0","0","0","0","4","2","1","1","2","1","3","4","4","4","2","778036466176757761","刘","467","","","","match","","","","","","","","","","","","","","key","j","16.66842105263117","960","536","f","false","nonmatch","img/pentagon.png","菱形","五边","ALT1","formal_ALT1_2","","","","","","","","","","","",""
"null","<span style='color:red; font-size: 70px;'>错误! </span>","null","html-keyboard-response","112","359381","0.0-7.0-1.0-4.0-0.0-1.2","4","3","4","4","3","4","4","4","3","4","4","5","4","4","1","2","4","4","4","5","1","2","2","3","2","3","2","2","2","1","0","0","1","0","0","1","1","0","1","1","0","0","0","0","4","2","1","1","2","1","3","4","4","4","2","778036466176757761","刘","467","","","","","","","","","","","","","","","","","","","","","","","","","","","","","","feedback_test","","","","","","","","","","","",""
"874","","f","psychophysics","113","361262","0.0-7.0-1.0-4.0-0.0-0.3","4","3","4","4","3","4","4","4","3","4","4","5","4","4","1","2","4","4","4","5","1","2","2","3","2","3","2","2","2","1","0","0","1","0","0","1","1","0","1","1","0","0","0","0","4","2","1","1","2","1","3","4","4","4","2","778036466176757761","刘","467","","","","nonmatch","","","","","","","","","","","","","","key","f","16.665178571428573","960","536","f","true","nonmatch","img/diamond.png","五边","菱形","ALT1","formal_ALT1_2","","","","","","","","","","","",""
"null","<span style='color:GreenYellow; font-size: 70px;'>正确! </span>","null","html-keyboard-response","114","361773","0.0-7.0-1.0-4.0-0.0-1.3","4","3","4","4","3","4","4","4","3","4","4","5","4","4","1","2","4","4","4","5","1","2","2","3","2","3","2","2","2","1","0","0","1","0","0","1","1","0","1","1","0","0","0","0","4","2","1","1","2","1","3","4","4","4","2","778036466176757761","刘","467","","","","","","","","","","","","","","","","","","","","","","","","","","","","","","feedback_test","","","","","","","","","","","",""
"779","","j","psychophysics","115","363571","0.0-7.0-1.0-4.0-0.0-0.4","4","3","4","4","3","4","4","4","3","4","4","5","4","4","1","2","4","4","4","5","1","2","2","3","2","3","2","2","2","1","0","0","1","0","0","1","1","0","1","1","0","0","0","0","4","2","1","1","2","1","3","4","4","4","2","778036466176757761","刘","467","","","","match","","","","","","","","","","","","","","key","j","16.666037735848835","960","536","f","false","nonmatch","img/triangle.png","圆形","三角","ALT1","formal_ALT1_2","","","","","","","","","","","",""
"null","<span style='color:red; font-size: 70px;'>错误! </span>","null","html-keyboard-response","116","364082","0.0-7.0-1.0-4.0-0.0-1.4","4","3","4","4","3","4","4","4","3","4","4","5","4","4","1","2","4","4","4","5","1","2","2","3","2","3","2","2","2","1","0","0","1","0","0","1","1","0","1","1","0","0","0","0","4","2","1","1","2","1","3","4","4","4","2","778036466176757761","刘","467","","","","","","","","","","","","","","","","","","","","","","","","","","","","","","feedback_test","","","","","","","","","","","",""
"1006","","j","psychophysics","117","366093","0.0-7.0-1.0-4.0-0.0-0.5","4","3","4","4","3","4","4","4","3","4","4","5","4","4","1","2","4","4","4","5","1","2","2","3","2","3","2","2","2","1","0","0","1","0","0","1","1","0","1","1","0","0","0","0","4","2","1","1","2","1","3","4","4","4","2","778036466176757761","刘","467","","","","match","","","","","","","","","","","","","","key","j","16.666666666666668","960","536","j","true","match","img/pentagon.png","五边","五边","ALT1","formal_ALT1_2","","","","","","","","","","","",""
"null","<span style='color:GreenYellow; font-size: 70px;'>正确! </span>","null","html-keyboard-response","118","366612","0.0-7.0-1.0-4.0-0.0-1.5","4","3","4","4","3","4","4","4","3","4","4","5","4","4","1","2","4","4","4","5","1","2","2","3","2","3","2","2","2","1","0","0","1","0","0","1","1","0","1","1","0","0","0","0","4","2","1","1","2","1","3","4","4","4","2","778036466176757761","刘","467","","","","","","","","","","","","","","","","","","","","","","","","","","","","","","feedback_test","","","","","","","","","","","",""
"692","","f","psychophysics","119","368313","0.0-7.0-1.0-4.0-0.0-0.6","4","3","4","4","3","4","4","4","3","4","4","5","4","4","1","2","4","4","4","5","1","2","2","3","2","3","2","2","2","1","0","0","1","0","0","1","1","0","1","1","0","0","0","0","4","2","1","1","2","1","3","4","4","4","2","778036466176757761","刘","467","","","","nonmatch","","","","","","","","","","","","","","key","f","16.669306930692837","960","536","f","true","nonmatch","img/pentagon.png","圆形","五边","ALT1","formal_ALT1_2","","","","","","","","","","","",""
"null","<span style='color:GreenYellow; font-size: 70px;'>正确! </span>","null","html-keyboard-response","120","368827","0.0-7.0-1.0-4.0-0.0-1.6","4","3","4","4","3","4","4","4","3","4","4","5","4","4","1","2","4","4","4","5","1","2","2","3","2","3","2","2","2","1","0","0","1","0","0","1","1","0","1","1","0","0","0","0","4","2","1","1","2","1","3","4","4","4","2","778036466176757761","刘","467","","","","","","","","","","","","","","","","","","","","","","","","","","","","","","feedback_test","","","","","","","","","","","",""
"732","","j","psychophysics","121","370581","0.0-7.0-1.0-4.0-0.0-0.7","4","3","4","4","3","4","4","4","3","4","4","5","4","4","1","2","4","4","4","5","1","2","2","3","2","3","2","2","2","1","0","0","1","0","0","1","1","0","1","1","0","0","0","0","4","2","1","1","2","1","3","4","4","4","2","778036466176757761","刘","467","","","","match","","","","","","","","","","","","","","key","j","16.665384615384728","960","536","f","false","nonmatch","img/pentagon.png","三角","五边","ALT1","formal_ALT1_2","","","","","","","","","","","",""
"null","<span style='color:red; font-size: 70px;'>错误! </span>","null","html-keyboard-response","122","371086","0.0-7.0-1.0-4.0-0.0-1.7","4","3","4","4","3","4","4","4","3","4","4","5","4","4","1","2","4","4","4","5","1","2","2","3","2","3","2","2","2","1","0","0","1","0","0","1","1","0","1","1","0","0","0","0","4","2","1","1","2","1","3","4","4","4","2","778036466176757761","刘","467","","","","","","","","","","","","","","","","","","","","","","","","","","","","","","feedback_test","","","","","","","","","","","",""
"955","","j","psychophysics","123","373047","0.0-7.0-1.0-4.0-0.0-0.8","4","3","4","4","3","4","4","4","3","4","4","5","4","4","1","2","4","4","4","5","1","2","2","3","2","3","2","2","2","1","0","0","1","0","0","1","1","0","1","1","0","0","0","0","4","2","1","1","2","1","3","4","4","4","2","778036466176757761","刘","467","","","","match","","","","","","","","","","","","","","key","j","16.66810344827586","960","536","j","true","match","img/triangle.png","三角","三角","ALT1","formal_ALT1_2","","","","","","","","","","","",""
"null","<span style='color:GreenYellow; font-size: 70px;'>正确! </span>","null","html-keyboard-response","124","373556","0.0-7.0-1.0-4.0-0.0-1.8","4","3","4","4","3","4","4","4","3","4","4","5","4","4","1","2","4","4","4","5","1","2","2","3","2","3","2","2","2","1","0","0","1","0","0","1","1","0","1","1","0","0","0","0","4","2","1","1","2","1","3","4","4","4","2","778036466176757761","刘","467","","","","","","","","","","","","","","","","","","","","","","","","","","","","","","feedback_test","","","","","","","","","","","",""
"862","","j","psychophysics","125","375421","0.0-7.0-1.0-4.0-0.0-0.9","4","3","4","4","3","4","4","4","3","4","4","5","4","4","1","2","4","4","4","5","1","2","2","3","2","3","2","2","2","1","0","0","1","0","0","1","1","0","1","1","0","0","0","0","4","2","1","1","2","1","3","4","4","4","2","778036466176757761","刘","467","","","","match","","","","","","","","","","","","","","key","j","16.668181818181818","960","536","j","true","match","img/circle.png","圆形","圆形","ALT1","formal_ALT1_2","","","","","","","","","","","",""
"null","<span style='color:GreenYellow; font-size: 70px;'>正确! </span>","null","html-keyboard-response","126","375937","0.0-7.0-1.0-4.0-0.0-1.9","4","3","4","4","3","4","4","4","3","4","4","5","4","4","1","2","4","4","4","5","1","2","2","3","2","3","2","2","2","1","0","0","1","0","0","1","1","0","1","1","0","0","0","0","4","2","1","1","2","1","3","4","4","4","2","778036466176757761","刘","467","","","","","","","","","","","","","","","","","","","","","","","","","","","","","","feedback_test","","","","","","","","","","","",""
"555","","j","psychophysics","127","377508","0.0-7.0-1.0-4.0-0.0-0.10","4","3","4","4","3","4","4","4","3","4","4","5","4","4","1","2","4","4","4","5","1","2","2","3","2","3","2","2","2","1","0","0","1","0","0","1","1","0","1","1","0","0","0","0","4","2","1","1","2","1","3","4","4","4","2","778036466176757761","刘","467","","","","match","","","","","","","","","","","","","","key","j","16.666666666666668","960","536","j","true","match","img/circle.png","圆形","圆形","ALT1","formal_ALT1_2","","","","","","","","","","","",""
"null","<span style='color:GreenYellow; font-size: 70px;'>正确! </span>","null","html-keyboard-response","128","378010","0.0-7.0-1.0-4.0-0.0-1.10","4","3","4","4","3","4","4","4","3","4","4","5","4","4","1","2","4","4","4","5","1","2","2","3","2","3","2","2","2","1","0","0","1","0","0","1","1","0","1","1","0","0","0","0","4","2","1","1","2","1","3","4","4","4","2","778036466176757761","刘","467","","","","","","","","","","","","","","","","","","","","","","","","","","","","","","feedback_test","","","","","","","","","","","",""
"691","","j","psychophysics","129","379710","0.0-7.0-1.0-4.0-0.0-0.11","4","3","4","4","3","4","4","4","3","4","4","5","4","4","1","2","4","4","4","5","1","2","2","3","2","3","2","2","2","1","0","0","1","0","0","1","1","0","1","1","0","0","0","0","4","2","1","1","2","1","3","4","4","4","2","778036466176757761","刘","467","","","","match","","","","","","","","","","","","","","key","j","16.667326732672922","960","536","j","true","match","img/pentagon.png","五边","五边","ALT1","formal_ALT1_2","","","","","","","","","","","",""
"null","<span style='color:GreenYellow; font-size: 70px;'>正确! </span>","null","html-keyboard-response","130","380215","0.0-7.0-1.0-4.0-0.0-1.11","4","3","4","4","3","4","4","4","3","4","4","5","4","4","1","2","4","4","4","5","1","2","2","3","2","3","2","2","2","1","0","0","1","0","0","1","1","0","1","1","0","0","0","0","4","2","1","1","2","1","3","4","4","4","2","778036466176757761","刘","467","","","","","","","","","","","","","","","","","","","","","","","","","","","","","","feedback_test","","","","","","","","","","","",""
"607","","j","psychophysics","131","381833","0.0-7.0-1.0-4.0-0.0-0.12","4","3","4","4","3","4","4","4","3","4","4","5","4","4","1","2","4","4","4","5","1","2","2","3","2","3","2","2","2","1","0","0","1","0","0","1","1","0","1","1","0","0","0","0","4","2","1","1","2","1","3","4","4","4","2","778036466176757761","刘","467","","","","match","","","","","","","","","","","","","","key","j","16.664583333333212","960","536","j","true","match","img/circle.png","圆形","圆形","ALT1","formal_ALT1_2","","","","","","","","","","","",""
"null","<span style='color:GreenYellow; font-size: 70px;'>正确! </span>","null","html-keyboard-response","132","382337","0.0-7.0-1.0-4.0-0.0-1.12","4","3","4","4","3","4","4","4","3","4","4","5","4","4","1","2","4","4","4","5","1","2","2","3","2","3","2","2","2","1","0","0","1","0","0","1","1","0","1","1","0","0","0","0","4","2","1","1","2","1","3","4","4","4","2","778036466176757761","刘","467","","","","","","","","","","","","","","","","","","","","","","","","","","","","","","feedback_test","","","","","","","","","","","",""
"927","","f","psychophysics","133","384278","0.0-7.0-1.0-4.0-0.0-0.13","4","3","4","4","3","4","4","4","3","4","4","5","4","4","1","2","4","4","4","5","1","2","2","3","2","3","2","2","2","1","0","0","1","0","0","1","1","0","1","1","0","0","0","0","4","2","1","1","2","1","3","4","4","4","2","778036466176757761","刘","467","","","","nonmatch","","","","","","","","","","","","","","key","f","16.66695652173923","960","536","j","false","match","img/diamond.png","菱形","菱形","ALT1","formal_ALT1_2","","","","","","","","","","","",""
"null","<span style='color:red; font-size: 70px;'>错误! </span>","null","html-keyboard-response","134","384784","0.0-7.0-1.0-4.0-0.0-1.13","4","3","4","4","3","4","4","4","3","4","4","5","4","4","1","2","4","4","4","5","1","2","2","3","2","3","2","2","2","1","0","0","1","0","0","1","1","0","1","1","0","0","0","0","4","2","1","1","2","1","3","4","4","4","2","778036466176757761","刘","467","","","","","","","","","","","","","","","","","","","","","","","","","","","","","","feedback_test","","","","","","","","","","","",""
"885","","f","psychophysics","135","386676","0.0-7.0-1.0-4.0-0.0-0.14","4","3","4","4","3","4","4","4","3","4","4","5","4","4","1","2","4","4","4","5","1","2","2","3","2","3","2","2","2","1","0","0","1","0","0","1","1","0","1","1","0","0","0","0","4","2","1","1","2","1","3","4","4","4","2","778036466176757761","刘","467","","","","nonmatch","","","","","","","","","","","","","","key","f","16.640178571428674","960","536","f","true","nonmatch","img/diamond.png","三角","菱形","ALT1","formal_ALT1_2","","","","","","","","","","","",""
"null","<span style='color:GreenYellow; font-size: 70px;'>正确! </span>","null","html-keyboard-response","136","387179","0.0-7.0-1.0-4.0-0.0-1.14","4","3","4","4","3","4","4","4","3","4","4","5","4","4","1","2","4","4","4","5","1","2","2","3","2","3","2","2","2","1","0","0","1","0","0","1","1","0","1","1","0","0","0","0","4","2","1","1","2","1","3","4","4","4","2","778036466176757761","刘","467","","","","","","","","","","","","","","","","","","","","","","","","","","","","","","feedback_test","","","","","","","","","","","",""
"597","","f","psychophysics","137","388782","0.0-7.0-1.0-4.0-0.0-0.15","4","3","4","4","3","4","4","4","3","4","4","5","4","4","1","2","4","4","4","5","1","2","2","3","2","3","2","2","2","1","0","0","1","0","0","1","1","0","1","1","0","0","0","0","4","2","1","1","2","1","3","4","4","4","2","778036466176757761","刘","467","","","","nonmatch","","","","","","","","","","","","","","key","f","16.66947368421028","960","536","j","false","match","img/diamond.png","菱形","菱形","ALT1","formal_ALT1_2","","","","","","","","","","","",""
"null","<span style='color:red; font-size: 70px;'>错误! </span>","null","html-keyboard-response","138","389286","0.0-7.0-1.0-4.0-0.0-1.15","4","3","4","4","3","4","4","4","3","4","4","5","4","4","1","2","4","4","4","5","1","2","2","3","2","3","2","2","2","1","0","0","1","0","0","1","1","0","1","1","0","0","0","0","4","2","1","1","2","1","3","4","4","4","2","778036466176757761","刘","467","","","","","","","","","","","","","","","","","","","","","","","","","","","","","","feedback_test","","","","","","","","","","","",""
"929","","f","psychophysics","139","391233","0.0-7.0-1.0-4.0-0.0-0.16","4","3","4","4","3","4","4","4","3","4","4","5","4","4","1","2","4","4","4","5","1","2","2","3","2","3","2","2","2","1","0","0","1","0","0","1","1","0","1","1","0","0","0","0","4","2","1","1","2","1","3","4","4","4","2","778036466176757761","刘","467","","","","nonmatch","","","","","","","","","","","","","","key","f","16.666086956522044","960","536","f","true","nonmatch","img/circle.png","五边","圆形","ALT1","formal_ALT1_2","","","","","","","","","","","",""
"null","<span style='color:GreenYellow; font-size: 70px;'>正确! </span>","null","html-keyboard-response","140","391744","0.0-7.0-1.0-4.0-0.0-1.16","4","3","4","4","3","4","4","4","3","4","4","5","4","4","1","2","4","4","4","5","1","2","2","3","2","3","2","2","2","1","0","0","1","0","0","1","1","0","1","1","0","0","0","0","4","2","1","1","2","1","3","4","4","4","2","778036466176757761","刘","467","","","","","","","","","","","","","","","","","","","","","","","","","","","","","","feedback_test","","","","","","","","","","","",""
"840","","f","psychophysics","141","393592","0.0-7.0-1.0-4.0-0.0-0.17","4","3","4","4","3","4","4","4","3","4","4","5","4","4","1","2","4","4","4","5","1","2","2","3","2","3","2","2","2","1","0","0","1","0","0","1","1","0","1","1","0","0","0","0","4","2","1","1","2","1","3","4","4","4","2","778036466176757761","刘","467","","","","nonmatch","","","","","","","","","","","","","","key","f","16.668181818181818","960","536","f","true","nonmatch","img/triangle.png","菱形","三角","ALT1","formal_ALT1_2","","","","","","","","","","","",""
"null","<span style='color:GreenYellow; font-size: 70px;'>正确! </span>","null","html-keyboard-response","142","394095","0.0-7.0-1.0-4.0-0.0-1.17","4","3","4","4","3","4","4","4","3","4","4","5","4","4","1","2","4","4","4","5","1","2","2","3","2","3","2","2","2","1","0","0","1","0","0","1","1","0","1","1","0","0","0","0","4","2","1","1","2","1","3","4","4","4","2","778036466176757761","刘","467","","","","","","","","","","","","","","","","","","","","","","","","","","","","","","feedback_test","","","","","","","","","","","",""
"642","","f","psychophysics","143","395743","0.0-7.0-1.0-4.0-0.0-0.18","4","3","4","4","3","4","4","4","3","4","4","5","4","4","1","2","4","4","4","5","1","2","2","3","2","3","2","2","2","1","0","0","1","0","0","1","1","0","1","1","0","0","0","0","4","2","1","1","2","1","3","4","4","4","2","778036466176757761","刘","467","","","","nonmatch","","","","","","","","","","","","","","key","f","16.667346938775154","960","536","j","false","match","img/triangle.png","三角","三角","ALT1","formal_ALT1_2","","","","","","","","","","","",""
"null","<span style='color:red; font-size: 70px;'>错误! </span>","null","html-keyboard-response","144","396281","0.0-7.0-1.0-4.0-0.0-1.18","4","3","4","4","3","4","4","4","3","4","4","5","4","4","1","2","4","4","4","5","1","2","2","3","2","3","2","2","2","1","0","0","1","0","0","1","1","0","1","1","0","0","0","0","4","2","1","1","2","1","3","4","4","4","2","778036466176757761","刘","467","","","","","","","","","","","","","","","","","","","","","","","","","","","","","","feedback_test","","","","","","","","","","","",""
"926","","f","psychophysics","145","398226","0.0-7.0-1.0-4.0-0.0-0.19","4","3","4","4","3","4","4","4","3","4","4","5","4","4","1","2","4","4","4","5","1","2","2","3","2","3","2","2","2","1","0","0","1","0","0","1","1","0","1","1","0","0","0","0","4","2","1","1","2","1","3","4","4","4","2","778036466176757761","刘","467","","","","nonmatch","","","","","","","","","","","","","","key","f","16.666379310344727","960","536","f","true","nonmatch","img/triangle.png","五边","三角","ALT1","formal_ALT1_2","","","","","","","","","","","",""
"null","<span style='color:GreenYellow; font-size: 70px;'>正确! </span>","null","html-keyboard-response","146","398730","0.0-7.0-1.0-4.0-0.0-1.19","4","3","4","4","3","4","4","4","3","4","4","5","4","4","1","2","4","4","4","5","1","2","2","3","2","3","2","2","2","1","0","0","1","0","0","1","1","0","1","1","0","0","0","0","4","2","1","1","2","1","3","4","4","4","2","778036466176757761","刘","467","","","","","","","","","","","","","","","","","","","","","","","","","","","","","","feedback_test","","","","","","","","","","","",""
"724","","f","psychophysics","147","400458","0.0-7.0-1.0-4.0-0.0-0.20","4","3","4","4","3","4","4","4","3","4","4","5","4","4","1","2","4","4","4","5","1","2","2","3","2","3","2","2","2","1","0","0","1","0","0","1","1","0","1","1","0","0","0","0","4","2","1","1","2","1","3","4","4","4","2","778036466176757761","刘","467","","","","nonmatch","","","","","","","","","","","","","","key","f","16.66504854368932","960","536","f","true","nonmatch","img/circle.png","三角","圆形","ALT1","formal_ALT1_2","","","","","","","","","","","",""
"null","<span style='color:GreenYellow; font-size: 70px;'>正确! </span>","null","html-keyboard-response","148","400960","0.0-7.0-1.0-4.0-0.0-1.20","4","3","4","4","3","4","4","4","3","4","4","5","4","4","1","2","4","4","4","5","1","2","2","3","2","3","2","2","2","1","0","0","1","0","0","1","1","0","1","1","0","0","0","0","4","2","1","1","2","1","3","4","4","4","2","778036466176757761","刘","467","","","","","","","","","","","","","","","","","","","","","","","","","","","","","","feedback_test","","","","","","","","","","","",""
"709","","j","psychophysics","149","402679","0.0-7.0-1.0-4.0-0.0-0.21","4","3","4","4","3","4","4","4","3","4","4","5","4","4","1","2","4","4","4","5","1","2","2","3","2","3","2","2","2","1","0","0","1","0","0","1","1","0","1","1","0","0","0","0","4","2","1","1","2","1","3","4","4","4","2","778036466176757761","刘","467","","","","match","","","","","","","","","","","","","","key","j","16.667647058823302","960","536","j","true","match","img/diamond.png","菱形","菱形","ALT1","formal_ALT1_2","","","","","","","","","","","",""
"null","<span style='color:GreenYellow; font-size: 70px;'>正确! </span>","null","html-keyboard-response","150","403185","0.0-7.0-1.0-4.0-0.0-1.21","4","3","4","4","3","4","4","4","3","4","4","5","4","4","1","2","4","4","4","5","1","2","2","3","2","3","2","2","2","1","0","0","1","0","0","1","1","0","1","1","0","0","0","0","4","2","1","1","2","1","3","4","4","4","2","778036466176757761","刘","467","","","","","","","","","","","","","","","","","","","","","","","","","","","","","","feedback_test","","","","","","","","","","","",""
"708","","f","psychophysics","151","404909","0.0-7.0-1.0-4.0-0.0-0.22","4","3","4","4","3","4","4","4","3","4","4","5","4","4","1","2","4","4","4","5","1","2","2","3","2","3","2","2","2","1","0","0","1","0","0","1","1","0","1","1","0","0","0","0","4","2","1","1","2","1","3","4","4","4","2","778036466176757761","刘","467","","","","nonmatch","","","","","","","","","","","","","","key","f","16.663725490196192","960","536","f","true","nonmatch","img/circle.png","菱形","圆形","ALT1","formal_ALT1_2","","","","","","","","","","","",""
"null","<span style='color:GreenYellow; font-size: 70px;'>正确! </span>","null","html-keyboard-response","152","405416","0.0-7.0-1.0-4.0-0.0-1.22","4","3","4","4","3","4","4","4","3","4","4","5","4","4","1","2","4","4","4","5","1","2","2","3","2","3","2","2","2","1","0","0","1","0","0","1","1","0","1","1","0","0","0","0","4","2","1","1","2","1","3","4","4","4","2","778036466176757761","刘","467","","","","","","","","","","","","","","","","","","","","","","","","","","","","","","feedback_test","","","","","","","","","","","",""
"770","","j","psychophysics","153","407190","0.0-7.0-1.0-4.0-0.0-0.23","4","3","4","4","3","4","4","4","3","4","4","5","4","4","1","2","4","4","4","5","1","2","2","3","2","3","2","2","2","1","0","0","1","0","0","1","1","0","1","1","0","0","0","0","4","2","1","1","2","1","3","4","4","4","2","778036466176757761","刘","467","","","","match","","","","","","","","","","","","","","key","j","16.664150943395896","960","536","j","true","match","img/pentagon.png","五边","五边","ALT1","formal_ALT1_2","","","","","","","","","","","",""
"null","<span style='color:GreenYellow; font-size: 70px;'>正确! </span>","null","html-keyboard-response","154","407696","0.0-7.0-1.0-4.0-0.0-1.23","4","3","4","4","3","4","4","4","3","4","4","5","4","4","1","2","4","4","4","5","1","2","2","3","2","3","2","2","2","1","0","0","1","0","0","1","1","0","1","1","0","0","0","0","4","2","1","1","2","1","3","4","4","4","2","778036466176757761","刘","467","","","","","","","","","","","","","","","","","","","","","","","","","","","","","","feedback_test","","","","","","","","","","","",""
"754","","j","psychophysics","155","409457","0.0-7.0-1.0-4.0-0.0-0.24","4","3","4","4","3","4","4","4","3","4","4","5","4","4","1","2","4","4","4","5","1","2","2","3","2","3","2","2","2","1","0","0","1","0","0","1","1","0","1","1","0","0","0","0","4","2","1","1","2","1","3","4","4","4","2","778036466176757761","刘","467","","","","match","","","","","","","","","","","","","","key","j","16.665714285713953","960","536","j","true","match","img/triangle.png","三角","三角","ALT1","formal_ALT1_2","","","","","","","","","","","",""
"null","<span style='color:GreenYellow; font-size: 70px;'>正确! </span>","null","html-keyboard-response","156","409986","0.0-7.0-1.0-4.0-0.0-1.24","4","3","4","4","3","4","4","4","3","4","4","5","4","4","1","2","4","4","4","5","1","2","2","3","2","3","2","2","2","1","0","0","1","0","0","1","1","0","1","1","0","0","0","0","4","2","1","1","2","1","3","4","4","4","2","778036466176757761","刘","467","","","","","","","","","","","","","","","","","","","","","","","","","","","","","","feedback_test","","","","","","","","","","","",""
"748","","j","psychophysics","157","411750","0.0-7.0-1.0-4.0-0.0-0.25","4","3","4","4","3","4","4","4","3","4","4","5","4","4","1","2","4","4","4","5","1","2","2","3","2","3","2","2","2","1","0","0","1","0","0","1","1","0","1","1","0","0","0","0","4","2","1","1","2","1","3","4","4","4","2","778036466176757761","刘","467","","","","match","","","","","","","","","","","","","","key","j","16.667307692307357","960","536","j","true","match","img/pentagon.png","五边","五边","ALT1","formal_ALT1_2","","","","","","","","","","","",""
"null","<span style='color:GreenYellow; font-size: 70px;'>正确! </span>","null","html-keyboard-response","158","412258","0.0-7.0-1.0-4.0-0.0-1.25","4","3","4","4","3","4","4","4","3","4","4","5","4","4","1","2","4","4","4","5","1","2","2","3","2","3","2","2","2","1","0","0","1","0","0","1","1","0","1","1","0","0","0","0","4","2","1","1","2","1","3","4","4","4","2","778036466176757761","刘","467","","","","","","","","","","","","","","","","","","","","","","","","","","","","","","feedback_test","","","","","","","","","","","",""
"606","","j","psychophysics","159","413875","0.0-7.0-1.0-4.0-0.0-0.26","4","3","4","4","3","4","4","4","3","4","4","5","4","4","1","2","4","4","4","5","1","2","2","3","2","3","2","2","2","1","0","0","1","0","0","1","1","0","1","1","0","0","0","0","4","2","1","1","2","1","3","4","4","4","2","778036466176757761","刘","467","","","","match","","","","","","","","","","","","","","key","j","16.665625000000244","960","536","j","true","match","img/circle.png","圆形","圆形","ALT1","formal_ALT1_2","","","","","","","","","","","",""
"null","<span style='color:GreenYellow; font-size: 70px;'>正确! </span>","null","html-keyboard-response","160","414384","0.0-7.0-1.0-4.0-0.0-1.26","4","3","4","4","3","4","4","4","3","4","4","5","4","4","1","2","4","4","4","5","1","2","2","3","2","3","2","2","2","1","0","0","1","0","0","1","1","0","1","1","0","0","0","0","4","2","1","1","2","1","3","4","4","4","2","778036466176757761","刘","467","","","","","","","","","","","","","","","","","","","","","","","","","","","","","","feedback_test","","","","","","","","","","","",""
"522","","j","psychophysics","161","415908","0.0-7.0-1.0-4.0-0.0-0.27","4","3","4","4","3","4","4","4","3","4","4","5","4","4","1","2","4","4","4","5","1","2","2","3","2","3","2","2","2","1","0","0","1","0","0","1","1","0","1","1","0","0","0","0","4","2","1","1","2","1","3","4","4","4","2","778036466176757761","刘","467","","","","match","","","","","","","","","","","","","","key","j","16.66999999999987","960","536","f","false","nonmatch","img/diamond.png","五边","菱形","ALT1","formal_ALT1_2","","","","","","","","","","","",""
"null","<span style='color:red; font-size: 70px;'>错误! </span>","null","html-keyboard-response","162","416414","0.0-7.0-1.0-4.0-0.0-1.27","4","3","4","4","3","4","4","4","3","4","4","5","4","4","1","2","4","4","4","5","1","2","2","3","2","3","2","2","2","1","0","0","1","0","0","1","1","0","1","1","0","0","0","0","4","2","1","1","2","1","3","4","4","4","2","778036466176757761","刘","467","","","","","","","","","","","","","","","","","","","","","","","","","","","","","","feedback_test","","","","","","","","","","","",""
"521","","j","psychophysics","163","417947","0.0-7.0-1.0-4.0-0.0-0.28","4","3","4","4","3","4","4","4","3","4","4","5","4","4","1","2","4","4","4","5","1","2","2","3","2","3","2","2","2","1","0","0","1","0","0","1","1","0","1","1","0","0","0","0","4","2","1","1","2","1","3","4","4","4","2","778036466176757761","刘","467","","","","match","","","","","","","","","","","","","","key","j","16.66813186813174","960","536","j","true","match","img/diamond.png","菱形","菱形","ALT1","formal_ALT1_2","","","","","","","","","","","",""
"null","<span style='color:GreenYellow; font-size: 70px;'>正确! </span>","null","html-keyboard-response","164","418456","0.0-7.0-1.0-4.0-0.0-1.28","4","3","4","4","3","4","4","4","3","4","4","5","4","4","1","2","4","4","4","5","1","2","2","3","2","3","2","2","2","1","0","0","1","0","0","1","1","0","1","1","0","0","0","0","4","2","1","1","2","1","3","4","4","4","2","778036466176757761","刘","467","","","","","","","","","","","","","","","","","","","","","","","","","","","","","","feedback_test","","","","","","","","","","","",""
"625","","j","psychophysics","165","420089","0.0-7.0-1.0-4.0-0.0-0.29","4","3","4","4","3","4","4","4","3","4","4","5","4","4","1","2","4","4","4","5","1","2","2","3","2","3","2","2","2","1","0","0","1","0","0","1","1","0","1","1","0","0","0","0","4","2","1","1","2","1","3","4","4","4","2","778036466176757761","刘","467","","","","match","","","","","","","","","","","","","","key","j","16.66701030927847","960","536","j","true","match","img/diamond.png","菱形","菱形","ALT1","formal_ALT1_2","","","","","","","","","","","",""
"null","<span style='color:GreenYellow; font-size: 70px;'>正确! </span>","null","html-keyboard-response","166","420595","0.0-7.0-1.0-4.0-0.0-1.29","4","3","4","4","3","4","4","4","3","4","4","5","4","4","1","2","4","4","4","5","1","2","2","3","2","3","2","2","2","1","0","0","1","0","0","1","1","0","1","1","0","0","0","0","4","2","1","1","2","1","3","4","4","4","2","778036466176757761","刘","467","","","","","","","","","","","","","","","","","","","","","","","","","","","","","","feedback_test","","","","","","","","","","","",""
"794","","f","psychophysics","167","422394","0.0-7.0-1.0-4.0-0.0-0.30","4","3","4","4","3","4","4","4","3","4","4","5","4","4","1","2","4","4","4","5","1","2","2","3","2","3","2","2","2","1","0","0","1","0","0","1","1","0","1","1","0","0","0","0","4","2","1","1","2","1","3","4","4","4","2","778036466176757761","刘","467","","","","nonmatch","","","","","","","","","","","","","","key","f","16.666355140186806","960","536","f","true","nonmatch","img/circle.png","三角","圆形","ALT1","formal_ALT1_2","","","","","","","","","","","",""
"null","<span style='color:GreenYellow; font-size: 70px;'>正确! </span>","null","html-keyboard-response","168","422897","0.0-7.0-1.0-4.0-0.0-1.30","4","3","4","4","3","4","4","4","3","4","4","5","4","4","1","2","4","4","4","5","1","2","2","3","2","3","2","2","2","1","0","0","1","0","0","1","1","0","1","1","0","0","0","0","4","2","1","1","2","1","3","4","4","4","2","778036466176757761","刘","467","","","","","","","","","","","","","","","","","","","","","","","","","","","","","","feedback_test","","","","","","","","","","","",""
"772","","j","psychophysics","169","424675","0.0-7.0-1.0-4.0-0.0-0.31","4","3","4","4","3","4","4","4","3","4","4","5","4","4","1","2","4","4","4","5","1","2","2","3","2","3","2","2","2","1","0","0","1","0","0","1","1","0","1","1","0","0","0","0","4","2","1","1","2","1","3","4","4","4","2","778036466176757761","刘","467","","","","match","","","","","","","","","","","","","","key","j","16.66509433962264","960","536","f","false","nonmatch","img/diamond.png","圆形","菱形","ALT1","formal_ALT1_2","","","","","","","","","","","",""
"null","<span style='color:red; font-size: 70px;'>错误! </span>","null","html-keyboard-response","170","425182","0.0-7.0-1.0-4.0-0.0-1.31","4","3","4","4","3","4","4","4","3","4","4","5","4","4","1","2","4","4","4","5","1","2","2","3","2","3","2","2","2","1","0","0","1","0","0","1","1","0","1","1","0","0","0","0","4","2","1","1","2","1","3","4","4","4","2","778036466176757761","刘","467","","","","","","","","","","","","","","","","","","","","","","","","","","","","","","feedback_test","","","","","","","","","","","",""
"802","","f","psychophysics","171","426990","0.0-7.0-1.0-4.0-0.0-0.32","4","3","4","4","3","4","4","4","3","4","4","5","4","4","1","2","4","4","4","5","1","2","2","3","2","3","2","2","2","1","0","0","1","0","0","1","1","0","1","1","0","0","0","0","4","2","1","1","2","1","3","4","4","4","2","778036466176757761","刘","467","","","","nonmatch","","","","","","","","","","","","","","key","f","16.65233644859802","960","536","f","true","nonmatch","img/circle.png","五边","圆形","ALT1","formal_ALT1_2","","","","","","","","","","","",""
"null","<span style='color:GreenYellow; font-size: 70px;'>正确! </span>","null","html-keyboard-response","172","427494","0.0-7.0-1.0-4.0-0.0-1.32","4","3","4","4","3","4","4","4","3","4","4","5","4","4","1","2","4","4","4","5","1","2","2","3","2","3","2","2","2","1","0","0","1","0","0","1","1","0","1","1","0","0","0","0","4","2","1","1","2","1","3","4","4","4","2","778036466176757761","刘","467","","","","","","","","","","","","","","","","","","","","","","","","","","","","","","feedback_test","","","","","","","","","","","",""
"897","","f","psychophysics","173","429395","0.0-7.0-1.0-4.0-0.0-0.33","4","3","4","4","3","4","4","4","3","4","4","5","4","4","1","2","4","4","4","5","1","2","2","3","2","3","2","2","2","1","0","0","1","0","0","1","1","0","1","1","0","0","0","0","4","2","1","1","2","1","3","4","4","4","2","778036466176757761","刘","467","","","","nonmatch","","","","","","","","","","","","","","key","f","16.667256637168347","960","536","f","true","nonmatch","img/triangle.png","菱形","三角","ALT1","formal_ALT1_2","","","","","","","","","","","",""
"null","<span style='color:GreenYellow; font-size: 70px;'>正确! </span>","null","html-keyboard-response","174","429905","0.0-7.0-1.0-4.0-0.0-1.33","4","3","4","4","3","4","4","4","3","4","4","5","4","4","1","2","4","4","4","5","1","2","2","3","2","3","2","2","2","1","0","0","1","0","0","1","1","0","1","1","0","0","0","0","4","2","1","1","2","1","3","4","4","4","2","778036466176757761","刘","467","","","","","","","","","","","","","","","","","","","","","","","","","","","","","","feedback_test","","","","","","","","","","","",""
"700","","f","psychophysics","175","431629","0.0-7.0-1.0-4.0-0.0-0.34","4","3","4","4","3","4","4","4","3","4","4","5","4","4","1","2","4","4","4","5","1","2","2","3","2","3","2","2","2","1","0","0","1","0","0","1","1","0","1","1","0","0","0","0","4","2","1","1","2","1","3","4","4","4","2","778036466176757761","刘","467","","","","nonmatch","","","","","","","","","","","","","","key","f","16.667647058823302","960","536","f","true","nonmatch","img/pentagon.png","三角","五边","ALT1","formal_ALT1_2","","","","","","","","","","","",""
"null","<span style='color:GreenYellow; font-size: 70px;'>正确! </span>","null","html-keyboard-response","176","432133","0.0-7.0-1.0-4.0-0.0-1.34","4","3","4","4","3","4","4","4","3","4","4","5","4","4","1","2","4","4","4","5","1","2","2","3","2","3","2","2","2","1","0","0","1","0","0","1","1","0","1","1","0","0","0","0","4","2","1","1","2","1","3","4","4","4","2","778036466176757761","刘","467","","","","","","","","","","","","","","","","","","","","","","","","","","","","","","feedback_test","","","","","","","","","","","",""
"775","","j","psychophysics","177","433912","0.0-7.0-1.0-4.0-0.0-0.35","4","3","4","4","3","4","4","4","3","4","4","5","4","4","1","2","4","4","4","5","1","2","2","3","2","3","2","2","2","1","0","0","1","0","0","1","1","0","1","1","0","0","0","0","4","2","1","1","2","1","3","4","4","4","2","778036466176757761","刘","467","","","","match","","","","","","","","","","","","","","key","j","16.666666666666668","960","536","j","true","match","img/circle.png","圆形","圆形","ALT1","formal_ALT1_2","","","","","","","","","","","",""
"null","<span style='color:GreenYellow; font-size: 70px;'>正确! </span>","null","html-keyboard-response","178","434416","0.0-7.0-1.0-4.0-0.0-1.35","4","3","4","4","3","4","4","4","3","4","4","5","4","4","1","2","4","4","4","5","1","2","2","3","2","3","2","2","2","1","0","0","1","0","0","1","1","0","1","1","0","0","0","0","4","2","1","1","2","1","3","4","4","4","2","778036466176757761","刘","467","","","","","","","","","","","","","","","","","","","","","","","","","","","","","","feedback_test","","","","","","","","","","","",""
"910","","f","psychophysics","179","436328","0.0-7.0-1.0-4.0-0.0-0.36","4","3","4","4","3","4","4","4","3","4","4","5","4","4","1","2","4","4","4","5","1","2","2","3","2","3","2","2","2","1","0","0","1","0","0","1","1","0","1","1","0","0","0","0","4","2","1","1","2","1","3","4","4","4","2","778036466176757761","刘","467","","","","nonmatch","","","","","","","","","","","","","","key","f","16.660176991150237","960","536","f","true","nonmatch","img/triangle.png","圆形","三角","ALT1","formal_ALT1_2","","","","","","","","","","","",""
"null","<span style='color:GreenYellow; font-size: 70px;'>正确! </span>","null","html-keyboard-response","180","436835","0.0-7.0-1.0-4.0-0.0-1.36","4","3","4","4","3","4","4","4","3","4","4","5","4","4","1","2","4","4","4","5","1","2","2","3","2","3","2","2","2","1","0","0","1","0","0","1","1","0","1","1","0","0","0","0","4","2","1","1","2","1","3","4","4","4","2","778036466176757761","刘","467","","","","","","","","","","","","","","","","","","","","","","","","","","","","","","feedback_test","","","","","","","","","","","",""
"678","","j","psychophysics","181","438532","0.0-7.0-1.0-4.0-0.0-0.37","4","3","4","4","3","4","4","4","3","4","4","5","4","4","1","2","4","4","4","5","1","2","2","3","2","3","2","2","2","1","0","0","1","0","0","1","1","0","1","1","0","0","0","0","4","2","1","1","2","1","3","4","4","4","2","778036466176757761","刘","467","","","","match","","","","","","","","","","","","","","key","j","16.667000000000115","960","536","j","true","match","img/triangle.png","三角","三角","ALT1","formal_ALT1_2","","","","","","","","","","","",""
