"rt","stimulus","response","trial_type","trial_index","time_elapsed","internal_node_id","ses_1","ses_2","ses_3","ses_4","ses_5","ses_6","ses_7","ses_8","ses_9","ses_10","coreself_1","coreself_2","coreself_3","coreself_4","coreself_5","coreself_6","coreself_7","coreself_8","coreself_9","coreself_10","SGPS_1","SGPS_2","SGPS_3","SGPS_4","SGPS_5","SGPS_6","SGPS_7","SGPS_8","SGPS_9","NPI1","NPI2","NPI3","NPI4","NPI5","NPI6","NPI7","NPI8","NPI9","NPI10","NPI11","NPI12","NPI13","NPI14","NPI15","hsns_1","hsns_2","hsns_3","hsns_4","hsns_5","trap1","hsns_6","hsns_7","hsns_8","hsns_9","hsns_10","subj_idx","friend_name","ParticipantID","value","success","user_agent","responses","item_order","radio_event_ids","radio_event_times","key_event_times","mouse_event_times","straightlining","zigzagging","honeypot","timeout","failed_images","failed_audio","failed_video","version_attrib","version_target","correct","IAT","screen_id","task_id","RT","condition","word","varname","summary","version_attrib2","version_target2","time_stamp","view_history","response_type","key_press","avg_frame_time","center_x","center_y","correct_response","identity","Image","question_order","correct_answer","trap1_item"
"11663","
   <p><div style = ""color: white;font-size:25px;"">您好，欢迎参加本次实验。</div> </p>
   <p><div style = ""color: white;font-size:25px;"">为充分保障您的权利，请确保您已经知晓并同意《参与实验同意书》以及《数据公开知情同意书》。</div></p>
   <p><div style = ""color: white;font-size:25px;"">如果您未见过上述内容，请咨询实验员。</div></p>
   <p><div style = ""color: white;font-size:25px;"">如果您选择继续实验，则表示您已经清楚两份知情同意书的内容并同意。</div></p>
   <p><div style = ""color: pink;font-size:30px;"">请确保您记得day0的实验编号，您将在本次实验输入该编号，若您忘记，请咨询实验员后作答。</div></p>
   <p><div style = ""color: lightblue;font-size:25px;"">请您尽可能认真地作答，我们将依据您在各问卷和按键任务中的作答质量发放报酬。</div></p>
   <p> <div style = ""color: green;font-size:25px;""><按空格键至下页></div> </p>
   "," ","html-keyboard-response","0","11681","0.0-0.0","4","4","4","4","4","4","4","3","4","4","5","5","5","5","5","5","5","5","5","5","4","4","3","2","2","1","1","1","1","0","1","0","0","1","1","0","1","1","0","0","1","0","0","0","5","1","1","2","2","1","4","5","5","5","3","682985829311709184","刘","131","","","","","","","","","","","","","","","","","","","","","","","","","","","","","","","","","","","","","","","","","",""
"","","","call-function","1","11686","0.0-1.0-0.0","4","4","4","4","4","4","4","3","4","4","5","5","5","5","5","5","5","5","5","5","4","4","3","2","2","1","1","1","1","0","1","0","0","1","1","0","1","1","0","0","1","0","0","0","5","1","1","2","2","1","4","5","5","5","3","682985829311709184","刘","131","","","","","","","","","","","","","","","","","","","","","","","","","","","","","","","","","","","","","","","","","",""
"34246","","{""friend_name"":""刘"",""ParticipantID"":""131""}","survey-html-form","2","45934","0.0-1.0-1.0","4","4","4","4","4","4","4","3","4","4","5","5","5","5","5","5","5","5","5","5","4","4","3","2","2","1","1","1","1","0","1","0","0","1","1","0","1","1","0","0","1","0","0","0","5","1","1","2","2","1","4","5","5","5","3","682985829311709184","刘","131","","","","","","","","","","","","","","","","","","","","","","","","","","","","","","","","","","","","","","","","","",""
"","","","fullscreen","3","113760","0.0-2.0","4","4","4","4","4","4","4","3","4","4","5","5","5","5","5","5","5","5","5","5","4","4","3","2","2","1","1","1","1","0","1","0","0","1","1","0","1","1","0","0","1","0","0","0","5","1","1","2","2","1","4","5","5","5","3","682985829311709184","刘","131","","true","{}","","","","","","","","","","","","","","","","","","","","","","","","","","","","","","","","","","","","","","",""
"35134.299999952316","","{""Q01"":""4"",""Q02"":""4"",""Q03"":""4"",""Q04"":""4"",""Q05"":""4"",""Q06"":""4"",""Q07"":""4"",""Q08"":""3"",""Q09"":""4"",""Q10"":""4""}","survey-template","4","148905","0.0-3.0","4","4","4","4","4","4","4","3","4","4","5","5","5","5","5","5","5","5","5","5","4","4","3","2","2","1","1","1","1","0","1","0","0","1","1","0","1","1","0","0","1","0","0","0","5","1","1","2","2","1","4","5","5","5","3","682985829311709184","刘","131","","","","{""Q01"":""4"",""Q02"":""4"",""Q03"":""4"",""Q04"":""4"",""Q05"":""4"",""Q06"":""4"",""Q07"":""4"",""Q08"":""3"",""Q09"":""4"",""Q10"":""4""}","[0,1,2,3,4,5,6,7,8,9]","[""Q01"",""Q02"",""Q03"",""Q04"",""Q05"",""Q06"",""Q07"",""Q08"",""Q09"",""Q10""]","[6545.200000047684,8600,10543.700000047684,13890.299999952316,18051,20181.5,21466.5,26096.900000095367,29850.799999952316,31566]","[]","[3808,6545.200000047684,8600,10543.700000047684,13890.299999952316,18051,20181.5,21466.5,26096.900000095367,29850.799999952316,31566,34312.10000014305,35124.200000047684]","0.5","0.5555555555555556","0","","","","","","","","","","","","","","","","","","","","","","","","","","","","","",""
"29024.200000047684","","{""Q01"":""5"",""Q02"":""5"",""Q03"":""5"",""Q04"":""5"",""Q05"":""5"",""Q06"":""5"",""Q07"":""5"",""Q08"":""5"",""Q09"":""5"",""Q10"":""5""}","survey-template","5","177945","0.0-4.0","4","4","4","4","4","4","4","3","4","4","5","5","5","5","5","5","5","5","5","5","4","4","3","2","2","1","1","1","1","0","1","0","0","1","1","0","1","1","0","0","1","0","0","0","5","1","1","2","2","1","4","5","5","5","3","682985829311709184","刘","131","","","","{""Q01"":""5"",""Q02"":""5"",""Q03"":""5"",""Q04"":""5"",""Q05"":""5"",""Q06"":""5"",""Q07"":""5"",""Q08"":""5"",""Q09"":""5"",""Q10"":""5""}","[0,1,2,3,4,5,6,7,8,9]","[""Q01"",""Q02"",""Q03"",""Q04"",""Q05"",""Q06"",""Q07"",""Q08"",""Q09"",""Q10""]","[6145.599999904633,8520.899999856949,10575.399999856949,13328.799999952316,15878.700000047684,17405.39999985695,20867.5,24156.799999952316,26164.200000047684,27907.799999952316]","[]","[6145.599999904633,8520.899999856949,10575.399999856949,13328.799999952316,15878.700000047684,17405.39999985695,20867.5,24156.799999952316,26164.200000047684,27907.799999952316,29020.89999985695]","0.6","0.7777777777777778","0","","","","","","","","","","","","","","","","","","","","","","","","","","","","","",""
"","","","preload","6","178426","0.0-5.0","4","4","4","4","4","4","4","3","4","4","5","5","5","5","5","5","5","5","5","5","4","4","3","2","2","1","1","1","1","0","1","0","0","1","1","0","1","1","0","0","1","0","0","0","5","1","1","2","2","1","4","5","5","5","3","682985829311709184","刘","131","","true","","","","","","","","","","","false","[]","[]","[]","","","","","","","","","","","","","","","","","","","","","","","","","",""
"16286","
    <h3>词语分类任务</h3>
    <p>在接下来的任务中，你需要对一系列词语进行分类。</p>
    <p>请先熟悉这些词语，这有利于你完成接下来的任务。</p>
    <table align=""center"" border=1 cellpadding=3 cellspacing=0>
    <tr> <th>类别</th> <th>词语</th> </tr>
    <tr> <td>&emsp;积极&emsp;</td> <td>&emsp;能干、全能、全才、高效、精干、天才&emsp;</td> </tr>
    <tr> <td>&emsp;消极&emsp;</td> <td>&emsp;无能、低能、废物、拙笨、愚钝、蠢笨&emsp;</td> </tr>
    <tr> <td>&emsp;自我&emsp;</td> <td>&emsp;我、我的、自己、自己的、本人、本人的&emsp;</td> </tr>
    <tr> <td>&emsp;他人&emsp;</td> <td>&emsp;他、他的、别人、别人的、他人、他人的&emsp;</td> </tr>
    </table><br/>","0","html-button-response","7","194717","0.0-6.0-0.0-0.0","4","4","4","4","4","4","4","3","4","4","5","5","5","5","5","5","5","5","5","5","4","4","3","2","2","1","1","1","1","0","1","0","0","1","1","0","1","1","0","0","1","0","0","0","5","1","1","2","2","1","4","5","5","5","3","682985829311709184","刘","131","","","","","","","","","","","","","","","","","1","2","","","","","","","","","","","","","","","","","","","","","","","",""
"28157","
    <div class=""tag-bottom"">
    <p> —— 任务1：对“他人”词和“自我”词分类 ——<p/>
    不同词语会出现在屏幕中央，类别标签将始终显示在屏幕上方<p/>   
    <span style=""color:#FFD866""><b>请根据上方标签的提示，尽可能正确并且快速地做出按键反应</b></span><p/>
    当按键错误时屏幕中会出现<span style=""color:red""> X </span>，需要按另一个键纠正才能继续<br/><p/>
    请把双手食指分别放在键盘的“E”键和“I”键上<p/>
    按<空格键>开始
    </p></div>"," ","html-keyboard-response","8","222884","0.0-6.0-0.0-1.0","4","4","4","4","4","4","4","3","4","4","5","5","5","5","5","5","5","5","5","5","4","4","3","2","2","1","1","1","1","0","1","0","0","1","1","0","1","1","0","0","1","0","0","0","5","1","1","2","2","1","4","5","5","5","3","682985829311709184","刘","131","","","","","","","","","","","","","","","","","","","","","","","","","","","","","","","","","","","","","","","","","",""
"null","","null","html-keyboard-response","9","223137","0.0-6.0-0.0-2.0-0.0","4","4","4","4","4","4","4","3","4","4","5","5","5","5","5","5","5","5","5","5","4","4","3","2","2","1","1","1","1","0","1","0","0","1","1","0","1","1","0","0","1","0","0","0","5","1","1","2","2","1","4","5","5","5","3","682985829311709184","刘","131","","","","","","","","","","","","","","","","","","","","","","","","","","","","","","","","","","","","","","","","","",""
"1100","<p style=""color:rgb(150, 250, 100); font-size: 35px;"">自己的</p>","i","categorize-html","10","224258","0.0-6.0-0.0-2.0-1.0","4","4","4","4","4","4","4","3","4","4","5","5","5","5","5","5","5","5","5","5","4","4","3","2","2","1","1","1","1","0","1","0","0","1","1","0","1","1","0","0","1","0","0","0","5","1","1","2","2","1","4","5","5","5","3","682985829311709184","刘","131","","","","","","","","","","","","","","","","","","","true","1","1","ability","1100","self","自己的","","","","","","","","","","","","","","","","",""
"null","","null","html-keyboard-response","11","224515","0.0-6.0-0.0-2.0-0.1","4","4","4","4","4","4","4","3","4","4","5","5","5","5","5","5","5","5","5","5","4","4","3","2","2","1","1","1","1","0","1","0","0","1","1","0","1","1","0","0","1","0","0","0","5","1","1","2","2","1","4","5","5","5","3","682985829311709184","刘","131","","","","","","","","","","","","","","","","","","","","","","","","","","","","","","","","","","","","","","","","","",""
"724","<p style=""color:rgb(150, 250, 100); font-size: 35px;"">自己</p>","i","categorize-html","12","225245","0.0-6.0-0.0-2.0-1.1","4","4","4","4","4","4","4","3","4","4","5","5","5","5","5","5","5","5","5","5","4","4","3","2","2","1","1","1","1","0","1","0","0","1","1","0","1","1","0","0","1","0","0","0","5","1","1","2","2","1","4","5","5","5","3","682985829311709184","刘","131","","","","","","","","","","","","","","","","","","","true","1","1","ability","724","self","自己","","","","","","","","","","","","","","","","",""
"null","","null","html-keyboard-response","13","225498","0.0-6.0-0.0-2.0-0.2","4","4","4","4","4","4","4","3","4","4","5","5","5","5","5","5","5","5","5","5","4","4","3","2","2","1","1","1","1","0","1","0","0","1","1","0","1","1","0","0","1","0","0","0","5","1","1","2","2","1","4","5","5","5","3","682985829311709184","刘","131","","","","","","","","","","","","","","","","","","","","","","","","","","","","","","","","","","","","","","","","","",""
"914","<p style=""color:rgb(150, 250, 100); font-size: 35px;"">他</p>","e","categorize-html","14","226427","0.0-6.0-0.0-2.0-1.2","4","4","4","4","4","4","4","3","4","4","5","5","5","5","5","5","5","5","5","5","4","4","3","2","2","1","1","1","1","0","1","0","0","1","1","0","1","1","0","0","1","0","0","0","5","1","1","2","2","1","4","5","5","5","3","682985829311709184","刘","131","","","","","","","","","","","","","","","","","","","true","1","1","ability","914","other","他","","","","","","","","","","","","","","","","",""
"null","","null","html-keyboard-response","15","226680","0.0-6.0-0.0-2.0-0.3","4","4","4","4","4","4","4","3","4","4","5","5","5","5","5","5","5","5","5","5","4","4","3","2","2","1","1","1","1","0","1","0","0","1","1","0","1","1","0","0","1","0","0","0","5","1","1","2","2","1","4","5","5","5","3","682985829311709184","刘","131","","","","","","","","","","","","","","","","","","","","","","","","","","","","","","","","","","","","","","","","","",""
"746","<p style=""color:rgb(150, 250, 100); font-size: 35px;"">本人</p>","i","categorize-html","16","227431","0.0-6.0-0.0-2.0-1.3","4","4","4","4","4","4","4","3","4","4","5","5","5","5","5","5","5","5","5","5","4","4","3","2","2","1","1","1","1","0","1","0","0","1","1","0","1","1","0","0","1","0","0","0","5","1","1","2","2","1","4","5","5","5","3","682985829311709184","刘","131","","","","","","","","","","","","","","","","","","","true","1","1","ability","746","self","本人","","","","","","","","","","","","","","","","",""
"null","","null","html-keyboard-response","17","227684","0.0-6.0-0.0-2.0-0.4","4","4","4","4","4","4","4","3","4","4","5","5","5","5","5","5","5","5","5","5","4","4","3","2","2","1","1","1","1","0","1","0","0","1","1","0","1","1","0","0","1","0","0","0","5","1","1","2","2","1","4","5","5","5","3","682985829311709184","刘","131","","","","","","","","","","","","","","","","","","","","","","","","","","","","","","","","","","","","","","","","","",""
"639","<p style=""color:rgb(150, 250, 100); font-size: 35px;"">我的</p>","i","categorize-html","18","228330","0.0-6.0-0.0-2.0-1.4","4","4","4","4","4","4","4","3","4","4","5","5","5","5","5","5","5","5","5","5","4","4","3","2","2","1","1","1","1","0","1","0","0","1","1","0","1","1","0","0","1","0","0","0","5","1","1","2","2","1","4","5","5","5","3","682985829311709184","刘","131","","","","","","","","","","","","","","","","","","","true","1","1","ability","639","self","我的","","","","","","","","","","","","","","","","",""
"null","","null","html-keyboard-response","19","228585","0.0-6.0-0.0-2.0-0.5","4","4","4","4","4","4","4","3","4","4","5","5","5","5","5","5","5","5","5","5","4","4","3","2","2","1","1","1","1","0","1","0","0","1","1","0","1","1","0","0","1","0","0","0","5","1","1","2","2","1","4","5","5","5","3","682985829311709184","刘","131","","","","","","","","","","","","","","","","","","","","","","","","","","","","","","","","","","","","","","","","","",""
"1117","<p style=""color:rgb(150, 250, 100); font-size: 35px;"">他人的</p>","e","categorize-html","20","229713","0.0-6.0-0.0-2.0-1.5","4","4","4","4","4","4","4","3","4","4","5","5","5","5","5","5","5","5","5","5","4","4","3","2","2","1","1","1","1","0","1","0","0","1","1","0","1","1","0","0","1","0","0","0","5","1","1","2","2","1","4","5","5","5","3","682985829311709184","刘","131","","","","","","","","","","","","","","","","","","","true","1","1","ability","1117","other","他人的","","","","","","","","","","","","","","","","",""
"null","","null","html-keyboard-response","21","229967","0.0-6.0-0.0-2.0-0.6","4","4","4","4","4","4","4","3","4","4","5","5","5","5","5","5","5","5","5","5","4","4","3","2","2","1","1","1","1","0","1","0","0","1","1","0","1","1","0","0","1","0","0","0","5","1","1","2","2","1","4","5","5","5","3","682985829311709184","刘","131","","","","","","","","","","","","","","","","","","","","","","","","","","","","","","","","","","","","","","","","","",""
"1228","<p style=""color:rgb(150, 250, 100); font-size: 35px;"">本人的</p>","i","categorize-html","22","231201","0.0-6.0-0.0-2.0-1.6","4","4","4","4","4","4","4","3","4","4","5","5","5","5","5","5","5","5","5","5","4","4","3","2","2","1","1","1","1","0","1","0","0","1","1","0","1","1","0","0","1","0","0","0","5","1","1","2","2","1","4","5","5","5","3","682985829311709184","刘","131","","","","","","","","","","","","","","","","","","","true","1","1","ability","1228","self","本人的","","","","","","","","","","","","","","","","",""
"null","","null","html-keyboard-response","23","231456","0.0-6.0-0.0-2.0-0.7","4","4","4","4","4","4","4","3","4","4","5","5","5","5","5","5","5","5","5","5","4","4","3","2","2","1","1","1","1","0","1","0","0","1","1","0","1","1","0","0","1","0","0","0","5","1","1","2","2","1","4","5","5","5","3","682985829311709184","刘","131","","","","","","","","","","","","","","","","","","","","","","","","","","","","","","","","","","","","","","","","","",""
"591","<p style=""color:rgb(150, 250, 100); font-size: 35px;"">他人</p>","e","categorize-html","24","232055","0.0-6.0-0.0-2.0-1.7","4","4","4","4","4","4","4","3","4","4","5","5","5","5","5","5","5","5","5","5","4","4","3","2","2","1","1","1","1","0","1","0","0","1","1","0","1","1","0","0","1","0","0","0","5","1","1","2","2","1","4","5","5","5","3","682985829311709184","刘","131","","","","","","","","","","","","","","","","","","","true","1","1","ability","591","other","他人","","","","","","","","","","","","","","","","",""
"null","","null","html-keyboard-response","25","232311","0.0-6.0-0.0-2.0-0.8","4","4","4","4","4","4","4","3","4","4","5","5","5","5","5","5","5","5","5","5","4","4","3","2","2","1","1","1","1","0","1","0","0","1","1","0","1","1","0","0","1","0","0","0","5","1","1","2","2","1","4","5","5","5","3","682985829311709184","刘","131","","","","","","","","","","","","","","","","","","","","","","","","","","","","","","","","","","","","","","","","","",""
"752","<p style=""color:rgb(150, 250, 100); font-size: 35px;"">别人的</p>","e","categorize-html","26","233073","0.0-6.0-0.0-2.0-1.8","4","4","4","4","4","4","4","3","4","4","5","5","5","5","5","5","5","5","5","5","4","4","3","2","2","1","1","1","1","0","1","0","0","1","1","0","1","1","0","0","1","0","0","0","5","1","1","2","2","1","4","5","5","5","3","682985829311709184","刘","131","","","","","","","","","","","","","","","","","","","true","1","1","ability","752","other","别人的","","","","","","","","","","","","","","","","",""
"null","","null","html-keyboard-response","27","233331","0.0-6.0-0.0-2.0-0.9","4","4","4","4","4","4","4","3","4","4","5","5","5","5","5","5","5","5","5","5","4","4","3","2","2","1","1","1","1","0","1","0","0","1","1","0","1","1","0","0","1","0","0","0","5","1","1","2","2","1","4","5","5","5","3","682985829311709184","刘","131","","","","","","","","","","","","","","","","","","","","","","","","","","","","","","","","","","","","","","","","","",""
"519","<p style=""color:rgb(150, 250, 100); font-size: 35px;"">别人</p>","e","categorize-html","28","233859","0.0-6.0-0.0-2.0-1.9","4","4","4","4","4","4","4","3","4","4","5","5","5","5","5","5","5","5","5","5","4","4","3","2","2","1","1","1","1","0","1","0","0","1","1","0","1","1","0","0","1","0","0","0","5","1","1","2","2","1","4","5","5","5","3","682985829311709184","刘","131","","","","","","","","","","","","","","","","","","","true","1","1","ability","519","other","别人","","","","","","","","","","","","","","","","",""
"null","","null","html-keyboard-response","29","234113","0.0-6.0-0.0-2.0-0.10","4","4","4","4","4","4","4","3","4","4","5","5","5","5","5","5","5","5","5","5","4","4","3","2","2","1","1","1","1","0","1","0","0","1","1","0","1","1","0","0","1","0","0","0","5","1","1","2","2","1","4","5","5","5","3","682985829311709184","刘","131","","","","","","","","","","","","","","","","","","","","","","","","","","","","","","","","","","","","","","","","","",""
"502","<p style=""color:rgb(150, 250, 100); font-size: 35px;"">我</p>","i","categorize-html","30","234624","0.0-6.0-0.0-2.0-1.10","4","4","4","4","4","4","4","3","4","4","5","5","5","5","5","5","5","5","5","5","4","4","3","2","2","1","1","1","1","0","1","0","0","1","1","0","1","1","0","0","1","0","0","0","5","1","1","2","2","1","4","5","5","5","3","682985829311709184","刘","131","","","","","","","","","","","","","","","","","","","true","1","1","ability","502","self","我","","","","","","","","","","","","","","","","",""
"null","","null","html-keyboard-response","31","234877","0.0-6.0-0.0-2.0-0.11","4","4","4","4","4","4","4","3","4","4","5","5","5","5","5","5","5","5","5","5","4","4","3","2","2","1","1","1","1","0","1","0","0","1","1","0","1","1","0","0","1","0","0","0","5","1","1","2","2","1","4","5","5","5","3","682985829311709184","刘","131","","","","","","","","","","","","","","","","","","","","","","","","","","","","","","","","","","","","","","","","","",""
"587","<p style=""color:rgb(150, 250, 100); font-size: 35px;"">他的</p>","e","categorize-html","32","235471","0.0-6.0-0.0-2.0-1.11","4","4","4","4","4","4","4","3","4","4","5","5","5","5","5","5","5","5","5","5","4","4","3","2","2","1","1","1","1","0","1","0","0","1","1","0","1","1","0","0","1","0","0","0","5","1","1","2","2","1","4","5","5","5","3","682985829311709184","刘","131","","","","","","","","","","","","","","","","","","","true","1","1","ability","587","other","他的","","","","","","","","","","","","","","","","",""
"6566","
    <div class=""tag-bottom""><p>
    —— 任务2：对“积极”词和“消极”词分类 ——<p/>   
    <span style=""color:#78DCE8""><b>注意上方，类别标签和需要分类的词语都已经改变</b></span><p/>
    <span style=""color:#FFD866""><b>请根据上方标签的提示，尽可能正确并且快速地做出按键反应</b></span><p/>
    当按键错误时屏幕中会出现<span style=""color:red""> X </span>，需要按另一个键纠正才能继续<br/><p/>
    请把双手食指分别放在键盘的“E”键和“I”键上<p/>
    按<空格键>开始
    </p></div>"," ","html-keyboard-response","33","242039","0.0-6.0-0.0-3.0","4","4","4","4","4","4","4","3","4","4","5","5","5","5","5","5","5","5","5","5","4","4","3","2","2","1","1","1","1","0","1","0","0","1","1","0","1","1","0","0","1","0","0","0","5","1","1","2","2","1","4","5","5","5","3","682985829311709184","刘","131","","","","","","","","","","","","","","","","","","","","","","","","","","","","","","","","","","","","","","","","","",""
"null","","null","html-keyboard-response","34","242292","0.0-6.0-0.0-4.0-0.0","4","4","4","4","4","4","4","3","4","4","5","5","5","5","5","5","5","5","5","5","4","4","3","2","2","1","1","1","1","0","1","0","0","1","1","0","1","1","0","0","1","0","0","0","5","1","1","2","2","1","4","5","5","5","3","682985829311709184","刘","131","","","","","","","","","","","","","","","","","","","","","","","","","","","","","","","","","","","","","","","","","",""
"1218","<p style=""color:white; font-size: 35px;"">精干</p>","e","categorize-html","35","243517","0.0-6.0-0.0-4.0-1.0","4","4","4","4","4","4","4","3","4","4","5","5","5","5","5","5","5","5","5","5","4","4","3","2","2","1","1","1","1","0","1","0","0","1","1","0","1","1","0","0","1","0","0","0","5","1","1","2","2","1","4","5","5","5","3","682985829311709184","刘","131","","","","","","","","","","","","","","","","","","","true","2","2","ability","1218","positive","精干","","","","","","","","","","","","","","","","",""
"null","","null","html-keyboard-response","36","243769","0.0-6.0-0.0-4.0-0.1","4","4","4","4","4","4","4","3","4","4","5","5","5","5","5","5","5","5","5","5","4","4","3","2","2","1","1","1","1","0","1","0","0","1","1","0","1","1","0","0","1","0","0","0","5","1","1","2","2","1","4","5","5","5","3","682985829311709184","刘","131","","","","","","","","","","","","","","","","","","","","","","","","","","","","","","","","","","","","","","","","","",""
"604","<p style=""color:white; font-size: 35px;"">全才</p>","e","categorize-html","37","244383","0.0-6.0-0.0-4.0-1.1","4","4","4","4","4","4","4","3","4","4","5","5","5","5","5","5","5","5","5","5","4","4","3","2","2","1","1","1","1","0","1","0","0","1","1","0","1","1","0","0","1","0","0","0","5","1","1","2","2","1","4","5","5","5","3","682985829311709184","刘","131","","","","","","","","","","","","","","","","","","","true","2","2","ability","604","positive","全才","","","","","","","","","","","","","","","","",""
"null","","null","html-keyboard-response","38","244638","0.0-6.0-0.0-4.0-0.2","4","4","4","4","4","4","4","3","4","4","5","5","5","5","5","5","5","5","5","5","4","4","3","2","2","1","1","1","1","0","1","0","0","1","1","0","1","1","0","0","1","0","0","0","5","1","1","2","2","1","4","5","5","5","3","682985829311709184","刘","131","","","","","","","","","","","","","","","","","","","","","","","","","","","","","","","","","","","","","","","","","",""
"428","<p style=""color:white; font-size: 35px;"">高效</p>","e","categorize-html","39","245077","0.0-6.0-0.0-4.0-1.2","4","4","4","4","4","4","4","3","4","4","5","5","5","5","5","5","5","5","5","5","4","4","3","2","2","1","1","1","1","0","1","0","0","1","1","0","1","1","0","0","1","0","0","0","5","1","1","2","2","1","4","5","5","5","3","682985829311709184","刘","131","","","","","","","","","","","","","","","","","","","true","2","2","ability","428","positive","高效","","","","","","","","","","","","","","","","",""
"null","","null","html-keyboard-response","40","245331","0.0-6.0-0.0-4.0-0.3","4","4","4","4","4","4","4","3","4","4","5","5","5","5","5","5","5","5","5","5","4","4","3","2","2","1","1","1","1","0","1","0","0","1","1","0","1","1","0","0","1","0","0","0","5","1","1","2","2","1","4","5","5","5","3","682985829311709184","刘","131","","","","","","","","","","","","","","","","","","","","","","","","","","","","","","","","","","","","","","","","","",""
"635","<p style=""color:white; font-size: 35px;"">蠢笨</p>","i","categorize-html","41","245981","0.0-6.0-0.0-4.0-1.3","4","4","4","4","4","4","4","3","4","4","5","5","5","5","5","5","5","5","5","5","4","4","3","2","2","1","1","1","1","0","1","0","0","1","1","0","1","1","0","0","1","0","0","0","5","1","1","2","2","1","4","5","5","5","3","682985829311709184","刘","131","","","","","","","","","","","","","","","","","","","true","2","2","ability","635","negative","蠢笨","","","","","","","","","","","","","","","","",""
"null","","null","html-keyboard-response","42","246237","0.0-6.0-0.0-4.0-0.4","4","4","4","4","4","4","4","3","4","4","5","5","5","5","5","5","5","5","5","5","4","4","3","2","2","1","1","1","1","0","1","0","0","1","1","0","1","1","0","0","1","0","0","0","5","1","1","2","2","1","4","5","5","5","3","682985829311709184","刘","131","","","","","","","","","","","","","","","","","","","","","","","","","","","","","","","","","","","","","","","","","",""
"667","<p style=""color:white; font-size: 35px;"">能干</p>","e","categorize-html","43","246915","0.0-6.0-0.0-4.0-1.4","4","4","4","4","4","4","4","3","4","4","5","5","5","5","5","5","5","5","5","5","4","4","3","2","2","1","1","1","1","0","1","0","0","1","1","0","1","1","0","0","1","0","0","0","5","1","1","2","2","1","4","5","5","5","3","682985829311709184","刘","131","","","","","","","","","","","","","","","","","","","true","2","2","ability","667","positive","能干","","","","","","","","","","","","","","","","",""
"null","","null","html-keyboard-response","44","247168","0.0-6.0-0.0-4.0-0.5","4","4","4","4","4","4","4","3","4","4","5","5","5","5","5","5","5","5","5","5","4","4","3","2","2","1","1","1","1","0","1","0","0","1","1","0","1","1","0","0","1","0","0","0","5","1","1","2","2","1","4","5","5","5","3","682985829311709184","刘","131","","","","","","","","","","","","","","","","","","","","","","","","","","","","","","","","","","","","","","","","","",""
"633","<p style=""color:white; font-size: 35px;"">愚钝</p>","i","categorize-html","45","247813","0.0-6.0-0.0-4.0-1.5","4","4","4","4","4","4","4","3","4","4","5","5","5","5","5","5","5","5","5","5","4","4","3","2","2","1","1","1","1","0","1","0","0","1","1","0","1","1","0","0","1","0","0","0","5","1","1","2","2","1","4","5","5","5","3","682985829311709184","刘","131","","","","","","","","","","","","","","","","","","","true","2","2","ability","633","negative","愚钝","","","","","","","","","","","","","","","","",""
"null","","null","html-keyboard-response","46","248068","0.0-6.0-0.0-4.0-0.6","4","4","4","4","4","4","4","3","4","4","5","5","5","5","5","5","5","5","5","5","4","4","3","2","2","1","1","1","1","0","1","0","0","1","1","0","1","1","0","0","1","0","0","0","5","1","1","2","2","1","4","5","5","5","3","682985829311709184","刘","131","","","","","","","","","","","","","","","","","","","","","","","","","","","","","","","","","","","","","","","","","",""
"613","<p style=""color:white; font-size: 35px;"">天才</p>","e","categorize-html","47","248686","0.0-6.0-0.0-4.0-1.6","4","4","4","4","4","4","4","3","4","4","5","5","5","5","5","5","5","5","5","5","4","4","3","2","2","1","1","1","1","0","1","0","0","1","1","0","1","1","0","0","1","0","0","0","5","1","1","2","2","1","4","5","5","5","3","682985829311709184","刘","131","","","","","","","","","","","","","","","","","","","true","2","2","ability","613","positive","天才","","","","","","","","","","","","","","","","",""
"null","","null","html-keyboard-response","48","248940","0.0-6.0-0.0-4.0-0.7","4","4","4","4","4","4","4","3","4","4","5","5","5","5","5","5","5","5","5","5","4","4","3","2","2","1","1","1","1","0","1","0","0","1","1","0","1","1","0","0","1","0","0","0","5","1","1","2","2","1","4","5","5","5","3","682985829311709184","刘","131","","","","","","","","","","","","","","","","","","","","","","","","","","","","","","","","","","","","","","","","","",""
"552","<p style=""color:white; font-size: 35px;"">拙笨</p>","i","categorize-html","49","249502","0.0-6.0-0.0-4.0-1.7","4","4","4","4","4","4","4","3","4","4","5","5","5","5","5","5","5","5","5","5","4","4","3","2","2","1","1","1","1","0","1","0","0","1","1","0","1","1","0","0","1","0","0","0","5","1","1","2","2","1","4","5","5","5","3","682985829311709184","刘","131","","","","","","","","","","","","","","","","","","","true","2","2","ability","552","negative","拙笨","","","","","","","","","","","","","","","","",""
"null","","null","html-keyboard-response","50","249758","0.0-6.0-0.0-4.0-0.8","4","4","4","4","4","4","4","3","4","4","5","5","5","5","5","5","5","5","5","5","4","4","3","2","2","1","1","1","1","0","1","0","0","1","1","0","1","1","0","0","1","0","0","0","5","1","1","2","2","1","4","5","5","5","3","682985829311709184","刘","131","","","","","","","","","","","","","","","","","","","","","","","","","","","","","","","","","","","","","","","","","",""
"539","<p style=""color:white; font-size: 35px;"">全能</p>","e","categorize-html","51","250304","0.0-6.0-0.0-4.0-1.8","4","4","4","4","4","4","4","3","4","4","5","5","5","5","5","5","5","5","5","5","4","4","3","2","2","1","1","1","1","0","1","0","0","1","1","0","1","1","0","0","1","0","0","0","5","1","1","2","2","1","4","5","5","5","3","682985829311709184","刘","131","","","","","","","","","","","","","","","","","","","true","2","2","ability","539","positive","全能","","","","","","","","","","","","","","","","",""
"null","","null","html-keyboard-response","52","250557","0.0-6.0-0.0-4.0-0.9","4","4","4","4","4","4","4","3","4","4","5","5","5","5","5","5","5","5","5","5","4","4","3","2","2","1","1","1","1","0","1","0","0","1","1","0","1","1","0","0","1","0","0","0","5","1","1","2","2","1","4","5","5","5","3","682985829311709184","刘","131","","","","","","","","","","","","","","","","","","","","","","","","","","","","","","","","","","","","","","","","","",""
"1019","<p style=""color:white; font-size: 35px;"">低能</p>","i","categorize-html","53","251585","0.0-6.0-0.0-4.0-1.9","4","4","4","4","4","4","4","3","4","4","5","5","5","5","5","5","5","5","5","5","4","4","3","2","2","1","1","1","1","0","1","0","0","1","1","0","1","1","0","0","1","0","0","0","5","1","1","2","2","1","4","5","5","5","3","682985829311709184","刘","131","","","","","","","","","","","","","","","","","","","true","2","2","ability","1019","negative","低能","","","","","","","","","","","","","","","","",""
"null","","null","html-keyboard-response","54","251854","0.0-6.0-0.0-4.0-0.10","4","4","4","4","4","4","4","3","4","4","5","5","5","5","5","5","5","5","5","5","4","4","3","2","2","1","1","1","1","0","1","0","0","1","1","0","1","1","0","0","1","0","0","0","5","1","1","2","2","1","4","5","5","5","3","682985829311709184","刘","131","","","","","","","","","","","","","","","","","","","","","","","","","","","","","","","","","","","","","","","","","",""
"570","<p style=""color:white; font-size: 35px;"">废物</p>","i","categorize-html","55","252432","0.0-6.0-0.0-4.0-1.10","4","4","4","4","4","4","4","3","4","4","5","5","5","5","5","5","5","5","5","5","4","4","3","2","2","1","1","1","1","0","1","0","0","1","1","0","1","1","0","0","1","0","0","0","5","1","1","2","2","1","4","5","5","5","3","682985829311709184","刘","131","","","","","","","","","","","","","","","","","","","true","2","2","ability","570","negative","废物","","","","","","","","","","","","","","","","",""
"null","","null","html-keyboard-response","56","252686","0.0-6.0-0.0-4.0-0.11","4","4","4","4","4","4","4","3","4","4","5","5","5","5","5","5","5","5","5","5","4","4","3","2","2","1","1","1","1","0","1","0","0","1","1","0","1","1","0","0","1","0","0","0","5","1","1","2","2","1","4","5","5","5","3","682985829311709184","刘","131","","","","","","","","","","","","","","","","","","","","","","","","","","","","","","","","","","","","","","","","","",""
"527","<p style=""color:white; font-size: 35px;"">无能</p>","i","categorize-html","57","253224","0.0-6.0-0.0-4.0-1.11","4","4","4","4","4","4","4","3","4","4","5","5","5","5","5","5","5","5","5","5","4","4","3","2","2","1","1","1","1","0","1","0","0","1","1","0","1","1","0","0","1","0","0","0","5","1","1","2","2","1","4","5","5","5","3","682985829311709184","刘","131","","","","","","","","","","","","","","","","","","","true","2","2","ability","527","negative","无能","","","","","","","","","","","","","","","","",""
"3173","
    <div class=""tag-bottom""><p>
    —— 任务3：对“他人/积极”词和“自我/消极”词分类 ——<p/>
    <span style=""color:#78DCE8""><b>注意上方，之前的四类词语将混合在一起交替呈现</b></span><p/>
    <span style=""color:#FFD866""><b>请根据上方标签的提示，尽可能正确并且快速地做出按键反应</b></span><p/>
    当按键错误时屏幕中会出现<span style=""color:red""> X </span>，需要按另一个键纠正才能继续<br/><p/>
    请把双手食指分别放在键盘的“E”键和“I”键上<p/>
    按<空格键>开始
    </p></div>"," ","html-keyboard-response","58","256401","0.0-6.0-0.0-5.0","4","4","4","4","4","4","4","3","4","4","5","5","5","5","5","5","5","5","5","5","4","4","3","2","2","1","1","1","1","0","1","0","0","1","1","0","1","1","0","0","1","0","0","0","5","1","1","2","2","1","4","5","5","5","3","682985829311709184","刘","131","","","","","","","","","","","","","","","","","","","","","","","","","","","","","","","","","","","","","","","","","",""
"null","","null","html-keyboard-response","59","256654","0.0-6.0-0.0-6.0-0.0","4","4","4","4","4","4","4","3","4","4","5","5","5","5","5","5","5","5","5","5","4","4","3","2","2","1","1","1","1","0","1","0","0","1","1","0","1","1","0","0","1","0","0","0","5","1","1","2","2","1","4","5","5","5","3","682985829311709184","刘","131","","","","","","","","","","","","","","","","","","","","","","","","","","","","","","","","","","","","","","","","","",""
"1366","<p style=""color:rgb(150, 250, 100); font-size: 35px;"">本人</p>","i","categorize-html","60","258032","0.0-6.0-0.0-6.0-1.0","4","4","4","4","4","4","4","3","4","4","5","5","5","5","5","5","5","5","5","5","4","4","3","2","2","1","1","1","1","0","1","0","0","1","1","0","1","1","0","0","1","0","0","0","5","1","1","2","2","1","4","5","5","5","3","682985829311709184","刘","131","","","","","","","","","","","","","","","","","","","true","3","3","ability","1366","self","本人","","","","","","","","","","","","","","","","",""
"null","","null","html-keyboard-response","61","258287","0.0-6.0-0.0-6.0-0.1","4","4","4","4","4","4","4","3","4","4","5","5","5","5","5","5","5","5","5","5","4","4","3","2","2","1","1","1","1","0","1","0","0","1","1","0","1","1","0","0","1","0","0","0","5","1","1","2","2","1","4","5","5","5","3","682985829311709184","刘","131","","","","","","","","","","","","","","","","","","","","","","","","","","","","","","","","","","","","","","","","","",""
"898","<p style=""color:white; font-size: 35px;"">天才</p>","e","categorize-html","62","259195","0.0-6.0-0.0-6.0-1.1","4","4","4","4","4","4","4","3","4","4","5","5","5","5","5","5","5","5","5","5","4","4","3","2","2","1","1","1","1","0","1","0","0","1","1","0","1","1","0","0","1","0","0","0","5","1","1","2","2","1","4","5","5","5","3","682985829311709184","刘","131","","","","","","","","","","","","","","","","","","","true","3","3","ability","898","positive","天才","","","","","","","","","","","","","","","","",""
"null","","null","html-keyboard-response","63","259451","0.0-6.0-0.0-6.0-0.2","4","4","4","4","4","4","4","3","4","4","5","5","5","5","5","5","5","5","5","5","4","4","3","2","2","1","1","1","1","0","1","0","0","1","1","0","1","1","0","0","1","0","0","0","5","1","1","2","2","1","4","5","5","5","3","682985829311709184","刘","131","","","","","","","","","","","","","","","","","","","","","","","","","","","","","","","","","","","","","","","","","",""
"1473","<p style=""color:rgb(150, 250, 100); font-size: 35px;"">别人的</p>","e","categorize-html","64","260933","0.0-6.0-0.0-6.0-1.2","4","4","4","4","4","4","4","3","4","4","5","5","5","5","5","5","5","5","5","5","4","4","3","2","2","1","1","1","1","0","1","0","0","1","1","0","1","1","0","0","1","0","0","0","5","1","1","2","2","1","4","5","5","5","3","682985829311709184","刘","131","","","","","","","","","","","","","","","","","","","true","3","3","ability","1473","other","别人的","","","","","","","","","","","","","","","","",""
"null","","null","html-keyboard-response","65","261187","0.0-6.0-0.0-6.0-0.3","4","4","4","4","4","4","4","3","4","4","5","5","5","5","5","5","5","5","5","5","4","4","3","2","2","1","1","1","1","0","1","0","0","1","1","0","1","1","0","0","1","0","0","0","5","1","1","2","2","1","4","5","5","5","3","682985829311709184","刘","131","","","","","","","","","","","","","","","","","","","","","","","","","","","","","","","","","","","","","","","","","",""
"959","<p style=""color:white; font-size: 35px;"">愚钝</p>","i","categorize-html","66","262155","0.0-6.0-0.0-6.0-1.3","4","4","4","4","4","4","4","3","4","4","5","5","5","5","5","5","5","5","5","5","4","4","3","2","2","1","1","1","1","0","1","0","0","1","1","0","1","1","0","0","1","0","0","0","5","1","1","2","2","1","4","5","5","5","3","682985829311709184","刘","131","","","","","","","","","","","","","","","","","","","true","3","3","ability","959","negative","愚钝","","","","","","","","","","","","","","","","",""
"null","","null","html-keyboard-response","67","262411","0.0-6.0-0.0-6.0-0.4","4","4","4","4","4","4","4","3","4","4","5","5","5","5","5","5","5","5","5","5","4","4","3","2","2","1","1","1","1","0","1","0","0","1","1","0","1","1","0","0","1","0","0","0","5","1","1","2","2","1","4","5","5","5","3","682985829311709184","刘","131","","","","","","","","","","","","","","","","","","","","","","","","","","","","","","","","","","","","","","","","","",""
"827","<p style=""color:rgb(150, 250, 100); font-size: 35px;"">自己的</p>","i","categorize-html","68","263252","0.0-6.0-0.0-6.0-1.4","4","4","4","4","4","4","4","3","4","4","5","5","5","5","5","5","5","5","5","5","4","4","3","2","2","1","1","1","1","0","1","0","0","1","1","0","1","1","0","0","1","0","0","0","5","1","1","2","2","1","4","5","5","5","3","682985829311709184","刘","131","","","","","","","","","","","","","","","","","","","true","3","3","ability","827","self","自己的","","","","","","","","","","","","","","","","",""
"null","","null","html-keyboard-response","69","263506","0.0-6.0-0.0-6.0-0.5","4","4","4","4","4","4","4","3","4","4","5","5","5","5","5","5","5","5","5","5","4","4","3","2","2","1","1","1","1","0","1","0","0","1","1","0","1","1","0","0","1","0","0","0","5","1","1","2","2","1","4","5","5","5","3","682985829311709184","刘","131","","","","","","","","","","","","","","","","","","","","","","","","","","","","","","","","","","","","","","","","","",""
"899","<p style=""color:white; font-size: 35px;"">精干</p>","e","categorize-html","70","264413","0.0-6.0-0.0-6.0-1.5","4","4","4","4","4","4","4","3","4","4","5","5","5","5","5","5","5","5","5","5","4","4","3","2","2","1","1","1","1","0","1","0","0","1","1","0","1","1","0","0","1","0","0","0","5","1","1","2","2","1","4","5","5","5","3","682985829311709184","刘","131","","","","","","","","","","","","","","","","","","","true","3","3","ability","899","positive","精干","","","","","","","","","","","","","","","","",""
"null","","null","html-keyboard-response","71","264668","0.0-6.0-0.0-6.0-0.6","4","4","4","4","4","4","4","3","4","4","5","5","5","5","5","5","5","5","5","5","4","4","3","2","2","1","1","1","1","0","1","0","0","1","1","0","1","1","0","0","1","0","0","0","5","1","1","2","2","1","4","5","5","5","3","682985829311709184","刘","131","","","","","","","","","","","","","","","","","","","","","","","","","","","","","","","","","","","","","","","","","",""
"755","<p style=""color:rgb(150, 250, 100); font-size: 35px;"">他人</p>","e","categorize-html","72","265432","0.0-6.0-0.0-6.0-1.6","4","4","4","4","4","4","4","3","4","4","5","5","5","5","5","5","5","5","5","5","4","4","3","2","2","1","1","1","1","0","1","0","0","1","1","0","1","1","0","0","1","0","0","0","5","1","1","2","2","1","4","5","5","5","3","682985829311709184","刘","131","","","","","","","","","","","","","","","","","","","true","3","3","ability","755","other","他人","","","","","","","","","","","","","","","","",""
"null","","null","html-keyboard-response","73","265685","0.0-6.0-0.0-6.0-0.7","4","4","4","4","4","4","4","3","4","4","5","5","5","5","5","5","5","5","5","5","4","4","3","2","2","1","1","1","1","0","1","0","0","1","1","0","1","1","0","0","1","0","0","0","5","1","1","2","2","1","4","5","5","5","3","682985829311709184","刘","131","","","","","","","","","","","","","","","","","","","","","","","","","","","","","","","","","","","","","","","","","",""
"1110","<p style=""color:white; font-size: 35px;"">无能</p>","i","categorize-html","74","266800","0.0-6.0-0.0-6.0-1.7","4","4","4","4","4","4","4","3","4","4","5","5","5","5","5","5","5","5","5","5","4","4","3","2","2","1","1","1","1","0","1","0","0","1","1","0","1","1","0","0","1","0","0","0","5","1","1","2","2","1","4","5","5","5","3","682985829311709184","刘","131","","","","","","","","","","","","","","","","","","","true","3","3","ability","1110","negative","无能","","","","","","","","","","","","","","","","",""
"null","","null","html-keyboard-response","75","267054","0.0-6.0-0.0-6.0-0.8","4","4","4","4","4","4","4","3","4","4","5","5","5","5","5","5","5","5","5","5","4","4","3","2","2","1","1","1","1","0","1","0","0","1","1","0","1","1","0","0","1","0","0","0","5","1","1","2","2","1","4","5","5","5","3","682985829311709184","刘","131","","","","","","","","","","","","","","","","","","","","","","","","","","","","","","","","","","","","","","","","","",""
"772","<p style=""color:rgb(150, 250, 100); font-size: 35px;"">他的</p>","e","categorize-html","76","267839","0.0-6.0-0.0-6.0-1.8","4","4","4","4","4","4","4","3","4","4","5","5","5","5","5","5","5","5","5","5","4","4","3","2","2","1","1","1","1","0","1","0","0","1","1","0","1","1","0","0","1","0","0","0","5","1","1","2","2","1","4","5","5","5","3","682985829311709184","刘","131","","","","","","","","","","","","","","","","","","","true","3","3","ability","772","other","他的","","","","","","","","","","","","","","","","",""
"null","","null","html-keyboard-response","77","268094","0.0-6.0-0.0-6.0-0.9","4","4","4","4","4","4","4","3","4","4","5","5","5","5","5","5","5","5","5","5","4","4","3","2","2","1","1","1","1","0","1","0","0","1","1","0","1","1","0","0","1","0","0","0","5","1","1","2","2","1","4","5","5","5","3","682985829311709184","刘","131","","","","","","","","","","","","","","","","","","","","","","","","","","","","","","","","","","","","","","","","","",""
"605","<p style=""color:white; font-size: 35px;"">蠢笨</p>","i","categorize-html","78","268708","0.0-6.0-0.0-6.0-1.9","4","4","4","4","4","4","4","3","4","4","5","5","5","5","5","5","5","5","5","5","4","4","3","2","2","1","1","1","1","0","1","0","0","1","1","0","1","1","0","0","1","0","0","0","5","1","1","2","2","1","4","5","5","5","3","682985829311709184","刘","131","","","","","","","","","","","","","","","","","","","true","3","3","ability","605","negative","蠢笨","","","","","","","","","","","","","","","","",""
"null","","null","html-keyboard-response","79","268965","0.0-6.0-0.0-6.0-0.10","4","4","4","4","4","4","4","3","4","4","5","5","5","5","5","5","5","5","5","5","4","4","3","2","2","1","1","1","1","0","1","0","0","1","1","0","1","1","0","0","1","0","0","0","5","1","1","2","2","1","4","5","5","5","3","682985829311709184","刘","131","","","","","","","","","","","","","","","","","","","","","","","","","","","","","","","","","","","","","","","","","",""
"705","<p style=""color:rgb(150, 250, 100); font-size: 35px;"">我</p>","i","categorize-html","80","269681","0.0-6.0-0.0-6.0-1.10","4","4","4","4","4","4","4","3","4","4","5","5","5","5","5","5","5","5","5","5","4","4","3","2","2","1","1","1","1","0","1","0","0","1","1","0","1","1","0","0","1","0","0","0","5","1","1","2","2","1","4","5","5","5","3","682985829311709184","刘","131","","","","","","","","","","","","","","","","","","","true","3","3","ability","705","self","我","","","","","","","","","","","","","","","","",""
"null","","null","html-keyboard-response","81","269934","0.0-6.0-0.0-6.0-0.11","4","4","4","4","4","4","4","3","4","4","5","5","5","5","5","5","5","5","5","5","4","4","3","2","2","1","1","1","1","0","1","0","0","1","1","0","1","1","0","0","1","0","0","0","5","1","1","2","2","1","4","5","5","5","3","682985829311709184","刘","131","","","","","","","","","","","","","","","","","","","","","","","","","","","","","","","","","","","","","","","","","",""
"896","<p style=""color:white; font-size: 35px;"">能干</p>","e","categorize-html","82","270843","0.0-6.0-0.0-6.0-1.11","4","4","4","4","4","4","4","3","4","4","5","5","5","5","5","5","5","5","5","5","4","4","3","2","2","1","1","1","1","0","1","0","0","1","1","0","1","1","0","0","1","0","0","0","5","1","1","2","2","1","4","5","5","5","3","682985829311709184","刘","131","","","","","","","","","","","","","","","","","","","true","3","3","ability","896","positive","能干","","","","","","","","","","","","","","","","",""
"null","","null","html-keyboard-response","83","271098","0.0-6.0-0.0-6.0-0.12","4","4","4","4","4","4","4","3","4","4","5","5","5","5","5","5","5","5","5","5","4","4","3","2","2","1","1","1","1","0","1","0","0","1","1","0","1","1","0","0","1","0","0","0","5","1","1","2","2","1","4","5","5","5","3","682985829311709184","刘","131","","","","","","","","","","","","","","","","","","","","","","","","","","","","","","","","","","","","","","","","","",""
"636","<p style=""color:rgb(150, 250, 100); font-size: 35px;"">他</p>","e","categorize-html","84","271746","0.0-6.0-0.0-6.0-1.12","4","4","4","4","4","4","4","3","4","4","5","5","5","5","5","5","5","5","5","5","4","4","3","2","2","1","1","1","1","0","1","0","0","1","1","0","1","1","0","0","1","0","0","0","5","1","1","2","2","1","4","5","5","5","3","682985829311709184","刘","131","","","","","","","","","","","","","","","","","","","true","3","3","ability","636","other","他","","","","","","","","","","","","","","","","",""
"null","","null","html-keyboard-response","85","272002","0.0-6.0-0.0-6.0-0.13","4","4","4","4","4","4","4","3","4","4","5","5","5","5","5","5","5","5","5","5","4","4","3","2","2","1","1","1","1","0","1","0","0","1","1","0","1","1","0","0","1","0","0","0","5","1","1","2","2","1","4","5","5","5","3","682985829311709184","刘","131","","","","","","","","","","","","","","","","","","","","","","","","","","","","","","","","","","","","","","","","","",""
"686","<p style=""color:white; font-size: 35px;"">低能</p>","i","categorize-html","86","272697","0.0-6.0-0.0-6.0-1.13","4","4","4","4","4","4","4","3","4","4","5","5","5","5","5","5","5","5","5","5","4","4","3","2","2","1","1","1","1","0","1","0","0","1","1","0","1","1","0","0","1","0","0","0","5","1","1","2","2","1","4","5","5","5","3","682985829311709184","刘","131","","","","","","","","","","","","","","","","","","","true","3","3","ability","686","negative","低能","","","","","","","","","","","","","","","","",""
"null","","null","html-keyboard-response","87","272952","0.0-6.0-0.0-6.0-0.14","4","4","4","4","4","4","4","3","4","4","5","5","5","5","5","5","5","5","5","5","4","4","3","2","2","1","1","1","1","0","1","0","0","1","1","0","1","1","0","0","1","0","0","0","5","1","1","2","2","1","4","5","5","5","3","682985829311709184","刘","131","","","","","","","","","","","","","","","","","","","","","","","","","","","","","","","","","","","","","","","","","",""
"702","<p style=""color:rgb(150, 250, 100); font-size: 35px;"">我的</p>","i","categorize-html","88","273666","0.0-6.0-0.0-6.0-1.14","4","4","4","4","4","4","4","3","4","4","5","5","5","5","5","5","5","5","5","5","4","4","3","2","2","1","1","1","1","0","1","0","0","1","1","0","1","1","0","0","1","0","0","0","5","1","1","2","2","1","4","5","5","5","3","682985829311709184","刘","131","","","","","","","","","","","","","","","","","","","true","3","3","ability","702","self","我的","","","","","","","","","","","","","","","","",""
"null","","null","html-keyboard-response","89","273923","0.0-6.0-0.0-6.0-0.15","4","4","4","4","4","4","4","3","4","4","5","5","5","5","5","5","5","5","5","5","4","4","3","2","2","1","1","1","1","0","1","0","0","1","1","0","1","1","0","0","1","0","0","0","5","1","1","2","2","1","4","5","5","5","3","682985829311709184","刘","131","","","","","","","","","","","","","","","","","","","","","","","","","","","","","","","","","","","","","","","","","",""
"1140","<p style=""color:white; font-size: 35px;"">高效</p>","e","categorize-html","90","275067","0.0-6.0-0.0-6.0-1.15","4","4","4","4","4","4","4","3","4","4","5","5","5","5","5","5","5","5","5","5","4","4","3","2","2","1","1","1","1","0","1","0","0","1","1","0","1","1","0","0","1","0","0","0","5","1","1","2","2","1","4","5","5","5","3","682985829311709184","刘","131","","","","","","","","","","","","","","","","","","","true","3","3","ability","1140","positive","高效","","","","","","","","","","","","","","","","",""
"null","","null","html-keyboard-response","91","275322","0.0-6.0-0.0-6.0-0.16","4","4","4","4","4","4","4","3","4","4","5","5","5","5","5","5","5","5","5","5","4","4","3","2","2","1","1","1","1","0","1","0","0","1","1","0","1","1","0","0","1","0","0","0","5","1","1","2","2","1","4","5","5","5","3","682985829311709184","刘","131","","","","","","","","","","","","","","","","","","","","","","","","","","","","","","","","","","","","","","","","","",""
"600","<p style=""color:rgb(150, 250, 100); font-size: 35px;"">他人的</p>","e","categorize-html","92","275928","0.0-6.0-0.0-6.0-1.16","4","4","4","4","4","4","4","3","4","4","5","5","5","5","5","5","5","5","5","5","4","4","3","2","2","1","1","1","1","0","1","0","0","1","1","0","1","1","0","0","1","0","0","0","5","1","1","2","2","1","4","5","5","5","3","682985829311709184","刘","131","","","","","","","","","","","","","","","","","","","true","3","3","ability","600","other","他人的","","","","","","","","","","","","","","","","",""
"null","","null","html-keyboard-response","93","276180","0.0-6.0-0.0-6.0-0.17","4","4","4","4","4","4","4","3","4","4","5","5","5","5","5","5","5","5","5","5","4","4","3","2","2","1","1","1","1","0","1","0","0","1","1","0","1","1","0","0","1","0","0","0","5","1","1","2","2","1","4","5","5","5","3","682985829311709184","刘","131","","","","","","","","","","","","","","","","","","","","","","","","","","","","","","","","","","","","","","","","","",""
"691","<p style=""color:white; font-size: 35px;"">全才</p>","e","categorize-html","94","276879","0.0-6.0-0.0-6.0-1.17","4","4","4","4","4","4","4","3","4","4","5","5","5","5","5","5","5","5","5","5","4","4","3","2","2","1","1","1","1","0","1","0","0","1","1","0","1","1","0","0","1","0","0","0","5","1","1","2","2","1","4","5","5","5","3","682985829311709184","刘","131","","","","","","","","","","","","","","","","","","","true","3","3","ability","691","positive","全才","","","","","","","","","","","","","","","","",""
"null","","null","html-keyboard-response","95","277133","0.0-6.0-0.0-6.0-0.18","4","4","4","4","4","4","4","3","4","4","5","5","5","5","5","5","5","5","5","5","4","4","3","2","2","1","1","1","1","0","1","0","0","1","1","0","1","1","0","0","1","0","0","0","5","1","1","2","2","1","4","5","5","5","3","682985829311709184","刘","131","","","","","","","","","","","","","","","","","","","","","","","","","","","","","","","","","","","","","","","","","",""
"589","<p style=""color:rgb(150, 250, 100); font-size: 35px;"">自己</p>","i","categorize-html","96","277734","0.0-6.0-0.0-6.0-1.18","4","4","4","4","4","4","4","3","4","4","5","5","5","5","5","5","5","5","5","5","4","4","3","2","2","1","1","1","1","0","1","0","0","1","1","0","1","1","0","0","1","0","0","0","5","1","1","2","2","1","4","5","5","5","3","682985829311709184","刘","131","","","","","","","","","","","","","","","","","","","true","3","3","ability","589","self","自己","","","","","","","","","","","","","","","","",""
"null","","null","html-keyboard-response","97","277987","0.0-6.0-0.0-6.0-0.19","4","4","4","4","4","4","4","3","4","4","5","5","5","5","5","5","5","5","5","5","4","4","3","2","2","1","1","1","1","0","1","0","0","1","1","0","1","1","0","0","1","0","0","0","5","1","1","2","2","1","4","5","5","5","3","682985829311709184","刘","131","","","","","","","","","","","","","","","","","","","","","","","","","","","","","","","","","","","","","","","","","",""
"518","<p style=""color:white; font-size: 35px;"">废物</p>","i","categorize-html","98","278510","0.0-6.0-0.0-6.0-1.19","4","4","4","4","4","4","4","3","4","4","5","5","5","5","5","5","5","5","5","5","4","4","3","2","2","1","1","1","1","0","1","0","0","1","1","0","1","1","0","0","1","0","0","0","5","1","1","2","2","1","4","5","5","5","3","682985829311709184","刘","131","","","","","","","","","","","","","","","","","","","true","3","3","ability","518","negative","废物","","","","","","","","","","","","","","","","",""
"null","","null","html-keyboard-response","99","278762","0.0-6.0-0.0-6.0-0.20","4","4","4","4","4","4","4","3","4","4","5","5","5","5","5","5","5","5","5","5","4","4","3","2","2","1","1","1","1","0","1","0","0","1","1","0","1","1","0","0","1","0","0","0","5","1","1","2","2","1","4","5","5","5","3","682985829311709184","刘","131","","","","","","","","","","","","","","","","","","","","","","","","","","","","","","","","","","","","","","","","","",""
"860","<p style=""color:rgb(150, 250, 100); font-size: 35px;"">别人</p>","e","categorize-html","100","279633","0.0-6.0-0.0-6.0-1.20","4","4","4","4","4","4","4","3","4","4","5","5","5","5","5","5","5","5","5","5","4","4","3","2","2","1","1","1","1","0","1","0","0","1","1","0","1","1","0","0","1","0","0","0","5","1","1","2","2","1","4","5","5","5","3","682985829311709184","刘","131","","","","","","","","","","","","","","","","","","","true","3","3","ability","860","other","别人","","","","","","","","","","","","","","","","",""
"null","","null","html-keyboard-response","101","279886","0.0-6.0-0.0-6.0-0.21","4","4","4","4","4","4","4","3","4","4","5","5","5","5","5","5","5","5","5","5","4","4","3","2","2","1","1","1","1","0","1","0","0","1","1","0","1","1","0","0","1","0","0","0","5","1","1","2","2","1","4","5","5","5","3","682985829311709184","刘","131","","","","","","","","","","","","","","","","","","","","","","","","","","","","","","","","","","","","","","","","","",""
"773","<p style=""color:white; font-size: 35px;"">全能</p>","e","categorize-html","102","280663","0.0-6.0-0.0-6.0-1.21","4","4","4","4","4","4","4","3","4","4","5","5","5","5","5","5","5","5","5","5","4","4","3","2","2","1","1","1","1","0","1","0","0","1","1","0","1","1","0","0","1","0","0","0","5","1","1","2","2","1","4","5","5","5","3","682985829311709184","刘","131","","","","","","","","","","","","","","","","","","","true","3","3","ability","773","positive","全能","","","","","","","","","","","","","","","","",""
"null","","null","html-keyboard-response","103","280917","0.0-6.0-0.0-6.0-0.22","4","4","4","4","4","4","4","3","4","4","5","5","5","5","5","5","5","5","5","5","4","4","3","2","2","1","1","1","1","0","1","0","0","1","1","0","1","1","0","0","1","0","0","0","5","1","1","2","2","1","4","5","5","5","3","682985829311709184","刘","131","","","","","","","","","","","","","","","","","","","","","","","","","","","","","","","","","","","","","","","","","",""
"699","<p style=""color:rgb(150, 250, 100); font-size: 35px;"">本人的</p>","i","categorize-html","104","281625","0.0-6.0-0.0-6.0-1.22","4","4","4","4","4","4","4","3","4","4","5","5","5","5","5","5","5","5","5","5","4","4","3","2","2","1","1","1","1","0","1","0","0","1","1","0","1","1","0","0","1","0","0","0","5","1","1","2","2","1","4","5","5","5","3","682985829311709184","刘","131","","","","","","","","","","","","","","","","","","","true","3","3","ability","699","self","本人的","","","","","","","","","","","","","","","","",""
"null","","null","html-keyboard-response","105","281885","0.0-6.0-0.0-6.0-0.23","4","4","4","4","4","4","4","3","4","4","5","5","5","5","5","5","5","5","5","5","4","4","3","2","2","1","1","1","1","0","1","0","0","1","1","0","1","1","0","0","1","0","0","0","5","1","1","2","2","1","4","5","5","5","3","682985829311709184","刘","131","","","","","","","","","","","","","","","","","","","","","","","","","","","","","","","","","","","","","","","","","",""
"700","<p style=""color:white; font-size: 35px;"">拙笨</p>","i","categorize-html","106","282599","0.0-6.0-0.0-6.0-1.23","4","4","4","4","4","4","4","3","4","4","5","5","5","5","5","5","5","5","5","5","4","4","3","2","2","1","1","1","1","0","1","0","0","1","1","0","1","1","0","0","1","0","0","0","5","1","1","2","2","1","4","5","5","5","3","682985829311709184","刘","131","","","","","","","","","","","","","","","","","","","true","3","3","ability","700","negative","拙笨","","","","","","","","","","","","","","","","",""
"14875","
    <div class=""tag-bottom""><p>
    —— 任务4：对“他人/积极”词和“自我/消极”词分类 ——<p/>
    <span style=""color:#78DCE8""><b>与刚才的任务完全相同，请再次对这四类词语分类</b></span><p/>
    <span style=""color:#FFD866""><b>请根据上方标签的提示，尽可能正确并且快速地做出按键反应</b></span><p/>
    当按键错误时屏幕中会出现<span style=""color:red""> X </span>，需要按另一个键纠正才能继续<br/><p/>
    请把双手食指分别放在键盘的“E”键和“I”键上<p/>
    按<空格键>开始
    </p></div>"," ","html-keyboard-response","107","297478","0.0-6.0-0.0-7.0","4","4","4","4","4","4","4","3","4","4","5","5","5","5","5","5","5","5","5","5","4","4","3","2","2","1","1","1","1","0","1","0","0","1","1","0","1","1","0","0","1","0","0","0","5","1","1","2","2","1","4","5","5","5","3","682985829311709184","刘","131","","","","","","","","","","","","","","","","","","","","","","","","","","","","","","","","","","","","","","","","","",""
"null","","null","html-keyboard-response","108","297731","0.0-6.0-0.0-8.0-0.0","4","4","4","4","4","4","4","3","4","4","5","5","5","5","5","5","5","5","5","5","4","4","3","2","2","1","1","1","1","0","1","0","0","1","1","0","1","1","0","0","1","0","0","0","5","1","1","2","2","1","4","5","5","5","3","682985829311709184","刘","131","","","","","","","","","","","","","","","","","","","","","","","","","","","","","","","","","","","","","","","","","",""
"900","<p style=""color:rgb(150, 250, 100); font-size: 35px;"">他的</p>","e","categorize-html","109","298643","0.0-6.0-0.0-8.0-1.0","4","4","4","4","4","4","4","3","4","4","5","5","5","5","5","5","5","5","5","5","4","4","3","2","2","1","1","1","1","0","1","0","0","1","1","0","1","1","0","0","1","0","0","0","5","1","1","2","2","1","4","5","5","5","3","682985829311709184","刘","131","","","","","","","","","","","","","","","","","","","true","4","4","ability","900","other","他的","","","","","","","","","","","","","","","","",""
"null","","null","html-keyboard-response","110","298900","0.0-6.0-0.0-8.0-0.1","4","4","4","4","4","4","4","3","4","4","5","5","5","5","5","5","5","5","5","5","4","4","3","2","2","1","1","1","1","0","1","0","0","1","1","0","1","1","0","0","1","0","0","0","5","1","1","2","2","1","4","5","5","5","3","682985829311709184","刘","131","","","","","","","","","","","","","","","","","","","","","","","","","","","","","","","","","","","","","","","","","",""
"748","<p style=""color:white; font-size: 35px;"">废物</p>","i","categorize-html","111","299661","0.0-6.0-0.0-8.0-1.1","4","4","4","4","4","4","4","3","4","4","5","5","5","5","5","5","5","5","5","5","4","4","3","2","2","1","1","1","1","0","1","0","0","1","1","0","1","1","0","0","1","0","0","0","5","1","1","2","2","1","4","5","5","5","3","682985829311709184","刘","131","","","","","","","","","","","","","","","","","","","true","4","4","ability","748","negative","废物","","","","","","","","","","","","","","","","",""
"null","","null","html-keyboard-response","112","299914","0.0-6.0-0.0-8.0-0.2","4","4","4","4","4","4","4","3","4","4","5","5","5","5","5","5","5","5","5","5","4","4","3","2","2","1","1","1","1","0","1","0","0","1","1","0","1","1","0","0","1","0","0","0","5","1","1","2","2","1","4","5","5","5","3","682985829311709184","刘","131","","","","","","","","","","","","","","","","","","","","","","","","","","","","","","","","","","","","","","","","","",""
"735","<p style=""color:rgb(150, 250, 100); font-size: 35px;"">自己</p>","i","categorize-html","113","300657","0.0-6.0-0.0-8.0-1.2","4","4","4","4","4","4","4","3","4","4","5","5","5","5","5","5","5","5","5","5","4","4","3","2","2","1","1","1","1","0","1","0","0","1","1","0","1","1","0","0","1","0","0","0","5","1","1","2","2","1","4","5","5","5","3","682985829311709184","刘","131","","","","","","","","","","","","","","","","","","","true","4","4","ability","735","self","自己","","","","","","","","","","","","","","","","",""
"null","","null","html-keyboard-response","114","300912","0.0-6.0-0.0-8.0-0.3","4","4","4","4","4","4","4","3","4","4","5","5","5","5","5","5","5","5","5","5","4","4","3","2","2","1","1","1","1","0","1","0","0","1","1","0","1","1","0","0","1","0","0","0","5","1","1","2","2","1","4","5","5","5","3","682985829311709184","刘","131","","","","","","","","","","","","","","","","","","","","","","","","","","","","","","","","","","","","","","","","","",""
"704","<p style=""color:white; font-size: 35px;"">精干</p>","e","categorize-html","115","301628","0.0-6.0-0.0-8.0-1.3","4","4","4","4","4","4","4","3","4","4","5","5","5","5","5","5","5","5","5","5","4","4","3","2","2","1","1","1","1","0","1","0","0","1","1","0","1","1","0","0","1","0","0","0","5","1","1","2","2","1","4","5","5","5","3","682985829311709184","刘","131","","","","","","","","","","","","","","","","","","","true","4","4","ability","704","positive","精干","","","","","","","","","","","","","","","","",""
"null","","null","html-keyboard-response","116","301882","0.0-6.0-0.0-8.0-0.4","4","4","4","4","4","4","4","3","4","4","5","5","5","5","5","5","5","5","5","5","4","4","3","2","2","1","1","1","1","0","1","0","0","1","1","0","1","1","0","0","1","0","0","0","5","1","1","2","2","1","4","5","5","5","3","682985829311709184","刘","131","","","","","","","","","","","","","","","","","","","","","","","","","","","","","","","","","","","","","","","","","",""
"589","<p style=""color:rgb(150, 250, 100); font-size: 35px;"">自己</p>","i","categorize-html","117","302483","0.0-6.0-0.0-8.0-1.4","4","4","4","4","4","4","4","3","4","4","5","5","5","5","5","5","5","5","5","5","4","4","3","2","2","1","1","1","1","0","1","0","0","1","1","0","1","1","0","0","1","0","0","0","5","1","1","2","2","1","4","5","5","5","3","682985829311709184","刘","131","","","","","","","","","","","","","","","","","","","true","4","4","ability","589","self","自己","","","","","","","","","","","","","","","","",""
"null","","null","html-keyboard-response","118","302736","0.0-6.0-0.0-8.0-0.5","4","4","4","4","4","4","4","3","4","4","5","5","5","5","5","5","5","5","5","5","4","4","3","2","2","1","1","1","1","0","1","0","0","1","1","0","1","1","0","0","1","0","0","0","5","1","1","2","2","1","4","5","5","5","3","682985829311709184","刘","131","","","","","","","","","","","","","","","","","","","","","","","","","","","","","","","","","","","","","","","","","",""
"847","<p style=""color:white; font-size: 35px;"">全能</p>","e","categorize-html","119","303590","0.0-6.0-0.0-8.0-1.5","4","4","4","4","4","4","4","3","4","4","5","5","5","5","5","5","5","5","5","5","4","4","3","2","2","1","1","1","1","0","1","0","0","1","1","0","1","1","0","0","1","0","0","0","5","1","1","2","2","1","4","5","5","5","3","682985829311709184","刘","131","","","","","","","","","","","","","","","","","","","true","4","4","ability","847","positive","全能","","","","","","","","","","","","","","","","",""
"null","","null","html-keyboard-response","120","303844","0.0-6.0-0.0-8.0-0.6","4","4","4","4","4","4","4","3","4","4","5","5","5","5","5","5","5","5","5","5","4","4","3","2","2","1","1","1","1","0","1","0","0","1","1","0","1","1","0","0","1","0","0","0","5","1","1","2","2","1","4","5","5","5","3","682985829311709184","刘","131","","","","","","","","","","","","","","","","","","","","","","","","","","","","","","","","","","","","","","","","","",""
"637","<p style=""color:rgb(150, 250, 100); font-size: 35px;"">他人的</p>","e","categorize-html","121","304491","0.0-6.0-0.0-8.0-1.6","4","4","4","4","4","4","4","3","4","4","5","5","5","5","5","5","5","5","5","5","4","4","3","2","2","1","1","1","1","0","1","0","0","1","1","0","1","1","0","0","1","0","0","0","5","1","1","2","2","1","4","5","5","5","3","682985829311709184","刘","131","","","","","","","","","","","","","","","","","","","true","4","4","ability","637","other","他人的","","","","","","","","","","","","","","","","",""
"null","","null","html-keyboard-response","122","304745","0.0-6.0-0.0-8.0-0.7","4","4","4","4","4","4","4","3","4","4","5","5","5","5","5","5","5","5","5","5","4","4","3","2","2","1","1","1","1","0","1","0","0","1","1","0","1","1","0","0","1","0","0","0","5","1","1","2","2","1","4","5","5","5","3","682985829311709184","刘","131","","","","","","","","","","","","","","","","","","","","","","","","","","","","","","","","","","","","","","","","","",""
"578","<p style=""color:white; font-size: 35px;"">拙笨</p>","i","categorize-html","123","305332","0.0-6.0-0.0-8.0-1.7","4","4","4","4","4","4","4","3","4","4","5","5","5","5","5","5","5","5","5","5","4","4","3","2","2","1","1","1","1","0","1","0","0","1","1","0","1","1","0","0","1","0","0","0","5","1","1","2","2","1","4","5","5","5","3","682985829311709184","刘","131","","","","","","","","","","","","","","","","","","","true","4","4","ability","578","negative","拙笨","","","","","","","","","","","","","","","","",""
"null","","null","html-keyboard-response","124","305587","0.0-6.0-0.0-8.0-0.8","4","4","4","4","4","4","4","3","4","4","5","5","5","5","5","5","5","5","5","5","4","4","3","2","2","1","1","1","1","0","1","0","0","1","1","0","1","1","0","0","1","0","0","0","5","1","1","2","2","1","4","5","5","5","3","682985829311709184","刘","131","","","","","","","","","","","","","","","","","","","","","","","","","","","","","","","","","","","","","","","","","",""
"503","<p style=""color:rgb(150, 250, 100); font-size: 35px;"">自己的</p>","i","categorize-html","125","306103","0.0-6.0-0.0-8.0-1.8","4","4","4","4","4","4","4","3","4","4","5","5","5","5","5","5","5","5","5","5","4","4","3","2","2","1","1","1","1","0","1","0","0","1","1","0","1","1","0","0","1","0","0","0","5","1","1","2","2","1","4","5","5","5","3","682985829311709184","刘","131","","","","","","","","","","","","","","","","","","","true","4","4","ability","503","self","自己的","","","","","","","","","","","","","","","","",""
"null","","null","html-keyboard-response","126","306357","0.0-6.0-0.0-8.0-0.9","4","4","4","4","4","4","4","3","4","4","5","5","5","5","5","5","5","5","5","5","4","4","3","2","2","1","1","1","1","0","1","0","0","1","1","0","1","1","0","0","1","0","0","0","5","1","1","2","2","1","4","5","5","5","3","682985829311709184","刘","131","","","","","","","","","","","","","","","","","","","","","","","","","","","","","","","","","","","","","","","","","",""
"502","<p style=""color:white; font-size: 35px;"">愚钝</p>","i","categorize-html","127","306869","0.0-6.0-0.0-8.0-1.9","4","4","4","4","4","4","4","3","4","4","5","5","5","5","5","5","5","5","5","5","4","4","3","2","2","1","1","1","1","0","1","0","0","1","1","0","1","1","0","0","1","0","0","0","5","1","1","2","2","1","4","5","5","5","3","682985829311709184","刘","131","","","","","","","","","","","","","","","","","","","true","4","4","ability","502","negative","愚钝","","","","","","","","","","","","","","","","",""
"null","","null","html-keyboard-response","128","307125","0.0-6.0-0.0-8.0-0.10","4","4","4","4","4","4","4","3","4","4","5","5","5","5","5","5","5","5","5","5","4","4","3","2","2","1","1","1","1","0","1","0","0","1","1","0","1","1","0","0","1","0","0","0","5","1","1","2","2","1","4","5","5","5","3","682985829311709184","刘","131","","","","","","","","","","","","","","","","","","","","","","","","","","","","","","","","","","","","","","","","","",""
"780","<p style=""color:rgb(150, 250, 100); font-size: 35px;"">他人的</p>","e","categorize-html","129","307917","0.0-6.0-0.0-8.0-1.10","4","4","4","4","4","4","4","3","4","4","5","5","5","5","5","5","5","5","5","5","4","4","3","2","2","1","1","1","1","0","1","0","0","1","1","0","1","1","0","0","1","0","0","0","5","1","1","2","2","1","4","5","5","5","3","682985829311709184","刘","131","","","","","","","","","","","","","","","","","","","true","4","4","ability","780","other","他人的","","","","","","","","","","","","","","","","",""
"null","","null","html-keyboard-response","130","308171","0.0-6.0-0.0-8.0-0.11","4","4","4","4","4","4","4","3","4","4","5","5","5","5","5","5","5","5","5","5","4","4","3","2","2","1","1","1","1","0","1","0","0","1","1","0","1","1","0","0","1","0","0","0","5","1","1","2","2","1","4","5","5","5","3","682985829311709184","刘","131","","","","","","","","","","","","","","","","","","","","","","","","","","","","","","","","","","","","","","","","","",""
"666","<p style=""color:white; font-size: 35px;"">全才</p>","e","categorize-html","131","308851","0.0-6.0-0.0-8.0-1.11","4","4","4","4","4","4","4","3","4","4","5","5","5","5","5","5","5","5","5","5","4","4","3","2","2","1","1","1","1","0","1","0","0","1","1","0","1","1","0","0","1","0","0","0","5","1","1","2","2","1","4","5","5","5","3","682985829311709184","刘","131","","","","","","","","","","","","","","","","","","","true","4","4","ability","666","positive","全才","","","","","","","","","","","","","","","","",""
"null","","null","html-keyboard-response","132","309105","0.0-6.0-0.0-8.0-0.12","4","4","4","4","4","4","4","3","4","4","5","5","5","5","5","5","5","5","5","5","4","4","3","2","2","1","1","1","1","0","1","0","0","1","1","0","1","1","0","0","1","0","0","0","5","1","1","2","2","1","4","5","5","5","3","682985829311709184","刘","131","","","","","","","","","","","","","","","","","","","","","","","","","","","","","","","","","","","","","","","","","",""
"983","<p style=""color:rgb(150, 250, 100); font-size: 35px;"">本人的</p>","i","categorize-html","133","310094","0.0-6.0-0.0-8.0-1.12","4","4","4","4","4","4","4","3","4","4","5","5","5","5","5","5","5","5","5","5","4","4","3","2","2","1","1","1","1","0","1","0","0","1","1","0","1","1","0","0","1","0","0","0","5","1","1","2","2","1","4","5","5","5","3","682985829311709184","刘","131","","","","","","","","","","","","","","","","","","","true","4","4","ability","983","self","本人的","","","","","","","","","","","","","","","","",""
"null","","null","html-keyboard-response","134","310357","0.0-6.0-0.0-8.0-0.13","4","4","4","4","4","4","4","3","4","4","5","5","5","5","5","5","5","5","5","5","4","4","3","2","2","1","1","1","1","0","1","0","0","1","1","0","1","1","0","0","1","0","0","0","5","1","1","2","2","1","4","5","5","5","3","682985829311709184","刘","131","","","","","","","","","","","","","","","","","","","","","","","","","","","","","","","","","","","","","","","","","",""
"803","<p style=""color:white; font-size: 35px;"">能干</p>","e","categorize-html","135","311168","0.0-6.0-0.0-8.0-1.13","4","4","4","4","4","4","4","3","4","4","5","5","5","5","5","5","5","5","5","5","4","4","3","2","2","1","1","1","1","0","1","0","0","1","1","0","1","1","0","0","1","0","0","0","5","1","1","2","2","1","4","5","5","5","3","682985829311709184","刘","131","","","","","","","","","","","","","","","","","","","true","4","4","ability","803","positive","能干","","","","","","","","","","","","","","","","",""
"null","","null","html-keyboard-response","136","311420","0.0-6.0-0.0-8.0-0.14","4","4","4","4","4","4","4","3","4","4","5","5","5","5","5","5","5","5","5","5","4","4","3","2","2","1","1","1","1","0","1","0","0","1","1","0","1","1","0","0","1","0","0","0","5","1","1","2","2","1","4","5","5","5","3","682985829311709184","刘","131","","","","","","","","","","","","","","","","","","","","","","","","","","","","","","","","","","","","","","","","","",""
"628","<p style=""color:rgb(150, 250, 100); font-size: 35px;"">别人</p>","e","categorize-html","137","312059","0.0-6.0-0.0-8.0-1.14","4","4","4","4","4","4","4","3","4","4","5","5","5","5","5","5","5","5","5","5","4","4","3","2","2","1","1","1","1","0","1","0","0","1","1","0","1","1","0","0","1","0","0","0","5","1","1","2","2","1","4","5","5","5","3","682985829311709184","刘","131","","","","","","","","","","","","","","","","","","","true","4","4","ability","628","other","别人","","","","","","","","","","","","","","","","",""
"null","","null","html-keyboard-response","138","312323","0.0-6.0-0.0-8.0-0.15","4","4","4","4","4","4","4","3","4","4","5","5","5","5","5","5","5","5","5","5","4","4","3","2","2","1","1","1","1","0","1","0","0","1","1","0","1","1","0","0","1","0","0","0","5","1","1","2","2","1","4","5","5","5","3","682985829311709184","刘","131","","","","","","","","","","","","","","","","","","","","","","","","","","","","","","","","","","","","","","","","","",""
"572","<p style=""color:white; font-size: 35px;"">废物</p>","i","categorize-html","139","312904","0.0-6.0-0.0-8.0-1.15","4","4","4","4","4","4","4","3","4","4","5","5","5","5","5","5","5","5","5","5","4","4","3","2","2","1","1","1","1","0","1","0","0","1","1","0","1","1","0","0","1","0","0","0","5","1","1","2","2","1","4","5","5","5","3","682985829311709184","刘","131","","","","","","","","","","","","","","","","","","","true","4","4","ability","572","negative","废物","","","","","","","","","","","","","","","","",""
"null","","null","html-keyboard-response","140","313158","0.0-6.0-0.0-8.0-0.16","4","4","4","4","4","4","4","3","4","4","5","5","5","5","5","5","5","5","5","5","4","4","3","2","2","1","1","1","1","0","1","0","0","1","1","0","1","1","0","0","1","0","0","0","5","1","1","2","2","1","4","5","5","5","3","682985829311709184","刘","131","","","","","","","","","","","","","","","","","","","","","","","","","","","","","","","","","","","","","","","","","",""
"636","<p style=""color:rgb(150, 250, 100); font-size: 35px;"">我</p>","i","categorize-html","141","313806","0.0-6.0-0.0-8.0-1.16","4","4","4","4","4","4","4","3","4","4","5","5","5","5","5","5","5","5","5","5","4","4","3","2","2","1","1","1","1","0","1","0","0","1","1","0","1","1","0","0","1","0","0","0","5","1","1","2","2","1","4","5","5","5","3","682985829311709184","刘","131","","","","","","","","","","","","","","","","","","","true","4","4","ability","636","self","我","","","","","","","","","","","","","","","","",""
"null","","null","html-keyboard-response","142","314061","0.0-6.0-0.0-8.0-0.17","4","4","4","4","4","4","4","3","4","4","5","5","5","5","5","5","5","5","5","5","4","4","3","2","2","1","1","1","1","0","1","0","0","1","1","0","1","1","0","0","1","0","0","0","5","1","1","2","2","1","4","5","5","5","3","682985829311709184","刘","131","","","","","","","","","","","","","","","","","","","","","","","","","","","","","","","","","","","","","","","","","",""
"628","<p style=""color:white; font-size: 35px;"">精干</p>","e","categorize-html","143","314698","0.0-6.0-0.0-8.0-1.17","4","4","4","4","4","4","4","3","4","4","5","5","5","5","5","5","5","5","5","5","4","4","3","2","2","1","1","1","1","0","1","0","0","1","1","0","1","1","0","0","1","0","0","0","5","1","1","2","2","1","4","5","5","5","3","682985829311709184","刘","131","","","","","","","","","","","","","","","","","","","true","4","4","ability","628","positive","精干","","","","","","","","","","","","","","","","",""
"null","","null","html-keyboard-response","144","314952","0.0-6.0-0.0-8.0-0.18","4","4","4","4","4","4","4","3","4","4","5","5","5","5","5","5","5","5","5","5","4","4","3","2","2","1","1","1","1","0","1","0","0","1","1","0","1","1","0","0","1","0","0","0","5","1","1","2","2","1","4","5","5","5","3","682985829311709184","刘","131","","","","","","","","","","","","","","","","","","","","","","","","","","","","","","","","","","","","","","","","","",""
"597","<p style=""color:rgb(150, 250, 100); font-size: 35px;"">别人的</p>","e","categorize-html","145","315559","0.0-6.0-0.0-8.0-1.18","4","4","4","4","4","4","4","3","4","4","5","5","5","5","5","5","5","5","5","5","4","4","3","2","2","1","1","1","1","0","1","0","0","1","1","0","1","1","0","0","1","0","0","0","5","1","1","2","2","1","4","5","5","5","3","682985829311709184","刘","131","","","","","","","","","","","","","","","","","","","true","4","4","ability","597","other","别人的","","","","","","","","","","","","","","","","",""
"null","","null","html-keyboard-response","146","315831","0.0-6.0-0.0-8.0-0.19","4","4","4","4","4","4","4","3","4","4","5","5","5","5","5","5","5","5","5","5","4","4","3","2","2","1","1","1","1","0","1","0","0","1","1","0","1","1","0","0","1","0","0","0","5","1","1","2","2","1","4","5","5","5","3","682985829311709184","刘","131","","","","","","","","","","","","","","","","","","","","","","","","","","","","","","","","","","","","","","","","","",""
"547","<p style=""color:white; font-size: 35px;"">愚钝</p>","i","categorize-html","147","316388","0.0-6.0-0.0-8.0-1.19","4","4","4","4","4","4","4","3","4","4","5","5","5","5","5","5","5","5","5","5","4","4","3","2","2","1","1","1","1","0","1","0","0","1","1","0","1","1","0","0","1","0","0","0","5","1","1","2","2","1","4","5","5","5","3","682985829311709184","刘","131","","","","","","","","","","","","","","","","","","","true","4","4","ability","547","negative","愚钝","","","","","","","","","","","","","","","","",""
"null","","null","html-keyboard-response","148","316642","0.0-6.0-0.0-8.0-0.20","4","4","4","4","4","4","4","3","4","4","5","5","5","5","5","5","5","5","5","5","4","4","3","2","2","1","1","1","1","0","1","0","0","1","1","0","1","1","0","0","1","0","0","0","5","1","1","2","2","1","4","5","5","5","3","682985829311709184","刘","131","","","","","","","","","","","","","","","","","","","","","","","","","","","","","","","","","","","","","","","","","",""
"530","<p style=""color:rgb(150, 250, 100); font-size: 35px;"">自己的</p>","i","categorize-html","149","317187","0.0-6.0-0.0-8.0-1.20","4","4","4","4","4","4","4","3","4","4","5","5","5","5","5","5","5","5","5","5","4","4","3","2","2","1","1","1","1","0","1","0","0","1","1","0","1","1","0","0","1","0","0","0","5","1","1","2","2","1","4","5","5","5","3","682985829311709184","刘","131","","","","","","","","","","","","","","","","","","","true","4","4","ability","530","self","自己的","","","","","","","","","","","","","","","","",""
"null","","null","html-keyboard-response","150","317441","0.0-6.0-0.0-8.0-0.21","4","4","4","4","4","4","4","3","4","4","5","5","5","5","5","5","5","5","5","5","4","4","3","2","2","1","1","1","1","0","1","0","0","1","1","0","1","1","0","0","1","0","0","0","5","1","1","2","2","1","4","5","5","5","3","682985829311709184","刘","131","","","","","","","","","","","","","","","","","","","","","","","","","","","","","","","","","","","","","","","","","",""
"667","<p style=""color:white; font-size: 35px;"">能干</p>","e","categorize-html","151","318121","0.0-6.0-0.0-8.0-1.21","4","4","4","4","4","4","4","3","4","4","5","5","5","5","5","5","5","5","5","5","4","4","3","2","2","1","1","1","1","0","1","0","0","1","1","0","1","1","0","0","1","0","0","0","5","1","1","2","2","1","4","5","5","5","3","682985829311709184","刘","131","","","","","","","","","","","","","","","","","","","true","4","4","ability","667","positive","能干","","","","","","","","","","","","","","","","",""
"null","","null","html-keyboard-response","152","318376","0.0-6.0-0.0-8.0-0.22","4","4","4","4","4","4","4","3","4","4","5","5","5","5","5","5","5","5","5","5","4","4","3","2","2","1","1","1","1","0","1","0","0","1","1","0","1","1","0","0","1","0","0","0","5","1","1","2","2","1","4","5","5","5","3","682985829311709184","刘","131","","","","","","","","","","","","","","","","","","","","","","","","","","","","","","","","","","","","","","","","","",""
"806","<p style=""color:rgb(150, 250, 100); font-size: 35px;"">别人</p>","e","categorize-html","153","319189","0.0-6.0-0.0-8.0-1.22","4","4","4","4","4","4","4","3","4","4","5","5","5","5","5","5","5","5","5","5","4","4","3","2","2","1","1","1","1","0","1","0","0","1","1","0","1","1","0","0","1","0","0","0","5","1","1","2","2","1","4","5","5","5","3","682985829311709184","刘","131","","","","","","","","","","","","","","","","","","","true","4","4","ability","806","other","别人","","","","","","","","","","","","","","","","",""
"null","","null","html-keyboard-response","154","319442","0.0-6.0-0.0-8.0-0.23","4","4","4","4","4","4","4","3","4","4","5","5","5","5","5","5","5","5","5","5","4","4","3","2","2","1","1","1","1","0","1","0","0","1","1","0","1","1","0","0","1","0","0","0","5","1","1","2","2","1","4","5","5","5","3","682985829311709184","刘","131","","","","","","","","","","","","","","","","","","","","","","","","","","","","","","","","","","","","","","","","","",""
"595","<p style=""color:white; font-size: 35px;"">无能</p>","i","categorize-html","155","320047","0.0-6.0-0.0-8.0-1.23","4","4","4","4","4","4","4","3","4","4","5","5","5","5","5","5","5","5","5","5","4","4","3","2","2","1","1","1","1","0","1","0","0","1","1","0","1","1","0","0","1","0","0","0","5","1","1","2","2","1","4","5","5","5","3","682985829311709184","刘","131","","","","","","","","","","","","","","","","","","","true","4","4","ability","595","negative","无能","","","","","","","","","","","","","","","","",""
"null","","null","html-keyboard-response","156","320300","0.0-6.0-0.0-8.0-0.24","4","4","4","4","4","4","4","3","4","4","5","5","5","5","5","5","5","5","5","5","4","4","3","2","2","1","1","1","1","0","1","0","0","1","1","0","1","1","0","0","1","0","0","0","5","1","1","2","2","1","4","5","5","5","3","682985829311709184","刘","131","","","","","","","","","","","","","","","","","","","","","","","","","","","","","","","","","","","","","","","","","",""
"753","<p style=""color:rgb(150, 250, 100); font-size: 35px;"">我的</p>","i","categorize-html","157","321062","0.0-6.0-0.0-8.0-1.24","4","4","4","4","4","4","4","3","4","4","5","5","5","5","5","5","5","5","5","5","4","4","3","2","2","1","1","1","1","0","1","0","0","1","1","0","1","1","0","0","1","0","0","0","5","1","1","2","2","1","4","5","5","5","3","682985829311709184","刘","131","","","","","","","","","","","","","","","","","","","true","4","4","ability","753","self","我的","","","","","","","","","","","","","","","","",""
"null","","null","html-keyboard-response","158","321317","0.0-6.0-0.0-8.0-0.25","4","4","4","4","4","4","4","3","4","4","5","5","5","5","5","5","5","5","5","5","4","4","3","2","2","1","1","1","1","0","1","0","0","1","1","0","1","1","0","0","1","0","0","0","5","1","1","2","2","1","4","5","5","5","3","682985829311709184","刘","131","","","","","","","","","","","","","","","","","","","","","","","","","","","","","","","","","","","","","","","","","",""
"960","<p style=""color:white; font-size: 35px;"">全能</p>","e","categorize-html","159","322288","0.0-6.0-0.0-8.0-1.25","4","4","4","4","4","4","4","3","4","4","5","5","5","5","5","5","5","5","5","5","4","4","3","2","2","1","1","1","1","0","1","0","0","1","1","0","1","1","0","0","1","0","0","0","5","1","1","2","2","1","4","5","5","5","3","682985829311709184","刘","131","","","","","","","","","","","","","","","","","","","true","4","4","ability","960","positive","全能","","","","","","","","","","","","","","","","",""
"null","","null","html-keyboard-response","160","322545","0.0-6.0-0.0-8.0-0.26","4","4","4","4","4","4","4","3","4","4","5","5","5","5","5","5","5","5","5","5","4","4","3","2","2","1","1","1","1","0","1","0","0","1","1","0","1","1","0","0","1","0","0","0","5","1","1","2","2","1","4","5","5","5","3","682985829311709184","刘","131","","","","","","","","","","","","","","","","","","","","","","","","","","","","","","","","","","","","","","","","","",""
"580","<p style=""color:rgb(150, 250, 100); font-size: 35px;"">别人的</p>","e","categorize-html","161","323134","0.0-6.0-0.0-8.0-1.26","4","4","4","4","4","4","4","3","4","4","5","5","5","5","5","5","5","5","5","5","4","4","3","2","2","1","1","1","1","0","1","0","0","1","1","0","1","1","0","0","1","0","0","0","5","1","1","2","2","1","4","5","5","5","3","682985829311709184","刘","131","","","","","","","","","","","","","","","","","","","true","4","4","ability","580","other","别人的","","","","","","","","","","","","","","","","",""
"null","","null","html-keyboard-response","162","323391","0.0-6.0-0.0-8.0-0.27","4","4","4","4","4","4","4","3","4","4","5","5","5","5","5","5","5","5","5","5","4","4","3","2","2","1","1","1","1","0","1","0","0","1","1","0","1","1","0","0","1","0","0","0","5","1","1","2","2","1","4","5","5","5","3","682985829311709184","刘","131","","","","","","","","","","","","","","","","","","","","","","","","","","","","","","","","","","","","","","","","","",""
"948","<p style=""color:white; font-size: 35px;"">无能</p>","i","categorize-html","163","324343","0.0-6.0-0.0-8.0-1.27","4","4","4","4","4","4","4","3","4","4","5","5","5","5","5","5","5","5","5","5","4","4","3","2","2","1","1","1","1","0","1","0","0","1","1","0","1","1","0","0","1","0","0","0","5","1","1","2","2","1","4","5","5","5","3","682985829311709184","刘","131","","","","","","","","","","","","","","","","","","","true","4","4","ability","948","negative","无能","","","","","","","","","","","","","","","","",""
"null","","null","html-keyboard-response","164","324596","0.0-6.0-0.0-8.0-0.28","4","4","4","4","4","4","4","3","4","4","5","5","5","5","5","5","5","5","5","5","4","4","3","2","2","1","1","1","1","0","1","0","0","1","1","0","1","1","0","0","1","0","0","0","5","1","1","2","2","1","4","5","5","5","3","682985829311709184","刘","131","","","","","","","","","","","","","","","","","","","","","","","","","","","","","","","","","","","","","","","","","",""
"570","<p style=""color:rgb(150, 250, 100); font-size: 35px;"">我的</p>","i","categorize-html","165","325176","0.0-6.0-0.0-8.0-1.28","4","4","4","4","4","4","4","3","4","4","5","5","5","5","5","5","5","5","5","5","4","4","3","2","2","1","1","1","1","0","1","0","0","1","1","0","1","1","0","0","1","0","0","0","5","1","1","2","2","1","4","5","5","5","3","682985829311709184","刘","131","","","","","","","","","","","","","","","","","","","true","4","4","ability","570","self","我的","","","","","","","","","","","","","","","","",""
"null","","null","html-keyboard-response","166","325431","0.0-6.0-0.0-8.0-0.29","4","4","4","4","4","4","4","3","4","4","5","5","5","5","5","5","5","5","5","5","4","4","3","2","2","1","1","1","1","0","1","0","0","1","1","0","1","1","0","0","1","0","0","0","5","1","1","2","2","1","4","5","5","5","3","682985829311709184","刘","131","","","","","","","","","","","","","","","","","","","","","","","","","","","","","","","","","","","","","","","","","",""
"534","<p style=""color:white; font-size: 35px;"">蠢笨</p>","i","categorize-html","167","325969","0.0-6.0-0.0-8.0-1.29","4","4","4","4","4","4","4","3","4","4","5","5","5","5","5","5","5","5","5","5","4","4","3","2","2","1","1","1","1","0","1","0","0","1","1","0","1","1","0","0","1","0","0","0","5","1","1","2","2","1","4","5","5","5","3","682985829311709184","刘","131","","","","","","","","","","","","","","","","","","","true","4","4","ability","534","negative","蠢笨","","","","","","","","","","","","","","","","",""
"null","","null","html-keyboard-response","168","326222","0.0-6.0-0.0-8.0-0.30","4","4","4","4","4","4","4","3","4","4","5","5","5","5","5","5","5","5","5","5","4","4","3","2","2","1","1","1","1","0","1","0","0","1","1","0","1","1","0","0","1","0","0","0","5","1","1","2","2","1","4","5","5","5","3","682985829311709184","刘","131","","","","","","","","","","","","","","","","","","","","","","","","","","","","","","","","","","","","","","","","","",""
"523","<p style=""color:rgb(150, 250, 100); font-size: 35px;"">他</p>","e","categorize-html","169","326761","0.0-6.0-0.0-8.0-1.30","4","4","4","4","4","4","4","3","4","4","5","5","5","5","5","5","5","5","5","5","4","4","3","2","2","1","1","1","1","0","1","0","0","1","1","0","1","1","0","0","1","0","0","0","5","1","1","2","2","1","4","5","5","5","3","682985829311709184","刘","131","","","","","","","","","","","","","","","","","","","true","4","4","ability","523","other","他","","","","","","","","","","","","","","","","",""
"null","","null","html-keyboard-response","170","327015","0.0-6.0-0.0-8.0-0.31","4","4","4","4","4","4","4","3","4","4","5","5","5","5","5","5","5","5","5","5","4","4","3","2","2","1","1","1","1","0","1","0","0","1","1","0","1","1","0","0","1","0","0","0","5","1","1","2","2","1","4","5","5","5","3","682985829311709184","刘","131","","","","","","","","","","","","","","","","","","","","","","","","","","","","","","","","","","","","","","","","","",""
"714","<p style=""color:white; font-size: 35px;"">高效</p>","e","categorize-html","171","327734","0.0-6.0-0.0-8.0-1.31","4","4","4","4","4","4","4","3","4","4","5","5","5","5","5","5","5","5","5","5","4","4","3","2","2","1","1","1","1","0","1","0","0","1","1","0","1","1","0","0","1","0","0","0","5","1","1","2","2","1","4","5","5","5","3","682985829311709184","刘","131","","","","","","","","","","","","","","","","","","","true","4","4","ability","714","positive","高效","","","","","","","","","","","","","","","","",""
"null","","null","html-keyboard-response","172","327987","0.0-6.0-0.0-8.0-0.32","4","4","4","4","4","4","4","3","4","4","5","5","5","5","5","5","5","5","5","5","4","4","3","2","2","1","1","1","1","0","1","0","0","1","1","0","1","1","0","0","1","0","0","0","5","1","1","2","2","1","4","5","5","5","3","682985829311709184","刘","131","","","","","","","","","","","","","","","","","","","","","","","","","","","","","","","","","","","","","","","","","",""
"522","<p style=""color:rgb(150, 250, 100); font-size: 35px;"">他</p>","e","categorize-html","173","328513","0.0-6.0-0.0-8.0-1.32","4","4","4","4","4","4","4","3","4","4","5","5","5","5","5","5","5","5","5","5","4","4","3","2","2","1","1","1","1","0","1","0","0","1","1","0","1","1","0","0","1","0","0","0","5","1","1","2","2","1","4","5","5","5","3","682985829311709184","刘","131","","","","","","","","","","","","","","","","","","","true","4","4","ability","522","other","他","","","","","","","","","","","","","","","","",""
"null","","null","html-keyboard-response","174","328766","0.0-6.0-0.0-8.0-0.33","4","4","4","4","4","4","4","3","4","4","5","5","5","5","5","5","5","5","5","5","4","4","3","2","2","1","1","1","1","0","1","0","0","1","1","0","1","1","0","0","1","0","0","0","5","1","1","2","2","1","4","5","5","5","3","682985829311709184","刘","131","","","","","","","","","","","","","","","","","","","","","","","","","","","","","","","","","","","","","","","","","",""
"482","<p style=""color:white; font-size: 35px;"">高效</p>","e","categorize-html","175","329261","0.0-6.0-0.0-8.0-1.33","4","4","4","4","4","4","4","3","4","4","5","5","5","5","5","5","5","5","5","5","4","4","3","2","2","1","1","1","1","0","1","0","0","1","1","0","1","1","0","0","1","0","0","0","5","1","1","2","2","1","4","5","5","5","3","682985829311709184","刘","131","","","","","","","","","","","","","","","","","","","true","4","4","ability","482","positive","高效","","","","","","","","","","","","","","","","",""
"null","","null","html-keyboard-response","176","329515","0.0-6.0-0.0-8.0-0.34","4","4","4","4","4","4","4","3","4","4","5","5","5","5","5","5","5","5","5","5","4","4","3","2","2","1","1","1","1","0","1","0","0","1","1","0","1","1","0","0","1","0","0","0","5","1","1","2","2","1","4","5","5","5","3","682985829311709184","刘","131","","","","","","","","","","","","","","","","","","","","","","","","","","","","","","","","","","","","","","","","","",""
"594","<p style=""color:rgb(150, 250, 100); font-size: 35px;"">我</p>","i","categorize-html","177","330121","0.0-6.0-0.0-8.0-1.34","4","4","4","4","4","4","4","3","4","4","5","5","5","5","5","5","5","5","5","5","4","4","3","2","2","1","1","1","1","0","1","0","0","1","1","0","1","1","0","0","1","0","0","0","5","1","1","2","2","1","4","5","5","5","3","682985829311709184","刘","131","","","","","","","","","","","","","","","","","","","true","4","4","ability","594","self","我","","","","","","","","","","","","","","","","",""
"null","","null","html-keyboard-response","178","330377","0.0-6.0-0.0-8.0-0.35","4","4","4","4","4","4","4","3","4","4","5","5","5","5","5","5","5","5","5","5","4","4","3","2","2","1","1","1","1","0","1","0","0","1","1","0","1","1","0","0","1","0","0","0","5","1","1","2","2","1","4","5","5","5","3","682985829311709184","刘","131","","","","","","","","","","","","","","","","","","","","","","","","","","","","","","","","","","","","","","","","","",""
"488","<p style=""color:white; font-size: 35px;"">蠢笨</p>","i","categorize-html","179","330874","0.0-6.0-0.0-8.0-1.35","4","4","4","4","4","4","4","3","4","4","5","5","5","5","5","5","5","5","5","5","4","4","3","2","2","1","1","1","1","0","1","0","0","1","1","0","1","1","0","0","1","0","0","0","5","1","1","2","2","1","4","5","5","5","3","682985829311709184","刘","131","","","","","","","","","","","","","","","","","","","true","4","4","ability","488","negative","蠢笨","","","","","","","","","","","","","","","","",""
"null","","null","html-keyboard-response","180","331132","0.0-6.0-0.0-8.0-0.36","4","4","4","4","4","4","4","3","4","4","5","5","5","5","5","5","5","5","5","5","4","4","3","2","2","1","1","1","1","0","1","0","0","1","1","0","1","1","0","0","1","0","0","0","5","1","1","2","2","1","4","5","5","5","3","682985829311709184","刘","131","","","","","","","","","","","","","","","","","","","","","","","","","","","","","","","","","","","","","","","","","",""
"901","<p style=""color:rgb(150, 250, 100); font-size: 35px;"">本人的</p>","i","categorize-html","181","332045","0.0-6.0-0.0-8.0-1.36","4","4","4","4","4","4","4","3","4","4","5","5","5","5","5","5","5","5","5","5","4","4","3","2","2","1","1","1","1","0","1","0","0","1","1","0","1","1","0","0","1","0","0","0","5","1","1","2","2","1","4","5","5","5","3","682985829311709184","刘","131","","","","","","","","","","","","","","","","","","","true","4","4","ability","901","self","本人的","","","","","","","","","","","","","","","","",""
"null","","null","html-keyboard-response","182","332299","0.0-6.0-0.0-8.0-0.37","4","4","4","4","4","4","4","3","4","4","5","5","5","5","5","5","5","5","5","5","4","4","3","2","2","1","1","1","1","0","1","0","0","1","1","0","1","1","0","0","1","0","0","0","5","1","1","2","2","1","4","5","5","5","3","682985829311709184","刘","131","","","","","","","","","","","","","","","","","","","","","","","","","","","","","","","","","","","","","","","","","",""
"612","<p style=""color:white; font-size: 35px;"">低能</p>","i","categorize-html","183","332923","0.0-6.0-0.0-8.0-1.37","4","4","4","4","4","4","4","3","4","4","5","5","5","5","5","5","5","5","5","5","4","4","3","2","2","1","1","1","1","0","1","0","0","1","1","0","1","1","0","0","1","0","0","0","5","1","1","2","2","1","4","5","5","5","3","682985829311709184","刘","131","","","","","","","","","","","","","","","","","","","true","4","4","ability","612","negative","低能","","","","","","","","","","","","","","","","",""
"null","","null","html-keyboard-response","184","333178","0.0-6.0-0.0-8.0-0.38","4","4","4","4","4","4","4","3","4","4","5","5","5","5","5","5","5","5","5","5","4","4","3","2","2","1","1","1","1","0","1","0","0","1","1","0","1","1","0","0","1","0","0","0","5","1","1","2","2","1","4","5","5","5","3","682985829311709184","刘","131","","","","","","","","","","","","","","","","","","","","","","","","","","","","","","","","","","","","","","","","","",""
"700","<p style=""color:rgb(150, 250, 100); font-size: 35px;"">他的</p>","e","categorize-html","185","333887","0.0-6.0-0.0-8.0-1.38","4","4","4","4","4","4","4","3","4","4","5","5","5","5","5","5","5","5","5","5","4","4","3","2","2","1","1","1","1","0","1","0","0","1","1","0","1","1","0","0","1","0","0","0","5","1","1","2","2","1","4","5","5","5","3","682985829311709184","刘","131","","","","","","","","","","","","","","","","","","","true","4","4","ability","700","other","他的","","","","","","","","","","","","","","","","",""
"null","","null","html-keyboard-response","186","334159","0.0-6.0-0.0-8.0-0.39","4","4","4","4","4","4","4","3","4","4","5","5","5","5","5","5","5","5","5","5","4","4","3","2","2","1","1","1","1","0","1","0","0","1","1","0","1","1","0","0","1","0","0","0","5","1","1","2","2","1","4","5","5","5","3","682985829311709184","刘","131","","","","","","","","","","","","","","","","","","","","","","","","","","","","","","","","","","","","","","","","","",""
"564","<p style=""color:white; font-size: 35px;"">全才</p>","e","categorize-html","187","334734","0.0-6.0-0.0-8.0-1.39","4","4","4","4","4","4","4","3","4","4","5","5","5","5","5","5","5","5","5","5","4","4","3","2","2","1","1","1","1","0","1","0","0","1","1","0","1","1","0","0","1","0","0","0","5","1","1","2","2","1","4","5","5","5","3","682985829311709184","刘","131","","","","","","","","","","","","","","","","","","","true","4","4","ability","564","positive","全才","","","","","","","","","","","","","","","","",""
"null","","null","html-keyboard-response","188","334991","0.0-6.0-0.0-8.0-0.40","4","4","4","4","4","4","4","3","4","4","5","5","5","5","5","5","5","5","5","5","4","4","3","2","2","1","1","1","1","0","1","0","0","1","1","0","1","1","0","0","1","0","0","0","5","1","1","2","2","1","4","5","5","5","3","682985829311709184","刘","131","","","","","","","","","","","","","","","","","","","","","","","","","","","","","","","","","","","","","","","","","",""
"482","<p style=""color:rgb(150, 250, 100); font-size: 35px;"">他人</p>","e","categorize-html","189","335485","0.0-6.0-0.0-8.0-1.40","4","4","4","4","4","4","4","3","4","4","5","5","5","5","5","5","5","5","5","5","4","4","3","2","2","1","1","1","1","0","1","0","0","1","1","0","1","1","0","0","1","0","0","0","5","1","1","2","2","1","4","5","5","5","3","682985829311709184","刘","131","","","","","","","","","","","","","","","","","","","true","4","4","ability","482","other","他人","","","","","","","","","","","","","","","","",""
"null","","null","html-keyboard-response","190","335740","0.0-6.0-0.0-8.0-0.41","4","4","4","4","4","4","4","3","4","4","5","5","5","5","5","5","5","5","5","5","4","4","3","2","2","1","1","1","1","0","1","0","0","1","1","0","1","1","0","0","1","0","0","0","5","1","1","2","2","1","4","5","5","5","3","682985829311709184","刘","131","","","","","","","","","","","","","","","","","","","","","","","","","","","","","","","","","","","","","","","","","",""
"688","<p style=""color:white; font-size: 35px;"">拙笨</p>","i","categorize-html","191","336438","0.0-6.0-0.0-8.0-1.41","4","4","4","4","4","4","4","3","4","4","5","5","5","5","5","5","5","5","5","5","4","4","3","2","2","1","1","1","1","0","1","0","0","1","1","0","1","1","0","0","1","0","0","0","5","1","1","2","2","1","4","5","5","5","3","682985829311709184","刘","131","","","","","","","","","","","","","","","","","","","true","4","4","ability","688","negative","拙笨","","","","","","","","","","","","","","","","",""
"null","","null","html-keyboard-response","192","336695","0.0-6.0-0.0-8.0-0.42","4","4","4","4","4","4","4","3","4","4","5","5","5","5","5","5","5","5","5","5","4","4","3","2","2","1","1","1","1","0","1","0","0","1","1","0","1","1","0","0","1","0","0","0","5","1","1","2","2","1","4","5","5","5","3","682985829311709184","刘","131","","","","","","","","","","","","","","","","","","","","","","","","","","","","","","","","","","","","","","","","","",""
"1013","<p style=""color:rgb(150, 250, 100); font-size: 35px;"">本人</p>","i","categorize-html","193","337720","0.0-6.0-0.0-8.0-1.42","4","4","4","4","4","4","4","3","4","4","5","5","5","5","5","5","5","5","5","5","4","4","3","2","2","1","1","1","1","0","1","0","0","1","1","0","1","1","0","0","1","0","0","0","5","1","1","2","2","1","4","5","5","5","3","682985829311709184","刘","131","","","","","","","","","","","","","","","","","","","true","4","4","ability","1013","self","本人","","","","","","","","","","","","","","","","",""
