"rt","stimulus","response","trial_type","trial_index","time_elapsed","internal_node_id","ses_1","ses_2","ses_3","ses_4","ses_5","ses_6","ses_7","ses_8","ses_9","ses_10","coreself_1","coreself_2","coreself_3","coreself_4","coreself_5","coreself_6","coreself_7","coreself_8","coreself_9","coreself_10","SGPS_1","SGPS_2","SGPS_3","SGPS_4","SGPS_5","SGPS_6","SGPS_7","SGPS_8","SGPS_9","NPI1","NPI2","NPI3","NPI4","NPI5","NPI6","NPI7","NPI8","NPI9","NPI10","NPI11","NPI12","NPI13","NPI14","NPI15","hsns_1","hsns_2","hsns_3","hsns_4","hsns_5","trap1","hsns_6","hsns_7","hsns_8","hsns_9","hsns_10","subj_idx","friend_name","ParticipantID","value","success","user_agent","responses","item_order","radio_event_ids","radio_event_times","key_event_times","mouse_event_times","straightlining","zigzagging","honeypot","timeout","failed_images","failed_audio","failed_video","view_history","response_type","key_press","avg_frame_time","center_x","center_y","correct_response","correct","identity","Image","word","condition","task_id","screen_id","time_stamp","version_attrib2","version_target2","IAT","RT","varname","summary","version_attrib","version_target","question_order","correct_answer","trap1_item"
"9979","
   <p><div style = ""color: white;font-size:25px;"">您好，欢迎参加本次实验。</div> </p>
   <p><div style = ""color: white;font-size:25px;"">为充分保障您的权利，请确保您已经知晓并同意《参与实验同意书》以及《数据公开知情同意书》。</div></p>
   <p><div style = ""color: white;font-size:25px;"">如果您未见过上述内容，请咨询实验员。</div></p>
   <p><div style = ""color: white;font-size:25px;"">如果您选择继续实验，则表示您已经清楚两份知情同意书的内容并同意。</div></p>
   <p><div style = ""color: pink;font-size:30px;"">请确保您记得day0的实验编号，您将在本次实验输入该编号，若您忘记，请咨询实验员后作答。</div></p>
   <p><div style = ""color: lightblue;font-size:25px;"">请您尽可能认真地作答，我们将依据您在各问卷和按键任务中的作答质量发放报酬。</div></p>
   <p> <div style = ""color: green;font-size:25px;""><按空格键至下页></div> </p>
   "," ","html-keyboard-response","0","9985","0.0-0.0","4","3","4","3","4","3","3","4","4","4","4","4","3","4","3","4","4","3","4","4","3","2","2","2","2","2","2","2","2","0","1","0","0","0","0","0","0","0","0","1","1","0","0","0","4","2","2","1","2","4","3","3","2","2","1","565234044011282432","王","345","","","","","","","","","","","","","","","","","","","","","","","","","","","","","","","","","","","","","","","","","",""
"","","","call-function","1","9988","0.0-1.0-0.0","4","3","4","3","4","3","3","4","4","4","4","4","3","4","3","4","4","3","4","4","3","2","2","2","2","2","2","2","2","0","1","0","0","0","0","0","0","0","0","1","1","0","0","0","4","2","2","1","2","4","3","3","2","2","1","565234044011282432","王","345","","","","","","","","","","","","","","","","","","","","","","","","","","","","","","","","","","","","","","","","","",""
"31069","","{""friend_name"":""王"",""ParticipantID"":""345""}","survey-html-form","2","41059","0.0-1.0-1.0","4","3","4","3","4","3","3","4","4","4","4","4","3","4","3","4","4","3","4","4","3","2","2","2","2","2","2","2","2","0","1","0","0","0","0","0","0","0","0","1","1","0","0","0","4","2","2","1","2","4","3","3","2","2","1","565234044011282432","王","345","","","","","","","","","","","","","","","","","","","","","","","","","","","","","","","","","","","","","","","","","",""
"","","","fullscreen","3","50644","0.0-2.0","4","3","4","3","4","3","3","4","4","4","4","4","3","4","3","4","4","3","4","4","3","2","2","2","2","2","2","2","2","0","1","0","0","0","0","0","0","0","0","1","1","0","0","0","4","2","2","1","2","4","3","3","2","2","1","565234044011282432","王","345","","true","{}","","","","","","","","","","","","","","","","","","","","","","","","","","","","","","","","","","","","","","",""
"60872.79999999999","","{""Q01"":""4"",""Q02"":""3"",""Q03"":""4"",""Q04"":""3"",""Q05"":""4"",""Q06"":""3"",""Q07"":""3"",""Q08"":""4"",""Q09"":""4"",""Q10"":""4""}","survey-template","4","111522","0.0-3.0","4","3","4","3","4","3","3","4","4","4","4","4","3","4","3","4","4","3","4","4","3","2","2","2","2","2","2","2","2","0","1","0","0","0","0","0","0","0","0","1","1","0","0","0","4","2","2","1","2","4","3","3","2","2","1","565234044011282432","王","345","","","","{""Q01"":""4"",""Q02"":""3"",""Q03"":""4"",""Q04"":""3"",""Q05"":""4"",""Q06"":""3"",""Q07"":""3"",""Q08"":""4"",""Q09"":""4"",""Q10"":""4""}","[0,1,2,3,4,5,6,7,8,9]","[""Q01"",""Q02"",""Q03"",""Q04"",""Q05"",""Q06"",""Q07"",""Q08"",""Q08"",""Q09"",""Q10""]","[7419.6999999999825,11578.699999999983,14333.5,18509.199999999983,23802.699999999983,25308.29999999999,30701.600000000006,36423,44698.600000000006,52107.100000000006,57466.79999999999]","[]","[7419.6999999999825,11578.699999999983,14333.5,17358,18509.199999999983,23802.699999999983,25308.29999999999,30701.600000000006,36423,44698.600000000006,52107.100000000006,57466.79999999999,60869.5]","0.5","0.1111111111111111","0","","","","","","","","","","","","","","","","","","","","","","","","","","","","","",""
"35865.40000000002","","{""Q01"":""4"",""Q02"":""4"",""Q03"":""3"",""Q04"":""4"",""Q05"":""3"",""Q06"":""4"",""Q07"":""4"",""Q08"":""3"",""Q09"":""4"",""Q10"":""4""}","survey-template","5","147402","0.0-4.0","4","3","4","3","4","3","3","4","4","4","4","4","3","4","3","4","4","3","4","4","3","2","2","2","2","2","2","2","2","0","1","0","0","0","0","0","0","0","0","1","1","0","0","0","4","2","2","1","2","4","3","3","2","2","1","565234044011282432","王","345","","","","{""Q01"":""4"",""Q02"":""4"",""Q03"":""3"",""Q04"":""4"",""Q05"":""3"",""Q06"":""4"",""Q07"":""4"",""Q08"":""3"",""Q09"":""4"",""Q10"":""4""}","[0,1,2,3,4,5,6,7,8,9]","[""Q01"",""Q02"",""Q03"",""Q04"",""Q05"",""Q06"",""Q07"",""Q08"",""Q09"",""Q10""]","[4117,6001.700000000012,13117,14465.400000000023,18282,20214.20000000001,23359,27106.100000000035,30885.29999999999,34224.20000000001]","[]","[4117,6001.700000000012,13117,14465.400000000023,18282,20214.20000000001,21728.600000000035,23359,27106.100000000035,30885.29999999999,32596.600000000035,34224.20000000001,35864]","0.4","0.6666666666666666","0","","","","","","","","","","","","","","","","","","","","","","","","","","","","","",""
"","","","preload","6","147737","0.0-5.0","4","3","4","3","4","3","3","4","4","4","4","4","3","4","3","4","4","3","4","4","3","2","2","2","2","2","2","2","2","0","1","0","0","0","0","0","0","0","0","1","1","0","0","0","4","2","2","1","2","4","3","3","2","2","1","565234044011282432","王","345","","true","","","","","","","","","","","false","[]","[]","[]","","","","","","","","","","","","","","","","","","","","","","","","","",""
"20132","","","instructions","7","167870","0.0-6.0","4","3","4","3","4","3","3","4","4","4","4","4","3","4","3","4","4","3","4","4","3","2","2","2","2","2","2","2","2","0","1","0","0","0","0","0","0","0","0","1","1","0","0","0","4","2","2","1","2","4","3","3","2","2","1","565234044011282432","王","345","","","","","","","","","","","","","","","","","[{""page_index"":0,""viewing_time"":20131}]","","","","","","","","","","","","","","","","","","","","","","","","",""
"31147","","","instructions","8","199019","0.0-7.0-0.0-0.0","4","3","4","3","4","3","3","4","4","4","4","4","3","4","3","4","4","3","4","4","3","2","2","2","2","2","2","2","2","0","1","0","0","0","0","0","0","0","0","1","1","0","0","0","4","2","2","1","2","4","3","3","2","2","1","565234044011282432","王","345","","","","","","","","","","","","","","","","","[{""page_index"":0,""viewing_time"":17525},{""page_index"":1,""viewing_time"":10425},{""page_index"":2,""viewing_time"":3197}]","","","","","","","","","","","","","","","","","","","","","","","","",""
"925","","f","psychophysics","9","200950","0.0-7.0-0.0-1.0-0.0-0.0","4","3","4","3","4","3","3","4","4","4","4","4","3","4","3","4","4","3","4","4","3","2","2","2","2","2","2","2","2","0","1","0","0","0","0","0","0","0","0","1","1","0","0","0","4","2","2","1","2","4","3","3","2","2","1","565234044011282432","王","345","","","","nonmatch","","","","","","","","","","","","","","key","f","16.639130434782608","640","356","j","false","match","img/trapezoid.png","梯形","梯形","ALT1_1","prac_ALT1_1","","","","","","","","","","","",""
"null","<span style='color:red; font-size: 70px;'>错误! </span>","null","html-keyboard-response","10","201452","0.0-7.0-0.0-1.0-0.0-1.0","4","3","4","3","4","3","3","4","4","4","4","4","3","4","3","4","4","3","4","4","3","2","2","2","2","2","2","2","2","0","1","0","0","0","0","0","0","0","0","1","1","0","0","0","4","2","2","1","2","4","3","3","2","2","1","565234044011282432","王","345","","","","","","","","","","","","","","","","","","","","","","","","","","","","","","feedback_test","","","","","","","","","","","",""
"953","","f","psychophysics","11","203416","0.0-7.0-0.0-1.0-0.0-0.1","4","3","4","3","4","3","3","4","4","4","4","4","3","4","3","4","4","3","4","4","3","2","2","2","2","2","2","2","2","0","1","0","0","0","0","0","0","0","0","1","1","0","0","0","4","2","2","1","2","4","3","3","2","2","1","565234044011282432","王","345","","","","nonmatch","","","","","","","","","","","","","","key","f","16.644444444444396","640","356","f","true","nonmatch","img/circle.png","方形","圆形","ALT1_1","prac_ALT1_1","","","","","","","","","","","",""
"null","<span style='color:GreenYellow; font-size: 70px;'>正确! </span>","null","html-keyboard-response","12","203918","0.0-7.0-0.0-1.0-0.0-1.1","4","3","4","3","4","3","3","4","4","4","4","4","3","4","3","4","4","3","4","4","3","2","2","2","2","2","2","2","2","0","1","0","0","0","0","0","0","0","0","1","1","0","0","0","4","2","2","1","2","4","3","3","2","2","1","565234044011282432","王","345","","","","","","","","","","","","","","","","","","","","","","","","","","","","","","feedback_test","","","","","","","","","","","",""
"698","","f","psychophysics","13","205624","0.0-7.0-0.0-1.0-0.0-0.2","4","3","4","3","4","3","3","4","4","4","4","4","3","4","3","4","4","3","4","4","3","2","2","2","2","2","2","2","2","0","1","0","0","0","0","0","0","0","0","1","1","0","0","0","4","2","2","1","2","4","3","3","2","2","1","565234044011282432","王","345","","","","nonmatch","","","","","","","","","","","","","","key","f","16.650495049504777","640","356","j","false","match","img/pentagon.png","五边","五边","ALT1_1","prac_ALT1_1","","","","","","","","","","","",""
"null","<span style='color:red; font-size: 70px;'>错误! </span>","null","html-keyboard-response","14","206155","0.0-7.0-0.0-1.0-0.0-1.2","4","3","4","3","4","3","3","4","4","4","4","4","3","4","3","4","4","3","4","4","3","2","2","2","2","2","2","2","2","0","1","0","0","0","0","0","0","0","0","1","1","0","0","0","4","2","2","1","2","4","3","3","2","2","1","565234044011282432","王","345","","","","","","","","","","","","","","","","","","","","","","","","","","","","","","feedback_test","","","","","","","","","","","",""
"1073","","f","psychophysics","15","208244","0.0-7.0-0.0-1.0-0.0-0.3","4","3","4","3","4","3","3","4","4","4","4","4","3","4","3","4","4","3","4","4","3","2","2","2","2","2","2","2","2","0","1","0","0","0","0","0","0","0","0","1","1","0","0","0","4","2","2","1","2","4","3","3","2","2","1","565234044011282432","王","345","","","","nonmatch","","","","","","","","","","","","","","key","f","16.65040000000014","640","356","f","true","nonmatch","img/pentagon.png","梯形","五边","ALT1_1","prac_ALT1_1","","","","","","","","","","","",""
"null","<span style='color:GreenYellow; font-size: 70px;'>正确! </span>","null","html-keyboard-response","16","208747","0.0-7.0-0.0-1.0-0.0-1.3","4","3","4","3","4","3","3","4","4","4","4","4","3","4","3","4","4","3","4","4","3","2","2","2","2","2","2","2","2","0","1","0","0","0","0","0","0","0","0","1","1","0","0","0","4","2","2","1","2","4","3","3","2","2","1","565234044011282432","王","345","","","","","","","","","","","","","","","","","","","","","","","","","","","","","","feedback_test","","","","","","","","","","","",""
"777","","f","psychophysics","17","210526","0.0-7.0-0.0-1.0-0.0-0.4","4","3","4","3","4","3","3","4","4","4","4","4","3","4","3","4","4","3","4","4","3","2","2","2","2","2","2","2","2","0","1","0","0","0","0","0","0","0","0","1","1","0","0","0","4","2","2","1","2","4","3","3","2","2","1","565234044011282432","王","345","","","","nonmatch","","","","","","","","","","","","","","key","f","16.642452830188734","640","356","f","true","nonmatch","img/circle.png","梯形","圆形","ALT1_1","prac_ALT1_1","","","","","","","","","","","",""
"null","<span style='color:GreenYellow; font-size: 70px;'>正确! </span>","null","html-keyboard-response","18","211033","0.0-7.0-0.0-1.0-0.0-1.4","4","3","4","3","4","3","3","4","4","4","4","4","3","4","3","4","4","3","4","4","3","2","2","2","2","2","2","2","2","0","1","0","0","0","0","0","0","0","0","1","1","0","0","0","4","2","2","1","2","4","3","3","2","2","1","565234044011282432","王","345","","","","","","","","","","","","","","","","","","","","","","","","","","","","","","feedback_test","","","","","","","","","","","",""
"652","","j","psychophysics","19","212690","0.0-7.0-0.0-1.0-0.0-0.5","4","3","4","3","4","3","3","4","4","4","4","4","3","4","3","4","4","3","4","4","3","2","2","2","2","2","2","2","2","0","1","0","0","0","0","0","0","0","0","1","1","0","0","0","4","2","2","1","2","4","3","3","2","2","1","565234044011282432","王","345","","","","match","","","","","","","","","","","","","","key","j","16.648979591836795","640","356","j","true","match","img/circle.png","圆形","圆形","ALT1_1","prac_ALT1_1","","","","","","","","","","","",""
"null","<span style='color:GreenYellow; font-size: 70px;'>正确! </span>","null","html-keyboard-response","20","213202","0.0-7.0-0.0-1.0-0.0-1.5","4","3","4","3","4","3","3","4","4","4","4","4","3","4","3","4","4","3","4","4","3","2","2","2","2","2","2","2","2","0","1","0","0","0","0","0","0","0","0","1","1","0","0","0","4","2","2","1","2","4","3","3","2","2","1","565234044011282432","王","345","","","","","","","","","","","","","","","","","","","","","","","","","","","","","","feedback_test","","","","","","","","","","","",""
"614","","j","psychophysics","21","214831","0.0-7.0-0.0-1.0-0.0-0.6","4","3","4","3","4","3","3","4","4","4","4","4","3","4","3","4","4","3","4","4","3","2","2","2","2","2","2","2","2","0","1","0","0","0","0","0","0","0","0","1","1","0","0","0","4","2","2","1","2","4","3","3","2","2","1","565234044011282432","王","345","","","","match","","","","","","","","","","","","","","key","j","16.650515463917586","640","356","j","true","match","img/circle.png","圆形","圆形","ALT1_1","prac_ALT1_1","","","","","","","","","","","",""
"null","<span style='color:GreenYellow; font-size: 70px;'>正确! </span>","null","html-keyboard-response","22","215338","0.0-7.0-0.0-1.0-0.0-1.6","4","3","4","3","4","3","3","4","4","4","4","4","3","4","3","4","4","3","4","4","3","2","2","2","2","2","2","2","2","0","1","0","0","0","0","0","0","0","0","1","1","0","0","0","4","2","2","1","2","4","3","3","2","2","1","565234044011282432","王","345","","","","","","","","","","","","","","","","","","","","","","","","","","","","","","feedback_test","","","","","","","","","","","",""
"943","","f","psychophysics","23","217285","0.0-7.0-0.0-1.0-0.0-0.7","4","3","4","3","4","3","3","4","4","4","4","4","3","4","3","4","4","3","4","4","3","2","2","2","2","2","2","2","2","0","1","0","0","0","0","0","0","0","0","1","1","0","0","0","4","2","2","1","2","4","3","3","2","2","1","565234044011282432","王","345","","","","nonmatch","","","","","","","","","","","","","","key","f","16.651724137930835","640","356","f","true","nonmatch","img/trapezoid.png","方形","梯形","ALT1_1","prac_ALT1_1","","","","","","","","","","","",""
"null","<span style='color:GreenYellow; font-size: 70px;'>正确! </span>","null","html-keyboard-response","24","217791","0.0-7.0-0.0-1.0-0.0-1.7","4","3","4","3","4","3","3","4","4","4","4","4","3","4","3","4","4","3","4","4","3","2","2","2","2","2","2","2","2","0","1","0","0","0","0","0","0","0","0","1","1","0","0","0","4","2","2","1","2","4","3","3","2","2","1","565234044011282432","王","345","","","","","","","","","","","","","","","","","","","","","","","","","","","","","","feedback_test","","","","","","","","","","","",""
"747","","f","psychophysics","25","219545","0.0-7.0-0.0-1.0-0.0-0.8","4","3","4","3","4","3","3","4","4","4","4","4","3","4","3","4","4","3","4","4","3","2","2","2","2","2","2","2","2","0","1","0","0","0","0","0","0","0","0","1","1","0","0","0","4","2","2","1","2","4","3","3","2","2","1","565234044011282432","王","345","","","","nonmatch","","","","","","","","","","","","","","key","f","16.650000000000055","640","356","f","true","nonmatch","img/trapezoid.png","圆形","梯形","ALT1_1","prac_ALT1_1","","","","","","","","","","","",""
"null","<span style='color:GreenYellow; font-size: 70px;'>正确! </span>","null","html-keyboard-response","26","220070","0.0-7.0-0.0-1.0-0.0-1.8","4","3","4","3","4","3","3","4","4","4","4","4","3","4","3","4","4","3","4","4","3","2","2","2","2","2","2","2","2","0","1","0","0","0","0","0","0","0","0","1","1","0","0","0","4","2","2","1","2","4","3","3","2","2","1","565234044011282432","王","345","","","","","","","","","","","","","","","","","","","","","","","","","","","","","","feedback_test","","","","","","","","","","","",""
"677","","f","psychophysics","27","221764","0.0-7.0-0.0-1.0-0.0-0.9","4","3","4","3","4","3","3","4","4","4","4","4","3","4","3","4","4","3","4","4","3","2","2","2","2","2","2","2","2","0","1","0","0","0","0","0","0","0","0","1","1","0","0","0","4","2","2","1","2","4","3","3","2","2","1","565234044011282432","王","345","","","","nonmatch","","","","","","","","","","","","","","key","f","16.64554455445556","640","356","f","true","nonmatch","img/square.png","梯形","方形","ALT1_1","prac_ALT1_1","","","","","","","","","","","",""
"null","<span style='color:GreenYellow; font-size: 70px;'>正确! </span>","null","html-keyboard-response","28","222272","0.0-7.0-0.0-1.0-0.0-1.9","4","3","4","3","4","3","3","4","4","4","4","4","3","4","3","4","4","3","4","4","3","2","2","2","2","2","2","2","2","0","1","0","0","0","0","0","0","0","0","1","1","0","0","0","4","2","2","1","2","4","3","3","2","2","1","565234044011282432","王","345","","","","","","","","","","","","","","","","","","","","","","","","","","","","","","feedback_test","","","","","","","","","","","",""
"574","","j","psychophysics","29","223852","0.0-7.0-0.0-1.0-0.0-0.10","4","3","4","3","4","3","3","4","4","4","4","4","3","4","3","4","4","3","4","4","3","2","2","2","2","2","2","2","2","0","1","0","0","0","0","0","0","0","0","1","1","0","0","0","4","2","2","1","2","4","3","3","2","2","1","565234044011282432","王","345","","","","match","","","","","","","","","","","","","","key","j","16.651612903225868","640","356","j","true","match","img/square.png","方形","方形","ALT1_1","prac_ALT1_1","","","","","","","","","","","",""
"null","<span style='color:GreenYellow; font-size: 70px;'>正确! </span>","null","html-keyboard-response","30","224355","0.0-7.0-0.0-1.0-0.0-1.10","4","3","4","3","4","3","3","4","4","4","4","4","3","4","3","4","4","3","4","4","3","2","2","2","2","2","2","2","2","0","1","0","0","0","0","0","0","0","0","1","1","0","0","0","4","2","2","1","2","4","3","3","2","2","1","565234044011282432","王","345","","","","","","","","","","","","","","","","","","","","","","","","","","","","","","feedback_test","","","","","","","","","","","",""
"698","","j","psychophysics","31","226056","0.0-7.0-0.0-1.0-0.0-0.11","4","3","4","3","4","3","3","4","4","4","4","4","3","4","3","4","4","3","4","4","3","2","2","2","2","2","2","2","2","0","1","0","0","0","0","0","0","0","0","1","1","0","0","0","4","2","2","1","2","4","3","3","2","2","1","565234044011282432","王","345","","","","match","","","","","","","","","","","","","","key","j","16.649504950495107","640","356","j","true","match","img/pentagon.png","五边","五边","ALT1_1","prac_ALT1_1","","","","","","","","","","","",""
"null","<span style='color:GreenYellow; font-size: 70px;'>正确! </span>","null","html-keyboard-response","32","226560","0.0-7.0-0.0-1.0-0.0-1.11","4","3","4","3","4","3","3","4","4","4","4","4","3","4","3","4","4","3","4","4","3","2","2","2","2","2","2","2","2","0","1","0","0","0","0","0","0","0","0","1","1","0","0","0","4","2","2","1","2","4","3","3","2","2","1","565234044011282432","王","345","","","","","","","","","","","","","","","","","","","","","","","","","","","","","","feedback_test","","","","","","","","","","","",""
"697","","f","psychophysics","33","228262","0.0-7.0-0.0-1.0-0.0-0.12","4","3","4","3","4","3","3","4","4","4","4","4","3","4","3","4","4","3","4","4","3","2","2","2","2","2","2","2","2","0","1","0","0","0","0","0","0","0","0","1","1","0","0","0","4","2","2","1","2","4","3","3","2","2","1","565234044011282432","王","345","","","","nonmatch","","","","","","","","","","","","","","key","f","16.650495049504777","640","356","f","true","nonmatch","img/pentagon.png","圆形","五边","ALT1_1","prac_ALT1_1","","","","","","","","","","","",""
"null","<span style='color:GreenYellow; font-size: 70px;'>正确! </span>","null","html-keyboard-response","34","228772","0.0-7.0-0.0-1.0-0.0-1.12","4","3","4","3","4","3","3","4","4","4","4","4","3","4","3","4","4","3","4","4","3","2","2","2","2","2","2","2","2","0","1","0","0","0","0","0","0","0","0","1","1","0","0","0","4","2","2","1","2","4","3","3","2","2","1","565234044011282432","王","345","","","","","","","","","","","","","","","","","","","","","","","","","","","","","","feedback_test","","","","","","","","","","","",""
"610","","j","psychophysics","35","230387","0.0-7.0-0.0-1.0-0.0-0.13","4","3","4","3","4","3","3","4","4","4","4","4","3","4","3","4","4","3","4","4","3","2","2","2","2","2","2","2","2","0","1","0","0","0","0","0","0","0","0","1","1","0","0","0","4","2","2","1","2","4","3","3","2","2","1","565234044011282432","王","345","","","","match","","","","","","","","","","","","","","key","j","16.63750000000012","640","356","j","true","match","img/square.png","方形","方形","ALT1_1","prac_ALT1_1","","","","","","","","","","","",""
"null","<span style='color:GreenYellow; font-size: 70px;'>正确! </span>","null","html-keyboard-response","36","230890","0.0-7.0-0.0-1.0-0.0-1.13","4","3","4","3","4","3","3","4","4","4","4","4","3","4","3","4","4","3","4","4","3","2","2","2","2","2","2","2","2","0","1","0","0","0","0","0","0","0","0","1","1","0","0","0","4","2","2","1","2","4","3","3","2","2","1","565234044011282432","王","345","","","","","","","","","","","","","","","","","","","","","","","","","","","","","","feedback_test","","","","","","","","","","","",""
"927","","j","psychophysics","37","232820","0.0-7.0-0.0-1.0-0.0-0.14","4","3","4","3","4","3","3","4","4","4","4","4","3","4","3","4","4","3","4","4","3","2","2","2","2","2","2","2","2","0","1","0","0","0","0","0","0","0","0","1","1","0","0","0","4","2","2","1","2","4","3","3","2","2","1","565234044011282432","王","345","","","","match","","","","","","","","","","","","","","key","j","16.650434782608848","640","356","j","true","match","img/trapezoid.png","梯形","梯形","ALT1_1","prac_ALT1_1","","","","","","","","","","","",""
"null","<span style='color:GreenYellow; font-size: 70px;'>正确! </span>","null","html-keyboard-response","38","233326","0.0-7.0-0.0-1.0-0.0-1.14","4","3","4","3","4","3","3","4","4","4","4","4","3","4","3","4","4","3","4","4","3","2","2","2","2","2","2","2","2","0","1","0","0","0","0","0","0","0","0","1","1","0","0","0","4","2","2","1","2","4","3","3","2","2","1","565234044011282432","王","345","","","","","","","","","","","","","","","","","","","","","","","","","","","","","","feedback_test","","","","","","","","","","","",""
"682","","j","psychophysics","39","235032","0.0-7.0-0.0-1.0-0.0-0.15","4","3","4","3","4","3","3","4","4","4","4","4","3","4","3","4","4","3","4","4","3","2","2","2","2","2","2","2","2","0","1","0","0","0","0","0","0","0","0","1","1","0","0","0","4","2","2","1","2","4","3","3","2","2","1","565234044011282432","王","345","","","","match","","","","","","","","","","","","","","key","j","16.651485148515025","640","356","j","true","match","img/square.png","方形","方形","ALT1_1","prac_ALT1_1","","","","","","","","","","","",""
"null","<span style='color:GreenYellow; font-size: 70px;'>正确! </span>","null","html-keyboard-response","40","235549","0.0-7.0-0.0-1.0-0.0-1.15","4","3","4","3","4","3","3","4","4","4","4","4","3","4","3","4","4","3","4","4","3","2","2","2","2","2","2","2","2","0","1","0","0","0","0","0","0","0","0","1","1","0","0","0","4","2","2","1","2","4","3","3","2","2","1","565234044011282432","王","345","","","","","","","","","","","","","","","","","","","","","","","","","","","","","","feedback_test","","","","","","","","","","","",""
"721","","f","psychophysics","41","237276","0.0-7.0-0.0-1.0-0.0-0.16","4","3","4","3","4","3","3","4","4","4","4","4","3","4","3","4","4","3","4","4","3","2","2","2","2","2","2","2","2","0","1","0","0","0","0","0","0","0","0","1","1","0","0","0","4","2","2","1","2","4","3","3","2","2","1","565234044011282432","王","345","","","","nonmatch","","","","","","","","","","","","","","key","f","16.650485436893202","640","356","f","true","nonmatch","img/pentagon.png","方形","五边","ALT1_1","prac_ALT1_1","","","","","","","","","","","",""
"null","<span style='color:GreenYellow; font-size: 70px;'>正确! </span>","null","html-keyboard-response","42","237792","0.0-7.0-0.0-1.0-0.0-1.16","4","3","4","3","4","3","3","4","4","4","4","4","3","4","3","4","4","3","4","4","3","2","2","2","2","2","2","2","2","0","1","0","0","0","0","0","0","0","0","1","1","0","0","0","4","2","2","1","2","4","3","3","2","2","1","565234044011282432","王","345","","","","","","","","","","","","","","","","","","","","","","","","","","","","","","feedback_test","","","","","","","","","","","",""
"725","","f","psychophysics","43","239522","0.0-7.0-0.0-1.0-0.0-0.17","4","3","4","3","4","3","3","4","4","4","4","4","3","4","3","4","4","3","4","4","3","2","2","2","2","2","2","2","2","0","1","0","0","0","0","0","0","0","0","1","1","0","0","0","4","2","2","1","2","4","3","3","2","2","1","565234044011282432","王","345","","","","nonmatch","","","","","","","","","","","","","","key","f","16.650485436893202","640","356","f","true","nonmatch","img/square.png","五边","方形","ALT1_1","prac_ALT1_1","","","","","","","","","","","",""
"null","<span style='color:GreenYellow; font-size: 70px;'>正确! </span>","null","html-keyboard-response","44","240028","0.0-7.0-0.0-1.0-0.0-1.17","4","3","4","3","4","3","3","4","4","4","4","4","3","4","3","4","4","3","4","4","3","2","2","2","2","2","2","2","2","0","1","0","0","0","0","0","0","0","0","1","1","0","0","0","4","2","2","1","2","4","3","3","2","2","1","565234044011282432","王","345","","","","","","","","","","","","","","","","","","","","","","","","","","","","","","feedback_test","","","","","","","","","","","",""
"852","","f","psychophysics","45","241888","0.0-7.0-0.0-1.0-0.0-0.18","4","3","4","3","4","3","3","4","4","4","4","4","3","4","3","4","4","3","4","4","3","2","2","2","2","2","2","2","2","0","1","0","0","0","0","0","0","0","0","1","1","0","0","0","4","2","2","1","2","4","3","3","2","2","1","565234044011282432","王","345","","","","nonmatch","","","","","","","","","","","","","","key","f","16.644144144144143","640","356","f","true","nonmatch","img/trapezoid.png","五边","梯形","ALT1_1","prac_ALT1_1","","","","","","","","","","","",""
"null","<span style='color:GreenYellow; font-size: 70px;'>正确! </span>","null","html-keyboard-response","46","242390","0.0-7.0-0.0-1.0-0.0-1.18","4","3","4","3","4","3","3","4","4","4","4","4","3","4","3","4","4","3","4","4","3","2","2","2","2","2","2","2","2","0","1","0","0","0","0","0","0","0","0","1","1","0","0","0","4","2","2","1","2","4","3","3","2","2","1","565234044011282432","王","345","","","","","","","","","","","","","","","","","","","","","","","","","","","","","","feedback_test","","","","","","","","","","","",""
"774","","f","psychophysics","47","244174","0.0-7.0-0.0-1.0-0.0-0.19","4","3","4","3","4","3","3","4","4","4","4","4","3","4","3","4","4","3","4","4","3","2","2","2","2","2","2","2","2","0","1","0","0","0","0","0","0","0","0","1","1","0","0","0","4","2","2","1","2","4","3","3","2","2","1","565234044011282432","王","345","","","","nonmatch","","","","","","","","","","","","","","key","f","16.65000000000022","640","356","f","true","nonmatch","img/circle.png","五边","圆形","ALT1_1","prac_ALT1_1","","","","","","","","","","","",""
"null","<span style='color:GreenYellow; font-size: 70px;'>正确! </span>","null","html-keyboard-response","48","244686","0.0-7.0-0.0-1.0-0.0-1.19","4","3","4","3","4","3","3","4","4","4","4","4","3","4","3","4","4","3","4","4","3","2","2","2","2","2","2","2","2","0","1","0","0","0","0","0","0","0","0","1","1","0","0","0","4","2","2","1","2","4","3","3","2","2","1","565234044011282432","王","345","","","","","","","","","","","","","","","","","","","","","","","","","","","","","","feedback_test","","","","","","","","","","","",""
"894","","f","psychophysics","49","246581","0.0-7.0-0.0-1.0-0.0-0.20","4","3","4","3","4","3","3","4","4","4","4","4","3","4","3","4","4","3","4","4","3","2","2","2","2","2","2","2","2","0","1","0","0","0","0","0","0","0","0","1","1","0","0","0","4","2","2","1","2","4","3","3","2","2","1","565234044011282432","王","345","","","","nonmatch","","","","","","","","","","","","","","key","f","16.65132743362837","640","356","f","true","nonmatch","img/square.png","圆形","方形","ALT1_1","prac_ALT1_1","","","","","","","","","","","",""
"null","<span style='color:GreenYellow; font-size: 70px;'>正确! </span>","null","html-keyboard-response","50","247098","0.0-7.0-0.0-1.0-0.0-1.20","4","3","4","3","4","3","3","4","4","4","4","4","3","4","3","4","4","3","4","4","3","2","2","2","2","2","2","2","2","0","1","0","0","0","0","0","0","0","0","1","1","0","0","0","4","2","2","1","2","4","3","3","2","2","1","565234044011282432","王","345","","","","","","","","","","","","","","","","","","","","","","","","","","","","","","feedback_test","","","","","","","","","","","",""
"828","","j","psychophysics","51","248950","0.0-7.0-0.0-1.0-0.0-0.21","4","3","4","3","4","3","3","4","4","4","4","4","3","4","3","4","4","3","4","4","3","2","2","2","2","2","2","2","2","0","1","0","0","0","0","0","0","0","0","1","1","0","0","0","4","2","2","1","2","4","3","3","2","2","1","565234044011282432","王","345","","","","match","","","","","","","","","","","","","","key","j","16.650909090909146","640","356","j","true","match","img/trapezoid.png","梯形","梯形","ALT1_1","prac_ALT1_1","","","","","","","","","","","",""
"null","<span style='color:GreenYellow; font-size: 70px;'>正确! </span>","null","html-keyboard-response","52","249452","0.0-7.0-0.0-1.0-0.0-1.21","4","3","4","3","4","3","3","4","4","4","4","4","3","4","3","4","4","3","4","4","3","2","2","2","2","2","2","2","2","0","1","0","0","0","0","0","0","0","0","1","1","0","0","0","4","2","2","1","2","4","3","3","2","2","1","565234044011282432","王","345","","","","","","","","","","","","","","","","","","","","","","","","","","","","","","feedback_test","","","","","","","","","","","",""
"524","","j","psychophysics","53","250981","0.0-7.0-0.0-1.0-0.0-0.22","4","3","4","3","4","3","3","4","4","4","4","4","3","4","3","4","4","3","4","4","3","2","2","2","2","2","2","2","2","0","1","0","0","0","0","0","0","0","0","1","1","0","0","0","4","2","2","1","2","4","3","3","2","2","1","565234044011282432","王","345","","","","match","","","","","","","","","","","","","","key","j","16.64835164835165","640","356","j","true","match","img/circle.png","圆形","圆形","ALT1_1","prac_ALT1_1","","","","","","","","","","","",""
"null","<span style='color:GreenYellow; font-size: 70px;'>正确! </span>","null","html-keyboard-response","54","251486","0.0-7.0-0.0-1.0-0.0-1.22","4","3","4","3","4","3","3","4","4","4","4","4","3","4","3","4","4","3","4","4","3","2","2","2","2","2","2","2","2","0","1","0","0","0","0","0","0","0","0","1","1","0","0","0","4","2","2","1","2","4","3","3","2","2","1","565234044011282432","王","345","","","","","","","","","","","","","","","","","","","","","","","","","","","","","","feedback_test","","","","","","","","","","","",""
"519","","j","psychophysics","55","253009","0.0-7.0-0.0-1.0-0.0-0.23","4","3","4","3","4","3","3","4","4","4","4","4","3","4","3","4","4","3","4","4","3","2","2","2","2","2","2","2","2","0","1","0","0","0","0","0","0","0","0","1","1","0","0","0","4","2","2","1","2","4","3","3","2","2","1","565234044011282432","王","345","","","","match","","","","","","","","","","","","","","key","j","16.64835164835165","640","356","j","true","match","img/pentagon.png","五边","五边","ALT1_1","prac_ALT1_1","","","","","","","","","","","",""
"null","<span style='color:GreenYellow; font-size: 70px;'>正确! </span>","null","html-keyboard-response","56","253510","0.0-7.0-0.0-1.0-0.0-1.23","4","3","4","3","4","3","3","4","4","4","4","4","3","4","3","4","4","3","4","4","3","2","2","2","2","2","2","2","2","0","1","0","0","0","0","0","0","0","0","1","1","0","0","0","4","2","2","1","2","4","3","3","2","2","1","565234044011282432","王","345","","","","","","","","","","","","","","","","","","","","","","","","","","","","","","feedback_test","","","","","","","","","","","",""
"701","","f","psychophysics","57","255240","0.0-7.0-0.0-1.0-0.0-0.24","4","3","4","3","4","3","3","4","4","4","4","4","3","4","3","4","4","3","4","4","3","2","2","2","2","2","2","2","2","0","1","0","0","0","0","0","0","0","0","1","1","0","0","0","4","2","2","1","2","4","3","3","2","2","1","565234044011282432","王","345","","","","nonmatch","","","","","","","","","","","","","","key","f","16.650485436893202","640","356","f","true","nonmatch","img/circle.png","方形","圆形","ALT1_1","prac_ALT1_1","","","","","","","","","","","",""
"null","<span style='color:GreenYellow; font-size: 70px;'>正确! </span>","null","html-keyboard-response","58","255754","0.0-7.0-0.0-1.0-0.0-1.24","4","3","4","3","4","3","3","4","4","4","4","4","3","4","3","4","4","3","4","4","3","2","2","2","2","2","2","2","2","0","1","0","0","0","0","0","0","0","0","1","1","0","0","0","4","2","2","1","2","4","3","3","2","2","1","565234044011282432","王","345","","","","","","","","","","","","","","","","","","","","","","","","","","","","","","feedback_test","","","","","","","","","","","",""
"820","","f","psychophysics","59","257575","0.0-7.0-0.0-1.0-0.0-0.25","4","3","4","3","4","3","3","4","4","4","4","4","3","4","3","4","4","3","4","4","3","2","2","2","2","2","2","2","2","0","1","0","0","0","0","0","0","0","0","1","1","0","0","0","4","2","2","1","2","4","3","3","2","2","1","565234044011282432","王","345","","","","nonmatch","","","","","","","","","","","","","","key","f","16.65092592592582","640","356","f","true","nonmatch","img/trapezoid.png","方形","梯形","ALT1_1","prac_ALT1_1","","","","","","","","","","","",""
"null","<span style='color:GreenYellow; font-size: 70px;'>正确! </span>","null","html-keyboard-response","60","258082","0.0-7.0-0.0-1.0-0.0-1.25","4","3","4","3","4","3","3","4","4","4","4","4","3","4","3","4","4","3","4","4","3","2","2","2","2","2","2","2","2","0","1","0","0","0","0","0","0","0","0","1","1","0","0","0","4","2","2","1","2","4","3","3","2","2","1","565234044011282432","王","345","","","","","","","","","","","","","","","","","","","","","","","","","","","","","","feedback_test","","","","","","","","","","","",""
"830","","f","psychophysics","61","259913","0.0-7.0-0.0-1.0-0.0-0.26","4","3","4","3","4","3","3","4","4","4","4","4","3","4","3","4","4","3","4","4","3","2","2","2","2","2","2","2","2","0","1","0","0","0","0","0","0","0","0","1","1","0","0","0","4","2","2","1","2","4","3","3","2","2","1","565234044011282432","王","345","","","","nonmatch","","","","","","","","","","","","","","key","f","16.650458715596276","640","356","f","true","nonmatch","img/pentagon.png","梯形","五边","ALT1_1","prac_ALT1_1","","","","","","","","","","","",""
"null","<span style='color:GreenYellow; font-size: 70px;'>正确! </span>","null","html-keyboard-response","62","260429","0.0-7.0-0.0-1.0-0.0-1.26","4","3","4","3","4","3","3","4","4","4","4","4","3","4","3","4","4","3","4","4","3","2","2","2","2","2","2","2","2","0","1","0","0","0","0","0","0","0","0","1","1","0","0","0","4","2","2","1","2","4","3","3","2","2","1","565234044011282432","王","345","","","","","","","","","","","","","","","","","","","","","","","","","","","","","","feedback_test","","","","","","","","","","","",""
"830","","j","psychophysics","63","262269","0.0-7.0-0.0-1.0-0.0-0.27","4","3","4","3","4","3","3","4","4","4","4","4","3","4","3","4","4","3","4","4","3","2","2","2","2","2","2","2","2","0","1","0","0","0","0","0","0","0","0","1","1","0","0","0","4","2","2","1","2","4","3","3","2","2","1","565234044011282432","王","345","","","","match","","","","","","","","","","","","","","key","j","16.65090909090941","640","356","j","true","match","img/square.png","方形","方形","ALT1_1","prac_ALT1_1","","","","","","","","","","","",""
"null","<span style='color:GreenYellow; font-size: 70px;'>正确! </span>","null","html-keyboard-response","64","262778","0.0-7.0-0.0-1.0-0.0-1.27","4","3","4","3","4","3","3","4","4","4","4","4","3","4","3","4","4","3","4","4","3","2","2","2","2","2","2","2","2","0","1","0","0","0","0","0","0","0","0","1","1","0","0","0","4","2","2","1","2","4","3","3","2","2","1","565234044011282432","王","345","","","","","","","","","","","","","","","","","","","","","","","","","","","","","","feedback_test","","","","","","","","","","","",""
"768","","f","psychophysics","65","264548","0.0-7.0-0.0-1.0-0.0-0.28","4","3","4","3","4","3","3","4","4","4","4","4","3","4","3","4","4","3","4","4","3","2","2","2","2","2","2","2","2","0","1","0","0","0","0","0","0","0","0","1","1","0","0","0","4","2","2","1","2","4","3","3","2","2","1","565234044011282432","王","345","","","","nonmatch","","","","","","","","","","","","","","key","f","16.64622641509434","640","356","f","true","nonmatch","img/pentagon.png","圆形","五边","ALT1_1","prac_ALT1_1","","","","","","","","","","","",""
"null","<span style='color:GreenYellow; font-size: 70px;'>正确! </span>","null","html-keyboard-response","66","265053","0.0-7.0-0.0-1.0-0.0-1.28","4","3","4","3","4","3","3","4","4","4","4","4","3","4","3","4","4","3","4","4","3","2","2","2","2","2","2","2","2","0","1","0","0","0","0","0","0","0","0","1","1","0","0","0","4","2","2","1","2","4","3","3","2","2","1","565234044011282432","王","345","","","","","","","","","","","","","","","","","","","","","","","","","","","","","","feedback_test","","","","","","","","","","","",""
"684","","j","psychophysics","67","266742","0.0-7.0-0.0-1.0-0.0-0.29","4","3","4","3","4","3","3","4","4","4","4","4","3","4","3","4","4","3","4","4","3","2","2","2","2","2","2","2","2","0","1","0","0","0","0","0","0","0","0","1","1","0","0","0","4","2","2","1","2","4","3","3","2","2","1","565234044011282432","王","345","","","","match","","","","","","","","","","","","","","key","j","16.651999999999536","640","356","j","true","match","img/trapezoid.png","梯形","梯形","ALT1_1","prac_ALT1_1","","","","","","","","","","","",""
"null","<span style='color:GreenYellow; font-size: 70px;'>正确! </span>","null","html-keyboard-response","68","267245","0.0-7.0-0.0-1.0-0.0-1.29","4","3","4","3","4","3","3","4","4","4","4","4","3","4","3","4","4","3","4","4","3","2","2","2","2","2","2","2","2","0","1","0","0","0","0","0","0","0","0","1","1","0","0","0","4","2","2","1","2","4","3","3","2","2","1","565234044011282432","王","345","","","","","","","","","","","","","","","","","","","","","","","","","","","","","","feedback_test","","","","","","","","","","","",""
"745","","f","psychophysics","69","269019","0.0-7.0-0.0-1.0-0.0-0.30","4","3","4","3","4","3","3","4","4","4","4","4","3","4","3","4","4","3","4","4","3","2","2","2","2","2","2","2","2","0","1","0","0","0","0","0","0","0","0","1","1","0","0","0","4","2","2","1","2","4","3","3","2","2","1","565234044011282432","王","345","","","","nonmatch","","","","","","","","","","","","","","key","f","16.649523809523366","640","356","f","true","nonmatch","img/square.png","梯形","方形","ALT1_1","prac_ALT1_1","","","","","","","","","","","",""
"null","<span style='color:GreenYellow; font-size: 70px;'>正确! </span>","null","html-keyboard-response","70","269528","0.0-7.0-0.0-1.0-0.0-1.30","4","3","4","3","4","3","3","4","4","4","4","4","3","4","3","4","4","3","4","4","3","2","2","2","2","2","2","2","2","0","1","0","0","0","0","0","0","0","0","1","1","0","0","0","4","2","2","1","2","4","3","3","2","2","1","565234044011282432","王","345","","","","","","","","","","","","","","","","","","","","","","","","","","","","","","feedback_test","","","","","","","","","","","",""
"696","","j","psychophysics","71","271225","0.0-7.0-0.0-1.0-0.0-0.31","4","3","4","3","4","3","3","4","4","4","4","4","3","4","3","4","4","3","4","4","3","2","2","2","2","2","2","2","2","0","1","0","0","0","0","0","0","0","0","1","1","0","0","0","4","2","2","1","2","4","3","3","2","2","1","565234044011282432","王","345","","","","match","","","","","","","","","","","","","","key","j","16.649504950495395","640","356","j","true","match","img/trapezoid.png","梯形","梯形","ALT1_1","prac_ALT1_1","","","","","","","","","","","",""
"null","<span style='color:GreenYellow; font-size: 70px;'>正确! </span>","null","html-keyboard-response","72","271727","0.0-7.0-0.0-1.0-0.0-1.31","4","3","4","3","4","3","3","4","4","4","4","4","3","4","3","4","4","3","4","4","3","2","2","2","2","2","2","2","2","0","1","0","0","0","0","0","0","0","0","1","1","0","0","0","4","2","2","1","2","4","3","3","2","2","1","565234044011282432","王","345","","","","","","","","","","","","","","","","","","","","","","","","","","","","","","feedback_test","","","","","","","","","","","",""
"632","","j","psychophysics","73","273366","0.0-7.0-0.0-1.0-0.0-0.32","4","3","4","3","4","3","3","4","4","4","4","4","3","4","3","4","4","3","4","4","3","2","2","2","2","2","2","2","2","0","1","0","0","0","0","0","0","0","0","1","1","0","0","0","4","2","2","1","2","4","3","3","2","2","1","565234044011282432","王","345","","","","match","","","","","","","","","","","","","","key","j","16.64639175257744","640","356","j","true","match","img/trapezoid.png","梯形","梯形","ALT1_1","prac_ALT1_1","","","","","","","","","","","",""
"null","<span style='color:GreenYellow; font-size: 70px;'>正确! </span>","null","html-keyboard-response","74","273871","0.0-7.0-0.0-1.0-0.0-1.32","4","3","4","3","4","3","3","4","4","4","4","4","3","4","3","4","4","3","4","4","3","2","2","2","2","2","2","2","2","0","1","0","0","0","0","0","0","0","0","1","1","0","0","0","4","2","2","1","2","4","3","3","2","2","1","565234044011282432","王","345","","","","","","","","","","","","","","","","","","","","","","","","","","","","","","feedback_test","","","","","","","","","","","",""
"593","","j","psychophysics","75","275477","0.0-7.0-0.0-1.0-0.0-0.33","4","3","4","3","4","3","3","4","4","4","4","4","3","4","3","4","4","3","4","4","3","2","2","2","2","2","2","2","2","0","1","0","0","0","0","0","0","0","0","1","1","0","0","0","4","2","2","1","2","4","3","3","2","2","1","565234044011282432","王","345","","","","match","","","","","","","","","","","","","","key","j","16.651041666666668","640","356","j","true","match","img/circle.png","圆形","圆形","ALT1_1","prac_ALT1_1","","","","","","","","","","","",""
"null","<span style='color:GreenYellow; font-size: 70px;'>正确! </span>","null","html-keyboard-response","76","275982","0.0-7.0-0.0-1.0-0.0-1.33","4","3","4","3","4","3","3","4","4","4","4","4","3","4","3","4","4","3","4","4","3","2","2","2","2","2","2","2","2","0","1","0","0","0","0","0","0","0","0","1","1","0","0","0","4","2","2","1","2","4","3","3","2","2","1","565234044011282432","王","345","","","","","","","","","","","","","","","","","","","","","","","","","","","","","","feedback_test","","","","","","","","","","","",""
"635","","j","psychophysics","77","277624","0.0-7.0-0.0-1.0-0.0-0.34","4","3","4","3","4","3","3","4","4","4","4","4","3","4","3","4","4","3","4","4","3","2","2","2","2","2","2","2","2","0","1","0","0","0","0","0","0","0","0","1","1","0","0","0","4","2","2","1","2","4","3","3","2","2","1","565234044011282432","王","345","","","","match","","","","","","","","","","","","","","key","j","16.65000000000012","640","356","j","true","match","img/square.png","方形","方形","ALT1_1","prac_ALT1_1","","","","","","","","","","","",""
"null","<span style='color:GreenYellow; font-size: 70px;'>正确! </span>","null","html-keyboard-response","78","278133","0.0-7.0-0.0-1.0-0.0-1.34","4","3","4","3","4","3","3","4","4","4","4","4","3","4","3","4","4","3","4","4","3","2","2","2","2","2","2","2","2","0","1","0","0","0","0","0","0","0","0","1","1","0","0","0","4","2","2","1","2","4","3","3","2","2","1","565234044011282432","王","345","","","","","","","","","","","","","","","","","","","","","","","","","","","","","","feedback_test","","","","","","","","","","","",""
"791","","f","psychophysics","79","279927","0.0-7.0-0.0-1.0-0.0-0.35","4","3","4","3","4","3","3","4","4","4","4","4","3","4","3","4","4","3","4","4","3","2","2","2","2","2","2","2","2","0","1","0","0","0","0","0","0","0","0","1","1","0","0","0","4","2","2","1","2","4","3","3","2","2","1","565234044011282432","王","345","","","","nonmatch","","","","","","","","","","","","","","key","f","16.646728971962727","640","356","f","true","nonmatch","img/square.png","五边","方形","ALT1_1","prac_ALT1_1","","","","","","","","","","","",""
"null","<span style='color:GreenYellow; font-size: 70px;'>正确! </span>","null","html-keyboard-response","80","280432","0.0-7.0-0.0-1.0-0.0-1.35","4","3","4","3","4","3","3","4","4","4","4","4","3","4","3","4","4","3","4","4","3","2","2","2","2","2","2","2","2","0","1","0","0","0","0","0","0","0","0","1","1","0","0","0","4","2","2","1","2","4","3","3","2","2","1","565234044011282432","王","345","","","","","","","","","","","","","","","","","","","","","","","","","","","","","","feedback_test","","","","","","","","","","","",""
"790","","j","psychophysics","81","282241","0.0-7.0-0.0-1.0-0.0-0.36","4","3","4","3","4","3","3","4","4","4","4","4","3","4","3","4","4","3","4","4","3","2","2","2","2","2","2","2","2","0","1","0","0","0","0","0","0","0","0","1","1","0","0","0","4","2","2","1","2","4","3","3","2","2","1","565234044011282432","王","345","","","","match","","","","","","","","","","","","","","key","j","16.65185185185153","640","356","f","false","nonmatch","img/square.png","圆形","方形","ALT1_1","prac_ALT1_1","","","","","","","","","","","",""
"null","<span style='color:red; font-size: 70px;'>错误! </span>","null","html-keyboard-response","82","282744","0.0-7.0-0.0-1.0-0.0-1.36","4","3","4","3","4","3","3","4","4","4","4","4","3","4","3","4","4","3","4","4","3","2","2","2","2","2","2","2","2","0","1","0","0","0","0","0","0","0","0","1","1","0","0","0","4","2","2","1","2","4","3","3","2","2","1","565234044011282432","王","345","","","","","","","","","","","","","","","","","","","","","","","","","","","","","","feedback_test","","","","","","","","","","","",""
"694","","j","psychophysics","83","284442","0.0-7.0-0.0-1.0-0.0-0.37","4","3","4","3","4","3","3","4","4","4","4","4","3","4","3","4","4","3","4","4","3","2","2","2","2","2","2","2","2","0","1","0","0","0","0","0","0","0","0","1","1","0","0","0","4","2","2","1","2","4","3","3","2","2","1","565234044011282432","王","345","","","","match","","","","","","","","","","","","","","key","j","16.653465346534652","640","356","j","true","match","img/pentagon.png","五边","五边","ALT1_1","prac_ALT1_1","","","","","","","","","","","",""
"null","<span style='color:GreenYellow; font-size: 70px;'>正确! </span>","null","html-keyboard-response","84","284946","0.0-7.0-0.0-1.0-0.0-1.37","4","3","4","3","4","3","3","4","4","4","4","4","3","4","3","4","4","3","4","4","3","2","2","2","2","2","2","2","2","0","1","0","0","0","0","0","0","0","0","1","1","0","0","0","4","2","2","1","2","4","3","3","2","2","1","565234044011282432","王","345","","","","","","","","","","","","","","","","","","","","","","","","","","","","","","feedback_test","","","","","","","","","","","",""
"863","","f","psychophysics","85","286811","0.0-7.0-0.0-1.0-0.0-0.38","4","3","4","3","4","3","3","4","4","4","4","4","3","4","3","4","4","3","4","4","3","2","2","2","2","2","2","2","2","0","1","0","0","0","0","0","0","0","0","1","1","0","0","0","4","2","2","1","2","4","3","3","2","2","1","565234044011282432","王","345","","","","nonmatch","","","","","","","","","","","","","","key","f","16.594545454545138","640","356","f","true","nonmatch","img/trapezoid.png","圆形","梯形","ALT1_1","prac_ALT1_1","","","","","","","","","","","",""
"null","<span style='color:GreenYellow; font-size: 70px;'>正确! </span>","null","html-keyboard-response","86","287338","0.0-7.0-0.0-1.0-0.0-1.38","4","3","4","3","4","3","3","4","4","4","4","4","3","4","3","4","4","3","4","4","3","2","2","2","2","2","2","2","2","0","1","0","0","0","0","0","0","0","0","1","1","0","0","0","4","2","2","1","2","4","3","3","2","2","1","565234044011282432","王","345","","","","","","","","","","","","","","","","","","","","","","","","","","","","","","feedback_test","","","","","","","","","","","",""
"653","","f","psychophysics","87","289005","0.0-7.0-0.0-1.0-0.0-0.39","4","3","4","3","4","3","3","4","4","4","4","4","3","4","3","4","4","3","4","4","3","2","2","2","2","2","2","2","2","0","1","0","0","0","0","0","0","0","0","1","1","0","0","0","4","2","2","1","2","4","3","3","2","2","1","565234044011282432","王","345","","","","nonmatch","","","","","","","","","","","","","","key","f","16.64848484848438","640","356","f","true","nonmatch","img/pentagon.png","方形","五边","ALT1_1","prac_ALT1_1","","","","","","","","","","","",""
"null","<span style='color:GreenYellow; font-size: 70px;'>正确! </span>","null","html-keyboard-response","88","289513","0.0-7.0-0.0-1.0-0.0-1.39","4","3","4","3","4","3","3","4","4","4","4","4","3","4","3","4","4","3","4","4","3","2","2","2","2","2","2","2","2","0","1","0","0","0","0","0","0","0","0","1","1","0","0","0","4","2","2","1","2","4","3","3","2","2","1","565234044011282432","王","345","","","","","","","","","","","","","","","","","","","","","","","","","","","","","","feedback_test","","","","","","","","","","","",""
"559","","j","psychophysics","89","291085","0.0-7.0-0.0-1.0-0.0-0.40","4","3","4","3","4","3","3","4","4","4","4","4","3","4","3","4","4","3","4","4","3","2","2","2","2","2","2","2","2","0","1","0","0","0","0","0","0","0","0","1","1","0","0","0","4","2","2","1","2","4","3","3","2","2","1","565234044011282432","王","345","","","","match","","","","","","","","","","","","","","key","j","16.650537634408604","640","356","j","true","match","img/square.png","方形","方形","ALT1_1","prac_ALT1_1","","","","","","","","","","","",""
"null","<span style='color:GreenYellow; font-size: 70px;'>正确! </span>","null","html-keyboard-response","90","291594","0.0-7.0-0.0-1.0-0.0-1.40","4","3","4","3","4","3","3","4","4","4","4","4","3","4","3","4","4","3","4","4","3","2","2","2","2","2","2","2","2","0","1","0","0","0","0","0","0","0","0","1","1","0","0","0","4","2","2","1","2","4","3","3","2","2","1","565234044011282432","王","345","","","","","","","","","","","","","","","","","","","","","","","","","","","","","","feedback_test","","","","","","","","","","","",""
"627","","f","psychophysics","91","293227","0.0-7.0-0.0-1.0-0.0-0.41","4","3","4","3","4","3","3","4","4","4","4","4","3","4","3","4","4","3","4","4","3","2","2","2","2","2","2","2","2","0","1","0","0","0","0","0","0","0","0","1","1","0","0","0","4","2","2","1","2","4","3","3","2","2","1","565234044011282432","王","345","","","","nonmatch","","","","","","","","","","","","","","key","f","16.648453608247664","640","356","f","true","nonmatch","img/circle.png","五边","圆形","ALT1_1","prac_ALT1_1","","","","","","","","","","","",""
"null","<span style='color:GreenYellow; font-size: 70px;'>正确! </span>","null","html-keyboard-response","92","293729","0.0-7.0-0.0-1.0-0.0-1.41","4","3","4","3","4","3","3","4","4","4","4","4","3","4","3","4","4","3","4","4","3","2","2","2","2","2","2","2","2","0","1","0","0","0","0","0","0","0","0","1","1","0","0","0","4","2","2","1","2","4","3","3","2","2","1","565234044011282432","王","345","","","","","","","","","","","","","","","","","","","","","","","","","","","","","","feedback_test","","","","","","","","","","","",""
"641","","f","psychophysics","93","295392","0.0-7.0-0.0-1.0-0.0-0.42","4","3","4","3","4","3","3","4","4","4","4","4","3","4","3","4","4","3","4","4","3","2","2","2","2","2","2","2","2","0","1","0","0","0","0","0","0","0","0","1","1","0","0","0","4","2","2","1","2","4","3","3","2","2","1","565234044011282432","王","345","","","","nonmatch","","","","","","","","","","","","","","key","f","16.650505050505284","640","356","f","true","nonmatch","img/trapezoid.png","五边","梯形","ALT1_1","prac_ALT1_1","","","","","","","","","","","",""
"null","<span style='color:GreenYellow; font-size: 70px;'>正确! </span>","null","html-keyboard-response","94","295892","0.0-7.0-0.0-1.0-0.0-1.42","4","3","4","3","4","3","3","4","4","4","4","4","3","4","3","4","4","3","4","4","3","2","2","2","2","2","2","2","2","0","1","0","0","0","0","0","0","0","0","1","1","0","0","0","4","2","2","1","2","4","3","3","2","2","1","565234044011282432","王","345","","","","","","","","","","","","","","","","","","","","","","","","","","","","","","feedback_test","","","","","","","","","","","",""
"929","","f","psychophysics","95","297823","0.0-7.0-0.0-1.0-0.0-0.43","4","3","4","3","4","3","3","4","4","4","4","4","3","4","3","4","4","3","4","4","3","2","2","2","2","2","2","2","2","0","1","0","0","0","0","0","0","0","0","1","1","0","0","0","4","2","2","1","2","4","3","3","2","2","1","565234044011282432","王","345","","","","nonmatch","","","","","","","","","","","","","","key","f","16.650434782608595","640","356","j","false","match","img/pentagon.png","五边","五边","ALT1_1","prac_ALT1_1","","","","","","","","","","","",""
"null","<span style='color:red; font-size: 70px;'>错误! </span>","null","html-keyboard-response","96","298327","0.0-7.0-0.0-1.0-0.0-1.43","4","3","4","3","4","3","3","4","4","4","4","4","3","4","3","4","4","3","4","4","3","2","2","2","2","2","2","2","2","0","1","0","0","0","0","0","0","0","0","1","1","0","0","0","4","2","2","1","2","4","3","3","2","2","1","565234044011282432","王","345","","","","","","","","","","","","","","","","","","","","","","","","","","","","","","feedback_test","","","","","","","","","","","",""
"764","","j","psychophysics","97","300097","0.0-7.0-0.0-1.0-0.0-0.44","4","3","4","3","4","3","3","4","4","4","4","4","3","4","3","4","4","3","4","4","3","2","2","2","2","2","2","2","2","0","1","0","0","0","0","0","0","0","0","1","1","0","0","0","4","2","2","1","2","4","3","3","2","2","1","565234044011282432","王","345","","","","match","","","","","","","","","","","","","","key","j","16.65047619047608","640","356","j","true","match","img/pentagon.png","五边","五边","ALT1_1","prac_ALT1_1","","","","","","","","","","","",""
"null","<span style='color:GreenYellow; font-size: 70px;'>正确! </span>","null","html-keyboard-response","98","300635","0.0-7.0-0.0-1.0-0.0-1.44","4","3","4","3","4","3","3","4","4","4","4","4","3","4","3","4","4","3","4","4","3","2","2","2","2","2","2","2","2","0","1","0","0","0","0","0","0","0","0","1","1","0","0","0","4","2","2","1","2","4","3","3","2","2","1","565234044011282432","王","345","","","","","","","","","","","","","","","","","","","","","","","","","","","","","","feedback_test","","","","","","","","","","","",""
"674","","f","psychophysics","99","302314","0.0-7.0-0.0-1.0-0.0-0.45","4","3","4","3","4","3","3","4","4","4","4","4","3","4","3","4","4","3","4","4","3","2","2","2","2","2","2","2","2","0","1","0","0","0","0","0","0","0","0","1","1","0","0","0","4","2","2","1","2","4","3","3","2","2","1","565234044011282432","王","345","","","","nonmatch","","","","","","","","","","","","","","key","f","16.651515151515152","640","356","f","true","nonmatch","img/circle.png","梯形","圆形","ALT1_1","prac_ALT1_1","","","","","","","","","","","",""
"null","<span style='color:GreenYellow; font-size: 70px;'>正确! </span>","null","html-keyboard-response","100","302823","0.0-7.0-0.0-1.0-0.0-1.45","4","3","4","3","4","3","3","4","4","4","4","4","3","4","3","4","4","3","4","4","3","2","2","2","2","2","2","2","2","0","1","0","0","0","0","0","0","0","0","1","1","0","0","0","4","2","2","1","2","4","3","3","2","2","1","565234044011282432","王","345","","","","","","","","","","","","","","","","","","","","","","","","","","","","","","feedback_test","","","","","","","","","","","",""
"614","","j","psychophysics","101","304443","0.0-7.0-0.0-1.0-0.0-0.46","4","3","4","3","4","3","3","4","4","4","4","4","3","4","3","4","4","3","4","4","3","2","2","2","2","2","2","2","2","0","1","0","0","0","0","0","0","0","0","1","1","0","0","0","4","2","2","1","2","4","3","3","2","2","1","565234044011282432","王","345","","","","match","","","","","","","","","","","","","","key","j","16.651041666666668","640","356","j","true","match","img/circle.png","圆形","圆形","ALT1_1","prac_ALT1_1","","","","","","","","","","","",""
"null","<span style='color:GreenYellow; font-size: 70px;'>正确! </span>","null","html-keyboard-response","102","304949","0.0-7.0-0.0-1.0-0.0-1.46","4","3","4","3","4","3","3","4","4","4","4","4","3","4","3","4","4","3","4","4","3","2","2","2","2","2","2","2","2","0","1","0","0","0","0","0","0","0","0","1","1","0","0","0","4","2","2","1","2","4","3","3","2","2","1","565234044011282432","王","345","","","","","","","","","","","","","","","","","","","","","","","","","","","","","","feedback_test","","","","","","","","","","","",""
"490","","j","psychophysics","103","306443","0.0-7.0-0.0-1.0-0.0-0.47","4","3","4","3","4","3","3","4","4","4","4","4","3","4","3","4","4","3","4","4","3","2","2","2","2","2","2","2","2","0","1","0","0","0","0","0","0","0","0","1","1","0","0","0","4","2","2","1","2","4","3","3","2","2","1","565234044011282432","王","345","","","","match","","","","","","","","","","","","","","key","j","16.65113636363623","640","356","j","true","match","img/circle.png","圆形","圆形","ALT1_1","prac_ALT1_1","","","","","","","","","","","",""
"null","<span style='color:GreenYellow; font-size: 70px;'>正确! </span>","null","html-keyboard-response","104","306950","0.0-7.0-0.0-1.0-0.0-1.47","4","3","4","3","4","3","3","4","4","4","4","4","3","4","3","4","4","3","4","4","3","2","2","2","2","2","2","2","2","0","1","0","0","0","0","0","0","0","0","1","1","0","0","0","4","2","2","1","2","4","3","3","2","2","1","565234044011282432","王","345","","","","","","","","","","","","","","","","","","","","","","","","","","","","","","feedback_test","","","","","","","","","","","",""
"22808","<style>.context{color:white; font-size: 35px; line-height:40px}</style>                            <div><p class='context'>您正确回答了92% 的试次。</p><p class='context'>您的平均反应时为722毫秒。</p><p class='context'>恭喜您完成练习。按空格键进入正式实验。</p><p class='footer' style='font-size: 35px; line-height:40px;'>请在进入正式实验之前将您的<span style='color: lightgreen;'>食指</span>放在电脑键盘的相应键位上进行按键。</p>"," ","html-keyboard-response","105","329761","0.0-7.0-0.0-2.0","4","3","4","3","4","3","3","4","4","4","4","4","3","4","3","4","4","3","4","4","3","2","2","2","2","2","2","2","2","0","1","0","0","0","0","0","0","0","0","1","1","0","0","0","4","2","2","1","2","4","3","3","2","2","1","565234044011282432","王","345","","","","","","","","","","","","","","","","","","","","","","","","","","","","","","","","","","","","","","","","","",""
"2811","
    <p style='color: white; font-size: 22px'>请您将手指放在按键上，准备进入正式的匹配任务。</p>
    <p> <div style = ""color: green""><按空格键进入下一阶段的匹配任务></div></p>
    "," ","html-keyboard-response","106","332577","0.0-7.0-0.0-3.0","4","3","4","3","4","3","3","4","4","4","4","4","3","4","3","4","4","3","4","4","3","2","2","2","2","2","2","2","2","0","1","0","0","0","0","0","0","0","0","1","1","0","0","0","4","2","2","1","2","4","3","3","2","2","1","565234044011282432","王","345","","","","","","","","","","","","","","","","","","","","","","","","","","","","","","","","","","","","","","","","","",""
"650","","j","psychophysics","107","334233","0.0-7.0-0.0-4.0-0.0-0.0","4","3","4","3","4","3","3","4","4","4","4","4","3","4","3","4","4","3","4","4","3","2","2","2","2","2","2","2","2","0","1","0","0","0","0","0","0","0","0","1","1","0","0","0","4","2","2","1","2","4","3","3","2","2","1","565234044011282432","王","345","","","","match","","","","","","","","","","","","","","key","j","16.651020408163145","640","356","j","true","match","img/circle.png","圆形","圆形","ALT1","formal_ALT1_1","","","","","","","","","","","",""
"null","<span style='color:GreenYellow; font-size: 70px;'>正确! </span>","null","html-keyboard-response","108","334735","0.0-7.0-0.0-4.0-0.0-1.0","4","3","4","3","4","3","3","4","4","4","4","4","3","4","3","4","4","3","4","4","3","2","2","2","2","2","2","2","2","0","1","0","0","0","0","0","0","0","0","1","1","0","0","0","4","2","2","1","2","4","3","3","2","2","1","565234044011282432","王","345","","","","","","","","","","","","","","","","","","","","","","","","","","","","","","feedback_test","","","","","","","","","","","",""
"540","","j","psychophysics","109","336290","0.0-7.0-0.0-4.0-0.0-0.1","4","3","4","3","4","3","3","4","4","4","4","4","3","4","3","4","4","3","4","4","3","2","2","2","2","2","2","2","2","0","1","0","0","0","0","0","0","0","0","1","1","0","0","0","4","2","2","1","2","4","3","3","2","2","1","565234044011282432","王","345","","","","match","","","","","","","","","","","","","","key","j","16.65434782608645","640","356","j","true","match","img/square.png","方形","方形","ALT1","formal_ALT1_1","","","","","","","","","","","",""
"null","<span style='color:GreenYellow; font-size: 70px;'>正确! </span>","null","html-keyboard-response","110","336792","0.0-7.0-0.0-4.0-0.0-1.1","4","3","4","3","4","3","3","4","4","4","4","4","3","4","3","4","4","3","4","4","3","2","2","2","2","2","2","2","2","0","1","0","0","0","0","0","0","0","0","1","1","0","0","0","4","2","2","1","2","4","3","3","2","2","1","565234044011282432","王","345","","","","","","","","","","","","","","","","","","","","","","","","","","","","","","feedback_test","","","","","","","","","","","",""
"527","","f","psychophysics","111","338323","0.0-7.0-0.0-4.0-0.0-0.2","4","3","4","3","4","3","3","4","4","4","4","4","3","4","3","4","4","3","4","4","3","2","2","2","2","2","2","2","2","0","1","0","0","0","0","0","0","0","0","1","1","0","0","0","4","2","2","1","2","4","3","3","2","2","1","565234044011282432","王","345","","","","nonmatch","","","","","","","","","","","","","","key","f","16.653846153846153","640","356","j","false","match","img/pentagon.png","五边","五边","ALT1","formal_ALT1_1","","","","","","","","","","","",""
"null","<span style='color:red; font-size: 70px;'>错误! </span>","null","html-keyboard-response","112","338831","0.0-7.0-0.0-4.0-0.0-1.2","4","3","4","3","4","3","3","4","4","4","4","4","3","4","3","4","4","3","4","4","3","2","2","2","2","2","2","2","2","0","1","0","0","0","0","0","0","0","0","1","1","0","0","0","4","2","2","1","2","4","3","3","2","2","1","565234044011282432","王","345","","","","","","","","","","","","","","","","","","","","","","","","","","","","","","feedback_test","","","","","","","","","","","",""
"701","","f","psychophysics","113","340537","0.0-7.0-0.0-4.0-0.0-0.3","4","3","4","3","4","3","3","4","4","4","4","4","3","4","3","4","4","3","4","4","3","2","2","2","2","2","2","2","2","0","1","0","0","0","0","0","0","0","0","1","1","0","0","0","4","2","2","1","2","4","3","3","2","2","1","565234044011282432","王","345","","","","nonmatch","","","","","","","","","","","","","","key","f","16.651485148514737","640","356","f","true","nonmatch","img/pentagon.png","圆形","五边","ALT1","formal_ALT1_1","","","","","","","","","","","",""
"null","<span style='color:GreenYellow; font-size: 70px;'>正确! </span>","null","html-keyboard-response","114","341043","0.0-7.0-0.0-4.0-0.0-1.3","4","3","4","3","4","3","3","4","4","4","4","4","3","4","3","4","4","3","4","4","3","2","2","2","2","2","2","2","2","0","1","0","0","0","0","0","0","0","0","1","1","0","0","0","4","2","2","1","2","4","3","3","2","2","1","565234044011282432","王","345","","","","","","","","","","","","","","","","","","","","","","","","","","","","","","feedback_test","","","","","","","","","","","",""
"591","","f","psychophysics","115","342644","0.0-7.0-0.0-4.0-0.0-0.4","4","3","4","3","4","3","3","4","4","4","4","4","3","4","3","4","4","3","4","4","3","2","2","2","2","2","2","2","2","0","1","0","0","0","0","0","0","0","0","1","1","0","0","0","4","2","2","1","2","4","3","3","2","2","1","565234044011282432","王","345","","","","nonmatch","","","","","","","","","","","","","","key","f","16.647368421052633","640","356","f","true","nonmatch","img/trapezoid.png","圆形","梯形","ALT1","formal_ALT1_1","","","","","","","","","","","",""
"null","<span style='color:GreenYellow; font-size: 70px;'>正确! </span>","null","html-keyboard-response","116","343146","0.0-7.0-0.0-4.0-0.0-1.4","4","3","4","3","4","3","3","4","4","4","4","4","3","4","3","4","4","3","4","4","3","2","2","2","2","2","2","2","2","0","1","0","0","0","0","0","0","0","0","1","1","0","0","0","4","2","2","1","2","4","3","3","2","2","1","565234044011282432","王","345","","","","","","","","","","","","","","","","","","","","","","","","","","","","","","feedback_test","","","","","","","","","","","",""
"712","","f","psychophysics","117","344860","0.0-7.0-0.0-4.0-0.0-0.5","4","3","4","3","4","3","3","4","4","4","4","4","3","4","3","4","4","3","4","4","3","2","2","2","2","2","2","2","2","0","1","0","0","0","0","0","0","0","0","1","1","0","0","0","4","2","2","1","2","4","3","3","2","2","1","565234044011282432","王","345","","","","nonmatch","","","","","","","","","","","","","","key","f","16.6549019607842","640","356","f","true","nonmatch","img/square.png","五边","方形","ALT1","formal_ALT1_1","","","","","","","","","","","",""
"null","<span style='color:GreenYellow; font-size: 70px;'>正确! </span>","null","html-keyboard-response","118","345361","0.0-7.0-0.0-4.0-0.0-1.5","4","3","4","3","4","3","3","4","4","4","4","4","3","4","3","4","4","3","4","4","3","2","2","2","2","2","2","2","2","0","1","0","0","0","0","0","0","0","0","1","1","0","0","0","4","2","2","1","2","4","3","3","2","2","1","565234044011282432","王","345","","","","","","","","","","","","","","","","","","","","","","","","","","","","","","feedback_test","","","","","","","","","","","",""
"612","","j","psychophysics","119","346975","0.0-7.0-0.0-4.0-0.0-0.6","4","3","4","3","4","3","3","4","4","4","4","4","3","4","3","4","4","3","4","4","3","2","2","2","2","2","2","2","2","0","1","0","0","0","0","0","0","0","0","1","1","0","0","0","4","2","2","1","2","4","3","3","2","2","1","565234044011282432","王","345","","","","match","","","","","","","","","","","","","","key","j","16.65312500000012","640","356","j","true","match","img/pentagon.png","五边","五边","ALT1","formal_ALT1_1","","","","","","","","","","","",""
"null","<span style='color:GreenYellow; font-size: 70px;'>正确! </span>","null","html-keyboard-response","120","347484","0.0-7.0-0.0-4.0-0.0-1.6","4","3","4","3","4","3","3","4","4","4","4","4","3","4","3","4","4","3","4","4","3","2","2","2","2","2","2","2","2","0","1","0","0","0","0","0","0","0","0","1","1","0","0","0","4","2","2","1","2","4","3","3","2","2","1","565234044011282432","王","345","","","","","","","","","","","","","","","","","","","","","","","","","","","","","","feedback_test","","","","","","","","","","","",""
"691","","f","psychophysics","121","349193","0.0-7.0-0.0-4.0-0.0-0.7","4","3","4","3","4","3","3","4","4","4","4","4","3","4","3","4","4","3","4","4","3","2","2","2","2","2","2","2","2","0","1","0","0","0","0","0","0","0","0","1","1","0","0","0","4","2","2","1","2","4","3","3","2","2","1","565234044011282432","王","345","","","","nonmatch","","","","","","","","","","","","","","key","f","16.58811881188142","640","356","f","true","nonmatch","img/trapezoid.png","五边","梯形","ALT1","formal_ALT1_1","","","","","","","","","","","",""
"null","<span style='color:GreenYellow; font-size: 70px;'>正确! </span>","null","html-keyboard-response","122","349696","0.0-7.0-0.0-4.0-0.0-1.7","4","3","4","3","4","3","3","4","4","4","4","4","3","4","3","4","4","3","4","4","3","2","2","2","2","2","2","2","2","0","1","0","0","0","0","0","0","0","0","1","1","0","0","0","4","2","2","1","2","4","3","3","2","2","1","565234044011282432","王","345","","","","","","","","","","","","","","","","","","","","","","","","","","","","","","feedback_test","","","","","","","","","","","",""
"639","","f","psychophysics","123","351340","0.0-7.0-0.0-4.0-0.0-0.8","4","3","4","3","4","3","3","4","4","4","4","4","3","4","3","4","4","3","4","4","3","2","2","2","2","2","2","2","2","0","1","0","0","0","0","0","0","0","0","1","1","0","0","0","4","2","2","1","2","4","3","3","2","2","1","565234044011282432","王","345","","","","nonmatch","","","","","","","","","","","","","","key","f","16.65000000000012","640","356","f","true","nonmatch","img/pentagon.png","方形","五边","ALT1","formal_ALT1_1","","","","","","","","","","","",""
"null","<span style='color:GreenYellow; font-size: 70px;'>正确! </span>","null","html-keyboard-response","124","351848","0.0-7.0-0.0-4.0-0.0-1.8","4","3","4","3","4","3","3","4","4","4","4","4","3","4","3","4","4","3","4","4","3","2","2","2","2","2","2","2","2","0","1","0","0","0","0","0","0","0","0","1","1","0","0","0","4","2","2","1","2","4","3","3","2","2","1","565234044011282432","王","345","","","","","","","","","","","","","","","","","","","","","","","","","","","","","","feedback_test","","","","","","","","","","","",""
"540","","j","psychophysics","125","353390","0.0-7.0-0.0-4.0-0.0-0.9","4","3","4","3","4","3","3","4","4","4","4","4","3","4","3","4","4","3","4","4","3","2","2","2","2","2","2","2","2","0","1","0","0","0","0","0","0","0","0","1","1","0","0","0","4","2","2","1","2","4","3","3","2","2","1","565234044011282432","王","345","","","","match","","","","","","","","","","","","","","key","j","16.65054945054958","640","356","j","true","match","img/trapezoid.png","梯形","梯形","ALT1","formal_ALT1_1","","","","","","","","","","","",""
"null","<span style='color:GreenYellow; font-size: 70px;'>正确! </span>","null","html-keyboard-response","126","353892","0.0-7.0-0.0-4.0-0.0-1.9","4","3","4","3","4","3","3","4","4","4","4","4","3","4","3","4","4","3","4","4","3","2","2","2","2","2","2","2","2","0","1","0","0","0","0","0","0","0","0","1","1","0","0","0","4","2","2","1","2","4","3","3","2","2","1","565234044011282432","王","345","","","","","","","","","","","","","","","","","","","","","","","","","","","","","","feedback_test","","","","","","","","","","","",""
"633","","f","psychophysics","127","355554","0.0-7.0-0.0-4.0-0.0-0.10","4","3","4","3","4","3","3","4","4","4","4","4","3","4","3","4","4","3","4","4","3","2","2","2","2","2","2","2","2","0","1","0","0","0","0","0","0","0","0","1","1","0","0","0","4","2","2","1","2","4","3","3","2","2","1","565234044011282432","王","345","","","","nonmatch","","","","","","","","","","","","","","key","f","16.654545454545335","640","356","f","true","nonmatch","img/trapezoid.png","方形","梯形","ALT1","formal_ALT1_1","","","","","","","","","","","",""
"null","<span style='color:GreenYellow; font-size: 70px;'>正确! </span>","null","html-keyboard-response","128","356064","0.0-7.0-0.0-4.0-0.0-1.10","4","3","4","3","4","3","3","4","4","4","4","4","3","4","3","4","4","3","4","4","3","2","2","2","2","2","2","2","2","0","1","0","0","0","0","0","0","0","0","1","1","0","0","0","4","2","2","1","2","4","3","3","2","2","1","565234044011282432","王","345","","","","","","","","","","","","","","","","","","","","","","","","","","","","","","feedback_test","","","","","","","","","","","",""
"711","","f","psychophysics","129","357782","0.0-7.0-0.0-4.0-0.0-0.11","4","3","4","3","4","3","3","4","4","4","4","4","3","4","3","4","4","3","4","4","3","2","2","2","2","2","2","2","2","0","1","0","0","0","0","0","0","0","0","1","1","0","0","0","4","2","2","1","2","4","3","3","2","2","1","565234044011282432","王","345","","","","nonmatch","","","","","","","","","","","","","","key","f","16.653921568627567","640","356","f","true","nonmatch","img/pentagon.png","梯形","五边","ALT1","formal_ALT1_1","","","","","","","","","","","",""
"null","<span style='color:GreenYellow; font-size: 70px;'>正确! </span>","null","html-keyboard-response","130","358290","0.0-7.0-0.0-4.0-0.0-1.11","4","3","4","3","4","3","3","4","4","4","4","4","3","4","3","4","4","3","4","4","3","2","2","2","2","2","2","2","2","0","1","0","0","0","0","0","0","0","0","1","1","0","0","0","4","2","2","1","2","4","3","3","2","2","1","565234044011282432","王","345","","","","","","","","","","","","","","","","","","","","","","","","","","","","","","feedback_test","","","","","","","","","","","",""
"687","","j","psychophysics","131","359980","0.0-7.0-0.0-4.0-0.0-0.12","4","3","4","3","4","3","3","4","4","4","4","4","3","4","3","4","4","3","4","4","3","2","2","2","2","2","2","2","2","0","1","0","0","0","0","0","0","0","0","1","1","0","0","0","4","2","2","1","2","4","3","3","2","2","1","565234044011282432","王","345","","","","match","","","","","","","","","","","","","","key","j","16.64554455445556","640","356","j","true","match","img/trapezoid.png","梯形","梯形","ALT1","formal_ALT1_1","","","","","","","","","","","",""
"null","<span style='color:GreenYellow; font-size: 70px;'>正确! </span>","null","html-keyboard-response","132","360483","0.0-7.0-0.0-4.0-0.0-1.12","4","3","4","3","4","3","3","4","4","4","4","4","3","4","3","4","4","3","4","4","3","2","2","2","2","2","2","2","2","0","1","0","0","0","0","0","0","0","0","1","1","0","0","0","4","2","2","1","2","4","3","3","2","2","1","565234044011282432","王","345","","","","","","","","","","","","","","","","","","","","","","","","","","","","","","feedback_test","","","","","","","","","","","",""
"569","","f","psychophysics","133","362059","0.0-7.0-0.0-4.0-0.0-0.13","4","3","4","3","4","3","3","4","4","4","4","4","3","4","3","4","4","3","4","4","3","2","2","2","2","2","2","2","2","0","1","0","0","0","0","0","0","0","0","1","1","0","0","0","4","2","2","1","2","4","3","3","2","2","1","565234044011282432","王","345","","","","nonmatch","","","","","","","","","","","","","","key","f","16.651063829787358","640","356","f","true","nonmatch","img/circle.png","五边","圆形","ALT1","formal_ALT1_1","","","","","","","","","","","",""
"null","<span style='color:GreenYellow; font-size: 70px;'>正确! </span>","null","html-keyboard-response","134","362562","0.0-7.0-0.0-4.0-0.0-1.13","4","3","4","3","4","3","3","4","4","4","4","4","3","4","3","4","4","3","4","4","3","2","2","2","2","2","2","2","2","0","1","0","0","0","0","0","0","0","0","1","1","0","0","0","4","2","2","1","2","4","3","3","2","2","1","565234044011282432","王","345","","","","","","","","","","","","","","","","","","","","","","","","","","","","","","feedback_test","","","","","","","","","","","",""
"624","","j","psychophysics","135","364192","0.0-7.0-0.0-4.0-0.0-0.14","4","3","4","3","4","3","3","4","4","4","4","4","3","4","3","4","4","3","4","4","3","2","2","2","2","2","2","2","2","0","1","0","0","0","0","0","0","0","0","1","1","0","0","0","4","2","2","1","2","4","3","3","2","2","1","565234044011282432","王","345","","","","match","","","","","","","","","","","","","","key","j","16.655670103092543","640","356","j","true","match","img/trapezoid.png","梯形","梯形","ALT1","formal_ALT1_1","","","","","","","","","","","",""
"null","<span style='color:GreenYellow; font-size: 70px;'>正确! </span>","null","html-keyboard-response","136","364707","0.0-7.0-0.0-4.0-0.0-1.14","4","3","4","3","4","3","3","4","4","4","4","4","3","4","3","4","4","3","4","4","3","2","2","2","2","2","2","2","2","0","1","0","0","0","0","0","0","0","0","1","1","0","0","0","4","2","2","1","2","4","3","3","2","2","1","565234044011282432","王","345","","","","","","","","","","","","","","","","","","","","","","","","","","","","","","feedback_test","","","","","","","","","","","",""
"591","","f","psychophysics","137","366307","0.0-7.0-0.0-4.0-0.0-0.15","4","3","4","3","4","3","3","4","4","4","4","4","3","4","3","4","4","3","4","4","3","2","2","2","2","2","2","2","2","0","1","0","0","0","0","0","0","0","0","1","1","0","0","0","4","2","2","1","2","4","3","3","2","2","1","565234044011282432","王","345","","","","nonmatch","","","","","","","","","","","","","","key","f","16.654736842105386","640","356","f","true","nonmatch","img/square.png","圆形","方形","ALT1","formal_ALT1_1","","","","","","","","","","","",""
"null","<span style='color:GreenYellow; font-size: 70px;'>正确! </span>","null","html-keyboard-response","138","366814","0.0-7.0-0.0-4.0-0.0-1.15","4","3","4","3","4","3","3","4","4","4","4","4","3","4","3","4","4","3","4","4","3","2","2","2","2","2","2","2","2","0","1","0","0","0","0","0","0","0","0","1","1","0","0","0","4","2","2","1","2","4","3","3","2","2","1","565234044011282432","王","345","","","","","","","","","","","","","","","","","","","","","","","","","","","","","","feedback_test","","","","","","","","","","","",""
"626","","j","psychophysics","139","368452","0.0-7.0-0.0-4.0-0.0-0.16","4","3","4","3","4","3","3","4","4","4","4","4","3","4","3","4","4","3","4","4","3","2","2","2","2","2","2","2","2","0","1","0","0","0","0","0","0","0","0","1","1","0","0","0","4","2","2","1","2","4","3","3","2","2","1","565234044011282432","王","345","","","","match","","","","","","","","","","","","","","key","j","16.65408163265342","640","356","j","true","match","img/square.png","方形","方形","ALT1","formal_ALT1_1","","","","","","","","","","","",""
"null","<span style='color:GreenYellow; font-size: 70px;'>正确! </span>","null","html-keyboard-response","140","368954","0.0-7.0-0.0-4.0-0.0-1.16","4","3","4","3","4","3","3","4","4","4","4","4","3","4","3","4","4","3","4","4","3","2","2","2","2","2","2","2","2","0","1","0","0","0","0","0","0","0","0","1","1","0","0","0","4","2","2","1","2","4","3","3","2","2","1","565234044011282432","王","345","","","","","","","","","","","","","","","","","","","","","","","","","","","","","","feedback_test","","","","","","","","","","","",""
"711","","f","psychophysics","141","370668","0.0-7.0-0.0-4.0-0.0-0.17","4","3","4","3","4","3","3","4","4","4","4","4","3","4","3","4","4","3","4","4","3","2","2","2","2","2","2","2","2","0","1","0","0","0","0","0","0","0","0","1","1","0","0","0","4","2","2","1","2","4","3","3","2","2","1","565234044011282432","王","345","","","","nonmatch","","","","","","","","","","","","","","key","f","16.6549019607842","640","356","f","true","nonmatch","img/circle.png","方形","圆形","ALT1","formal_ALT1_1","","","","","","","","","","","",""
"null","<span style='color:GreenYellow; font-size: 70px;'>正确! </span>","null","html-keyboard-response","142","371170","0.0-7.0-0.0-4.0-0.0-1.17","4","3","4","3","4","3","3","4","4","4","4","4","3","4","3","4","4","3","4","4","3","2","2","2","2","2","2","2","2","0","1","0","0","0","0","0","0","0","0","1","1","0","0","0","4","2","2","1","2","4","3","3","2","2","1","565234044011282432","王","345","","","","","","","","","","","","","","","","","","","","","","","","","","","","","","feedback_test","","","","","","","","","","","",""
"593","","f","psychophysics","143","372772","0.0-7.0-0.0-4.0-0.0-0.18","4","3","4","3","4","3","3","4","4","4","4","4","3","4","3","4","4","3","4","4","3","2","2","2","2","2","2","2","2","0","1","0","0","0","0","0","0","0","0","1","1","0","0","0","4","2","2","1","2","4","3","3","2","2","1","565234044011282432","王","345","","","","nonmatch","","","","","","","","","","","","","","key","f","16.653684210526684","640","356","f","true","nonmatch","img/circle.png","梯形","圆形","ALT1","formal_ALT1_1","","","","","","","","","","","",""
"null","<span style='color:GreenYellow; font-size: 70px;'>正确! </span>","null","html-keyboard-response","144","373279","0.0-7.0-0.0-4.0-0.0-1.18","4","3","4","3","4","3","3","4","4","4","4","4","3","4","3","4","4","3","4","4","3","2","2","2","2","2","2","2","2","0","1","0","0","0","0","0","0","0","0","1","1","0","0","0","4","2","2","1","2","4","3","3","2","2","1","565234044011282432","王","345","","","","","","","","","","","","","","","","","","","","","","","","","","","","","","feedback_test","","","","","","","","","","","",""
"582","","j","psychophysics","145","374885","0.0-7.0-0.0-4.0-0.0-0.19","4","3","4","3","4","3","3","4","4","4","4","4","3","4","3","4","4","3","4","4","3","2","2","2","2","2","2","2","2","0","1","0","0","0","0","0","0","0","0","1","1","0","0","0","4","2","2","1","2","4","3","3","2","2","1","565234044011282432","王","345","","","","match","","","","","","","","","","","","","","key","j","16.65052631578935","640","356","j","true","match","img/square.png","方形","方形","ALT1","formal_ALT1_1","","","","","","","","","","","",""
"null","<span style='color:GreenYellow; font-size: 70px;'>正确! </span>","null","html-keyboard-response","146","375389","0.0-7.0-0.0-4.0-0.0-1.19","4","3","4","3","4","3","3","4","4","4","4","4","3","4","3","4","4","3","4","4","3","2","2","2","2","2","2","2","2","0","1","0","0","0","0","0","0","0","0","1","1","0","0","0","4","2","2","1","2","4","3","3","2","2","1","565234044011282432","王","345","","","","","","","","","","","","","","","","","","","","","","","","","","","","","","feedback_test","","","","","","","","","","","",""
"719","","j","psychophysics","147","377112","0.0-7.0-0.0-4.0-0.0-0.20","4","3","4","3","4","3","3","4","4","4","4","4","3","4","3","4","4","3","4","4","3","2","2","2","2","2","2","2","2","0","1","0","0","0","0","0","0","0","0","1","1","0","0","0","4","2","2","1","2","4","3","3","2","2","1","565234044011282432","王","345","","","","match","","","","","","","","","","","","","","key","j","16.654368932039063","640","356","j","true","match","img/circle.png","圆形","圆形","ALT1","formal_ALT1_1","","","","","","","","","","","",""
"null","<span style='color:GreenYellow; font-size: 70px;'>正确! </span>","null","html-keyboard-response","148","377620","0.0-7.0-0.0-4.0-0.0-1.20","4","3","4","3","4","3","3","4","4","4","4","4","3","4","3","4","4","3","4","4","3","2","2","2","2","2","2","2","2","0","1","0","0","0","0","0","0","0","0","1","1","0","0","0","4","2","2","1","2","4","3","3","2","2","1","565234044011282432","王","345","","","","","","","","","","","","","","","","","","","","","","","","","","","","","","feedback_test","","","","","","","","","","","",""
"825","","f","psychophysics","149","379448","0.0-7.0-0.0-4.0-0.0-0.21","4","3","4","3","4","3","3","4","4","4","4","4","3","4","3","4","4","3","4","4","3","2","2","2","2","2","2","2","2","0","1","0","0","0","0","0","0","0","0","1","1","0","0","0","4","2","2","1","2","4","3","3","2","2","1","565234044011282432","王","345","","","","nonmatch","","","","","","","","","","","","","","key","f","16.65321100917442","640","356","f","true","nonmatch","img/square.png","梯形","方形","ALT1","formal_ALT1_1","","","","","","","","","","","",""
"null","<span style='color:GreenYellow; font-size: 70px;'>正确! </span>","null","html-keyboard-response","150","379981","0.0-7.0-0.0-4.0-0.0-1.21","4","3","4","3","4","3","3","4","4","4","4","4","3","4","3","4","4","3","4","4","3","2","2","2","2","2","2","2","2","0","1","0","0","0","0","0","0","0","0","1","1","0","0","0","4","2","2","1","2","4","3","3","2","2","1","565234044011282432","王","345","","","","","","","","","","","","","","","","","","","","","","","","","","","","","","feedback_test","","","","","","","","","","","",""
"711","","j","psychophysics","151","381701","0.0-7.0-0.0-4.0-0.0-0.22","4","3","4","3","4","3","3","4","4","4","4","4","3","4","3","4","4","3","4","4","3","2","2","2","2","2","2","2","2","0","1","0","0","0","0","0","0","0","0","1","1","0","0","0","4","2","2","1","2","4","3","3","2","2","1","565234044011282432","王","345","","","","match","","","","","","","","","","","","","","key","j","16.65490196078477","640","356","j","true","match","img/pentagon.png","五边","五边","ALT1","formal_ALT1_1","","","","","","","","","","","",""
"null","<span style='color:GreenYellow; font-size: 70px;'>正确! </span>","null","html-keyboard-response","152","382203","0.0-7.0-0.0-4.0-0.0-1.22","4","3","4","3","4","3","3","4","4","4","4","4","3","4","3","4","4","3","4","4","3","2","2","2","2","2","2","2","2","0","1","0","0","0","0","0","0","0","0","1","1","0","0","0","4","2","2","1","2","4","3","3","2","2","1","565234044011282432","王","345","","","","","","","","","","","","","","","","","","","","","","","","","","","","","","feedback_test","","","","","","","","","","","",""
"456","","j","psychophysics","153","383660","0.0-7.0-0.0-4.0-0.0-0.23","4","3","4","3","4","3","3","4","4","4","4","4","3","4","3","4","4","3","4","4","3","2","2","2","2","2","2","2","2","0","1","0","0","0","0","0","0","0","0","1","1","0","0","0","4","2","2","1","2","4","3","3","2","2","1","565234044011282432","王","345","","","","match","","","","","","","","","","","","","","key","j","16.653488372092482","640","356","j","true","match","img/circle.png","圆形","圆形","ALT1","formal_ALT1_1","","","","","","","","","","","",""
"null","<span style='color:GreenYellow; font-size: 70px;'>正确! </span>","null","html-keyboard-response","154","384175","0.0-7.0-0.0-4.0-0.0-1.23","4","3","4","3","4","3","3","4","4","4","4","4","3","4","3","4","4","3","4","4","3","2","2","2","2","2","2","2","2","0","1","0","0","0","0","0","0","0","0","1","1","0","0","0","4","2","2","1","2","4","3","3","2","2","1","565234044011282432","王","345","","","","","","","","","","","","","","","","","","","","","","","","","","","","","","feedback_test","","","","","","","","","","","",""
"800","","f","psychophysics","155","385982","0.0-7.0-0.0-4.0-0.0-0.24","4","3","4","3","4","3","3","4","4","4","4","4","3","4","3","4","4","3","4","4","3","2","2","2","2","2","2","2","2","0","1","0","0","0","0","0","0","0","0","1","1","0","0","0","4","2","2","1","2","4","3","3","2","2","1","565234044011282432","王","345","","","","nonmatch","","","","","","","","","","","","","","key","f","16.65514018691567","640","356","f","true","nonmatch","img/square.png","梯形","方形","ALT1","formal_ALT1_1","","","","","","","","","","","",""
"null","<span style='color:GreenYellow; font-size: 70px;'>正确! </span>","null","html-keyboard-response","156","386490","0.0-7.0-0.0-4.0-0.0-1.24","4","3","4","3","4","3","3","4","4","4","4","4","3","4","3","4","4","3","4","4","3","2","2","2","2","2","2","2","2","0","1","0","0","0","0","0","0","0","0","1","1","0","0","0","4","2","2","1","2","4","3","3","2","2","1","565234044011282432","王","345","","","","","","","","","","","","","","","","","","","","","","","","","","","","","","feedback_test","","","","","","","","","","","",""
"732","","f","psychophysics","157","388232","0.0-7.0-0.0-4.0-0.0-0.25","4","3","4","3","4","3","3","4","4","4","4","4","3","4","3","4","4","3","4","4","3","2","2","2","2","2","2","2","2","0","1","0","0","0","0","0","0","0","0","1","1","0","0","0","4","2","2","1","2","4","3","3","2","2","1","565234044011282432","王","345","","","","nonmatch","","","","","","","","","","","","","","key","f","16.65096153846165","640","356","f","true","nonmatch","img/trapezoid.png","方形","梯形","ALT1","formal_ALT1_1","","","","","","","","","","","",""
"null","<span style='color:GreenYellow; font-size: 70px;'>正确! </span>","null","html-keyboard-response","158","388743","0.0-7.0-0.0-4.0-0.0-1.25","4","3","4","3","4","3","3","4","4","4","4","4","3","4","3","4","4","3","4","4","3","2","2","2","2","2","2","2","2","0","1","0","0","0","0","0","0","0","0","1","1","0","0","0","4","2","2","1","2","4","3","3","2","2","1","565234044011282432","王","345","","","","","","","","","","","","","","","","","","","","","","","","","","","","","","feedback_test","","","","","","","","","","","",""
"859","","f","psychophysics","159","390605","0.0-7.0-0.0-4.0-0.0-0.26","4","3","4","3","4","3","3","4","4","4","4","4","3","4","3","4","4","3","4","4","3","2","2","2","2","2","2","2","2","0","1","0","0","0","0","0","0","0","0","1","1","0","0","0","4","2","2","1","2","4","3","3","2","2","1","565234044011282432","王","345","","","","nonmatch","","","","","","","","","","","","","","key","f","16.65405405405437","640","356","f","true","nonmatch","img/pentagon.png","圆形","五边","ALT1","formal_ALT1_1","","","","","","","","","","","",""
"null","<span style='color:GreenYellow; font-size: 70px;'>正确! </span>","null","html-keyboard-response","160","391106","0.0-7.0-0.0-4.0-0.0-1.26","4","3","4","3","4","3","3","4","4","4","4","4","3","4","3","4","4","3","4","4","3","2","2","2","2","2","2","2","2","0","1","0","0","0","0","0","0","0","0","1","1","0","0","0","4","2","2","1","2","4","3","3","2","2","1","565234044011282432","王","345","","","","","","","","","","","","","","","","","","","","","","","","","","","","","","feedback_test","","","","","","","","","","","",""
"513","","j","psychophysics","161","392623","0.0-7.0-0.0-4.0-0.0-0.27","4","3","4","3","4","3","3","4","4","4","4","4","3","4","3","4","4","3","4","4","3","2","2","2","2","2","2","2","2","0","1","0","0","0","0","0","0","0","0","1","1","0","0","0","4","2","2","1","2","4","3","3","2","2","1","565234044011282432","王","345","","","","match","","","","","","","","","","","","","","key","j","16.654444444444703","640","356","j","true","match","img/circle.png","圆形","圆形","ALT1","formal_ALT1_1","","","","","","","","","","","",""
"null","<span style='color:GreenYellow; font-size: 70px;'>正确! </span>","null","html-keyboard-response","162","393124","0.0-7.0-0.0-4.0-0.0-1.27","4","3","4","3","4","3","3","4","4","4","4","4","3","4","3","4","4","3","4","4","3","2","2","2","2","2","2","2","2","0","1","0","0","0","0","0","0","0","0","1","1","0","0","0","4","2","2","1","2","4","3","3","2","2","1","565234044011282432","王","345","","","","","","","","","","","","","","","","","","","","","","","","","","","","","","feedback_test","","","","","","","","","","","",""
"728","","f","psychophysics","163","394864","0.0-7.0-0.0-4.0-0.0-0.28","4","3","4","3","4","3","3","4","4","4","4","4","3","4","3","4","4","3","4","4","3","2","2","2","2","2","2","2","2","0","1","0","0","0","0","0","0","0","0","1","1","0","0","0","4","2","2","1","2","4","3","3","2","2","1","565234044011282432","王","345","","","","nonmatch","","","","","","","","","","","","","","key","f","16.5873786407767","640","356","f","true","nonmatch","img/square.png","五边","方形","ALT1","formal_ALT1_1","","","","","","","","","","","",""
"null","<span style='color:GreenYellow; font-size: 70px;'>正确! </span>","null","html-keyboard-response","164","395368","0.0-7.0-0.0-4.0-0.0-1.28","4","3","4","3","4","3","3","4","4","4","4","4","3","4","3","4","4","3","4","4","3","2","2","2","2","2","2","2","2","0","1","0","0","0","0","0","0","0","0","1","1","0","0","0","4","2","2","1","2","4","3","3","2","2","1","565234044011282432","王","345","","","","","","","","","","","","","","","","","","","","","","","","","","","","","","feedback_test","","","","","","","","","","","",""
"887","","f","psychophysics","165","397260","0.0-7.0-0.0-4.0-0.0-0.29","4","3","4","3","4","3","3","4","4","4","4","4","3","4","3","4","4","3","4","4","3","2","2","2","2","2","2","2","2","0","1","0","0","0","0","0","0","0","0","1","1","0","0","0","4","2","2","1","2","4","3","3","2","2","1","565234044011282432","王","345","","","","nonmatch","","","","","","","","","","","","","","key","f","16.650442477876105","640","356","f","true","nonmatch","img/square.png","圆形","方形","ALT1","formal_ALT1_1","","","","","","","","","","","",""
"null","<span style='color:GreenYellow; font-size: 70px;'>正确! </span>","null","html-keyboard-response","166","397774","0.0-7.0-0.0-4.0-0.0-1.29","4","3","4","3","4","3","3","4","4","4","4","4","3","4","3","4","4","3","4","4","3","2","2","2","2","2","2","2","2","0","1","0","0","0","0","0","0","0","0","1","1","0","0","0","4","2","2","1","2","4","3","3","2","2","1","565234044011282432","王","345","","","","","","","","","","","","","","","","","","","","","","","","","","","","","","feedback_test","","","","","","","","","","","",""
"469","","j","psychophysics","167","399249","0.0-7.0-0.0-4.0-0.0-0.30","4","3","4","3","4","3","3","4","4","4","4","4","3","4","3","4","4","3","4","4","3","2","2","2","2","2","2","2","2","0","1","0","0","0","0","0","0","0","0","1","1","0","0","0","4","2","2","1","2","4","3","3","2","2","1","565234044011282432","王","345","","","","match","","","","","","","","","","","","","","key","j","16.654022988505346","640","356","j","true","match","img/circle.png","圆形","圆形","ALT1","formal_ALT1_1","","","","","","","","","","","",""
"null","<span style='color:GreenYellow; font-size: 70px;'>正确! </span>","null","html-keyboard-response","168","399752","0.0-7.0-0.0-4.0-0.0-1.30","4","3","4","3","4","3","3","4","4","4","4","4","3","4","3","4","4","3","4","4","3","2","2","2","2","2","2","2","2","0","1","0","0","0","0","0","0","0","0","1","1","0","0","0","4","2","2","1","2","4","3","3","2","2","1","565234044011282432","王","345","","","","","","","","","","","","","","","","","","","","","","","","","","","","","","feedback_test","","","","","","","","","","","",""
"596","","f","psychophysics","169","401356","0.0-7.0-0.0-4.0-0.0-0.31","4","3","4","3","4","3","3","4","4","4","4","4","3","4","3","4","4","3","4","4","3","2","2","2","2","2","2","2","2","0","1","0","0","0","0","0","0","0","0","1","1","0","0","0","4","2","2","1","2","4","3","3","2","2","1","565234044011282432","王","345","","","","nonmatch","","","","","","","","","","","","","","key","f","16.65368421052607","640","356","j","false","match","img/pentagon.png","五边","五边","ALT1","formal_ALT1_1","","","","","","","","","","","",""
"null","<span style='color:red; font-size: 70px;'>错误! </span>","null","html-keyboard-response","170","401857","0.0-7.0-0.0-4.0-0.0-1.31","4","3","4","3","4","3","3","4","4","4","4","4","3","4","3","4","4","3","4","4","3","2","2","2","2","2","2","2","2","0","1","0","0","0","0","0","0","0","0","1","1","0","0","0","4","2","2","1","2","4","3","3","2","2","1","565234044011282432","王","345","","","","","","","","","","","","","","","","","","","","","","","","","","","","","","feedback_test","","","","","","","","","","","",""
"671","","f","psychophysics","171","403537","0.0-7.0-0.0-4.0-0.0-0.32","4","3","4","3","4","3","3","4","4","4","4","4","3","4","3","4","4","3","4","4","3","2","2","2","2","2","2","2","2","0","1","0","0","0","0","0","0","0","0","1","1","0","0","0","4","2","2","1","2","4","3","3","2","2","1","565234044011282432","王","345","","","","nonmatch","","","","","","","","","","","","","","key","f","16.655","640","356","f","true","nonmatch","img/trapezoid.png","五边","梯形","ALT1","formal_ALT1_1","","","","","","","","","","","",""
"null","<span style='color:GreenYellow; font-size: 70px;'>正确! </span>","null","html-keyboard-response","172","404042","0.0-7.0-0.0-4.0-0.0-1.32","4","3","4","3","4","3","3","4","4","4","4","4","3","4","3","4","4","3","4","4","3","2","2","2","2","2","2","2","2","0","1","0","0","0","0","0","0","0","0","1","1","0","0","0","4","2","2","1","2","4","3","3","2","2","1","565234044011282432","王","345","","","","","","","","","","","","","","","","","","","","","","","","","","","","","","feedback_test","","","","","","","","","","","",""
"470","","j","psychophysics","173","405518","0.0-7.0-0.0-4.0-0.0-0.33","4","3","4","3","4","3","3","4","4","4","4","4","3","4","3","4","4","3","4","4","3","2","2","2","2","2","2","2","2","0","1","0","0","0","0","0","0","0","0","1","1","0","0","0","4","2","2","1","2","4","3","3","2","2","1","565234044011282432","王","345","","","","match","","","","","","","","","","","","","","key","j","16.648863636363373","640","356","j","true","match","img/circle.png","圆形","圆形","ALT1","formal_ALT1_1","","","","","","","","","","","",""
"null","<span style='color:GreenYellow; font-size: 70px;'>正确! </span>","null","html-keyboard-response","174","406020","0.0-7.0-0.0-4.0-0.0-1.33","4","3","4","3","4","3","3","4","4","4","4","4","3","4","3","4","4","3","4","4","3","2","2","2","2","2","2","2","2","0","1","0","0","0","0","0","0","0","0","1","1","0","0","0","4","2","2","1","2","4","3","3","2","2","1","565234044011282432","王","345","","","","","","","","","","","","","","","","","","","","","","","","","","","","","","feedback_test","","","","","","","","","","","",""
"700","","f","psychophysics","175","407729","0.0-7.0-0.0-4.0-0.0-0.34","4","3","4","3","4","3","3","4","4","4","4","4","3","4","3","4","4","3","4","4","3","2","2","2","2","2","2","2","2","0","1","0","0","0","0","0","0","0","0","1","1","0","0","0","4","2","2","1","2","4","3","3","2","2","1","565234044011282432","王","345","","","","nonmatch","","","","","","","","","","","","","","key","f","16.65098039215652","640","356","f","true","nonmatch","img/trapezoid.png","圆形","梯形","ALT1","formal_ALT1_1","","","","","","","","","","","",""
"null","<span style='color:GreenYellow; font-size: 70px;'>正确! </span>","null","html-keyboard-response","176","408234","0.0-7.0-0.0-4.0-0.0-1.34","4","3","4","3","4","3","3","4","4","4","4","4","3","4","3","4","4","3","4","4","3","2","2","2","2","2","2","2","2","0","1","0","0","0","0","0","0","0","0","1","1","0","0","0","4","2","2","1","2","4","3","3","2","2","1","565234044011282432","王","345","","","","","","","","","","","","","","","","","","","","","","","","","","","","","","feedback_test","","","","","","","","","","","",""
"595","","f","psychophysics","177","409838","0.0-7.0-0.0-4.0-0.0-0.35","4","3","4","3","4","3","3","4","4","4","4","4","3","4","3","4","4","3","4","4","3","2","2","2","2","2","2","2","2","0","1","0","0","0","0","0","0","0","0","1","1","0","0","0","4","2","2","1","2","4","3","3","2","2","1","565234044011282432","王","345","","","","nonmatch","","","","","","","","","","","","","","key","f","16.654736842105386","640","356","f","true","nonmatch","img/circle.png","梯形","圆形","ALT1","formal_ALT1_1","","","","","","","","","","","",""
"null","<span style='color:GreenYellow; font-size: 70px;'>正确! </span>","null","html-keyboard-response","178","410352","0.0-7.0-0.0-4.0-0.0-1.35","4","3","4","3","4","3","3","4","4","4","4","4","3","4","3","4","4","3","4","4","3","2","2","2","2","2","2","2","2","0","1","0","0","0","0","0","0","0","0","1","1","0","0","0","4","2","2","1","2","4","3","3","2","2","1","565234044011282432","王","345","","","","","","","","","","","","","","","","","","","","","","","","","","","","","","feedback_test","","","","","","","","","","","",""
"635","","j","psychophysics","179","411993","0.0-7.0-0.0-4.0-0.0-0.36","4","3","4","3","4","3","3","4","4","4","4","4","3","4","3","4","4","3","4","4","3","2","2","2","2","2","2","2","2","0","1","0","0","0","0","0","0","0","0","1","1","0","0","0","4","2","2","1","2","4","3","3","2","2","1","565234044011282432","王","345","","","","match","","","","","","","","","","","","","","key","j","16.652040816326767","640","356","j","true","match","img/trapezoid.png","梯形","梯形","ALT1","formal_ALT1_1","","","","","","","","","","","",""
"null","<span style='color:GreenYellow; font-size: 70px;'>正确! </span>","null","html-keyboard-response","180","412501","0.0-7.0-0.0-4.0-0.0-1.36","4","3","4","3","4","3","3","4","4","4","4","4","3","4","3","4","4","3","4","4","3","2","2","2","2","2","2","2","2","0","1","0","0","0","0","0","0","0","0","1","1","0","0","0","4","2","2","1","2","4","3","3","2","2","1","565234044011282432","王","345","","","","","","","","","","","","","","","","","","","","","","","","","","","","","","feedback_test","","","","","","","","","","","",""
"613","","f","psychophysics","181","414127","0.0-7.0-0.0-4.0-0.0-0.37","4","3","4","3","4","3","3","4","4","4","4","4","3","4","3","4","4","3","4","4","3","2","2","2","2","2","2","2","2","0","1","0","0","0","0","0","0","0","0","1","1","0","0","0","4","2","2","1","2","4","3","3","2","2","1","565234044011282432","王","345","","","","nonmatch","","","","","","","","","","","","","","key","f","16.64639175257744","640","356","f","true","nonmatch","img/pentagon.png","梯形","五边","ALT1","formal_ALT1_1","","","","","","","","","","","",""
