"rt","stimulus","response","trial_type","trial_index","time_elapsed","internal_node_id","ses_1","ses_2","ses_3","ses_4","ses_5","ses_6","ses_7","ses_8","ses_9","ses_10","coreself_1","coreself_2","coreself_3","coreself_4","coreself_5","coreself_6","coreself_7","coreself_8","coreself_9","coreself_10","SGPS_1","SGPS_2","SGPS_3","SGPS_4","SGPS_5","SGPS_6","SGPS_7","SGPS_8","SGPS_9","NPI1","NPI2","NPI3","NPI4","NPI5","NPI6","NPI7","NPI8","NPI9","NPI10","NPI11","NPI12","NPI13","NPI14","NPI15","hsns_1","hsns_2","hsns_3","hsns_4","hsns_5","trap1","hsns_6","hsns_7","hsns_8","hsns_9","hsns_10","subj_idx","friend_name","ParticipantID","value","success","user_agent","responses","item_order","radio_event_ids","radio_event_times","key_event_times","mouse_event_times","straightlining","zigzagging","honeypot","timeout","failed_images","failed_audio","failed_video","version_attrib","version_target","correct","IAT","screen_id","task_id","RT","condition","word","varname","summary","version_attrib2","version_target2","time_stamp","view_history","response_type","key_press","avg_frame_time","center_x","center_y","correct_response","identity","Image","question_order","correct_answer","trap1_item"
"5779","
   <p><div style = ""color: white;font-size:25px;"">您好，欢迎参加本次实验。</div> </p>
   <p><div style = ""color: white;font-size:25px;"">为充分保障您的权利，请确保您已经知晓并同意《参与实验同意书》以及《数据公开知情同意书》。</div></p>
   <p><div style = ""color: white;font-size:25px;"">如果您未见过上述内容，请咨询实验员。</div></p>
   <p><div style = ""color: white;font-size:25px;"">如果您选择继续实验，则表示您已经清楚两份知情同意书的内容并同意。</div></p>
   <p><div style = ""color: pink;font-size:30px;"">请确保您记得day0的实验编号，您将在本次实验输入该编号，若您忘记，请咨询实验员后作答。</div></p>
   <p><div style = ""color: lightblue;font-size:25px;"">请您尽可能认真地作答，我们将依据您在各问卷和按键任务中的作答质量发放报酬。</div></p>
   <p> <div style = ""color: green;font-size:25px;""><按空格键至下页></div> </p>
   "," ","html-keyboard-response","0","5782","0.0-0.0","4","4","4","4","2","4","3","2","3","3","4","3","2","5","4","5","4","4","4","4","1","2","2","2","2","2","2","2","1","1","1","1","0","0","0","0","1","0","1","1","0","1","0","0","5","2","4","2","3","2","4","4","4","2","2","796472353797316610","梁","167","","","","","","","","","","","","","","","","","","","","","","","","","","","","","","","","","","","","","","","","","",""
"","","","call-function","1","5782","0.0-1.0-0.0","4","4","4","4","2","4","3","2","3","3","4","3","2","5","4","5","4","4","4","4","1","2","2","2","2","2","2","2","1","1","1","1","0","0","0","0","1","0","1","1","0","1","0","0","5","2","4","2","3","2","4","4","4","2","2","796472353797316610","梁","167","","","","","","","","","","","","","","","","","","","","","","","","","","","","","","","","","","","","","","","","","",""
"45638","","{""friend_name"":""梁"",""ParticipantID"":""167""}","survey-html-form","2","51421","0.0-1.0-1.0","4","4","4","4","2","4","3","2","3","3","4","3","2","5","4","5","4","4","4","4","1","2","2","2","2","2","2","2","1","1","1","1","0","0","0","0","1","0","1","1","0","1","0","0","5","2","4","2","3","2","4","4","4","2","2","796472353797316610","梁","167","","","","","","","","","","","","","","","","","","","","","","","","","","","","","","","","","","","","","","","","","",""
"","","","fullscreen","3","53463","0.0-2.0","4","4","4","4","2","4","3","2","3","3","4","3","2","5","4","5","4","4","4","4","1","2","2","2","2","2","2","2","1","1","1","1","0","0","0","0","1","0","1","1","0","1","0","0","5","2","4","2","3","2","4","4","4","2","2","796472353797316610","梁","167","","true","{}","","","","","","","","","","","","","","","","","","","","","","","","","","","","","","","","","","","","","","",""
"23067.700000047684","","{""Q01"":""4"",""Q02"":""4"",""Q03"":""4"",""Q04"":""4"",""Q05"":""2"",""Q06"":""4"",""Q07"":""3"",""Q08"":""2"",""Q09"":""3"",""Q10"":""3""}","survey-template","4","76533","0.0-3.0","4","4","4","4","2","4","3","2","3","3","4","3","2","5","4","5","4","4","4","4","1","2","2","2","2","2","2","2","1","1","1","1","0","0","0","0","1","0","1","1","0","1","0","0","5","2","4","2","3","2","4","4","4","2","2","796472353797316610","梁","167","","","","{""Q01"":""4"",""Q02"":""4"",""Q03"":""4"",""Q04"":""4"",""Q05"":""2"",""Q06"":""4"",""Q07"":""3"",""Q08"":""2"",""Q09"":""3"",""Q10"":""3""}","[0,1,2,3,4,5,6,7,8,9]","[""Q01"",""Q01"",""Q02"",""Q03"",""Q04"",""Q05"",""Q06"",""Q07"",""Q08"",""Q09"",""Q10""]","[4667.099999904633,5938,7245.200000047684,8873,10783.299999952316,12357.400000095367,14864.700000047684,16365.299999952316,17703.700000047684,19903.099999904633,20963.799999952316]","[]","[4667.099999904633,5938,7245.200000047684,8873,10783.299999952316,12357.400000095367,14864.700000047684,16365.299999952316,17703.700000047684,18886.099999904633,19903.099999904633,20963.799999952316,23066.5]","0.4","0.6666666666666666","0","","","","","","","","","","","","","","","","","","","","","","","","","","","","","",""
"33495.300000190735","","{""Q01"":""4"",""Q02"":""3"",""Q03"":""2"",""Q04"":""5"",""Q05"":""4"",""Q06"":""5"",""Q07"":""4"",""Q08"":""4"",""Q09"":""4"",""Q10"":""4""}","survey-template","5","110032","0.0-4.0","4","4","4","4","2","4","3","2","3","3","4","3","2","5","4","5","4","4","4","4","1","2","2","2","2","2","2","2","1","1","1","1","0","0","0","0","1","0","1","1","0","1","0","0","5","2","4","2","3","2","4","4","4","2","2","796472353797316610","梁","167","","","","{""Q01"":""4"",""Q02"":""3"",""Q03"":""2"",""Q04"":""5"",""Q05"":""4"",""Q06"":""5"",""Q07"":""4"",""Q08"":""4"",""Q09"":""4"",""Q10"":""4""}","[0,1,2,3,4,5,6,7,8,9]","[""Q01"",""Q02"",""Q03"",""Q04"",""Q05"",""Q06"",""Q07"",""Q08"",""Q09"",""Q10""]","[3544.5,9154.400000095367,10543.600000143051,12319.300000190735,15398.800000190735,16991.60000014305,21094.10000014305,25207.5,28129.200000047684,31405.700000047684]","[]","[3544.5,9154.400000095367,10543.600000143051,12319.300000190735,14064.400000095367,15398.800000190735,16991.60000014305,21094.10000014305,25207.5,28129.200000047684,31405.700000047684,33494.300000190735]","0.4","0.3333333333333333","0","","","","","","","","","","","","","","","","","","","","","","","","","","","","","",""
"","","","preload","6","110682","0.0-5.0","4","4","4","4","2","4","3","2","3","3","4","3","2","5","4","5","4","4","4","4","1","2","2","2","2","2","2","2","1","1","1","1","0","0","0","0","1","0","1","1","0","1","0","0","5","2","4","2","3","2","4","4","4","2","2","796472353797316610","梁","167","","true","","","","","","","","","","","false","[]","[]","[]","","","","","","","","","","","","","","","","","","","","","","","","","",""
"12365","
    <h3>词语分类任务</h3>
    <p>在接下来的任务中，你需要对一系列词语进行分类。</p>
    <p>请先熟悉这些词语，这有利于你完成接下来的任务。</p>
    <table align=""center"" border=1 cellpadding=3 cellspacing=0>
    <tr> <th>类别</th> <th>词语</th> </tr>
    <tr> <td>&emsp;积极&emsp;</td> <td>&emsp;能干、全能、全才、高效、精干、天才&emsp;</td> </tr>
    <tr> <td>&emsp;消极&emsp;</td> <td>&emsp;无能、低能、废物、拙笨、愚钝、蠢笨&emsp;</td> </tr>
    <tr> <td>&emsp;自我&emsp;</td> <td>&emsp;我、我的、自己、自己的、本人、本人的&emsp;</td> </tr>
    <tr> <td>&emsp;他人&emsp;</td> <td>&emsp;他、他的、别人、别人的、他人、他人的&emsp;</td> </tr>
    </table><br/>","0","html-button-response","7","123048","0.0-6.0-0.0-0.0","4","4","4","4","2","4","3","2","3","3","4","3","2","5","4","5","4","4","4","4","1","2","2","2","2","2","2","2","1","1","1","1","0","0","0","0","1","0","1","1","0","1","0","0","5","2","4","2","3","2","4","4","4","2","2","796472353797316610","梁","167","","","","","","","","","","","","","","","","","1","1","","","","","","","","","","","","","","","","","","","","","","","",""
"5448","
    <div class=""tag-bottom"">
    <p> —— 任务1：对“自我”词和“他人”词分类 ——<p/>
    不同词语会出现在屏幕中央，类别标签将始终显示在屏幕上方<p/>   
    <span style=""color:#FFD866""><b>请根据上方标签的提示，尽可能正确并且快速地做出按键反应</b></span><p/>
    当按键错误时屏幕中会出现<span style=""color:red""> X </span>，需要按另一个键纠正才能继续<br/><p/>
    请把双手食指分别放在键盘的“E”键和“I”键上<p/>
    按<空格键>开始
    </p></div>"," ","html-keyboard-response","8","128497","0.0-6.0-0.0-1.0","4","4","4","4","2","4","3","2","3","3","4","3","2","5","4","5","4","4","4","4","1","2","2","2","2","2","2","2","1","1","1","1","0","0","0","0","1","0","1","1","0","1","0","0","5","2","4","2","3","2","4","4","4","2","2","796472353797316610","梁","167","","","","","","","","","","","","","","","","","","","","","","","","","","","","","","","","","","","","","","","","","",""
"null","","null","html-keyboard-response","9","128748","0.0-6.0-0.0-2.0-0.0","4","4","4","4","2","4","3","2","3","3","4","3","2","5","4","5","4","4","4","4","1","2","2","2","2","2","2","2","1","1","1","1","0","0","0","0","1","0","1","1","0","1","0","0","5","2","4","2","3","2","4","4","4","2","2","796472353797316610","梁","167","","","","","","","","","","","","","","","","","","","","","","","","","","","","","","","","","","","","","","","","","",""
"835","<p style=""color:rgb(150, 250, 100); font-size: 35px;"">他</p>","i","categorize-html","10","129586","0.0-6.0-0.0-2.0-1.0","4","4","4","4","2","4","3","2","3","3","4","3","2","5","4","5","4","4","4","4","1","2","2","2","2","2","2","2","1","1","1","1","0","0","0","0","1","0","1","1","0","1","0","0","5","2","4","2","3","2","4","4","4","2","2","796472353797316610","梁","167","","","","","","","","","","","","","","","","","","","true","1","1","ability","835","other","他","","","","","","","","","","","","","","","","",""
"null","","null","html-keyboard-response","11","129836","0.0-6.0-0.0-2.0-0.1","4","4","4","4","2","4","3","2","3","3","4","3","2","5","4","5","4","4","4","4","1","2","2","2","2","2","2","2","1","1","1","1","0","0","0","0","1","0","1","1","0","1","0","0","5","2","4","2","3","2","4","4","4","2","2","796472353797316610","梁","167","","","","","","","","","","","","","","","","","","","","","","","","","","","","","","","","","","","","","","","","","",""
"628","<p style=""color:rgb(150, 250, 100); font-size: 35px;"">本人的</p>","e","categorize-html","12","130465","0.0-6.0-0.0-2.0-1.1","4","4","4","4","2","4","3","2","3","3","4","3","2","5","4","5","4","4","4","4","1","2","2","2","2","2","2","2","1","1","1","1","0","0","0","0","1","0","1","1","0","1","0","0","5","2","4","2","3","2","4","4","4","2","2","796472353797316610","梁","167","","","","","","","","","","","","","","","","","","","true","1","1","ability","628","self","本人的","","","","","","","","","","","","","","","","",""
"null","","null","html-keyboard-response","13","130716","0.0-6.0-0.0-2.0-0.2","4","4","4","4","2","4","3","2","3","3","4","3","2","5","4","5","4","4","4","4","1","2","2","2","2","2","2","2","1","1","1","1","0","0","0","0","1","0","1","1","0","1","0","0","5","2","4","2","3","2","4","4","4","2","2","796472353797316610","梁","167","","","","","","","","","","","","","","","","","","","","","","","","","","","","","","","","","","","","","","","","","",""
"480","<p style=""color:rgb(150, 250, 100); font-size: 35px;"">本人</p>","e","categorize-html","14","131197","0.0-6.0-0.0-2.0-1.2","4","4","4","4","2","4","3","2","3","3","4","3","2","5","4","5","4","4","4","4","1","2","2","2","2","2","2","2","1","1","1","1","0","0","0","0","1","0","1","1","0","1","0","0","5","2","4","2","3","2","4","4","4","2","2","796472353797316610","梁","167","","","","","","","","","","","","","","","","","","","true","1","1","ability","480","self","本人","","","","","","","","","","","","","","","","",""
"null","","null","html-keyboard-response","15","131448","0.0-6.0-0.0-2.0-0.3","4","4","4","4","2","4","3","2","3","3","4","3","2","5","4","5","4","4","4","4","1","2","2","2","2","2","2","2","1","1","1","1","0","0","0","0","1","0","1","1","0","1","0","0","5","2","4","2","3","2","4","4","4","2","2","796472353797316610","梁","167","","","","","","","","","","","","","","","","","","","","","","","","","","","","","","","","","","","","","","","","","",""
"437","<p style=""color:rgb(150, 250, 100); font-size: 35px;"">他人的</p>","i","categorize-html","16","131886","0.0-6.0-0.0-2.0-1.3","4","4","4","4","2","4","3","2","3","3","4","3","2","5","4","5","4","4","4","4","1","2","2","2","2","2","2","2","1","1","1","1","0","0","0","0","1","0","1","1","0","1","0","0","5","2","4","2","3","2","4","4","4","2","2","796472353797316610","梁","167","","","","","","","","","","","","","","","","","","","true","1","1","ability","437","other","他人的","","","","","","","","","","","","","","","","",""
"null","","null","html-keyboard-response","17","132138","0.0-6.0-0.0-2.0-0.4","4","4","4","4","2","4","3","2","3","3","4","3","2","5","4","5","4","4","4","4","1","2","2","2","2","2","2","2","1","1","1","1","0","0","0","0","1","0","1","1","0","1","0","0","5","2","4","2","3","2","4","4","4","2","2","796472353797316610","梁","167","","","","","","","","","","","","","","","","","","","","","","","","","","","","","","","","","","","","","","","","","",""
"422","<p style=""color:rgb(150, 250, 100); font-size: 35px;"">我</p>","e","categorize-html","18","132562","0.0-6.0-0.0-2.0-1.4","4","4","4","4","2","4","3","2","3","3","4","3","2","5","4","5","4","4","4","4","1","2","2","2","2","2","2","2","1","1","1","1","0","0","0","0","1","0","1","1","0","1","0","0","5","2","4","2","3","2","4","4","4","2","2","796472353797316610","梁","167","","","","","","","","","","","","","","","","","","","true","1","1","ability","422","self","我","","","","","","","","","","","","","","","","",""
"null","","null","html-keyboard-response","19","132813","0.0-6.0-0.0-2.0-0.5","4","4","4","4","2","4","3","2","3","3","4","3","2","5","4","5","4","4","4","4","1","2","2","2","2","2","2","2","1","1","1","1","0","0","0","0","1","0","1","1","0","1","0","0","5","2","4","2","3","2","4","4","4","2","2","796472353797316610","梁","167","","","","","","","","","","","","","","","","","","","","","","","","","","","","","","","","","","","","","","","","","",""
"460","<p style=""color:rgb(150, 250, 100); font-size: 35px;"">他人</p>","i","categorize-html","20","133274","0.0-6.0-0.0-2.0-1.5","4","4","4","4","2","4","3","2","3","3","4","3","2","5","4","5","4","4","4","4","1","2","2","2","2","2","2","2","1","1","1","1","0","0","0","0","1","0","1","1","0","1","0","0","5","2","4","2","3","2","4","4","4","2","2","796472353797316610","梁","167","","","","","","","","","","","","","","","","","","","true","1","1","ability","460","other","他人","","","","","","","","","","","","","","","","",""
"null","","null","html-keyboard-response","21","133526","0.0-6.0-0.0-2.0-0.6","4","4","4","4","2","4","3","2","3","3","4","3","2","5","4","5","4","4","4","4","1","2","2","2","2","2","2","2","1","1","1","1","0","0","0","0","1","0","1","1","0","1","0","0","5","2","4","2","3","2","4","4","4","2","2","796472353797316610","梁","167","","","","","","","","","","","","","","","","","","","","","","","","","","","","","","","","","","","","","","","","","",""
"396","<p style=""color:rgb(150, 250, 100); font-size: 35px;"">他的</p>","i","categorize-html","22","133924","0.0-6.0-0.0-2.0-1.6","4","4","4","4","2","4","3","2","3","3","4","3","2","5","4","5","4","4","4","4","1","2","2","2","2","2","2","2","1","1","1","1","0","0","0","0","1","0","1","1","0","1","0","0","5","2","4","2","3","2","4","4","4","2","2","796472353797316610","梁","167","","","","","","","","","","","","","","","","","","","true","1","1","ability","396","other","他的","","","","","","","","","","","","","","","","",""
"null","","null","html-keyboard-response","23","134174","0.0-6.0-0.0-2.0-0.7","4","4","4","4","2","4","3","2","3","3","4","3","2","5","4","5","4","4","4","4","1","2","2","2","2","2","2","2","1","1","1","1","0","0","0","0","1","0","1","1","0","1","0","0","5","2","4","2","3","2","4","4","4","2","2","796472353797316610","梁","167","","","","","","","","","","","","","","","","","","","","","","","","","","","","","","","","","","","","","","","","","",""
"389","<p style=""color:rgb(150, 250, 100); font-size: 35px;"">自己</p>","e","categorize-html","24","134564","0.0-6.0-0.0-2.0-1.7","4","4","4","4","2","4","3","2","3","3","4","3","2","5","4","5","4","4","4","4","1","2","2","2","2","2","2","2","1","1","1","1","0","0","0","0","1","0","1","1","0","1","0","0","5","2","4","2","3","2","4","4","4","2","2","796472353797316610","梁","167","","","","","","","","","","","","","","","","","","","true","1","1","ability","389","self","自己","","","","","","","","","","","","","","","","",""
"null","","null","html-keyboard-response","25","134815","0.0-6.0-0.0-2.0-0.8","4","4","4","4","2","4","3","2","3","3","4","3","2","5","4","5","4","4","4","4","1","2","2","2","2","2","2","2","1","1","1","1","0","0","0","0","1","0","1","1","0","1","0","0","5","2","4","2","3","2","4","4","4","2","2","796472353797316610","梁","167","","","","","","","","","","","","","","","","","","","","","","","","","","","","","","","","","","","","","","","","","",""
"343","<p style=""color:rgb(150, 250, 100); font-size: 35px;"">自己的</p>","e","categorize-html","26","135159","0.0-6.0-0.0-2.0-1.8","4","4","4","4","2","4","3","2","3","3","4","3","2","5","4","5","4","4","4","4","1","2","2","2","2","2","2","2","1","1","1","1","0","0","0","0","1","0","1","1","0","1","0","0","5","2","4","2","3","2","4","4","4","2","2","796472353797316610","梁","167","","","","","","","","","","","","","","","","","","","true","1","1","ability","343","self","自己的","","","","","","","","","","","","","","","","",""
"null","","null","html-keyboard-response","27","135415","0.0-6.0-0.0-2.0-0.9","4","4","4","4","2","4","3","2","3","3","4","3","2","5","4","5","4","4","4","4","1","2","2","2","2","2","2","2","1","1","1","1","0","0","0","0","1","0","1","1","0","1","0","0","5","2","4","2","3","2","4","4","4","2","2","796472353797316610","梁","167","","","","","","","","","","","","","","","","","","","","","","","","","","","","","","","","","","","","","","","","","",""
"452","<p style=""color:rgb(150, 250, 100); font-size: 35px;"">别人的</p>","i","categorize-html","28","135868","0.0-6.0-0.0-2.0-1.9","4","4","4","4","2","4","3","2","3","3","4","3","2","5","4","5","4","4","4","4","1","2","2","2","2","2","2","2","1","1","1","1","0","0","0","0","1","0","1","1","0","1","0","0","5","2","4","2","3","2","4","4","4","2","2","796472353797316610","梁","167","","","","","","","","","","","","","","","","","","","true","1","1","ability","452","other","别人的","","","","","","","","","","","","","","","","",""
"null","","null","html-keyboard-response","29","136120","0.0-6.0-0.0-2.0-0.10","4","4","4","4","2","4","3","2","3","3","4","3","2","5","4","5","4","4","4","4","1","2","2","2","2","2","2","2","1","1","1","1","0","0","0","0","1","0","1","1","0","1","0","0","5","2","4","2","3","2","4","4","4","2","2","796472353797316610","梁","167","","","","","","","","","","","","","","","","","","","","","","","","","","","","","","","","","","","","","","","","","",""
"420","<p style=""color:rgb(150, 250, 100); font-size: 35px;"">我的</p>","e","categorize-html","30","136541","0.0-6.0-0.0-2.0-1.10","4","4","4","4","2","4","3","2","3","3","4","3","2","5","4","5","4","4","4","4","1","2","2","2","2","2","2","2","1","1","1","1","0","0","0","0","1","0","1","1","0","1","0","0","5","2","4","2","3","2","4","4","4","2","2","796472353797316610","梁","167","","","","","","","","","","","","","","","","","","","true","1","1","ability","420","self","我的","","","","","","","","","","","","","","","","",""
"null","","null","html-keyboard-response","31","136793","0.0-6.0-0.0-2.0-0.11","4","4","4","4","2","4","3","2","3","3","4","3","2","5","4","5","4","4","4","4","1","2","2","2","2","2","2","2","1","1","1","1","0","0","0","0","1","0","1","1","0","1","0","0","5","2","4","2","3","2","4","4","4","2","2","796472353797316610","梁","167","","","","","","","","","","","","","","","","","","","","","","","","","","","","","","","","","","","","","","","","","",""
"384","<p style=""color:rgb(150, 250, 100); font-size: 35px;"">别人</p>","i","categorize-html","32","137178","0.0-6.0-0.0-2.0-1.11","4","4","4","4","2","4","3","2","3","3","4","3","2","5","4","5","4","4","4","4","1","2","2","2","2","2","2","2","1","1","1","1","0","0","0","0","1","0","1","1","0","1","0","0","5","2","4","2","3","2","4","4","4","2","2","796472353797316610","梁","167","","","","","","","","","","","","","","","","","","","true","1","1","ability","384","other","别人","","","","","","","","","","","","","","","","",""
"3422","
    <div class=""tag-bottom""><p>
    —— 任务2：对“积极”词和“消极”词分类 ——<p/>   
    <span style=""color:#78DCE8""><b>注意上方，类别标签和需要分类的词语都已经改变</b></span><p/>
    <span style=""color:#FFD866""><b>请根据上方标签的提示，尽可能正确并且快速地做出按键反应</b></span><p/>
    当按键错误时屏幕中会出现<span style=""color:red""> X </span>，需要按另一个键纠正才能继续<br/><p/>
    请把双手食指分别放在键盘的“E”键和“I”键上<p/>
    按<空格键>开始
    </p></div>"," ","html-keyboard-response","33","140600","0.0-6.0-0.0-3.0","4","4","4","4","2","4","3","2","3","3","4","3","2","5","4","5","4","4","4","4","1","2","2","2","2","2","2","2","1","1","1","1","0","0","0","0","1","0","1","1","0","1","0","0","5","2","4","2","3","2","4","4","4","2","2","796472353797316610","梁","167","","","","","","","","","","","","","","","","","","","","","","","","","","","","","","","","","","","","","","","","","",""
"null","","null","html-keyboard-response","34","140851","0.0-6.0-0.0-4.0-0.0","4","4","4","4","2","4","3","2","3","3","4","3","2","5","4","5","4","4","4","4","1","2","2","2","2","2","2","2","1","1","1","1","0","0","0","0","1","0","1","1","0","1","0","0","5","2","4","2","3","2","4","4","4","2","2","796472353797316610","梁","167","","","","","","","","","","","","","","","","","","","","","","","","","","","","","","","","","","","","","","","","","",""
"584","<p style=""color:white; font-size: 35px;"">拙笨</p>","i","categorize-html","35","141436","0.0-6.0-0.0-4.0-1.0","4","4","4","4","2","4","3","2","3","3","4","3","2","5","4","5","4","4","4","4","1","2","2","2","2","2","2","2","1","1","1","1","0","0","0","0","1","0","1","1","0","1","0","0","5","2","4","2","3","2","4","4","4","2","2","796472353797316610","梁","167","","","","","","","","","","","","","","","","","","","true","2","2","ability","584","negative","拙笨","","","","","","","","","","","","","","","","",""
"null","","null","html-keyboard-response","36","141688","0.0-6.0-0.0-4.0-0.1","4","4","4","4","2","4","3","2","3","3","4","3","2","5","4","5","4","4","4","4","1","2","2","2","2","2","2","2","1","1","1","1","0","0","0","0","1","0","1","1","0","1","0","0","5","2","4","2","3","2","4","4","4","2","2","796472353797316610","梁","167","","","","","","","","","","","","","","","","","","","","","","","","","","","","","","","","","","","","","","","","","",""
"547","<p style=""color:white; font-size: 35px;"">能干</p>","e","categorize-html","37","142236","0.0-6.0-0.0-4.0-1.1","4","4","4","4","2","4","3","2","3","3","4","3","2","5","4","5","4","4","4","4","1","2","2","2","2","2","2","2","1","1","1","1","0","0","0","0","1","0","1","1","0","1","0","0","5","2","4","2","3","2","4","4","4","2","2","796472353797316610","梁","167","","","","","","","","","","","","","","","","","","","true","2","2","ability","547","positive","能干","","","","","","","","","","","","","","","","",""
"null","","null","html-keyboard-response","38","142488","0.0-6.0-0.0-4.0-0.2","4","4","4","4","2","4","3","2","3","3","4","3","2","5","4","5","4","4","4","4","1","2","2","2","2","2","2","2","1","1","1","1","0","0","0","0","1","0","1","1","0","1","0","0","5","2","4","2","3","2","4","4","4","2","2","796472353797316610","梁","167","","","","","","","","","","","","","","","","","","","","","","","","","","","","","","","","","","","","","","","","","",""
"415","<p style=""color:white; font-size: 35px;"">废物</p>","i","categorize-html","39","142904","0.0-6.0-0.0-4.0-1.2","4","4","4","4","2","4","3","2","3","3","4","3","2","5","4","5","4","4","4","4","1","2","2","2","2","2","2","2","1","1","1","1","0","0","0","0","1","0","1","1","0","1","0","0","5","2","4","2","3","2","4","4","4","2","2","796472353797316610","梁","167","","","","","","","","","","","","","","","","","","","true","2","2","ability","415","negative","废物","","","","","","","","","","","","","","","","",""
"null","","null","html-keyboard-response","40","143156","0.0-6.0-0.0-4.0-0.3","4","4","4","4","2","4","3","2","3","3","4","3","2","5","4","5","4","4","4","4","1","2","2","2","2","2","2","2","1","1","1","1","0","0","0","0","1","0","1","1","0","1","0","0","5","2","4","2","3","2","4","4","4","2","2","796472353797316610","梁","167","","","","","","","","","","","","","","","","","","","","","","","","","","","","","","","","","","","","","","","","","",""
"435","<p style=""color:white; font-size: 35px;"">全才</p>","e","categorize-html","41","143591","0.0-6.0-0.0-4.0-1.3","4","4","4","4","2","4","3","2","3","3","4","3","2","5","4","5","4","4","4","4","1","2","2","2","2","2","2","2","1","1","1","1","0","0","0","0","1","0","1","1","0","1","0","0","5","2","4","2","3","2","4","4","4","2","2","796472353797316610","梁","167","","","","","","","","","","","","","","","","","","","true","2","2","ability","435","positive","全才","","","","","","","","","","","","","","","","",""
"null","","null","html-keyboard-response","42","143843","0.0-6.0-0.0-4.0-0.4","4","4","4","4","2","4","3","2","3","3","4","3","2","5","4","5","4","4","4","4","1","2","2","2","2","2","2","2","1","1","1","1","0","0","0","0","1","0","1","1","0","1","0","0","5","2","4","2","3","2","4","4","4","2","2","796472353797316610","梁","167","","","","","","","","","","","","","","","","","","","","","","","","","","","","","","","","","","","","","","","","","",""
"372","<p style=""color:white; font-size: 35px;"">天才</p>","e","categorize-html","43","144216","0.0-6.0-0.0-4.0-1.4","4","4","4","4","2","4","3","2","3","3","4","3","2","5","4","5","4","4","4","4","1","2","2","2","2","2","2","2","1","1","1","1","0","0","0","0","1","0","1","1","0","1","0","0","5","2","4","2","3","2","4","4","4","2","2","796472353797316610","梁","167","","","","","","","","","","","","","","","","","","","true","2","2","ability","372","positive","天才","","","","","","","","","","","","","","","","",""
"null","","null","html-keyboard-response","44","144468","0.0-6.0-0.0-4.0-0.5","4","4","4","4","2","4","3","2","3","3","4","3","2","5","4","5","4","4","4","4","1","2","2","2","2","2","2","2","1","1","1","1","0","0","0","0","1","0","1","1","0","1","0","0","5","2","4","2","3","2","4","4","4","2","2","796472353797316610","梁","167","","","","","","","","","","","","","","","","","","","","","","","","","","","","","","","","","","","","","","","","","",""
"396","<p style=""color:white; font-size: 35px;"">全能</p>","e","categorize-html","45","144864","0.0-6.0-0.0-4.0-1.5","4","4","4","4","2","4","3","2","3","3","4","3","2","5","4","5","4","4","4","4","1","2","2","2","2","2","2","2","1","1","1","1","0","0","0","0","1","0","1","1","0","1","0","0","5","2","4","2","3","2","4","4","4","2","2","796472353797316610","梁","167","","","","","","","","","","","","","","","","","","","true","2","2","ability","396","positive","全能","","","","","","","","","","","","","","","","",""
"null","","null","html-keyboard-response","46","145115","0.0-6.0-0.0-4.0-0.6","4","4","4","4","2","4","3","2","3","3","4","3","2","5","4","5","4","4","4","4","1","2","2","2","2","2","2","2","1","1","1","1","0","0","0","0","1","0","1","1","0","1","0","0","5","2","4","2","3","2","4","4","4","2","2","796472353797316610","梁","167","","","","","","","","","","","","","","","","","","","","","","","","","","","","","","","","","","","","","","","","","",""
"566","<p style=""color:white; font-size: 35px;"">高效</p>","e","categorize-html","47","145681","0.0-6.0-0.0-4.0-1.6","4","4","4","4","2","4","3","2","3","3","4","3","2","5","4","5","4","4","4","4","1","2","2","2","2","2","2","2","1","1","1","1","0","0","0","0","1","0","1","1","0","1","0","0","5","2","4","2","3","2","4","4","4","2","2","796472353797316610","梁","167","","","","","","","","","","","","","","","","","","","true","2","2","ability","566","positive","高效","","","","","","","","","","","","","","","","",""
"null","","null","html-keyboard-response","48","145933","0.0-6.0-0.0-4.0-0.7","4","4","4","4","2","4","3","2","3","3","4","3","2","5","4","5","4","4","4","4","1","2","2","2","2","2","2","2","1","1","1","1","0","0","0","0","1","0","1","1","0","1","0","0","5","2","4","2","3","2","4","4","4","2","2","796472353797316610","梁","167","","","","","","","","","","","","","","","","","","","","","","","","","","","","","","","","","","","","","","","","","",""
"494","<p style=""color:white; font-size: 35px;"">无能</p>","i","categorize-html","49","146428","0.0-6.0-0.0-4.0-1.7","4","4","4","4","2","4","3","2","3","3","4","3","2","5","4","5","4","4","4","4","1","2","2","2","2","2","2","2","1","1","1","1","0","0","0","0","1","0","1","1","0","1","0","0","5","2","4","2","3","2","4","4","4","2","2","796472353797316610","梁","167","","","","","","","","","","","","","","","","","","","true","2","2","ability","494","negative","无能","","","","","","","","","","","","","","","","",""
"null","","null","html-keyboard-response","50","146679","0.0-6.0-0.0-4.0-0.8","4","4","4","4","2","4","3","2","3","3","4","3","2","5","4","5","4","4","4","4","1","2","2","2","2","2","2","2","1","1","1","1","0","0","0","0","1","0","1","1","0","1","0","0","5","2","4","2","3","2","4","4","4","2","2","796472353797316610","梁","167","","","","","","","","","","","","","","","","","","","","","","","","","","","","","","","","","","","","","","","","","",""
"539","<p style=""color:white; font-size: 35px;"">精干</p>","e","categorize-html","51","147218","0.0-6.0-0.0-4.0-1.8","4","4","4","4","2","4","3","2","3","3","4","3","2","5","4","5","4","4","4","4","1","2","2","2","2","2","2","2","1","1","1","1","0","0","0","0","1","0","1","1","0","1","0","0","5","2","4","2","3","2","4","4","4","2","2","796472353797316610","梁","167","","","","","","","","","","","","","","","","","","","true","2","2","ability","539","positive","精干","","","","","","","","","","","","","","","","",""
"null","","null","html-keyboard-response","52","147469","0.0-6.0-0.0-4.0-0.9","4","4","4","4","2","4","3","2","3","3","4","3","2","5","4","5","4","4","4","4","1","2","2","2","2","2","2","2","1","1","1","1","0","0","0","0","1","0","1","1","0","1","0","0","5","2","4","2","3","2","4","4","4","2","2","796472353797316610","梁","167","","","","","","","","","","","","","","","","","","","","","","","","","","","","","","","","","","","","","","","","","",""
"513","<p style=""color:white; font-size: 35px;"">蠢笨</p>","i","categorize-html","53","147983","0.0-6.0-0.0-4.0-1.9","4","4","4","4","2","4","3","2","3","3","4","3","2","5","4","5","4","4","4","4","1","2","2","2","2","2","2","2","1","1","1","1","0","0","0","0","1","0","1","1","0","1","0","0","5","2","4","2","3","2","4","4","4","2","2","796472353797316610","梁","167","","","","","","","","","","","","","","","","","","","true","2","2","ability","513","negative","蠢笨","","","","","","","","","","","","","","","","",""
"null","","null","html-keyboard-response","54","148235","0.0-6.0-0.0-4.0-0.10","4","4","4","4","2","4","3","2","3","3","4","3","2","5","4","5","4","4","4","4","1","2","2","2","2","2","2","2","1","1","1","1","0","0","0","0","1","0","1","1","0","1","0","0","5","2","4","2","3","2","4","4","4","2","2","796472353797316610","梁","167","","","","","","","","","","","","","","","","","","","","","","","","","","","","","","","","","","","","","","","","","",""
"384","<p style=""color:white; font-size: 35px;"">低能</p>","i","categorize-html","55","148619","0.0-6.0-0.0-4.0-1.10","4","4","4","4","2","4","3","2","3","3","4","3","2","5","4","5","4","4","4","4","1","2","2","2","2","2","2","2","1","1","1","1","0","0","0","0","1","0","1","1","0","1","0","0","5","2","4","2","3","2","4","4","4","2","2","796472353797316610","梁","167","","","","","","","","","","","","","","","","","","","true","2","2","ability","384","negative","低能","","","","","","","","","","","","","","","","",""
"null","","null","html-keyboard-response","56","148870","0.0-6.0-0.0-4.0-0.11","4","4","4","4","2","4","3","2","3","3","4","3","2","5","4","5","4","4","4","4","1","2","2","2","2","2","2","2","1","1","1","1","0","0","0","0","1","0","1","1","0","1","0","0","5","2","4","2","3","2","4","4","4","2","2","796472353797316610","梁","167","","","","","","","","","","","","","","","","","","","","","","","","","","","","","","","","","","","","","","","","","",""
"439","<p style=""color:white; font-size: 35px;"">愚钝</p>","i","categorize-html","57","149310","0.0-6.0-0.0-4.0-1.11","4","4","4","4","2","4","3","2","3","3","4","3","2","5","4","5","4","4","4","4","1","2","2","2","2","2","2","2","1","1","1","1","0","0","0","0","1","0","1","1","0","1","0","0","5","2","4","2","3","2","4","4","4","2","2","796472353797316610","梁","167","","","","","","","","","","","","","","","","","","","true","2","2","ability","439","negative","愚钝","","","","","","","","","","","","","","","","",""
"4070","
    <div class=""tag-bottom""><p>
    —— 任务3：对“自我/积极”词和“他人/消极”词分类 ——<p/>
    <span style=""color:#78DCE8""><b>注意上方，之前的四类词语将混合在一起交替呈现</b></span><p/>
    <span style=""color:#FFD866""><b>请根据上方标签的提示，尽可能正确并且快速地做出按键反应</b></span><p/>
    当按键错误时屏幕中会出现<span style=""color:red""> X </span>，需要按另一个键纠正才能继续<br/><p/>
    请把双手食指分别放在键盘的“E”键和“I”键上<p/>
    按<空格键>开始
    </p></div>"," ","html-keyboard-response","58","153380","0.0-6.0-0.0-5.0","4","4","4","4","2","4","3","2","3","3","4","3","2","5","4","5","4","4","4","4","1","2","2","2","2","2","2","2","1","1","1","1","0","0","0","0","1","0","1","1","0","1","0","0","5","2","4","2","3","2","4","4","4","2","2","796472353797316610","梁","167","","","","","","","","","","","","","","","","","","","","","","","","","","","","","","","","","","","","","","","","","",""
"null","","null","html-keyboard-response","59","153631","0.0-6.0-0.0-6.0-0.0","4","4","4","4","2","4","3","2","3","3","4","3","2","5","4","5","4","4","4","4","1","2","2","2","2","2","2","2","1","1","1","1","0","0","0","0","1","0","1","1","0","1","0","0","5","2","4","2","3","2","4","4","4","2","2","796472353797316610","梁","167","","","","","","","","","","","","","","","","","","","","","","","","","","","","","","","","","","","","","","","","","",""
"453","<p style=""color:rgb(150, 250, 100); font-size: 35px;"">他人的</p>","i","categorize-html","60","154085","0.0-6.0-0.0-6.0-1.0","4","4","4","4","2","4","3","2","3","3","4","3","2","5","4","5","4","4","4","4","1","2","2","2","2","2","2","2","1","1","1","1","0","0","0","0","1","0","1","1","0","1","0","0","5","2","4","2","3","2","4","4","4","2","2","796472353797316610","梁","167","","","","","","","","","","","","","","","","","","","true","3","3","ability","453","other","他人的","","","","","","","","","","","","","","","","",""
"null","","null","html-keyboard-response","61","154336","0.0-6.0-0.0-6.0-0.1","4","4","4","4","2","4","3","2","3","3","4","3","2","5","4","5","4","4","4","4","1","2","2","2","2","2","2","2","1","1","1","1","0","0","0","0","1","0","1","1","0","1","0","0","5","2","4","2","3","2","4","4","4","2","2","796472353797316610","梁","167","","","","","","","","","","","","","","","","","","","","","","","","","","","","","","","","","","","","","","","","","",""
"454","<p style=""color:white; font-size: 35px;"">高效</p>","e","categorize-html","62","154791","0.0-6.0-0.0-6.0-1.1","4","4","4","4","2","4","3","2","3","3","4","3","2","5","4","5","4","4","4","4","1","2","2","2","2","2","2","2","1","1","1","1","0","0","0","0","1","0","1","1","0","1","0","0","5","2","4","2","3","2","4","4","4","2","2","796472353797316610","梁","167","","","","","","","","","","","","","","","","","","","true","3","3","ability","454","positive","高效","","","","","","","","","","","","","","","","",""
"null","","null","html-keyboard-response","63","155042","0.0-6.0-0.0-6.0-0.2","4","4","4","4","2","4","3","2","3","3","4","3","2","5","4","5","4","4","4","4","1","2","2","2","2","2","2","2","1","1","1","1","0","0","0","0","1","0","1","1","0","1","0","0","5","2","4","2","3","2","4","4","4","2","2","796472353797316610","梁","167","","","","","","","","","","","","","","","","","","","","","","","","","","","","","","","","","","","","","","","","","",""
"382","<p style=""color:rgb(150, 250, 100); font-size: 35px;"">自己的</p>","e","categorize-html","64","155425","0.0-6.0-0.0-6.0-1.2","4","4","4","4","2","4","3","2","3","3","4","3","2","5","4","5","4","4","4","4","1","2","2","2","2","2","2","2","1","1","1","1","0","0","0","0","1","0","1","1","0","1","0","0","5","2","4","2","3","2","4","4","4","2","2","796472353797316610","梁","167","","","","","","","","","","","","","","","","","","","true","3","3","ability","382","self","自己的","","","","","","","","","","","","","","","","",""
"null","","null","html-keyboard-response","65","155676","0.0-6.0-0.0-6.0-0.3","4","4","4","4","2","4","3","2","3","3","4","3","2","5","4","5","4","4","4","4","1","2","2","2","2","2","2","2","1","1","1","1","0","0","0","0","1","0","1","1","0","1","0","0","5","2","4","2","3","2","4","4","4","2","2","796472353797316610","梁","167","","","","","","","","","","","","","","","","","","","","","","","","","","","","","","","","","","","","","","","","","",""
"523","<p style=""color:white; font-size: 35px;"">废物</p>","i","categorize-html","66","156200","0.0-6.0-0.0-6.0-1.3","4","4","4","4","2","4","3","2","3","3","4","3","2","5","4","5","4","4","4","4","1","2","2","2","2","2","2","2","1","1","1","1","0","0","0","0","1","0","1","1","0","1","0","0","5","2","4","2","3","2","4","4","4","2","2","796472353797316610","梁","167","","","","","","","","","","","","","","","","","","","true","3","3","ability","523","negative","废物","","","","","","","","","","","","","","","","",""
"null","","null","html-keyboard-response","67","156450","0.0-6.0-0.0-6.0-0.4","4","4","4","4","2","4","3","2","3","3","4","3","2","5","4","5","4","4","4","4","1","2","2","2","2","2","2","2","1","1","1","1","0","0","0","0","1","0","1","1","0","1","0","0","5","2","4","2","3","2","4","4","4","2","2","796472353797316610","梁","167","","","","","","","","","","","","","","","","","","","","","","","","","","","","","","","","","","","","","","","","","",""
"486","<p style=""color:rgb(150, 250, 100); font-size: 35px;"">他人</p>","i","categorize-html","68","156937","0.0-6.0-0.0-6.0-1.4","4","4","4","4","2","4","3","2","3","3","4","3","2","5","4","5","4","4","4","4","1","2","2","2","2","2","2","2","1","1","1","1","0","0","0","0","1","0","1","1","0","1","0","0","5","2","4","2","3","2","4","4","4","2","2","796472353797316610","梁","167","","","","","","","","","","","","","","","","","","","true","3","3","ability","486","other","他人","","","","","","","","","","","","","","","","",""
"null","","null","html-keyboard-response","69","157188","0.0-6.0-0.0-6.0-0.5","4","4","4","4","2","4","3","2","3","3","4","3","2","5","4","5","4","4","4","4","1","2","2","2","2","2","2","2","1","1","1","1","0","0","0","0","1","0","1","1","0","1","0","0","5","2","4","2","3","2","4","4","4","2","2","796472353797316610","梁","167","","","","","","","","","","","","","","","","","","","","","","","","","","","","","","","","","","","","","","","","","",""
"379","<p style=""color:white; font-size: 35px;"">蠢笨</p>","i","categorize-html","70","157567","0.0-6.0-0.0-6.0-1.5","4","4","4","4","2","4","3","2","3","3","4","3","2","5","4","5","4","4","4","4","1","2","2","2","2","2","2","2","1","1","1","1","0","0","0","0","1","0","1","1","0","1","0","0","5","2","4","2","3","2","4","4","4","2","2","796472353797316610","梁","167","","","","","","","","","","","","","","","","","","","true","3","3","ability","379","negative","蠢笨","","","","","","","","","","","","","","","","",""
"null","","null","html-keyboard-response","71","157818","0.0-6.0-0.0-6.0-0.6","4","4","4","4","2","4","3","2","3","3","4","3","2","5","4","5","4","4","4","4","1","2","2","2","2","2","2","2","1","1","1","1","0","0","0","0","1","0","1","1","0","1","0","0","5","2","4","2","3","2","4","4","4","2","2","796472353797316610","梁","167","","","","","","","","","","","","","","","","","","","","","","","","","","","","","","","","","","","","","","","","","",""
"396","<p style=""color:rgb(150, 250, 100); font-size: 35px;"">我</p>","e","categorize-html","72","158214","0.0-6.0-0.0-6.0-1.6","4","4","4","4","2","4","3","2","3","3","4","3","2","5","4","5","4","4","4","4","1","2","2","2","2","2","2","2","1","1","1","1","0","0","0","0","1","0","1","1","0","1","0","0","5","2","4","2","3","2","4","4","4","2","2","796472353797316610","梁","167","","","","","","","","","","","","","","","","","","","true","3","3","ability","396","self","我","","","","","","","","","","","","","","","","",""
"null","","null","html-keyboard-response","73","158466","0.0-6.0-0.0-6.0-0.7","4","4","4","4","2","4","3","2","3","3","4","3","2","5","4","5","4","4","4","4","1","2","2","2","2","2","2","2","1","1","1","1","0","0","0","0","1","0","1","1","0","1","0","0","5","2","4","2","3","2","4","4","4","2","2","796472353797316610","梁","167","","","","","","","","","","","","","","","","","","","","","","","","","","","","","","","","","","","","","","","","","",""
"381","<p style=""color:white; font-size: 35px;"">精干</p>","e","categorize-html","74","158847","0.0-6.0-0.0-6.0-1.7","4","4","4","4","2","4","3","2","3","3","4","3","2","5","4","5","4","4","4","4","1","2","2","2","2","2","2","2","1","1","1","1","0","0","0","0","1","0","1","1","0","1","0","0","5","2","4","2","3","2","4","4","4","2","2","796472353797316610","梁","167","","","","","","","","","","","","","","","","","","","true","3","3","ability","381","positive","精干","","","","","","","","","","","","","","","","",""
"null","","null","html-keyboard-response","75","159098","0.0-6.0-0.0-6.0-0.8","4","4","4","4","2","4","3","2","3","3","4","3","2","5","4","5","4","4","4","4","1","2","2","2","2","2","2","2","1","1","1","1","0","0","0","0","1","0","1","1","0","1","0","0","5","2","4","2","3","2","4","4","4","2","2","796472353797316610","梁","167","","","","","","","","","","","","","","","","","","","","","","","","","","","","","","","","","","","","","","","","","",""
"379","<p style=""color:rgb(150, 250, 100); font-size: 35px;"">他</p>","e","categorize-html","76","160307","0.0-6.0-0.0-6.0-1.8","4","4","4","4","2","4","3","2","3","3","4","3","2","5","4","5","4","4","4","4","1","2","2","2","2","2","2","2","1","1","1","1","0","0","0","0","1","0","1","1","0","1","0","0","5","2","4","2","3","2","4","4","4","2","2","796472353797316610","梁","167","","","","","","","","","","","","","","","","","","","false","3","3","ability","1027.6818181818182","other","他","","","","","","","","","","","","","","","","",""
"null","","null","html-keyboard-response","77","160564","0.0-6.0-0.0-6.0-0.9","4","4","4","4","2","4","3","2","3","3","4","3","2","5","4","5","4","4","4","4","1","2","2","2","2","2","2","2","1","1","1","1","0","0","0","0","1","0","1","1","0","1","0","0","5","2","4","2","3","2","4","4","4","2","2","796472353797316610","梁","167","","","","","","","","","","","","","","","","","","","","","","","","","","","","","","","","","","","","","","","","","",""
"540","<p style=""color:white; font-size: 35px;"">全才</p>","e","categorize-html","78","161105","0.0-6.0-0.0-6.0-1.9","4","4","4","4","2","4","3","2","3","3","4","3","2","5","4","5","4","4","4","4","1","2","2","2","2","2","2","2","1","1","1","1","0","0","0","0","1","0","1","1","0","1","0","0","5","2","4","2","3","2","4","4","4","2","2","796472353797316610","梁","167","","","","","","","","","","","","","","","","","","","true","3","3","ability","540","positive","全才","","","","","","","","","","","","","","","","",""
"null","","null","html-keyboard-response","79","161355","0.0-6.0-0.0-6.0-0.10","4","4","4","4","2","4","3","2","3","3","4","3","2","5","4","5","4","4","4","4","1","2","2","2","2","2","2","2","1","1","1","1","0","0","0","0","1","0","1","1","0","1","0","0","5","2","4","2","3","2","4","4","4","2","2","796472353797316610","梁","167","","","","","","","","","","","","","","","","","","","","","","","","","","","","","","","","","","","","","","","","","",""
"394","<p style=""color:rgb(150, 250, 100); font-size: 35px;"">我的</p>","e","categorize-html","80","161750","0.0-6.0-0.0-6.0-1.10","4","4","4","4","2","4","3","2","3","3","4","3","2","5","4","5","4","4","4","4","1","2","2","2","2","2","2","2","1","1","1","1","0","0","0","0","1","0","1","1","0","1","0","0","5","2","4","2","3","2","4","4","4","2","2","796472353797316610","梁","167","","","","","","","","","","","","","","","","","","","true","3","3","ability","394","self","我的","","","","","","","","","","","","","","","","",""
"null","","null","html-keyboard-response","81","162001","0.0-6.0-0.0-6.0-0.11","4","4","4","4","2","4","3","2","3","3","4","3","2","5","4","5","4","4","4","4","1","2","2","2","2","2","2","2","1","1","1","1","0","0","0","0","1","0","1","1","0","1","0","0","5","2","4","2","3","2","4","4","4","2","2","796472353797316610","梁","167","","","","","","","","","","","","","","","","","","","","","","","","","","","","","","","","","","","","","","","","","",""
"436","<p style=""color:white; font-size: 35px;"">愚钝</p>","i","categorize-html","82","162437","0.0-6.0-0.0-6.0-1.11","4","4","4","4","2","4","3","2","3","3","4","3","2","5","4","5","4","4","4","4","1","2","2","2","2","2","2","2","1","1","1","1","0","0","0","0","1","0","1","1","0","1","0","0","5","2","4","2","3","2","4","4","4","2","2","796472353797316610","梁","167","","","","","","","","","","","","","","","","","","","true","3","3","ability","436","negative","愚钝","","","","","","","","","","","","","","","","",""
"null","","null","html-keyboard-response","83","162688","0.0-6.0-0.0-6.0-0.12","4","4","4","4","2","4","3","2","3","3","4","3","2","5","4","5","4","4","4","4","1","2","2","2","2","2","2","2","1","1","1","1","0","0","0","0","1","0","1","1","0","1","0","0","5","2","4","2","3","2","4","4","4","2","2","796472353797316610","梁","167","","","","","","","","","","","","","","","","","","","","","","","","","","","","","","","","","","","","","","","","","",""
"327","<p style=""color:rgb(150, 250, 100); font-size: 35px;"">本人</p>","i","categorize-html","84","163406","0.0-6.0-0.0-6.0-1.12","4","4","4","4","2","4","3","2","3","3","4","3","2","5","4","5","4","4","4","4","1","2","2","2","2","2","2","2","1","1","1","1","0","0","0","0","1","0","1","1","0","1","0","0","5","2","4","2","3","2","4","4","4","2","2","796472353797316610","梁","167","","","","","","","","","","","","","","","","","","","false","3","3","ability","1027.6818181818182","self","本人","","","","","","","","","","","","","","","","",""
"null","","null","html-keyboard-response","85","163657","0.0-6.0-0.0-6.0-0.13","4","4","4","4","2","4","3","2","3","3","4","3","2","5","4","5","4","4","4","4","1","2","2","2","2","2","2","2","1","1","1","1","0","0","0","0","1","0","1","1","0","1","0","0","5","2","4","2","3","2","4","4","4","2","2","796472353797316610","梁","167","","","","","","","","","","","","","","","","","","","","","","","","","","","","","","","","","","","","","","","","","",""
"484","<p style=""color:white; font-size: 35px;"">能干</p>","e","categorize-html","86","164142","0.0-6.0-0.0-6.0-1.13","4","4","4","4","2","4","3","2","3","3","4","3","2","5","4","5","4","4","4","4","1","2","2","2","2","2","2","2","1","1","1","1","0","0","0","0","1","0","1","1","0","1","0","0","5","2","4","2","3","2","4","4","4","2","2","796472353797316610","梁","167","","","","","","","","","","","","","","","","","","","true","3","3","ability","484","positive","能干","","","","","","","","","","","","","","","","",""
"null","","null","html-keyboard-response","87","164394","0.0-6.0-0.0-6.0-0.14","4","4","4","4","2","4","3","2","3","3","4","3","2","5","4","5","4","4","4","4","1","2","2","2","2","2","2","2","1","1","1","1","0","0","0","0","1","0","1","1","0","1","0","0","5","2","4","2","3","2","4","4","4","2","2","796472353797316610","梁","167","","","","","","","","","","","","","","","","","","","","","","","","","","","","","","","","","","","","","","","","","",""
"387","<p style=""color:rgb(150, 250, 100); font-size: 35px;"">别人</p>","i","categorize-html","88","164782","0.0-6.0-0.0-6.0-1.14","4","4","4","4","2","4","3","2","3","3","4","3","2","5","4","5","4","4","4","4","1","2","2","2","2","2","2","2","1","1","1","1","0","0","0","0","1","0","1","1","0","1","0","0","5","2","4","2","3","2","4","4","4","2","2","796472353797316610","梁","167","","","","","","","","","","","","","","","","","","","true","3","3","ability","387","other","别人","","","","","","","","","","","","","","","","",""
"null","","null","html-keyboard-response","89","165033","0.0-6.0-0.0-6.0-0.15","4","4","4","4","2","4","3","2","3","3","4","3","2","5","4","5","4","4","4","4","1","2","2","2","2","2","2","2","1","1","1","1","0","0","0","0","1","0","1","1","0","1","0","0","5","2","4","2","3","2","4","4","4","2","2","796472353797316610","梁","167","","","","","","","","","","","","","","","","","","","","","","","","","","","","","","","","","","","","","","","","","",""
"380","<p style=""color:white; font-size: 35px;"">拙笨</p>","i","categorize-html","90","165413","0.0-6.0-0.0-6.0-1.15","4","4","4","4","2","4","3","2","3","3","4","3","2","5","4","5","4","4","4","4","1","2","2","2","2","2","2","2","1","1","1","1","0","0","0","0","1","0","1","1","0","1","0","0","5","2","4","2","3","2","4","4","4","2","2","796472353797316610","梁","167","","","","","","","","","","","","","","","","","","","true","3","3","ability","380","negative","拙笨","","","","","","","","","","","","","","","","",""
"null","","null","html-keyboard-response","91","165665","0.0-6.0-0.0-6.0-0.16","4","4","4","4","2","4","3","2","3","3","4","3","2","5","4","5","4","4","4","4","1","2","2","2","2","2","2","2","1","1","1","1","0","0","0","0","1","0","1","1","0","1","0","0","5","2","4","2","3","2","4","4","4","2","2","796472353797316610","梁","167","","","","","","","","","","","","","","","","","","","","","","","","","","","","","","","","","","","","","","","","","",""
"431","<p style=""color:rgb(150, 250, 100); font-size: 35px;"">他的</p>","i","categorize-html","92","166096","0.0-6.0-0.0-6.0-1.16","4","4","4","4","2","4","3","2","3","3","4","3","2","5","4","5","4","4","4","4","1","2","2","2","2","2","2","2","1","1","1","1","0","0","0","0","1","0","1","1","0","1","0","0","5","2","4","2","3","2","4","4","4","2","2","796472353797316610","梁","167","","","","","","","","","","","","","","","","","","","true","3","3","ability","431","other","他的","","","","","","","","","","","","","","","","",""
"null","","null","html-keyboard-response","93","166348","0.0-6.0-0.0-6.0-0.17","4","4","4","4","2","4","3","2","3","3","4","3","2","5","4","5","4","4","4","4","1","2","2","2","2","2","2","2","1","1","1","1","0","0","0","0","1","0","1","1","0","1","0","0","5","2","4","2","3","2","4","4","4","2","2","796472353797316610","梁","167","","","","","","","","","","","","","","","","","","","","","","","","","","","","","","","","","","","","","","","","","",""
"414","<p style=""color:white; font-size: 35px;"">天才</p>","e","categorize-html","94","166762","0.0-6.0-0.0-6.0-1.17","4","4","4","4","2","4","3","2","3","3","4","3","2","5","4","5","4","4","4","4","1","2","2","2","2","2","2","2","1","1","1","1","0","0","0","0","1","0","1","1","0","1","0","0","5","2","4","2","3","2","4","4","4","2","2","796472353797316610","梁","167","","","","","","","","","","","","","","","","","","","true","3","3","ability","414","positive","天才","","","","","","","","","","","","","","","","",""
"null","","null","html-keyboard-response","95","167015","0.0-6.0-0.0-6.0-0.18","4","4","4","4","2","4","3","2","3","3","4","3","2","5","4","5","4","4","4","4","1","2","2","2","2","2","2","2","1","1","1","1","0","0","0","0","1","0","1","1","0","1","0","0","5","2","4","2","3","2","4","4","4","2","2","796472353797316610","梁","167","","","","","","","","","","","","","","","","","","","","","","","","","","","","","","","","","","","","","","","","","",""
"350","<p style=""color:rgb(150, 250, 100); font-size: 35px;"">自己</p>","e","categorize-html","96","167365","0.0-6.0-0.0-6.0-1.18","4","4","4","4","2","4","3","2","3","3","4","3","2","5","4","5","4","4","4","4","1","2","2","2","2","2","2","2","1","1","1","1","0","0","0","0","1","0","1","1","0","1","0","0","5","2","4","2","3","2","4","4","4","2","2","796472353797316610","梁","167","","","","","","","","","","","","","","","","","","","true","3","3","ability","350","self","自己","","","","","","","","","","","","","","","","",""
"null","","null","html-keyboard-response","97","167616","0.0-6.0-0.0-6.0-0.19","4","4","4","4","2","4","3","2","3","3","4","3","2","5","4","5","4","4","4","4","1","2","2","2","2","2","2","2","1","1","1","1","0","0","0","0","1","0","1","1","0","1","0","0","5","2","4","2","3","2","4","4","4","2","2","796472353797316610","梁","167","","","","","","","","","","","","","","","","","","","","","","","","","","","","","","","","","","","","","","","","","",""
"441","<p style=""color:white; font-size: 35px;"">低能</p>","i","categorize-html","98","168058","0.0-6.0-0.0-6.0-1.19","4","4","4","4","2","4","3","2","3","3","4","3","2","5","4","5","4","4","4","4","1","2","2","2","2","2","2","2","1","1","1","1","0","0","0","0","1","0","1","1","0","1","0","0","5","2","4","2","3","2","4","4","4","2","2","796472353797316610","梁","167","","","","","","","","","","","","","","","","","","","true","3","3","ability","441","negative","低能","","","","","","","","","","","","","","","","",""
"null","","null","html-keyboard-response","99","168309","0.0-6.0-0.0-6.0-0.20","4","4","4","4","2","4","3","2","3","3","4","3","2","5","4","5","4","4","4","4","1","2","2","2","2","2","2","2","1","1","1","1","0","0","0","0","1","0","1","1","0","1","0","0","5","2","4","2","3","2","4","4","4","2","2","796472353797316610","梁","167","","","","","","","","","","","","","","","","","","","","","","","","","","","","","","","","","","","","","","","","","",""
"447","<p style=""color:rgb(150, 250, 100); font-size: 35px;"">别人的</p>","i","categorize-html","100","168757","0.0-6.0-0.0-6.0-1.20","4","4","4","4","2","4","3","2","3","3","4","3","2","5","4","5","4","4","4","4","1","2","2","2","2","2","2","2","1","1","1","1","0","0","0","0","1","0","1","1","0","1","0","0","5","2","4","2","3","2","4","4","4","2","2","796472353797316610","梁","167","","","","","","","","","","","","","","","","","","","true","3","3","ability","447","other","别人的","","","","","","","","","","","","","","","","",""
"null","","null","html-keyboard-response","101","169009","0.0-6.0-0.0-6.0-0.21","4","4","4","4","2","4","3","2","3","3","4","3","2","5","4","5","4","4","4","4","1","2","2","2","2","2","2","2","1","1","1","1","0","0","0","0","1","0","1","1","0","1","0","0","5","2","4","2","3","2","4","4","4","2","2","796472353797316610","梁","167","","","","","","","","","","","","","","","","","","","","","","","","","","","","","","","","","","","","","","","","","",""
"458","<p style=""color:white; font-size: 35px;"">全能</p>","e","categorize-html","102","169468","0.0-6.0-0.0-6.0-1.21","4","4","4","4","2","4","3","2","3","3","4","3","2","5","4","5","4","4","4","4","1","2","2","2","2","2","2","2","1","1","1","1","0","0","0","0","1","0","1","1","0","1","0","0","5","2","4","2","3","2","4","4","4","2","2","796472353797316610","梁","167","","","","","","","","","","","","","","","","","","","true","3","3","ability","458","positive","全能","","","","","","","","","","","","","","","","",""
"null","","null","html-keyboard-response","103","169719","0.0-6.0-0.0-6.0-0.22","4","4","4","4","2","4","3","2","3","3","4","3","2","5","4","5","4","4","4","4","1","2","2","2","2","2","2","2","1","1","1","1","0","0","0","0","1","0","1","1","0","1","0","0","5","2","4","2","3","2","4","4","4","2","2","796472353797316610","梁","167","","","","","","","","","","","","","","","","","","","","","","","","","","","","","","","","","","","","","","","","","",""
"380","<p style=""color:rgb(150, 250, 100); font-size: 35px;"">本人的</p>","e","categorize-html","104","170100","0.0-6.0-0.0-6.0-1.22","4","4","4","4","2","4","3","2","3","3","4","3","2","5","4","5","4","4","4","4","1","2","2","2","2","2","2","2","1","1","1","1","0","0","0","0","1","0","1","1","0","1","0","0","5","2","4","2","3","2","4","4","4","2","2","796472353797316610","梁","167","","","","","","","","","","","","","","","","","","","true","3","3","ability","380","self","本人的","","","","","","","","","","","","","","","","",""
"null","","null","html-keyboard-response","105","170351","0.0-6.0-0.0-6.0-0.23","4","4","4","4","2","4","3","2","3","3","4","3","2","5","4","5","4","4","4","4","1","2","2","2","2","2","2","2","1","1","1","1","0","0","0","0","1","0","1","1","0","1","0","0","5","2","4","2","3","2","4","4","4","2","2","796472353797316610","梁","167","","","","","","","","","","","","","","","","","","","","","","","","","","","","","","","","","","","","","","","","","",""
"413","<p style=""color:white; font-size: 35px;"">无能</p>","i","categorize-html","106","170765","0.0-6.0-0.0-6.0-1.23","4","4","4","4","2","4","3","2","3","3","4","3","2","5","4","5","4","4","4","4","1","2","2","2","2","2","2","2","1","1","1","1","0","0","0","0","1","0","1","1","0","1","0","0","5","2","4","2","3","2","4","4","4","2","2","796472353797316610","梁","167","","","","","","","","","","","","","","","","","","","true","3","3","ability","413","negative","无能","","","","","","","","","","","","","","","","",""
"3001","
    <div class=""tag-bottom""><p>
    —— 任务4：对“自我/积极”词和“他人/消极”词分类 ——<p/>
    <span style=""color:#78DCE8""><b>与刚才的任务完全相同，请再次对这四类词语分类</b></span><p/>
    <span style=""color:#FFD866""><b>请根据上方标签的提示，尽可能正确并且快速地做出按键反应</b></span><p/>
    当按键错误时屏幕中会出现<span style=""color:red""> X </span>，需要按另一个键纠正才能继续<br/><p/>
    请把双手食指分别放在键盘的“E”键和“I”键上<p/>
    按<空格键>开始
    </p></div>"," ","html-keyboard-response","107","173766","0.0-6.0-0.0-7.0","4","4","4","4","2","4","3","2","3","3","4","3","2","5","4","5","4","4","4","4","1","2","2","2","2","2","2","2","1","1","1","1","0","0","0","0","1","0","1","1","0","1","0","0","5","2","4","2","3","2","4","4","4","2","2","796472353797316610","梁","167","","","","","","","","","","","","","","","","","","","","","","","","","","","","","","","","","","","","","","","","","",""
"null","","null","html-keyboard-response","108","174018","0.0-6.0-0.0-8.0-0.0","4","4","4","4","2","4","3","2","3","3","4","3","2","5","4","5","4","4","4","4","1","2","2","2","2","2","2","2","1","1","1","1","0","0","0","0","1","0","1","1","0","1","0","0","5","2","4","2","3","2","4","4","4","2","2","796472353797316610","梁","167","","","","","","","","","","","","","","","","","","","","","","","","","","","","","","","","","","","","","","","","","",""
"489","<p style=""color:rgb(150, 250, 100); font-size: 35px;"">他的</p>","i","categorize-html","109","174508","0.0-6.0-0.0-8.0-1.0","4","4","4","4","2","4","3","2","3","3","4","3","2","5","4","5","4","4","4","4","1","2","2","2","2","2","2","2","1","1","1","1","0","0","0","0","1","0","1","1","0","1","0","0","5","2","4","2","3","2","4","4","4","2","2","796472353797316610","梁","167","","","","","","","","","","","","","","","","","","","true","4","4","ability","489","other","他的","","","","","","","","","","","","","","","","",""
"null","","null","html-keyboard-response","110","174760","0.0-6.0-0.0-8.0-0.1","4","4","4","4","2","4","3","2","3","3","4","3","2","5","4","5","4","4","4","4","1","2","2","2","2","2","2","2","1","1","1","1","0","0","0","0","1","0","1","1","0","1","0","0","5","2","4","2","3","2","4","4","4","2","2","796472353797316610","梁","167","","","","","","","","","","","","","","","","","","","","","","","","","","","","","","","","","","","","","","","","","",""
"529","<p style=""color:white; font-size: 35px;"">低能</p>","i","categorize-html","111","175289","0.0-6.0-0.0-8.0-1.1","4","4","4","4","2","4","3","2","3","3","4","3","2","5","4","5","4","4","4","4","1","2","2","2","2","2","2","2","1","1","1","1","0","0","0","0","1","0","1","1","0","1","0","0","5","2","4","2","3","2","4","4","4","2","2","796472353797316610","梁","167","","","","","","","","","","","","","","","","","","","true","4","4","ability","529","negative","低能","","","","","","","","","","","","","","","","",""
"null","","null","html-keyboard-response","112","175551","0.0-6.0-0.0-8.0-0.2","4","4","4","4","2","4","3","2","3","3","4","3","2","5","4","5","4","4","4","4","1","2","2","2","2","2","2","2","1","1","1","1","0","0","0","0","1","0","1","1","0","1","0","0","5","2","4","2","3","2","4","4","4","2","2","796472353797316610","梁","167","","","","","","","","","","","","","","","","","","","","","","","","","","","","","","","","","","","","","","","","","",""
"402","<p style=""color:rgb(150, 250, 100); font-size: 35px;"">我</p>","e","categorize-html","113","175953","0.0-6.0-0.0-8.0-1.2","4","4","4","4","2","4","3","2","3","3","4","3","2","5","4","5","4","4","4","4","1","2","2","2","2","2","2","2","1","1","1","1","0","0","0","0","1","0","1","1","0","1","0","0","5","2","4","2","3","2","4","4","4","2","2","796472353797316610","梁","167","","","","","","","","","","","","","","","","","","","true","4","4","ability","402","self","我","","","","","","","","","","","","","","","","",""
"null","","null","html-keyboard-response","114","176204","0.0-6.0-0.0-8.0-0.3","4","4","4","4","2","4","3","2","3","3","4","3","2","5","4","5","4","4","4","4","1","2","2","2","2","2","2","2","1","1","1","1","0","0","0","0","1","0","1","1","0","1","0","0","5","2","4","2","3","2","4","4","4","2","2","796472353797316610","梁","167","","","","","","","","","","","","","","","","","","","","","","","","","","","","","","","","","","","","","","","","","",""
"443","<p style=""color:white; font-size: 35px;"">全能</p>","e","categorize-html","115","176648","0.0-6.0-0.0-8.0-1.3","4","4","4","4","2","4","3","2","3","3","4","3","2","5","4","5","4","4","4","4","1","2","2","2","2","2","2","2","1","1","1","1","0","0","0","0","1","0","1","1","0","1","0","0","5","2","4","2","3","2","4","4","4","2","2","796472353797316610","梁","167","","","","","","","","","","","","","","","","","","","true","4","4","ability","443","positive","全能","","","","","","","","","","","","","","","","",""
"null","","null","html-keyboard-response","116","176899","0.0-6.0-0.0-8.0-0.4","4","4","4","4","2","4","3","2","3","3","4","3","2","5","4","5","4","4","4","4","1","2","2","2","2","2","2","2","1","1","1","1","0","0","0","0","1","0","1","1","0","1","0","0","5","2","4","2","3","2","4","4","4","2","2","796472353797316610","梁","167","","","","","","","","","","","","","","","","","","","","","","","","","","","","","","","","","","","","","","","","","",""
"542","<p style=""color:rgb(150, 250, 100); font-size: 35px;"">他</p>","i","categorize-html","117","177442","0.0-6.0-0.0-8.0-1.4","4","4","4","4","2","4","3","2","3","3","4","3","2","5","4","5","4","4","4","4","1","2","2","2","2","2","2","2","1","1","1","1","0","0","0","0","1","0","1","1","0","1","0","0","5","2","4","2","3","2","4","4","4","2","2","796472353797316610","梁","167","","","","","","","","","","","","","","","","","","","true","4","4","ability","542","other","他","","","","","","","","","","","","","","","","",""
"null","","null","html-keyboard-response","118","177694","0.0-6.0-0.0-8.0-0.5","4","4","4","4","2","4","3","2","3","3","4","3","2","5","4","5","4","4","4","4","1","2","2","2","2","2","2","2","1","1","1","1","0","0","0","0","1","0","1","1","0","1","0","0","5","2","4","2","3","2","4","4","4","2","2","796472353797316610","梁","167","","","","","","","","","","","","","","","","","","","","","","","","","","","","","","","","","","","","","","","","","",""
"481","<p style=""color:white; font-size: 35px;"">精干</p>","e","categorize-html","119","178175","0.0-6.0-0.0-8.0-1.5","4","4","4","4","2","4","3","2","3","3","4","3","2","5","4","5","4","4","4","4","1","2","2","2","2","2","2","2","1","1","1","1","0","0","0","0","1","0","1","1","0","1","0","0","5","2","4","2","3","2","4","4","4","2","2","796472353797316610","梁","167","","","","","","","","","","","","","","","","","","","true","4","4","ability","481","positive","精干","","","","","","","","","","","","","","","","",""
"null","","null","html-keyboard-response","120","178426","0.0-6.0-0.0-8.0-0.6","4","4","4","4","2","4","3","2","3","3","4","3","2","5","4","5","4","4","4","4","1","2","2","2","2","2","2","2","1","1","1","1","0","0","0","0","1","0","1","1","0","1","0","0","5","2","4","2","3","2","4","4","4","2","2","796472353797316610","梁","167","","","","","","","","","","","","","","","","","","","","","","","","","","","","","","","","","","","","","","","","","",""
"378","<p style=""color:rgb(150, 250, 100); font-size: 35px;"">本人的</p>","e","categorize-html","121","178804","0.0-6.0-0.0-8.0-1.6","4","4","4","4","2","4","3","2","3","3","4","3","2","5","4","5","4","4","4","4","1","2","2","2","2","2","2","2","1","1","1","1","0","0","0","0","1","0","1","1","0","1","0","0","5","2","4","2","3","2","4","4","4","2","2","796472353797316610","梁","167","","","","","","","","","","","","","","","","","","","true","4","4","ability","378","self","本人的","","","","","","","","","","","","","","","","",""
"null","","null","html-keyboard-response","122","179055","0.0-6.0-0.0-8.0-0.7","4","4","4","4","2","4","3","2","3","3","4","3","2","5","4","5","4","4","4","4","1","2","2","2","2","2","2","2","1","1","1","1","0","0","0","0","1","0","1","1","0","1","0","0","5","2","4","2","3","2","4","4","4","2","2","796472353797316610","梁","167","","","","","","","","","","","","","","","","","","","","","","","","","","","","","","","","","","","","","","","","","",""
"457","<p style=""color:white; font-size: 35px;"">愚钝</p>","i","categorize-html","123","179514","0.0-6.0-0.0-8.0-1.7","4","4","4","4","2","4","3","2","3","3","4","3","2","5","4","5","4","4","4","4","1","2","2","2","2","2","2","2","1","1","1","1","0","0","0","0","1","0","1","1","0","1","0","0","5","2","4","2","3","2","4","4","4","2","2","796472353797316610","梁","167","","","","","","","","","","","","","","","","","","","true","4","4","ability","457","negative","愚钝","","","","","","","","","","","","","","","","",""
"null","","null","html-keyboard-response","124","179765","0.0-6.0-0.0-8.0-0.8","4","4","4","4","2","4","3","2","3","3","4","3","2","5","4","5","4","4","4","4","1","2","2","2","2","2","2","2","1","1","1","1","0","0","0","0","1","0","1","1","0","1","0","0","5","2","4","2","3","2","4","4","4","2","2","796472353797316610","梁","167","","","","","","","","","","","","","","","","","","","","","","","","","","","","","","","","","","","","","","","","","",""
"449","<p style=""color:rgb(150, 250, 100); font-size: 35px;"">自己</p>","e","categorize-html","125","180214","0.0-6.0-0.0-8.0-1.8","4","4","4","4","2","4","3","2","3","3","4","3","2","5","4","5","4","4","4","4","1","2","2","2","2","2","2","2","1","1","1","1","0","0","0","0","1","0","1","1","0","1","0","0","5","2","4","2","3","2","4","4","4","2","2","796472353797316610","梁","167","","","","","","","","","","","","","","","","","","","true","4","4","ability","449","self","自己","","","","","","","","","","","","","","","","",""
"null","","null","html-keyboard-response","126","180465","0.0-6.0-0.0-8.0-0.9","4","4","4","4","2","4","3","2","3","3","4","3","2","5","4","5","4","4","4","4","1","2","2","2","2","2","2","2","1","1","1","1","0","0","0","0","1","0","1","1","0","1","0","0","5","2","4","2","3","2","4","4","4","2","2","796472353797316610","梁","167","","","","","","","","","","","","","","","","","","","","","","","","","","","","","","","","","","","","","","","","","",""
"428","<p style=""color:white; font-size: 35px;"">废物</p>","i","categorize-html","127","180894","0.0-6.0-0.0-8.0-1.9","4","4","4","4","2","4","3","2","3","3","4","3","2","5","4","5","4","4","4","4","1","2","2","2","2","2","2","2","1","1","1","1","0","0","0","0","1","0","1","1","0","1","0","0","5","2","4","2","3","2","4","4","4","2","2","796472353797316610","梁","167","","","","","","","","","","","","","","","","","","","true","4","4","ability","428","negative","废物","","","","","","","","","","","","","","","","",""
"null","","null","html-keyboard-response","128","181146","0.0-6.0-0.0-8.0-0.10","4","4","4","4","2","4","3","2","3","3","4","3","2","5","4","5","4","4","4","4","1","2","2","2","2","2","2","2","1","1","1","1","0","0","0","0","1","0","1","1","0","1","0","0","5","2","4","2","3","2","4","4","4","2","2","796472353797316610","梁","167","","","","","","","","","","","","","","","","","","","","","","","","","","","","","","","","","","","","","","","","","",""
"481","<p style=""color:rgb(150, 250, 100); font-size: 35px;"">别人</p>","i","categorize-html","129","181627","0.0-6.0-0.0-8.0-1.10","4","4","4","4","2","4","3","2","3","3","4","3","2","5","4","5","4","4","4","4","1","2","2","2","2","2","2","2","1","1","1","1","0","0","0","0","1","0","1","1","0","1","0","0","5","2","4","2","3","2","4","4","4","2","2","796472353797316610","梁","167","","","","","","","","","","","","","","","","","","","true","4","4","ability","481","other","别人","","","","","","","","","","","","","","","","",""
"null","","null","html-keyboard-response","130","181878","0.0-6.0-0.0-8.0-0.11","4","4","4","4","2","4","3","2","3","3","4","3","2","5","4","5","4","4","4","4","1","2","2","2","2","2","2","2","1","1","1","1","0","0","0","0","1","0","1","1","0","1","0","0","5","2","4","2","3","2","4","4","4","2","2","796472353797316610","梁","167","","","","","","","","","","","","","","","","","","","","","","","","","","","","","","","","","","","","","","","","","",""
"631","<p style=""color:white; font-size: 35px;"">精干</p>","e","categorize-html","131","182510","0.0-6.0-0.0-8.0-1.11","4","4","4","4","2","4","3","2","3","3","4","3","2","5","4","5","4","4","4","4","1","2","2","2","2","2","2","2","1","1","1","1","0","0","0","0","1","0","1","1","0","1","0","0","5","2","4","2","3","2","4","4","4","2","2","796472353797316610","梁","167","","","","","","","","","","","","","","","","","","","true","4","4","ability","631","positive","精干","","","","","","","","","","","","","","","","",""
"null","","null","html-keyboard-response","132","182761","0.0-6.0-0.0-8.0-0.12","4","4","4","4","2","4","3","2","3","3","4","3","2","5","4","5","4","4","4","4","1","2","2","2","2","2","2","2","1","1","1","1","0","0","0","0","1","0","1","1","0","1","0","0","5","2","4","2","3","2","4","4","4","2","2","796472353797316610","梁","167","","","","","","","","","","","","","","","","","","","","","","","","","","","","","","","","","","","","","","","","","",""
"480","<p style=""color:rgb(150, 250, 100); font-size: 35px;"">他人</p>","i","categorize-html","133","183241","0.0-6.0-0.0-8.0-1.12","4","4","4","4","2","4","3","2","3","3","4","3","2","5","4","5","4","4","4","4","1","2","2","2","2","2","2","2","1","1","1","1","0","0","0","0","1","0","1","1","0","1","0","0","5","2","4","2","3","2","4","4","4","2","2","796472353797316610","梁","167","","","","","","","","","","","","","","","","","","","true","4","4","ability","480","other","他人","","","","","","","","","","","","","","","","",""
"null","","null","html-keyboard-response","134","183493","0.0-6.0-0.0-8.0-0.13","4","4","4","4","2","4","3","2","3","3","4","3","2","5","4","5","4","4","4","4","1","2","2","2","2","2","2","2","1","1","1","1","0","0","0","0","1","0","1","1","0","1","0","0","5","2","4","2","3","2","4","4","4","2","2","796472353797316610","梁","167","","","","","","","","","","","","","","","","","","","","","","","","","","","","","","","","","","","","","","","","","",""
"481","<p style=""color:white; font-size: 35px;"">能干</p>","e","categorize-html","135","183976","0.0-6.0-0.0-8.0-1.13","4","4","4","4","2","4","3","2","3","3","4","3","2","5","4","5","4","4","4","4","1","2","2","2","2","2","2","2","1","1","1","1","0","0","0","0","1","0","1","1","0","1","0","0","5","2","4","2","3","2","4","4","4","2","2","796472353797316610","梁","167","","","","","","","","","","","","","","","","","","","true","4","4","ability","481","positive","能干","","","","","","","","","","","","","","","","",""
"null","","null","html-keyboard-response","136","184227","0.0-6.0-0.0-8.0-0.14","4","4","4","4","2","4","3","2","3","3","4","3","2","5","4","5","4","4","4","4","1","2","2","2","2","2","2","2","1","1","1","1","0","0","0","0","1","0","1","1","0","1","0","0","5","2","4","2","3","2","4","4","4","2","2","796472353797316610","梁","167","","","","","","","","","","","","","","","","","","","","","","","","","","","","","","","","","","","","","","","","","",""
"436","<p style=""color:rgb(150, 250, 100); font-size: 35px;"">自己的</p>","e","categorize-html","137","184664","0.0-6.0-0.0-8.0-1.14","4","4","4","4","2","4","3","2","3","3","4","3","2","5","4","5","4","4","4","4","1","2","2","2","2","2","2","2","1","1","1","1","0","0","0","0","1","0","1","1","0","1","0","0","5","2","4","2","3","2","4","4","4","2","2","796472353797316610","梁","167","","","","","","","","","","","","","","","","","","","true","4","4","ability","436","self","自己的","","","","","","","","","","","","","","","","",""
"null","","null","html-keyboard-response","138","184915","0.0-6.0-0.0-8.0-0.15","4","4","4","4","2","4","3","2","3","3","4","3","2","5","4","5","4","4","4","4","1","2","2","2","2","2","2","2","1","1","1","1","0","0","0","0","1","0","1","1","0","1","0","0","5","2","4","2","3","2","4","4","4","2","2","796472353797316610","梁","167","","","","","","","","","","","","","","","","","","","","","","","","","","","","","","","","","","","","","","","","","",""
"432","<p style=""color:white; font-size: 35px;"">蠢笨</p>","i","categorize-html","139","185348","0.0-6.0-0.0-8.0-1.15","4","4","4","4","2","4","3","2","3","3","4","3","2","5","4","5","4","4","4","4","1","2","2","2","2","2","2","2","1","1","1","1","0","0","0","0","1","0","1","1","0","1","0","0","5","2","4","2","3","2","4","4","4","2","2","796472353797316610","梁","167","","","","","","","","","","","","","","","","","","","true","4","4","ability","432","negative","蠢笨","","","","","","","","","","","","","","","","",""
"null","","null","html-keyboard-response","140","185599","0.0-6.0-0.0-8.0-0.16","4","4","4","4","2","4","3","2","3","3","4","3","2","5","4","5","4","4","4","4","1","2","2","2","2","2","2","2","1","1","1","1","0","0","0","0","1","0","1","1","0","1","0","0","5","2","4","2","3","2","4","4","4","2","2","796472353797316610","梁","167","","","","","","","","","","","","","","","","","","","","","","","","","","","","","","","","","","","","","","","","","",""
"496","<p style=""color:rgb(150, 250, 100); font-size: 35px;"">我的</p>","e","categorize-html","141","186095","0.0-6.0-0.0-8.0-1.16","4","4","4","4","2","4","3","2","3","3","4","3","2","5","4","5","4","4","4","4","1","2","2","2","2","2","2","2","1","1","1","1","0","0","0","0","1","0","1","1","0","1","0","0","5","2","4","2","3","2","4","4","4","2","2","796472353797316610","梁","167","","","","","","","","","","","","","","","","","","","true","4","4","ability","496","self","我的","","","","","","","","","","","","","","","","",""
"null","","null","html-keyboard-response","142","186346","0.0-6.0-0.0-8.0-0.17","4","4","4","4","2","4","3","2","3","3","4","3","2","5","4","5","4","4","4","4","1","2","2","2","2","2","2","2","1","1","1","1","0","0","0","0","1","0","1","1","0","1","0","0","5","2","4","2","3","2","4","4","4","2","2","796472353797316610","梁","167","","","","","","","","","","","","","","","","","","","","","","","","","","","","","","","","","","","","","","","","","",""
"409","<p style=""color:white; font-size: 35px;"">天才</p>","e","categorize-html","143","186756","0.0-6.0-0.0-8.0-1.17","4","4","4","4","2","4","3","2","3","3","4","3","2","5","4","5","4","4","4","4","1","2","2","2","2","2","2","2","1","1","1","1","0","0","0","0","1","0","1","1","0","1","0","0","5","2","4","2","3","2","4","4","4","2","2","796472353797316610","梁","167","","","","","","","","","","","","","","","","","","","true","4","4","ability","409","positive","天才","","","","","","","","","","","","","","","","",""
"null","","null","html-keyboard-response","144","187007","0.0-6.0-0.0-8.0-0.18","4","4","4","4","2","4","3","2","3","3","4","3","2","5","4","5","4","4","4","4","1","2","2","2","2","2","2","2","1","1","1","1","0","0","0","0","1","0","1","1","0","1","0","0","5","2","4","2","3","2","4","4","4","2","2","796472353797316610","梁","167","","","","","","","","","","","","","","","","","","","","","","","","","","","","","","","","","","","","","","","","","",""
"445","<p style=""color:rgb(150, 250, 100); font-size: 35px;"">他人</p>","i","categorize-html","145","187454","0.0-6.0-0.0-8.0-1.18","4","4","4","4","2","4","3","2","3","3","4","3","2","5","4","5","4","4","4","4","1","2","2","2","2","2","2","2","1","1","1","1","0","0","0","0","1","0","1","1","0","1","0","0","5","2","4","2","3","2","4","4","4","2","2","796472353797316610","梁","167","","","","","","","","","","","","","","","","","","","true","4","4","ability","445","other","他人","","","","","","","","","","","","","","","","",""
"null","","null","html-keyboard-response","146","187705","0.0-6.0-0.0-8.0-0.19","4","4","4","4","2","4","3","2","3","3","4","3","2","5","4","5","4","4","4","4","1","2","2","2","2","2","2","2","1","1","1","1","0","0","0","0","1","0","1","1","0","1","0","0","5","2","4","2","3","2","4","4","4","2","2","796472353797316610","梁","167","","","","","","","","","","","","","","","","","","","","","","","","","","","","","","","","","","","","","","","","","",""
"618","<p style=""color:white; font-size: 35px;"">无能</p>","i","categorize-html","147","188325","0.0-6.0-0.0-8.0-1.19","4","4","4","4","2","4","3","2","3","3","4","3","2","5","4","5","4","4","4","4","1","2","2","2","2","2","2","2","1","1","1","1","0","0","0","0","1","0","1","1","0","1","0","0","5","2","4","2","3","2","4","4","4","2","2","796472353797316610","梁","167","","","","","","","","","","","","","","","","","","","true","4","4","ability","618","negative","无能","","","","","","","","","","","","","","","","",""
"null","","null","html-keyboard-response","148","188582","0.0-6.0-0.0-8.0-0.20","4","4","4","4","2","4","3","2","3","3","4","3","2","5","4","5","4","4","4","4","1","2","2","2","2","2","2","2","1","1","1","1","0","0","0","0","1","0","1","1","0","1","0","0","5","2","4","2","3","2","4","4","4","2","2","796472353797316610","梁","167","","","","","","","","","","","","","","","","","","","","","","","","","","","","","","","","","","","","","","","","","",""
"409","<p style=""color:rgb(150, 250, 100); font-size: 35px;"">自己</p>","e","categorize-html","149","188992","0.0-6.0-0.0-8.0-1.20","4","4","4","4","2","4","3","2","3","3","4","3","2","5","4","5","4","4","4","4","1","2","2","2","2","2","2","2","1","1","1","1","0","0","0","0","1","0","1","1","0","1","0","0","5","2","4","2","3","2","4","4","4","2","2","796472353797316610","梁","167","","","","","","","","","","","","","","","","","","","true","4","4","ability","409","self","自己","","","","","","","","","","","","","","","","",""
"null","","null","html-keyboard-response","150","189243","0.0-6.0-0.0-8.0-0.21","4","4","4","4","2","4","3","2","3","3","4","3","2","5","4","5","4","4","4","4","1","2","2","2","2","2","2","2","1","1","1","1","0","0","0","0","1","0","1","1","0","1","0","0","5","2","4","2","3","2","4","4","4","2","2","796472353797316610","梁","167","","","","","","","","","","","","","","","","","","","","","","","","","","","","","","","","","","","","","","","","","",""
"431","<p style=""color:white; font-size: 35px;"">愚钝</p>","i","categorize-html","151","189675","0.0-6.0-0.0-8.0-1.21","4","4","4","4","2","4","3","2","3","3","4","3","2","5","4","5","4","4","4","4","1","2","2","2","2","2","2","2","1","1","1","1","0","0","0","0","1","0","1","1","0","1","0","0","5","2","4","2","3","2","4","4","4","2","2","796472353797316610","梁","167","","","","","","","","","","","","","","","","","","","true","4","4","ability","431","negative","愚钝","","","","","","","","","","","","","","","","",""
"null","","null","html-keyboard-response","152","189926","0.0-6.0-0.0-8.0-0.22","4","4","4","4","2","4","3","2","3","3","4","3","2","5","4","5","4","4","4","4","1","2","2","2","2","2","2","2","1","1","1","1","0","0","0","0","1","0","1","1","0","1","0","0","5","2","4","2","3","2","4","4","4","2","2","796472353797316610","梁","167","","","","","","","","","","","","","","","","","","","","","","","","","","","","","","","","","","","","","","","","","",""
"674","<p style=""color:rgb(150, 250, 100); font-size: 35px;"">他的</p>","i","categorize-html","153","190600","0.0-6.0-0.0-8.0-1.22","4","4","4","4","2","4","3","2","3","3","4","3","2","5","4","5","4","4","4","4","1","2","2","2","2","2","2","2","1","1","1","1","0","0","0","0","1","0","1","1","0","1","0","0","5","2","4","2","3","2","4","4","4","2","2","796472353797316610","梁","167","","","","","","","","","","","","","","","","","","","true","4","4","ability","674","other","他的","","","","","","","","","","","","","","","","",""
"null","","null","html-keyboard-response","154","190852","0.0-6.0-0.0-8.0-0.23","4","4","4","4","2","4","3","2","3","3","4","3","2","5","4","5","4","4","4","4","1","2","2","2","2","2","2","2","1","1","1","1","0","0","0","0","1","0","1","1","0","1","0","0","5","2","4","2","3","2","4","4","4","2","2","796472353797316610","梁","167","","","","","","","","","","","","","","","","","","","","","","","","","","","","","","","","","","","","","","","","","",""
"479","<p style=""color:white; font-size: 35px;"">高效</p>","e","categorize-html","155","191332","0.0-6.0-0.0-8.0-1.23","4","4","4","4","2","4","3","2","3","3","4","3","2","5","4","5","4","4","4","4","1","2","2","2","2","2","2","2","1","1","1","1","0","0","0","0","1","0","1","1","0","1","0","0","5","2","4","2","3","2","4","4","4","2","2","796472353797316610","梁","167","","","","","","","","","","","","","","","","","","","true","4","4","ability","479","positive","高效","","","","","","","","","","","","","","","","",""
"null","","null","html-keyboard-response","156","191583","0.0-6.0-0.0-8.0-0.24","4","4","4","4","2","4","3","2","3","3","4","3","2","5","4","5","4","4","4","4","1","2","2","2","2","2","2","2","1","1","1","1","0","0","0","0","1","0","1","1","0","1","0","0","5","2","4","2","3","2","4","4","4","2","2","796472353797316610","梁","167","","","","","","","","","","","","","","","","","","","","","","","","","","","","","","","","","","","","","","","","","",""
"476","<p style=""color:rgb(150, 250, 100); font-size: 35px;"">本人</p>","e","categorize-html","157","192060","0.0-6.0-0.0-8.0-1.24","4","4","4","4","2","4","3","2","3","3","4","3","2","5","4","5","4","4","4","4","1","2","2","2","2","2","2","2","1","1","1","1","0","0","0","0","1","0","1","1","0","1","0","0","5","2","4","2","3","2","4","4","4","2","2","796472353797316610","梁","167","","","","","","","","","","","","","","","","","","","true","4","4","ability","476","self","本人","","","","","","","","","","","","","","","","",""
"null","","null","html-keyboard-response","158","192311","0.0-6.0-0.0-8.0-0.25","4","4","4","4","2","4","3","2","3","3","4","3","2","5","4","5","4","4","4","4","1","2","2","2","2","2","2","2","1","1","1","1","0","0","0","0","1","0","1","1","0","1","0","0","5","2","4","2","3","2","4","4","4","2","2","796472353797316610","梁","167","","","","","","","","","","","","","","","","","","","","","","","","","","","","","","","","","","","","","","","","","",""
"472","<p style=""color:white; font-size: 35px;"">高效</p>","e","categorize-html","159","192783","0.0-6.0-0.0-8.0-1.25","4","4","4","4","2","4","3","2","3","3","4","3","2","5","4","5","4","4","4","4","1","2","2","2","2","2","2","2","1","1","1","1","0","0","0","0","1","0","1","1","0","1","0","0","5","2","4","2","3","2","4","4","4","2","2","796472353797316610","梁","167","","","","","","","","","","","","","","","","","","","true","4","4","ability","472","positive","高效","","","","","","","","","","","","","","","","",""
"null","","null","html-keyboard-response","160","193034","0.0-6.0-0.0-8.0-0.26","4","4","4","4","2","4","3","2","3","3","4","3","2","5","4","5","4","4","4","4","1","2","2","2","2","2","2","2","1","1","1","1","0","0","0","0","1","0","1","1","0","1","0","0","5","2","4","2","3","2","4","4","4","2","2","796472353797316610","梁","167","","","","","","","","","","","","","","","","","","","","","","","","","","","","","","","","","","","","","","","","","",""
"712","<p style=""color:rgb(150, 250, 100); font-size: 35px;"">别人</p>","i","categorize-html","161","193747","0.0-6.0-0.0-8.0-1.26","4","4","4","4","2","4","3","2","3","3","4","3","2","5","4","5","4","4","4","4","1","2","2","2","2","2","2","2","1","1","1","1","0","0","0","0","1","0","1","1","0","1","0","0","5","2","4","2","3","2","4","4","4","2","2","796472353797316610","梁","167","","","","","","","","","","","","","","","","","","","true","4","4","ability","712","other","别人","","","","","","","","","","","","","","","","",""
"null","","null","html-keyboard-response","162","193998","0.0-6.0-0.0-8.0-0.27","4","4","4","4","2","4","3","2","3","3","4","3","2","5","4","5","4","4","4","4","1","2","2","2","2","2","2","2","1","1","1","1","0","0","0","0","1","0","1","1","0","1","0","0","5","2","4","2","3","2","4","4","4","2","2","796472353797316610","梁","167","","","","","","","","","","","","","","","","","","","","","","","","","","","","","","","","","","","","","","","","","",""
"411","<p style=""color:white; font-size: 35px;"">拙笨</p>","i","categorize-html","163","194409","0.0-6.0-0.0-8.0-1.27","4","4","4","4","2","4","3","2","3","3","4","3","2","5","4","5","4","4","4","4","1","2","2","2","2","2","2","2","1","1","1","1","0","0","0","0","1","0","1","1","0","1","0","0","5","2","4","2","3","2","4","4","4","2","2","796472353797316610","梁","167","","","","","","","","","","","","","","","","","","","true","4","4","ability","411","negative","拙笨","","","","","","","","","","","","","","","","",""
"null","","null","html-keyboard-response","164","194660","0.0-6.0-0.0-8.0-0.28","4","4","4","4","2","4","3","2","3","3","4","3","2","5","4","5","4","4","4","4","1","2","2","2","2","2","2","2","1","1","1","1","0","0","0","0","1","0","1","1","0","1","0","0","5","2","4","2","3","2","4","4","4","2","2","796472353797316610","梁","167","","","","","","","","","","","","","","","","","","","","","","","","","","","","","","","","","","","","","","","","","",""
"442","<p style=""color:rgb(150, 250, 100); font-size: 35px;"">我</p>","e","categorize-html","165","195102","0.0-6.0-0.0-8.0-1.28","4","4","4","4","2","4","3","2","3","3","4","3","2","5","4","5","4","4","4","4","1","2","2","2","2","2","2","2","1","1","1","1","0","0","0","0","1","0","1","1","0","1","0","0","5","2","4","2","3","2","4","4","4","2","2","796472353797316610","梁","167","","","","","","","","","","","","","","","","","","","true","4","4","ability","442","self","我","","","","","","","","","","","","","","","","",""
"null","","null","html-keyboard-response","166","195353","0.0-6.0-0.0-8.0-0.29","4","4","4","4","2","4","3","2","3","3","4","3","2","5","4","5","4","4","4","4","1","2","2","2","2","2","2","2","1","1","1","1","0","0","0","0","1","0","1","1","0","1","0","0","5","2","4","2","3","2","4","4","4","2","2","796472353797316610","梁","167","","","","","","","","","","","","","","","","","","","","","","","","","","","","","","","","","","","","","","","","","",""
"610","<p style=""color:white; font-size: 35px;"">拙笨</p>","i","categorize-html","167","195964","0.0-6.0-0.0-8.0-1.29","4","4","4","4","2","4","3","2","3","3","4","3","2","5","4","5","4","4","4","4","1","2","2","2","2","2","2","2","1","1","1","1","0","0","0","0","1","0","1","1","0","1","0","0","5","2","4","2","3","2","4","4","4","2","2","796472353797316610","梁","167","","","","","","","","","","","","","","","","","","","true","4","4","ability","610","negative","拙笨","","","","","","","","","","","","","","","","",""
"null","","null","html-keyboard-response","168","196215","0.0-6.0-0.0-8.0-0.30","4","4","4","4","2","4","3","2","3","3","4","3","2","5","4","5","4","4","4","4","1","2","2","2","2","2","2","2","1","1","1","1","0","0","0","0","1","0","1","1","0","1","0","0","5","2","4","2","3","2","4","4","4","2","2","796472353797316610","梁","167","","","","","","","","","","","","","","","","","","","","","","","","","","","","","","","","","","","","","","","","","",""
"572","<p style=""color:rgb(150, 250, 100); font-size: 35px;"">别人的</p>","i","categorize-html","169","196787","0.0-6.0-0.0-8.0-1.30","4","4","4","4","2","4","3","2","3","3","4","3","2","5","4","5","4","4","4","4","1","2","2","2","2","2","2","2","1","1","1","1","0","0","0","0","1","0","1","1","0","1","0","0","5","2","4","2","3","2","4","4","4","2","2","796472353797316610","梁","167","","","","","","","","","","","","","","","","","","","true","4","4","ability","572","other","别人的","","","","","","","","","","","","","","","","",""
"null","","null","html-keyboard-response","170","197038","0.0-6.0-0.0-8.0-0.31","4","4","4","4","2","4","3","2","3","3","4","3","2","5","4","5","4","4","4","4","1","2","2","2","2","2","2","2","1","1","1","1","0","0","0","0","1","0","1","1","0","1","0","0","5","2","4","2","3","2","4","4","4","2","2","796472353797316610","梁","167","","","","","","","","","","","","","","","","","","","","","","","","","","","","","","","","","","","","","","","","","",""
"523","<p style=""color:white; font-size: 35px;"">全能</p>","e","categorize-html","171","197563","0.0-6.0-0.0-8.0-1.31","4","4","4","4","2","4","3","2","3","3","4","3","2","5","4","5","4","4","4","4","1","2","2","2","2","2","2","2","1","1","1","1","0","0","0","0","1","0","1","1","0","1","0","0","5","2","4","2","3","2","4","4","4","2","2","796472353797316610","梁","167","","","","","","","","","","","","","","","","","","","true","4","4","ability","523","positive","全能","","","","","","","","","","","","","","","","",""
"null","","null","html-keyboard-response","172","197814","0.0-6.0-0.0-8.0-0.32","4","4","4","4","2","4","3","2","3","3","4","3","2","5","4","5","4","4","4","4","1","2","2","2","2","2","2","2","1","1","1","1","0","0","0","0","1","0","1","1","0","1","0","0","5","2","4","2","3","2","4","4","4","2","2","796472353797316610","梁","167","","","","","","","","","","","","","","","","","","","","","","","","","","","","","","","","","","","","","","","","","",""
"343","<p style=""color:rgb(150, 250, 100); font-size: 35px;"">我的</p>","e","categorize-html","173","198157","0.0-6.0-0.0-8.0-1.32","4","4","4","4","2","4","3","2","3","3","4","3","2","5","4","5","4","4","4","4","1","2","2","2","2","2","2","2","1","1","1","1","0","0","0","0","1","0","1","1","0","1","0","0","5","2","4","2","3","2","4","4","4","2","2","796472353797316610","梁","167","","","","","","","","","","","","","","","","","","","true","4","4","ability","343","self","我的","","","","","","","","","","","","","","","","",""
"null","","null","html-keyboard-response","174","198410","0.0-6.0-0.0-8.0-0.33","4","4","4","4","2","4","3","2","3","3","4","3","2","5","4","5","4","4","4","4","1","2","2","2","2","2","2","2","1","1","1","1","0","0","0","0","1","0","1","1","0","1","0","0","5","2","4","2","3","2","4","4","4","2","2","796472353797316610","梁","167","","","","","","","","","","","","","","","","","","","","","","","","","","","","","","","","","","","","","","","","","",""
"397","<p style=""color:white; font-size: 35px;"">蠢笨</p>","i","categorize-html","175","198807","0.0-6.0-0.0-8.0-1.33","4","4","4","4","2","4","3","2","3","3","4","3","2","5","4","5","4","4","4","4","1","2","2","2","2","2","2","2","1","1","1","1","0","0","0","0","1","0","1","1","0","1","0","0","5","2","4","2","3","2","4","4","4","2","2","796472353797316610","梁","167","","","","","","","","","","","","","","","","","","","true","4","4","ability","397","negative","蠢笨","","","","","","","","","","","","","","","","",""
"null","","null","html-keyboard-response","176","199060","0.0-6.0-0.0-8.0-0.34","4","4","4","4","2","4","3","2","3","3","4","3","2","5","4","5","4","4","4","4","1","2","2","2","2","2","2","2","1","1","1","1","0","0","0","0","1","0","1","1","0","1","0","0","5","2","4","2","3","2","4","4","4","2","2","796472353797316610","梁","167","","","","","","","","","","","","","","","","","","","","","","","","","","","","","","","","","","","","","","","","","",""
"432","<p style=""color:rgb(150, 250, 100); font-size: 35px;"">别人的</p>","i","categorize-html","177","199493","0.0-6.0-0.0-8.0-1.34","4","4","4","4","2","4","3","2","3","3","4","3","2","5","4","5","4","4","4","4","1","2","2","2","2","2","2","2","1","1","1","1","0","0","0","0","1","0","1","1","0","1","0","0","5","2","4","2","3","2","4","4","4","2","2","796472353797316610","梁","167","","","","","","","","","","","","","","","","","","","true","4","4","ability","432","other","别人的","","","","","","","","","","","","","","","","",""
"null","","null","html-keyboard-response","178","199744","0.0-6.0-0.0-8.0-0.35","4","4","4","4","2","4","3","2","3","3","4","3","2","5","4","5","4","4","4","4","1","2","2","2","2","2","2","2","1","1","1","1","0","0","0","0","1","0","1","1","0","1","0","0","5","2","4","2","3","2","4","4","4","2","2","796472353797316610","梁","167","","","","","","","","","","","","","","","","","","","","","","","","","","","","","","","","","","","","","","","","","",""
"423","<p style=""color:white; font-size: 35px;"">全才</p>","e","categorize-html","179","200167","0.0-6.0-0.0-8.0-1.35","4","4","4","4","2","4","3","2","3","3","4","3","2","5","4","5","4","4","4","4","1","2","2","2","2","2","2","2","1","1","1","1","0","0","0","0","1","0","1","1","0","1","0","0","5","2","4","2","3","2","4","4","4","2","2","796472353797316610","梁","167","","","","","","","","","","","","","","","","","","","true","4","4","ability","423","positive","全才","","","","","","","","","","","","","","","","",""
"null","","null","html-keyboard-response","180","200419","0.0-6.0-0.0-8.0-0.36","4","4","4","4","2","4","3","2","3","3","4","3","2","5","4","5","4","4","4","4","1","2","2","2","2","2","2","2","1","1","1","1","0","0","0","0","1","0","1","1","0","1","0","0","5","2","4","2","3","2","4","4","4","2","2","796472353797316610","梁","167","","","","","","","","","","","","","","","","","","","","","","","","","","","","","","","","","","","","","","","","","",""
"530","<p style=""color:rgb(150, 250, 100); font-size: 35px;"">他人的</p>","i","categorize-html","181","200950","0.0-6.0-0.0-8.0-1.36","4","4","4","4","2","4","3","2","3","3","4","3","2","5","4","5","4","4","4","4","1","2","2","2","2","2","2","2","1","1","1","1","0","0","0","0","1","0","1","1","0","1","0","0","5","2","4","2","3","2","4","4","4","2","2","796472353797316610","梁","167","","","","","","","","","","","","","","","","","","","true","4","4","ability","530","other","他人的","","","","","","","","","","","","","","","","",""
"null","","null","html-keyboard-response","182","201201","0.0-6.0-0.0-8.0-0.37","4","4","4","4","2","4","3","2","3","3","4","3","2","5","4","5","4","4","4","4","1","2","2","2","2","2","2","2","1","1","1","1","0","0","0","0","1","0","1","1","0","1","0","0","5","2","4","2","3","2","4","4","4","2","2","796472353797316610","梁","167","","","","","","","","","","","","","","","","","","","","","","","","","","","","","","","","","","","","","","","","","",""
"569","<p style=""color:white; font-size: 35px;"">废物</p>","i","categorize-html","183","201771","0.0-6.0-0.0-8.0-1.37","4","4","4","4","2","4","3","2","3","3","4","3","2","5","4","5","4","4","4","4","1","2","2","2","2","2","2","2","1","1","1","1","0","0","0","0","1","0","1","1","0","1","0","0","5","2","4","2","3","2","4","4","4","2","2","796472353797316610","梁","167","","","","","","","","","","","","","","","","","","","true","4","4","ability","569","negative","废物","","","","","","","","","","","","","","","","",""
"null","","null","html-keyboard-response","184","202022","0.0-6.0-0.0-8.0-0.38","4","4","4","4","2","4","3","2","3","3","4","3","2","5","4","5","4","4","4","4","1","2","2","2","2","2","2","2","1","1","1","1","0","0","0","0","1","0","1","1","0","1","0","0","5","2","4","2","3","2","4","4","4","2","2","796472353797316610","梁","167","","","","","","","","","","","","","","","","","","","","","","","","","","","","","","","","","","","","","","","","","",""
"456","<p style=""color:rgb(150, 250, 100); font-size: 35px;"">本人的</p>","e","categorize-html","185","202479","0.0-6.0-0.0-8.0-1.38","4","4","4","4","2","4","3","2","3","3","4","3","2","5","4","5","4","4","4","4","1","2","2","2","2","2","2","2","1","1","1","1","0","0","0","0","1","0","1","1","0","1","0","0","5","2","4","2","3","2","4","4","4","2","2","796472353797316610","梁","167","","","","","","","","","","","","","","","","","","","true","4","4","ability","456","self","本人的","","","","","","","","","","","","","","","","",""
"null","","null","html-keyboard-response","186","202731","0.0-6.0-0.0-8.0-0.39","4","4","4","4","2","4","3","2","3","3","4","3","2","5","4","5","4","4","4","4","1","2","2","2","2","2","2","2","1","1","1","1","0","0","0","0","1","0","1","1","0","1","0","0","5","2","4","2","3","2","4","4","4","2","2","796472353797316610","梁","167","","","","","","","","","","","","","","","","","","","","","","","","","","","","","","","","","","","","","","","","","",""
"500","<p style=""color:white; font-size: 35px;"">全才</p>","e","categorize-html","187","203232","0.0-6.0-0.0-8.0-1.39","4","4","4","4","2","4","3","2","3","3","4","3","2","5","4","5","4","4","4","4","1","2","2","2","2","2","2","2","1","1","1","1","0","0","0","0","1","0","1","1","0","1","0","0","5","2","4","2","3","2","4","4","4","2","2","796472353797316610","梁","167","","","","","","","","","","","","","","","","","","","true","4","4","ability","500","positive","全才","","","","","","","","","","","","","","","","",""
"null","","null","html-keyboard-response","188","203483","0.0-6.0-0.0-8.0-0.40","4","4","4","4","2","4","3","2","3","3","4","3","2","5","4","5","4","4","4","4","1","2","2","2","2","2","2","2","1","1","1","1","0","0","0","0","1","0","1","1","0","1","0","0","5","2","4","2","3","2","4","4","4","2","2","796472353797316610","梁","167","","","","","","","","","","","","","","","","","","","","","","","","","","","","","","","","","","","","","","","","","",""
"412","<p style=""color:rgb(150, 250, 100); font-size: 35px;"">本人</p>","e","categorize-html","189","203895","0.0-6.0-0.0-8.0-1.40","4","4","4","4","2","4","3","2","3","3","4","3","2","5","4","5","4","4","4","4","1","2","2","2","2","2","2","2","1","1","1","1","0","0","0","0","1","0","1","1","0","1","0","0","5","2","4","2","3","2","4","4","4","2","2","796472353797316610","梁","167","","","","","","","","","","","","","","","","","","","true","4","4","ability","412","self","本人","","","","","","","","","","","","","","","","",""
"null","","null","html-keyboard-response","190","204146","0.0-6.0-0.0-8.0-0.41","4","4","4","4","2","4","3","2","3","3","4","3","2","5","4","5","4","4","4","4","1","2","2","2","2","2","2","2","1","1","1","1","0","0","0","0","1","0","1","1","0","1","0","0","5","2","4","2","3","2","4","4","4","2","2","796472353797316610","梁","167","","","","","","","","","","","","","","","","","","","","","","","","","","","","","","","","","","","","","","","","","",""
"502","<p style=""color:white; font-size: 35px;"">无能</p>","i","categorize-html","191","204649","0.0-6.0-0.0-8.0-1.41","4","4","4","4","2","4","3","2","3","3","4","3","2","5","4","5","4","4","4","4","1","2","2","2","2","2","2","2","1","1","1","1","0","0","0","0","1","0","1","1","0","1","0","0","5","2","4","2","3","2","4","4","4","2","2","796472353797316610","梁","167","","","","","","","","","","","","","","","","","","","true","4","4","ability","502","negative","无能","","","","","","","","","","","","","","","","",""
"null","","null","html-keyboard-response","192","204900","0.0-6.0-0.0-8.0-0.42","4","4","4","4","2","4","3","2","3","3","4","3","2","5","4","5","4","4","4","4","1","2","2","2","2","2","2","2","1","1","1","1","0","0","0","0","1","0","1","1","0","1","0","0","5","2","4","2","3","2","4","4","4","2","2","796472353797316610","梁","167","","","","","","","","","","","","","","","","","","","","","","","","","","","","","","","","","","","","","","","","","",""
