"rt","stimulus","response","trial_type","trial_index","time_elapsed","internal_node_id","ses_1","ses_2","ses_3","ses_4","ses_5","ses_6","ses_7","ses_8","ses_9","ses_10","coreself_1","coreself_2","coreself_3","coreself_4","coreself_5","coreself_6","coreself_7","coreself_8","coreself_9","coreself_10","SGPS_1","SGPS_2","SGPS_3","SGPS_4","SGPS_5","SGPS_6","SGPS_7","SGPS_8","SGPS_9","NPI1","NPI2","NPI3","NPI4","NPI5","NPI6","NPI7","NPI8","NPI9","NPI10","NPI11","NPI12","NPI13","NPI14","NPI15","hsns_1","hsns_2","hsns_3","hsns_4","hsns_5","trap1","hsns_6","hsns_7","hsns_8","hsns_9","hsns_10","subj_idx","friend_name","ParticipantID","value","success","user_agent","responses","item_order","radio_event_ids","radio_event_times","key_event_times","mouse_event_times","straightlining","zigzagging","honeypot","timeout","failed_images","failed_audio","failed_video","version_attrib2","version_target2","correct","IAT","screen_id","task_id","RT","condition","word","varname","summary","version_attrib","version_target","time_stamp","view_history","response_type","key_press","avg_frame_time","center_x","center_y","correct_response","identity","Image","question_order","correct_answer","trap1_item"
"17121","
   <p><div style = ""color: white;font-size:25px;"">您好，欢迎参加本次实验。</div> </p>
   <p><div style = ""color: white;font-size:25px;"">为充分保障您的权利，请确保您已经知晓并同意《参与实验同意书》以及《数据公开知情同意书》。</div></p>
   <p><div style = ""color: white;font-size:25px;"">如果您未见过上述内容，请咨询实验员。</div></p>
   <p><div style = ""color: white;font-size:25px;"">如果您选择继续实验，则表示您已经清楚两份知情同意书的内容并同意。</div></p>
   <p><div style = ""color: pink;font-size:30px;"">请确保您记得day0的实验编号，您将在本次实验输入该编号，若您忘记，请咨询实验员后作答。</div></p>
   <p><div style = ""color: lightblue;font-size:25px;"">请您尽可能认真地作答，我们将依据您在各问卷和按键任务中的作答质量发放报酬。</div></p>
   <p> <div style = ""color: green;font-size:25px;""><按空格键至下页></div> </p>
   "," ","html-keyboard-response","0","17123","0.0-0.0","2","2","2","1","2","2","2","2","1","2","2","2","1","1","2","2","2","2","2","2","4","5","4","4","4","5","4","1","3","1","0","1","1","0","0","1","1","1","1","1","0","1","0","1","2","4","5","4","4","","4","4","5","3","3","793983472925548545","王","625","","","","","","","","","","","","","","","","","","","","","","","","","","","","","","","","","","","","","","","","","",""
"","","","call-function","1","17124","0.0-1.0-0.0","2","2","2","1","2","2","2","2","1","2","2","2","1","1","2","2","2","2","2","2","4","5","4","4","4","5","4","1","3","1","0","1","1","0","0","1","1","1","1","1","0","1","0","1","2","4","5","4","4","","4","4","5","3","3","793983472925548545","王","625","","","","","","","","","","","","","","","","","","","","","","","","","","","","","","","","","","","","","","","","","",""
"13196","","{""friend_name"":""王"",""ParticipantID"":""625""}","survey-html-form","2","30320","0.0-1.0-1.0","2","2","2","1","2","2","2","2","1","2","2","2","1","1","2","2","2","2","2","2","4","5","4","4","4","5","4","1","3","1","0","1","1","0","0","1","1","1","1","1","0","1","0","1","2","4","5","4","4","","4","4","5","3","3","793983472925548545","王","625","","","","","","","","","","","","","","","","","","","","","","","","","","","","","","","","","","","","","","","","","",""
"","","","fullscreen","3","32205","0.0-2.0","2","2","2","1","2","2","2","2","1","2","2","2","1","1","2","2","2","2","2","2","4","5","4","4","4","5","4","1","3","1","0","1","1","0","0","1","1","1","1","1","0","1","0","1","2","4","5","4","4","","4","4","5","3","3","793983472925548545","王","625","","true","{}","","","","","","","","","","","","","","","","","","","","","","","","","","","","","","","","","","","","","","",""
"44055.39999999851","","{""Q01"":""2"",""Q02"":""2"",""Q03"":""2"",""Q04"":""1"",""Q05"":""2"",""Q06"":""2"",""Q07"":""2"",""Q08"":""2"",""Q09"":""1"",""Q10"":""2""}","survey-template","4","76262","0.0-3.0","2","2","2","1","2","2","2","2","1","2","2","2","1","1","2","2","2","2","2","2","4","5","4","4","4","5","4","1","3","1","0","1","1","0","0","1","1","1","1","1","0","1","0","1","2","4","5","4","4","","4","4","5","3","3","793983472925548545","王","625","","","","{""Q01"":""2"",""Q02"":""2"",""Q03"":""2"",""Q04"":""1"",""Q05"":""2"",""Q06"":""2"",""Q07"":""2"",""Q08"":""2"",""Q09"":""1"",""Q10"":""2""}","[0,1,2,3,4,5,6,7,8,9]","[""Q10"",""Q01"",""Q02"",""Q03"",""Q04"",""Q05"",""Q05"",""Q06"",""Q07"",""Q08"",""Q09"",""Q09""]","[21476,24404.39999999851,30741,32653.39999999851,34381.5,35477.60000000149,36621.69999999553,38309.79999999702,40229.89999999851,41406.19999999553,43102.29999999702,43342.39999999851]","[]","[21060,21476,24404.39999999851,29797,30317,30741,31917.19999999553,32356.89999999851,32653.39999999851,33797.79999999702,34093.79999999702,34381.5,35477.60000000149,36237.69999999553,36621.69999999553,38070.10000000149,38309.79999999702,39229.89999999851,39501.89999999851,39998.19999999553,40229.89999999851,41406.19999999553,42638.29999999702,43102.29999999702,43342.39999999851,44054.5]","0.4","0.5555555555555556","0","","","","","","","","","","","","","","","","","","","","","","","","","","","","","",""
"21502.10000000149","","{""Q01"":""2"",""Q02"":""2"",""Q03"":""1"",""Q04"":""1"",""Q05"":""2"",""Q06"":""2"",""Q07"":""2"",""Q08"":""2"",""Q09"":""2"",""Q10"":""2""}","survey-template","5","97768","0.0-4.0","2","2","2","1","2","2","2","2","1","2","2","2","1","1","2","2","2","2","2","2","4","5","4","4","4","5","4","1","3","1","0","1","1","0","0","1","1","1","1","1","0","1","0","1","2","4","5","4","4","","4","4","5","3","3","793983472925548545","王","625","","","","{""Q01"":""2"",""Q02"":""2"",""Q03"":""1"",""Q04"":""1"",""Q05"":""2"",""Q06"":""2"",""Q07"":""2"",""Q08"":""2"",""Q09"":""2"",""Q10"":""2""}","[0,1,2,3,4,5,6,7,8,9]","[""Q01"",""Q02"",""Q03"",""Q04"",""Q04"",""Q04"",""Q04"",""Q04"",""Q05"",""Q05"",""Q06"",""Q07"",""Q08"",""Q09"",""Q09"",""Q10""]","[1787,2851,4795,5555.30000000447,6283.30000000447,6979.39999999851,7227.30000000447,8939.60000000149,10027.70000000298,10451.70000000298,12436,13900.10000000149,15220.30000000447,16180.70000000298,17036.39999999851,19604.80000000447]","[]","[1787,2851,3579.2000000029802,4555.20000000298,4795,5315.39999999851,5555.30000000447,6003.30000000447,6283.30000000447,6667.30000000447,6979.39999999851,7227.30000000447,7843.70000000298,8323.89999999851,8939.60000000149,9523.70000000298,10027.70000000298,10451.70000000298,10828.39999999851,11075.89999999851,11315.89999999851,11555.89999999851,12436,13012.10000000149,13676.60000000149,13900.10000000149,14780.39999999851,14988.20000000298,15220.30000000447,15980.39999999851,16180.70000000298,16820.60000000149,17036.39999999851,17324.70000000298,18844.39999999851,19604.80000000447,21501.10000000149]","0.5","0.2222222222222222","0","","","","","","","","","","","","","","","","","","","","","","","","","","","","","",""
"","","","preload","6","98061","0.0-5.0","2","2","2","1","2","2","2","2","1","2","2","2","1","1","2","2","2","2","2","2","4","5","4","4","4","5","4","1","3","1","0","1","1","0","0","1","1","1","1","1","0","1","0","1","2","4","5","4","4","","4","4","5","3","3","793983472925548545","王","625","","true","","","","","","","","","","","false","[]","[]","[]","","","","","","","","","","","","","","","","","","","","","","","","","",""
"11706","
    <h3>词语分类任务</h3>
    <p>在接下来的任务中，你需要对一系列词语进行分类。<p/>
    请先熟悉这些词语，这有利于你完成接下来的任务。</p>
    <table align=""center"" border=1 cellpadding=3 cellspacing=0>
    <tr> <th>类别</th> <th>词语</th> </tr>
    <tr> <td>&emsp;积极&emsp;</td> <td>&emsp;高尚、诚信、善良、君子、廉正、正直&emsp;</td> </tr>
    <tr> <td>&emsp;消极&emsp;</td> <td>&emsp;缺德、卑鄙、不孝、不仁、小人、黑心&emsp;</td> </tr>
    <tr> <td>&emsp;自我&emsp;</td> <td>&emsp;我、我的、自己、自己的、本人、本人的&emsp;</td> </tr>
    <tr> <td>&emsp;他人&emsp;</td> <td>&emsp;他、他的、别人、别人的、他人、他人的&emsp;</td> </tr>
    </table><br/>","0","html-button-response","7","109768","0.0-6.0-1.0-0.0","2","2","2","1","2","2","2","2","1","2","2","2","1","1","2","2","2","2","2","2","4","5","4","4","4","5","4","1","3","1","0","1","1","0","0","1","1","1","1","1","0","1","0","1","2","4","5","4","4","","4","4","5","3","3","793983472925548545","王","625","","","","","","","","","","","","","","","","","1","2","","","","","","","","","","","","","","","","","","","","","","","",""
"6955","
    <div class=""tag-bottom""><p>
    —— 任务1：对“他人”词和“自我”词分类 ——<p/>
    不同词语会出现在屏幕中央，类别标签将始终显示在屏幕上方<p/>   
    <span style=""color:#FFD866""><b>请根据上方标签的提示，尽可能正确并且快速地做出按键反应</b></span><p/>
    当按键错误时屏幕中会出现<span style=""color:red""> X </span>，需要按另一个键纠正才能继续<br/><p/>
    请把双手食指分别放在键盘的“E”键和“I”键上<p/>
    按<空格键>开始
    </p></div>"," ","html-keyboard-response","8","116726","0.0-6.0-1.0-1.0","2","2","2","1","2","2","2","2","1","2","2","2","1","1","2","2","2","2","2","2","4","5","4","4","4","5","4","1","3","1","0","1","1","0","0","1","1","1","1","1","0","1","0","1","2","4","5","4","4","","4","4","5","3","3","793983472925548545","王","625","","","","","","","","","","","","","","","","","","","","","","","","","","","","","","","","","","","","","","","","","",""
"null","","null","html-keyboard-response","9","116977","0.0-6.0-1.0-2.0-0.0","2","2","2","1","2","2","2","2","1","2","2","2","1","1","2","2","2","2","2","2","4","5","4","4","4","5","4","1","3","1","0","1","1","0","0","1","1","1","1","1","0","1","0","1","2","4","5","4","4","","4","4","5","3","3","793983472925548545","王","625","","","","","","","","","","","","","","","","","","","","","","","","","","","","","","","","","","","","","","","","","",""
"655","<p style=""color:rgb(150, 250, 100); font-size: 35px;"">他</p>","e","categorize-html","10","117634","0.0-6.0-1.0-2.0-1.0","2","2","2","1","2","2","2","2","1","2","2","2","1","1","2","2","2","2","2","2","4","5","4","4","4","5","4","1","3","1","0","1","1","0","0","1","1","1","1","1","0","1","0","1","2","4","5","4","4","","4","4","5","3","3","793983472925548545","王","625","","","","","","","","","","","","","","","","","","","true","11","1","moral","655","other","他","","","","","","","","","","","","","","","","",""
"null","","null","html-keyboard-response","11","117885","0.0-6.0-1.0-2.0-0.1","2","2","2","1","2","2","2","2","1","2","2","2","1","1","2","2","2","2","2","2","4","5","4","4","4","5","4","1","3","1","0","1","1","0","0","1","1","1","1","1","0","1","0","1","2","4","5","4","4","","4","4","5","3","3","793983472925548545","王","625","","","","","","","","","","","","","","","","","","","","","","","","","","","","","","","","","","","","","","","","","",""
"867","<p style=""color:rgb(150, 250, 100); font-size: 35px;"">别人</p>","e","categorize-html","12","118753","0.0-6.0-1.0-2.0-1.1","2","2","2","1","2","2","2","2","1","2","2","2","1","1","2","2","2","2","2","2","4","5","4","4","4","5","4","1","3","1","0","1","1","0","0","1","1","1","1","1","0","1","0","1","2","4","5","4","4","","4","4","5","3","3","793983472925548545","王","625","","","","","","","","","","","","","","","","","","","true","11","1","moral","867","other","别人","","","","","","","","","","","","","","","","",""
"null","","null","html-keyboard-response","13","119003","0.0-6.0-1.0-2.0-0.2","2","2","2","1","2","2","2","2","1","2","2","2","1","1","2","2","2","2","2","2","4","5","4","4","4","5","4","1","3","1","0","1","1","0","0","1","1","1","1","1","0","1","0","1","2","4","5","4","4","","4","4","5","3","3","793983472925548545","王","625","","","","","","","","","","","","","","","","","","","","","","","","","","","","","","","","","","","","","","","","","",""
"673","<p style=""color:rgb(150, 250, 100); font-size: 35px;"">自己的</p>","i","categorize-html","14","119678","0.0-6.0-1.0-2.0-1.2","2","2","2","1","2","2","2","2","1","2","2","2","1","1","2","2","2","2","2","2","4","5","4","4","4","5","4","1","3","1","0","1","1","0","0","1","1","1","1","1","0","1","0","1","2","4","5","4","4","","4","4","5","3","3","793983472925548545","王","625","","","","","","","","","","","","","","","","","","","true","11","1","moral","673","self","自己的","","","","","","","","","","","","","","","","",""
"null","","null","html-keyboard-response","15","119928","0.0-6.0-1.0-2.0-0.3","2","2","2","1","2","2","2","2","1","2","2","2","1","1","2","2","2","2","2","2","4","5","4","4","4","5","4","1","3","1","0","1","1","0","0","1","1","1","1","1","0","1","0","1","2","4","5","4","4","","4","4","5","3","3","793983472925548545","王","625","","","","","","","","","","","","","","","","","","","","","","","","","","","","","","","","","","","","","","","","","",""
"585","<p style=""color:rgb(150, 250, 100); font-size: 35px;"">别人的</p>","e","categorize-html","16","120514","0.0-6.0-1.0-2.0-1.3","2","2","2","1","2","2","2","2","1","2","2","2","1","1","2","2","2","2","2","2","4","5","4","4","4","5","4","1","3","1","0","1","1","0","0","1","1","1","1","1","0","1","0","1","2","4","5","4","4","","4","4","5","3","3","793983472925548545","王","625","","","","","","","","","","","","","","","","","","","true","11","1","moral","585","other","别人的","","","","","","","","","","","","","","","","",""
"null","","null","html-keyboard-response","17","120765","0.0-6.0-1.0-2.0-0.4","2","2","2","1","2","2","2","2","1","2","2","2","1","1","2","2","2","2","2","2","4","5","4","4","4","5","4","1","3","1","0","1","1","0","0","1","1","1","1","1","0","1","0","1","2","4","5","4","4","","4","4","5","3","3","793983472925548545","王","625","","","","","","","","","","","","","","","","","","","","","","","","","","","","","","","","","","","","","","","","","",""
"502","<p style=""color:rgb(150, 250, 100); font-size: 35px;"">他的</p>","e","categorize-html","18","121268","0.0-6.0-1.0-2.0-1.4","2","2","2","1","2","2","2","2","1","2","2","2","1","1","2","2","2","2","2","2","4","5","4","4","4","5","4","1","3","1","0","1","1","0","0","1","1","1","1","1","0","1","0","1","2","4","5","4","4","","4","4","5","3","3","793983472925548545","王","625","","","","","","","","","","","","","","","","","","","true","11","1","moral","502","other","他的","","","","","","","","","","","","","","","","",""
"null","","null","html-keyboard-response","19","121519","0.0-6.0-1.0-2.0-0.5","2","2","2","1","2","2","2","2","1","2","2","2","1","1","2","2","2","2","2","2","4","5","4","4","4","5","4","1","3","1","0","1","1","0","0","1","1","1","1","1","0","1","0","1","2","4","5","4","4","","4","4","5","3","3","793983472925548545","王","625","","","","","","","","","","","","","","","","","","","","","","","","","","","","","","","","","","","","","","","","","",""
"516","<p style=""color:rgb(150, 250, 100); font-size: 35px;"">自己</p>","i","categorize-html","20","122036","0.0-6.0-1.0-2.0-1.5","2","2","2","1","2","2","2","2","1","2","2","2","1","1","2","2","2","2","2","2","4","5","4","4","4","5","4","1","3","1","0","1","1","0","0","1","1","1","1","1","0","1","0","1","2","4","5","4","4","","4","4","5","3","3","793983472925548545","王","625","","","","","","","","","","","","","","","","","","","true","11","1","moral","516","self","自己","","","","","","","","","","","","","","","","",""
"null","","null","html-keyboard-response","21","122286","0.0-6.0-1.0-2.0-0.6","2","2","2","1","2","2","2","2","1","2","2","2","1","1","2","2","2","2","2","2","4","5","4","4","4","5","4","1","3","1","0","1","1","0","0","1","1","1","1","1","0","1","0","1","2","4","5","4","4","","4","4","5","3","3","793983472925548545","王","625","","","","","","","","","","","","","","","","","","","","","","","","","","","","","","","","","","","","","","","","","",""
"450","<p style=""color:rgb(150, 250, 100); font-size: 35px;"">我</p>","e","categorize-html","22","123273","0.0-6.0-1.0-2.0-1.6","2","2","2","1","2","2","2","2","1","2","2","2","1","1","2","2","2","2","2","2","4","5","4","4","4","5","4","1","3","1","0","1","1","0","0","1","1","1","1","1","0","1","0","1","2","4","5","4","4","","4","4","5","3","3","793983472925548545","王","625","","","","","","","","","","","","","","","","","","","false","11","1","moral","450","self","我","","","","","","","","","","","","","","","","",""
"null","","null","html-keyboard-response","23","123524","0.0-6.0-1.0-2.0-0.7","2","2","2","1","2","2","2","2","1","2","2","2","1","1","2","2","2","2","2","2","4","5","4","4","4","5","4","1","3","1","0","1","1","0","0","1","1","1","1","1","0","1","0","1","2","4","5","4","4","","4","4","5","3","3","793983472925548545","王","625","","","","","","","","","","","","","","","","","","","","","","","","","","","","","","","","","","","","","","","","","",""
"538","<p style=""color:rgb(150, 250, 100); font-size: 35px;"">他人</p>","e","categorize-html","24","124063","0.0-6.0-1.0-2.0-1.7","2","2","2","1","2","2","2","2","1","2","2","2","1","1","2","2","2","2","2","2","4","5","4","4","4","5","4","1","3","1","0","1","1","0","0","1","1","1","1","1","0","1","0","1","2","4","5","4","4","","4","4","5","3","3","793983472925548545","王","625","","","","","","","","","","","","","","","","","","","true","11","1","moral","538","other","他人","","","","","","","","","","","","","","","","",""
"null","","null","html-keyboard-response","25","124314","0.0-6.0-1.0-2.0-0.8","2","2","2","1","2","2","2","2","1","2","2","2","1","1","2","2","2","2","2","2","4","5","4","4","4","5","4","1","3","1","0","1","1","0","0","1","1","1","1","1","0","1","0","1","2","4","5","4","4","","4","4","5","3","3","793983472925548545","王","625","","","","","","","","","","","","","","","","","","","","","","","","","","","","","","","","","","","","","","","","","",""
"451","<p style=""color:rgb(150, 250, 100); font-size: 35px;"">我的</p>","i","categorize-html","26","124766","0.0-6.0-1.0-2.0-1.8","2","2","2","1","2","2","2","2","1","2","2","2","1","1","2","2","2","2","2","2","4","5","4","4","4","5","4","1","3","1","0","1","1","0","0","1","1","1","1","1","0","1","0","1","2","4","5","4","4","","4","4","5","3","3","793983472925548545","王","625","","","","","","","","","","","","","","","","","","","true","11","1","moral","451","self","我的","","","","","","","","","","","","","","","","",""
"null","","null","html-keyboard-response","27","125018","0.0-6.0-1.0-2.0-0.9","2","2","2","1","2","2","2","2","1","2","2","2","1","1","2","2","2","2","2","2","4","5","4","4","4","5","4","1","3","1","0","1","1","0","0","1","1","1","1","1","0","1","0","1","2","4","5","4","4","","4","4","5","3","3","793983472925548545","王","625","","","","","","","","","","","","","","","","","","","","","","","","","","","","","","","","","","","","","","","","","",""
"560","<p style=""color:rgb(150, 250, 100); font-size: 35px;"">本人的</p>","i","categorize-html","28","125579","0.0-6.0-1.0-2.0-1.9","2","2","2","1","2","2","2","2","1","2","2","2","1","1","2","2","2","2","2","2","4","5","4","4","4","5","4","1","3","1","0","1","1","0","0","1","1","1","1","1","0","1","0","1","2","4","5","4","4","","4","4","5","3","3","793983472925548545","王","625","","","","","","","","","","","","","","","","","","","true","11","1","moral","560","self","本人的","","","","","","","","","","","","","","","","",""
"null","","null","html-keyboard-response","29","125830","0.0-6.0-1.0-2.0-0.10","2","2","2","1","2","2","2","2","1","2","2","2","1","1","2","2","2","2","2","2","4","5","4","4","4","5","4","1","3","1","0","1","1","0","0","1","1","1","1","1","0","1","0","1","2","4","5","4","4","","4","4","5","3","3","793983472925548545","王","625","","","","","","","","","","","","","","","","","","","","","","","","","","","","","","","","","","","","","","","","","",""
"384","<p style=""color:rgb(150, 250, 100); font-size: 35px;"">本人</p>","i","categorize-html","30","126216","0.0-6.0-1.0-2.0-1.10","2","2","2","1","2","2","2","2","1","2","2","2","1","1","2","2","2","2","2","2","4","5","4","4","4","5","4","1","3","1","0","1","1","0","0","1","1","1","1","1","0","1","0","1","2","4","5","4","4","","4","4","5","3","3","793983472925548545","王","625","","","","","","","","","","","","","","","","","","","true","11","1","moral","384","self","本人","","","","","","","","","","","","","","","","",""
"null","","null","html-keyboard-response","31","126467","0.0-6.0-1.0-2.0-0.11","2","2","2","1","2","2","2","2","1","2","2","2","1","1","2","2","2","2","2","2","4","5","4","4","4","5","4","1","3","1","0","1","1","0","0","1","1","1","1","1","0","1","0","1","2","4","5","4","4","","4","4","5","3","3","793983472925548545","王","625","","","","","","","","","","","","","","","","","","","","","","","","","","","","","","","","","","","","","","","","","",""
"594","<p style=""color:rgb(150, 250, 100); font-size: 35px;"">他人的</p>","e","categorize-html","32","127062","0.0-6.0-1.0-2.0-1.11","2","2","2","1","2","2","2","2","1","2","2","2","1","1","2","2","2","2","2","2","4","5","4","4","4","5","4","1","3","1","0","1","1","0","0","1","1","1","1","1","0","1","0","1","2","4","5","4","4","","4","4","5","3","3","793983472925548545","王","625","","","","","","","","","","","","","","","","","","","true","11","1","moral","594","other","他人的","","","","","","","","","","","","","","","","",""
"1185","
    <div class=""tag-bottom""><p>
    —— 任务2：对“积极”词和“消极”词分类 ——<p/>   
    <span style=""color:#78DCE8""><b>注意上方，类别标签和需要分类的词语都已经改变</b></span><p/>
    <span style=""color:#FFD866""><b>请根据上方标签的提示，尽可能正确并且快速地做出按键反应</b></span><p/>
    当按键错误时屏幕中会出现<span style=""color:red""> X </span>，需要按另一个键纠正才能继续<br/><p/>
    请把双手食指分别放在键盘的“E”键和“I”键上<p/>
    按<空格键>开始
    </p></div>"," ","html-keyboard-response","33","128247","0.0-6.0-1.0-3.0","2","2","2","1","2","2","2","2","1","2","2","2","1","1","2","2","2","2","2","2","4","5","4","4","4","5","4","1","3","1","0","1","1","0","0","1","1","1","1","1","0","1","0","1","2","4","5","4","4","","4","4","5","3","3","793983472925548545","王","625","","","","","","","","","","","","","","","","","","","","","","","","","","","","","","","","","","","","","","","","","",""
"null","","null","html-keyboard-response","34","128498","0.0-6.0-1.0-4.0-0.0","2","2","2","1","2","2","2","2","1","2","2","2","1","1","2","2","2","2","2","2","4","5","4","4","4","5","4","1","3","1","0","1","1","0","0","1","1","1","1","1","0","1","0","1","2","4","5","4","4","","4","4","5","3","3","793983472925548545","王","625","","","","","","","","","","","","","","","","","","","","","","","","","","","","","","","","","","","","","","","","","",""
"1236","<p style=""color:white; font-size: 35px;"">缺德</p>","i","categorize-html","35","129736","0.0-6.0-1.0-4.0-1.0","2","2","2","1","2","2","2","2","1","2","2","2","1","1","2","2","2","2","2","2","4","5","4","4","4","5","4","1","3","1","0","1","1","0","0","1","1","1","1","1","0","1","0","1","2","4","5","4","4","","4","4","5","3","3","793983472925548545","王","625","","","","","","","","","","","","","","","","","","","true","12","2","moral","1236","negative","缺德","","","","","","","","","","","","","","","","",""
"null","","null","html-keyboard-response","36","129987","0.0-6.0-1.0-4.0-0.1","2","2","2","1","2","2","2","2","1","2","2","2","1","1","2","2","2","2","2","2","4","5","4","4","4","5","4","1","3","1","0","1","1","0","0","1","1","1","1","1","0","1","0","1","2","4","5","4","4","","4","4","5","3","3","793983472925548545","王","625","","","","","","","","","","","","","","","","","","","","","","","","","","","","","","","","","","","","","","","","","",""
"593","<p style=""color:white; font-size: 35px;"">诚信</p>","e","categorize-html","37","130581","0.0-6.0-1.0-4.0-1.1","2","2","2","1","2","2","2","2","1","2","2","2","1","1","2","2","2","2","2","2","4","5","4","4","4","5","4","1","3","1","0","1","1","0","0","1","1","1","1","1","0","1","0","1","2","4","5","4","4","","4","4","5","3","3","793983472925548545","王","625","","","","","","","","","","","","","","","","","","","true","12","2","moral","593","positive","诚信","","","","","","","","","","","","","","","","",""
"null","","null","html-keyboard-response","38","130832","0.0-6.0-1.0-4.0-0.2","2","2","2","1","2","2","2","2","1","2","2","2","1","1","2","2","2","2","2","2","4","5","4","4","4","5","4","1","3","1","0","1","1","0","0","1","1","1","1","1","0","1","0","1","2","4","5","4","4","","4","4","5","3","3","793983472925548545","王","625","","","","","","","","","","","","","","","","","","","","","","","","","","","","","","","","","","","","","","","","","",""
"1256","<p style=""color:white; font-size: 35px;"">正直</p>","e","categorize-html","39","132089","0.0-6.0-1.0-4.0-1.2","2","2","2","1","2","2","2","2","1","2","2","2","1","1","2","2","2","2","2","2","4","5","4","4","4","5","4","1","3","1","0","1","1","0","0","1","1","1","1","1","0","1","0","1","2","4","5","4","4","","4","4","5","3","3","793983472925548545","王","625","","","","","","","","","","","","","","","","","","","true","12","2","moral","1256","positive","正直","","","","","","","","","","","","","","","","",""
"null","","null","html-keyboard-response","40","132340","0.0-6.0-1.0-4.0-0.3","2","2","2","1","2","2","2","2","1","2","2","2","1","1","2","2","2","2","2","2","4","5","4","4","4","5","4","1","3","1","0","1","1","0","0","1","1","1","1","1","0","1","0","1","2","4","5","4","4","","4","4","5","3","3","793983472925548545","王","625","","","","","","","","","","","","","","","","","","","","","","","","","","","","","","","","","","","","","","","","","",""
"546","<p style=""color:white; font-size: 35px;"">高尚</p>","e","categorize-html","41","132887","0.0-6.0-1.0-4.0-1.3","2","2","2","1","2","2","2","2","1","2","2","2","1","1","2","2","2","2","2","2","4","5","4","4","4","5","4","1","3","1","0","1","1","0","0","1","1","1","1","1","0","1","0","1","2","4","5","4","4","","4","4","5","3","3","793983472925548545","王","625","","","","","","","","","","","","","","","","","","","true","12","2","moral","546","positive","高尚","","","","","","","","","","","","","","","","",""
"null","","null","html-keyboard-response","42","133138","0.0-6.0-1.0-4.0-0.4","2","2","2","1","2","2","2","2","1","2","2","2","1","1","2","2","2","2","2","2","4","5","4","4","4","5","4","1","3","1","0","1","1","0","0","1","1","1","1","1","0","1","0","1","2","4","5","4","4","","4","4","5","3","3","793983472925548545","王","625","","","","","","","","","","","","","","","","","","","","","","","","","","","","","","","","","","","","","","","","","",""
"687","<p style=""color:white; font-size: 35px;"">卑鄙</p>","i","categorize-html","43","133826","0.0-6.0-1.0-4.0-1.4","2","2","2","1","2","2","2","2","1","2","2","2","1","1","2","2","2","2","2","2","4","5","4","4","4","5","4","1","3","1","0","1","1","0","0","1","1","1","1","1","0","1","0","1","2","4","5","4","4","","4","4","5","3","3","793983472925548545","王","625","","","","","","","","","","","","","","","","","","","true","12","2","moral","687","negative","卑鄙","","","","","","","","","","","","","","","","",""
"null","","null","html-keyboard-response","44","134077","0.0-6.0-1.0-4.0-0.5","2","2","2","1","2","2","2","2","1","2","2","2","1","1","2","2","2","2","2","2","4","5","4","4","4","5","4","1","3","1","0","1","1","0","0","1","1","1","1","1","0","1","0","1","2","4","5","4","4","","4","4","5","3","3","793983472925548545","王","625","","","","","","","","","","","","","","","","","","","","","","","","","","","","","","","","","","","","","","","","","",""
"538","<p style=""color:white; font-size: 35px;"">不仁</p>","i","categorize-html","45","134616","0.0-6.0-1.0-4.0-1.5","2","2","2","1","2","2","2","2","1","2","2","2","1","1","2","2","2","2","2","2","4","5","4","4","4","5","4","1","3","1","0","1","1","0","0","1","1","1","1","1","0","1","0","1","2","4","5","4","4","","4","4","5","3","3","793983472925548545","王","625","","","","","","","","","","","","","","","","","","","true","12","2","moral","538","negative","不仁","","","","","","","","","","","","","","","","",""
"null","","null","html-keyboard-response","46","134867","0.0-6.0-1.0-4.0-0.6","2","2","2","1","2","2","2","2","1","2","2","2","1","1","2","2","2","2","2","2","4","5","4","4","4","5","4","1","3","1","0","1","1","0","0","1","1","1","1","1","0","1","0","1","2","4","5","4","4","","4","4","5","3","3","793983472925548545","王","625","","","","","","","","","","","","","","","","","","","","","","","","","","","","","","","","","","","","","","","","","",""
"575","<p style=""color:white; font-size: 35px;"">黑心</p>","i","categorize-html","47","135443","0.0-6.0-1.0-4.0-1.6","2","2","2","1","2","2","2","2","1","2","2","2","1","1","2","2","2","2","2","2","4","5","4","4","4","5","4","1","3","1","0","1","1","0","0","1","1","1","1","1","0","1","0","1","2","4","5","4","4","","4","4","5","3","3","793983472925548545","王","625","","","","","","","","","","","","","","","","","","","true","12","2","moral","575","negative","黑心","","","","","","","","","","","","","","","","",""
"null","","null","html-keyboard-response","48","135694","0.0-6.0-1.0-4.0-0.7","2","2","2","1","2","2","2","2","1","2","2","2","1","1","2","2","2","2","2","2","4","5","4","4","4","5","4","1","3","1","0","1","1","0","0","1","1","1","1","1","0","1","0","1","2","4","5","4","4","","4","4","5","3","3","793983472925548545","王","625","","","","","","","","","","","","","","","","","","","","","","","","","","","","","","","","","","","","","","","","","",""
"486","<p style=""color:white; font-size: 35px;"">小人</p>","i","categorize-html","49","136181","0.0-6.0-1.0-4.0-1.7","2","2","2","1","2","2","2","2","1","2","2","2","1","1","2","2","2","2","2","2","4","5","4","4","4","5","4","1","3","1","0","1","1","0","0","1","1","1","1","1","0","1","0","1","2","4","5","4","4","","4","4","5","3","3","793983472925548545","王","625","","","","","","","","","","","","","","","","","","","true","12","2","moral","486","negative","小人","","","","","","","","","","","","","","","","",""
"null","","null","html-keyboard-response","50","136432","0.0-6.0-1.0-4.0-0.8","2","2","2","1","2","2","2","2","1","2","2","2","1","1","2","2","2","2","2","2","4","5","4","4","4","5","4","1","3","1","0","1","1","0","0","1","1","1","1","1","0","1","0","1","2","4","5","4","4","","4","4","5","3","3","793983472925548545","王","625","","","","","","","","","","","","","","","","","","","","","","","","","","","","","","","","","","","","","","","","","",""
"477","<p style=""color:white; font-size: 35px;"">不孝</p>","i","categorize-html","51","136909","0.0-6.0-1.0-4.0-1.8","2","2","2","1","2","2","2","2","1","2","2","2","1","1","2","2","2","2","2","2","4","5","4","4","4","5","4","1","3","1","0","1","1","0","0","1","1","1","1","1","0","1","0","1","2","4","5","4","4","","4","4","5","3","3","793983472925548545","王","625","","","","","","","","","","","","","","","","","","","true","12","2","moral","477","negative","不孝","","","","","","","","","","","","","","","","",""
"null","","null","html-keyboard-response","52","137161","0.0-6.0-1.0-4.0-0.9","2","2","2","1","2","2","2","2","1","2","2","2","1","1","2","2","2","2","2","2","4","5","4","4","4","5","4","1","3","1","0","1","1","0","0","1","1","1","1","1","0","1","0","1","2","4","5","4","4","","4","4","5","3","3","793983472925548545","王","625","","","","","","","","","","","","","","","","","","","","","","","","","","","","","","","","","","","","","","","","","",""
"495","<p style=""color:white; font-size: 35px;"">善良</p>","e","categorize-html","53","137657","0.0-6.0-1.0-4.0-1.9","2","2","2","1","2","2","2","2","1","2","2","2","1","1","2","2","2","2","2","2","4","5","4","4","4","5","4","1","3","1","0","1","1","0","0","1","1","1","1","1","0","1","0","1","2","4","5","4","4","","4","4","5","3","3","793983472925548545","王","625","","","","","","","","","","","","","","","","","","","true","12","2","moral","495","positive","善良","","","","","","","","","","","","","","","","",""
"null","","null","html-keyboard-response","54","137907","0.0-6.0-1.0-4.0-0.10","2","2","2","1","2","2","2","2","1","2","2","2","1","1","2","2","2","2","2","2","4","5","4","4","4","5","4","1","3","1","0","1","1","0","0","1","1","1","1","1","0","1","0","1","2","4","5","4","4","","4","4","5","3","3","793983472925548545","王","625","","","","","","","","","","","","","","","","","","","","","","","","","","","","","","","","","","","","","","","","","",""
"444","<p style=""color:white; font-size: 35px;"">廉正</p>","e","categorize-html","55","138353","0.0-6.0-1.0-4.0-1.10","2","2","2","1","2","2","2","2","1","2","2","2","1","1","2","2","2","2","2","2","4","5","4","4","4","5","4","1","3","1","0","1","1","0","0","1","1","1","1","1","0","1","0","1","2","4","5","4","4","","4","4","5","3","3","793983472925548545","王","625","","","","","","","","","","","","","","","","","","","true","12","2","moral","444","positive","廉正","","","","","","","","","","","","","","","","",""
"null","","null","html-keyboard-response","56","138604","0.0-6.0-1.0-4.0-0.11","2","2","2","1","2","2","2","2","1","2","2","2","1","1","2","2","2","2","2","2","4","5","4","4","4","5","4","1","3","1","0","1","1","0","0","1","1","1","1","1","0","1","0","1","2","4","5","4","4","","4","4","5","3","3","793983472925548545","王","625","","","","","","","","","","","","","","","","","","","","","","","","","","","","","","","","","","","","","","","","","",""
"750","<p style=""color:white; font-size: 35px;"">君子</p>","e","categorize-html","57","139355","0.0-6.0-1.0-4.0-1.11","2","2","2","1","2","2","2","2","1","2","2","2","1","1","2","2","2","2","2","2","4","5","4","4","4","5","4","1","3","1","0","1","1","0","0","1","1","1","1","1","0","1","0","1","2","4","5","4","4","","4","4","5","3","3","793983472925548545","王","625","","","","","","","","","","","","","","","","","","","true","12","2","moral","750","positive","君子","","","","","","","","","","","","","","","","",""
"1185","
    <div class=""tag-bottom""><p>
    —— 任务3：对“他人/积极”词和“自我/消极”词分类 ——<p/>
    <span style=""color:#78DCE8""><b>注意上方，之前的四类词语将混合在一起交替呈现</b></span><p/>
    <span style=""color:#FFD866""><b>请根据上方标签的提示，尽可能正确并且快速地做出按键反应</b></span><p/>
    当按键错误时屏幕中会出现<span style=""color:red""> X </span>，需要按另一个键纠正才能继续<br/><p/>
    请把双手食指分别放在键盘的“E”键和“I”键上<p/>
    按<空格键>开始
    </p></div>"," ","html-keyboard-response","58","140540","0.0-6.0-1.0-5.0","2","2","2","1","2","2","2","2","1","2","2","2","1","1","2","2","2","2","2","2","4","5","4","4","4","5","4","1","3","1","0","1","1","0","0","1","1","1","1","1","0","1","0","1","2","4","5","4","4","","4","4","5","3","3","793983472925548545","王","625","","","","","","","","","","","","","","","","","","","","","","","","","","","","","","","","","","","","","","","","","",""
"null","","null","html-keyboard-response","59","140791","0.0-6.0-1.0-6.0-0.0","2","2","2","1","2","2","2","2","1","2","2","2","1","1","2","2","2","2","2","2","4","5","4","4","4","5","4","1","3","1","0","1","1","0","0","1","1","1","1","1","0","1","0","1","2","4","5","4","4","","4","4","5","3","3","793983472925548545","王","625","","","","","","","","","","","","","","","","","","","","","","","","","","","","","","","","","","","","","","","","","",""
"655","<p style=""color:rgb(150, 250, 100); font-size: 35px;"">他人的</p>","e","categorize-html","60","141448","0.0-6.0-1.0-6.0-1.0","2","2","2","1","2","2","2","2","1","2","2","2","1","1","2","2","2","2","2","2","4","5","4","4","4","5","4","1","3","1","0","1","1","0","0","1","1","1","1","1","0","1","0","1","2","4","5","4","4","","4","4","5","3","3","793983472925548545","王","625","","","","","","","","","","","","","","","","","","","true","13","3","moral","655","other","他人的","","","","","","","","","","","","","","","","",""
"null","","null","html-keyboard-response","61","141699","0.0-6.0-1.0-6.0-0.1","2","2","2","1","2","2","2","2","1","2","2","2","1","1","2","2","2","2","2","2","4","5","4","4","4","5","4","1","3","1","0","1","1","0","0","1","1","1","1","1","0","1","0","1","2","4","5","4","4","","4","4","5","3","3","793983472925548545","王","625","","","","","","","","","","","","","","","","","","","","","","","","","","","","","","","","","","","","","","","","","",""
"1357","<p style=""color:white; font-size: 35px;"">缺德</p>","i","categorize-html","62","143057","0.0-6.0-1.0-6.0-1.1","2","2","2","1","2","2","2","2","1","2","2","2","1","1","2","2","2","2","2","2","4","5","4","4","4","5","4","1","3","1","0","1","1","0","0","1","1","1","1","1","0","1","0","1","2","4","5","4","4","","4","4","5","3","3","793983472925548545","王","625","","","","","","","","","","","","","","","","","","","true","13","3","moral","1357","negative","缺德","","","","","","","","","","","","","","","","",""
"null","","null","html-keyboard-response","63","143308","0.0-6.0-1.0-6.0-0.2","2","2","2","1","2","2","2","2","1","2","2","2","1","1","2","2","2","2","2","2","4","5","4","4","4","5","4","1","3","1","0","1","1","0","0","1","1","1","1","1","0","1","0","1","2","4","5","4","4","","4","4","5","3","3","793983472925548545","王","625","","","","","","","","","","","","","","","","","","","","","","","","","","","","","","","","","","","","","","","","","",""
"867","<p style=""color:rgb(150, 250, 100); font-size: 35px;"">自己的</p>","i","categorize-html","64","144176","0.0-6.0-1.0-6.0-1.2","2","2","2","1","2","2","2","2","1","2","2","2","1","1","2","2","2","2","2","2","4","5","4","4","4","5","4","1","3","1","0","1","1","0","0","1","1","1","1","1","0","1","0","1","2","4","5","4","4","","4","4","5","3","3","793983472925548545","王","625","","","","","","","","","","","","","","","","","","","true","13","3","moral","867","self","自己的","","","","","","","","","","","","","","","","",""
"null","","null","html-keyboard-response","65","144427","0.0-6.0-1.0-6.0-0.3","2","2","2","1","2","2","2","2","1","2","2","2","1","1","2","2","2","2","2","2","4","5","4","4","4","5","4","1","3","1","0","1","1","0","0","1","1","1","1","1","0","1","0","1","2","4","5","4","4","","4","4","5","3","3","793983472925548545","王","625","","","","","","","","","","","","","","","","","","","","","","","","","","","","","","","","","","","","","","","","","",""
"808","<p style=""color:white; font-size: 35px;"">善良</p>","e","categorize-html","66","145236","0.0-6.0-1.0-6.0-1.3","2","2","2","1","2","2","2","2","1","2","2","2","1","1","2","2","2","2","2","2","4","5","4","4","4","5","4","1","3","1","0","1","1","0","0","1","1","1","1","1","0","1","0","1","2","4","5","4","4","","4","4","5","3","3","793983472925548545","王","625","","","","","","","","","","","","","","","","","","","true","13","3","moral","808","positive","善良","","","","","","","","","","","","","","","","",""
"null","","null","html-keyboard-response","67","145487","0.0-6.0-1.0-6.0-0.4","2","2","2","1","2","2","2","2","1","2","2","2","1","1","2","2","2","2","2","2","4","5","4","4","4","5","4","1","3","1","0","1","1","0","0","1","1","1","1","1","0","1","0","1","2","4","5","4","4","","4","4","5","3","3","793983472925548545","王","625","","","","","","","","","","","","","","","","","","","","","","","","","","","","","","","","","","","","","","","","","",""
"1230","<p style=""color:rgb(150, 250, 100); font-size: 35px;"">别人的</p>","e","categorize-html","68","146718","0.0-6.0-1.0-6.0-1.4","2","2","2","1","2","2","2","2","1","2","2","2","1","1","2","2","2","2","2","2","4","5","4","4","4","5","4","1","3","1","0","1","1","0","0","1","1","1","1","1","0","1","0","1","2","4","5","4","4","","4","4","5","3","3","793983472925548545","王","625","","","","","","","","","","","","","","","","","","","true","13","3","moral","1230","other","别人的","","","","","","","","","","","","","","","","",""
"null","","null","html-keyboard-response","69","146968","0.0-6.0-1.0-6.0-0.5","2","2","2","1","2","2","2","2","1","2","2","2","1","1","2","2","2","2","2","2","4","5","4","4","4","5","4","1","3","1","0","1","1","0","0","1","1","1","1","1","0","1","0","1","2","4","5","4","4","","4","4","5","3","3","793983472925548545","王","625","","","","","","","","","","","","","","","","","","","","","","","","","","","","","","","","","","","","","","","","","",""
"2641","<p style=""color:white; font-size: 35px;"">诚信</p>","e","categorize-html","70","149611","0.0-6.0-1.0-6.0-1.5","2","2","2","1","2","2","2","2","1","2","2","2","1","1","2","2","2","2","2","2","4","5","4","4","4","5","4","1","3","1","0","1","1","0","0","1","1","1","1","1","0","1","0","1","2","4","5","4","4","","4","4","5","3","3","793983472925548545","王","625","","","","","","","","","","","","","","","","","","","true","13","3","moral","2641","positive","诚信","","","","","","","","","","","","","","","","",""
"null","","null","html-keyboard-response","71","149861","0.0-6.0-1.0-6.0-0.6","2","2","2","1","2","2","2","2","1","2","2","2","1","1","2","2","2","2","2","2","4","5","4","4","4","5","4","1","3","1","0","1","1","0","0","1","1","1","1","1","0","1","0","1","2","4","5","4","4","","4","4","5","3","3","793983472925548545","王","625","","","","","","","","","","","","","","","","","","","","","","","","","","","","","","","","","","","","","","","","","",""
"970","<p style=""color:rgb(150, 250, 100); font-size: 35px;"">我的</p>","i","categorize-html","72","150833","0.0-6.0-1.0-6.0-1.6","2","2","2","1","2","2","2","2","1","2","2","2","1","1","2","2","2","2","2","2","4","5","4","4","4","5","4","1","3","1","0","1","1","0","0","1","1","1","1","1","0","1","0","1","2","4","5","4","4","","4","4","5","3","3","793983472925548545","王","625","","","","","","","","","","","","","","","","","","","true","13","3","moral","970","self","我的","","","","","","","","","","","","","","","","",""
"null","","null","html-keyboard-response","73","151084","0.0-6.0-1.0-6.0-0.7","2","2","2","1","2","2","2","2","1","2","2","2","1","1","2","2","2","2","2","2","4","5","4","4","4","5","4","1","3","1","0","1","1","0","0","1","1","1","1","1","0","1","0","1","2","4","5","4","4","","4","4","5","3","3","793983472925548545","王","625","","","","","","","","","","","","","","","","","","","","","","","","","","","","","","","","","","","","","","","","","",""
"1098","<p style=""color:white; font-size: 35px;"">小人</p>","e","categorize-html","74","152688","0.0-6.0-1.0-6.0-1.7","2","2","2","1","2","2","2","2","1","2","2","2","1","1","2","2","2","2","2","2","4","5","4","4","4","5","4","1","3","1","0","1","1","0","0","1","1","1","1","1","0","1","0","1","2","4","5","4","4","","4","4","5","3","3","793983472925548545","王","625","","","","","","","","","","","","","","","","","","","false","13","3","moral","1574.318181818182","negative","小人","","","","","","","","","","","","","","","","",""
"null","","null","html-keyboard-response","75","152939","0.0-6.0-1.0-6.0-0.8","2","2","2","1","2","2","2","2","1","2","2","2","1","1","2","2","2","2","2","2","4","5","4","4","4","5","4","1","3","1","0","1","1","0","0","1","1","1","1","1","0","1","0","1","2","4","5","4","4","","4","4","5","3","3","793983472925548545","王","625","","","","","","","","","","","","","","","","","","","","","","","","","","","","","","","","","","","","","","","","","",""
"599","<p style=""color:rgb(150, 250, 100); font-size: 35px;"">他的</p>","e","categorize-html","76","153539","0.0-6.0-1.0-6.0-1.8","2","2","2","1","2","2","2","2","1","2","2","2","1","1","2","2","2","2","2","2","4","5","4","4","4","5","4","1","3","1","0","1","1","0","0","1","1","1","1","1","0","1","0","1","2","4","5","4","4","","4","4","5","3","3","793983472925548545","王","625","","","","","","","","","","","","","","","","","","","true","13","3","moral","599","other","他的","","","","","","","","","","","","","","","","",""
"null","","null","html-keyboard-response","77","153790","0.0-6.0-1.0-6.0-0.9","2","2","2","1","2","2","2","2","1","2","2","2","1","1","2","2","2","2","2","2","4","5","4","4","4","5","4","1","3","1","0","1","1","0","0","1","1","1","1","1","0","1","0","1","2","4","5","4","4","","4","4","5","3","3","793983472925548545","王","625","","","","","","","","","","","","","","","","","","","","","","","","","","","","","","","","","","","","","","","","","",""
"1148","<p style=""color:white; font-size: 35px;"">卑鄙</p>","i","categorize-html","78","154939","0.0-6.0-1.0-6.0-1.9","2","2","2","1","2","2","2","2","1","2","2","2","1","1","2","2","2","2","2","2","4","5","4","4","4","5","4","1","3","1","0","1","1","0","0","1","1","1","1","1","0","1","0","1","2","4","5","4","4","","4","4","5","3","3","793983472925548545","王","625","","","","","","","","","","","","","","","","","","","true","13","3","moral","1148","negative","卑鄙","","","","","","","","","","","","","","","","",""
"null","","null","html-keyboard-response","79","155191","0.0-6.0-1.0-6.0-0.10","2","2","2","1","2","2","2","2","1","2","2","2","1","1","2","2","2","2","2","2","4","5","4","4","4","5","4","1","3","1","0","1","1","0","0","1","1","1","1","1","0","1","0","1","2","4","5","4","4","","4","4","5","3","3","793983472925548545","王","625","","","","","","","","","","","","","","","","","","","","","","","","","","","","","","","","","","","","","","","","","",""
"963","<p style=""color:rgb(150, 250, 100); font-size: 35px;"">本人</p>","i","categorize-html","80","156155","0.0-6.0-1.0-6.0-1.10","2","2","2","1","2","2","2","2","1","2","2","2","1","1","2","2","2","2","2","2","4","5","4","4","4","5","4","1","3","1","0","1","1","0","0","1","1","1","1","1","0","1","0","1","2","4","5","4","4","","4","4","5","3","3","793983472925548545","王","625","","","","","","","","","","","","","","","","","","","true","13","3","moral","963","self","本人","","","","","","","","","","","","","","","","",""
"null","","null","html-keyboard-response","81","156406","0.0-6.0-1.0-6.0-0.11","2","2","2","1","2","2","2","2","1","2","2","2","1","1","2","2","2","2","2","2","4","5","4","4","4","5","4","1","3","1","0","1","1","0","0","1","1","1","1","1","0","1","0","1","2","4","5","4","4","","4","4","5","3","3","793983472925548545","王","625","","","","","","","","","","","","","","","","","","","","","","","","","","","","","","","","","","","","","","","","","",""
"947","<p style=""color:white; font-size: 35px;"">高尚</p>","e","categorize-html","82","157354","0.0-6.0-1.0-6.0-1.11","2","2","2","1","2","2","2","2","1","2","2","2","1","1","2","2","2","2","2","2","4","5","4","4","4","5","4","1","3","1","0","1","1","0","0","1","1","1","1","1","0","1","0","1","2","4","5","4","4","","4","4","5","3","3","793983472925548545","王","625","","","","","","","","","","","","","","","","","","","true","13","3","moral","947","positive","高尚","","","","","","","","","","","","","","","","",""
"null","","null","html-keyboard-response","83","157604","0.0-6.0-1.0-6.0-0.12","2","2","2","1","2","2","2","2","1","2","2","2","1","1","2","2","2","2","2","2","4","5","4","4","4","5","4","1","3","1","0","1","1","0","0","1","1","1","1","1","0","1","0","1","2","4","5","4","4","","4","4","5","3","3","793983472925548545","王","625","","","","","","","","","","","","","","","","","","","","","","","","","","","","","","","","","","","","","","","","","",""
"1380","<p style=""color:rgb(150, 250, 100); font-size: 35px;"">别人</p>","e","categorize-html","84","158986","0.0-6.0-1.0-6.0-1.12","2","2","2","1","2","2","2","2","1","2","2","2","1","1","2","2","2","2","2","2","4","5","4","4","4","5","4","1","3","1","0","1","1","0","0","1","1","1","1","1","0","1","0","1","2","4","5","4","4","","4","4","5","3","3","793983472925548545","王","625","","","","","","","","","","","","","","","","","","","true","13","3","moral","1380","other","别人","","","","","","","","","","","","","","","","",""
"null","","null","html-keyboard-response","85","159237","0.0-6.0-1.0-6.0-0.13","2","2","2","1","2","2","2","2","1","2","2","2","1","1","2","2","2","2","2","2","4","5","4","4","4","5","4","1","3","1","0","1","1","0","0","1","1","1","1","1","0","1","0","1","2","4","5","4","4","","4","4","5","3","3","793983472925548545","王","625","","","","","","","","","","","","","","","","","","","","","","","","","","","","","","","","","","","","","","","","","",""
"1297","<p style=""color:white; font-size: 35px;"">君子</p>","i","categorize-html","86","160954","0.0-6.0-1.0-6.0-1.13","2","2","2","1","2","2","2","2","1","2","2","2","1","1","2","2","2","2","2","2","4","5","4","4","4","5","4","1","3","1","0","1","1","0","0","1","1","1","1","1","0","1","0","1","2","4","5","4","4","","4","4","5","3","3","793983472925548545","王","625","","","","","","","","","","","","","","","","","","","false","13","3","moral","1574.318181818182","positive","君子","","","","","","","","","","","","","","","","",""
"null","","null","html-keyboard-response","87","161205","0.0-6.0-1.0-6.0-0.14","2","2","2","1","2","2","2","2","1","2","2","2","1","1","2","2","2","2","2","2","4","5","4","4","4","5","4","1","3","1","0","1","1","0","0","1","1","1","1","1","0","1","0","1","2","4","5","4","4","","4","4","5","3","3","793983472925548545","王","625","","","","","","","","","","","","","","","","","","","","","","","","","","","","","","","","","","","","","","","","","",""
"811","<p style=""color:rgb(150, 250, 100); font-size: 35px;"">本人的</p>","i","categorize-html","88","162017","0.0-6.0-1.0-6.0-1.14","2","2","2","1","2","2","2","2","1","2","2","2","1","1","2","2","2","2","2","2","4","5","4","4","4","5","4","1","3","1","0","1","1","0","0","1","1","1","1","1","0","1","0","1","2","4","5","4","4","","4","4","5","3","3","793983472925548545","王","625","","","","","","","","","","","","","","","","","","","true","13","3","moral","811","self","本人的","","","","","","","","","","","","","","","","",""
"null","","null","html-keyboard-response","89","162268","0.0-6.0-1.0-6.0-0.15","2","2","2","1","2","2","2","2","1","2","2","2","1","1","2","2","2","2","2","2","4","5","4","4","4","5","4","1","3","1","0","1","1","0","0","1","1","1","1","1","0","1","0","1","2","4","5","4","4","","4","4","5","3","3","793983472925548545","王","625","","","","","","","","","","","","","","","","","","","","","","","","","","","","","","","","","","","","","","","","","",""
"696","<p style=""color:white; font-size: 35px;"">不孝</p>","i","categorize-html","90","162965","0.0-6.0-1.0-6.0-1.15","2","2","2","1","2","2","2","2","1","2","2","2","1","1","2","2","2","2","2","2","4","5","4","4","4","5","4","1","3","1","0","1","1","0","0","1","1","1","1","1","0","1","0","1","2","4","5","4","4","","4","4","5","3","3","793983472925548545","王","625","","","","","","","","","","","","","","","","","","","true","13","3","moral","696","negative","不孝","","","","","","","","","","","","","","","","",""
"null","","null","html-keyboard-response","91","163216","0.0-6.0-1.0-6.0-0.16","2","2","2","1","2","2","2","2","1","2","2","2","1","1","2","2","2","2","2","2","4","5","4","4","4","5","4","1","3","1","0","1","1","0","0","1","1","1","1","1","0","1","0","1","2","4","5","4","4","","4","4","5","3","3","793983472925548545","王","625","","","","","","","","","","","","","","","","","","","","","","","","","","","","","","","","","","","","","","","","","",""
"575","<p style=""color:rgb(150, 250, 100); font-size: 35px;"">自己</p>","i","categorize-html","92","163792","0.0-6.0-1.0-6.0-1.16","2","2","2","1","2","2","2","2","1","2","2","2","1","1","2","2","2","2","2","2","4","5","4","4","4","5","4","1","3","1","0","1","1","0","0","1","1","1","1","1","0","1","0","1","2","4","5","4","4","","4","4","5","3","3","793983472925548545","王","625","","","","","","","","","","","","","","","","","","","true","13","3","moral","575","self","自己","","","","","","","","","","","","","","","","",""
"null","","null","html-keyboard-response","93","164043","0.0-6.0-1.0-6.0-0.17","2","2","2","1","2","2","2","2","1","2","2","2","1","1","2","2","2","2","2","2","4","5","4","4","4","5","4","1","3","1","0","1","1","0","0","1","1","1","1","1","0","1","0","1","2","4","5","4","4","","4","4","5","3","3","793983472925548545","王","625","","","","","","","","","","","","","","","","","","","","","","","","","","","","","","","","","","","","","","","","","",""
"1340","<p style=""color:white; font-size: 35px;"">廉正</p>","e","categorize-html","94","165385","0.0-6.0-1.0-6.0-1.17","2","2","2","1","2","2","2","2","1","2","2","2","1","1","2","2","2","2","2","2","4","5","4","4","4","5","4","1","3","1","0","1","1","0","0","1","1","1","1","1","0","1","0","1","2","4","5","4","4","","4","4","5","3","3","793983472925548545","王","625","","","","","","","","","","","","","","","","","","","true","13","3","moral","1340","positive","廉正","","","","","","","","","","","","","","","","",""
"null","","null","html-keyboard-response","95","165636","0.0-6.0-1.0-6.0-0.18","2","2","2","1","2","2","2","2","1","2","2","2","1","1","2","2","2","2","2","2","4","5","4","4","4","5","4","1","3","1","0","1","1","0","0","1","1","1","1","1","0","1","0","1","2","4","5","4","4","","4","4","5","3","3","793983472925548545","王","625","","","","","","","","","","","","","","","","","","","","","","","","","","","","","","","","","","","","","","","","","",""
"477","<p style=""color:rgb(150, 250, 100); font-size: 35px;"">他人</p>","e","categorize-html","96","166114","0.0-6.0-1.0-6.0-1.18","2","2","2","1","2","2","2","2","1","2","2","2","1","1","2","2","2","2","2","2","4","5","4","4","4","5","4","1","3","1","0","1","1","0","0","1","1","1","1","1","0","1","0","1","2","4","5","4","4","","4","4","5","3","3","793983472925548545","王","625","","","","","","","","","","","","","","","","","","","true","13","3","moral","477","other","他人","","","","","","","","","","","","","","","","",""
"null","","null","html-keyboard-response","97","166364","0.0-6.0-1.0-6.0-0.19","2","2","2","1","2","2","2","2","1","2","2","2","1","1","2","2","2","2","2","2","4","5","4","4","4","5","4","1","3","1","0","1","1","0","0","1","1","1","1","1","0","1","0","1","2","4","5","4","4","","4","4","5","3","3","793983472925548545","王","625","","","","","","","","","","","","","","","","","","","","","","","","","","","","","","","","","","","","","","","","","",""
"754","<p style=""color:white; font-size: 35px;"">黑心</p>","i","categorize-html","98","167120","0.0-6.0-1.0-6.0-1.19","2","2","2","1","2","2","2","2","1","2","2","2","1","1","2","2","2","2","2","2","4","5","4","4","4","5","4","1","3","1","0","1","1","0","0","1","1","1","1","1","0","1","0","1","2","4","5","4","4","","4","4","5","3","3","793983472925548545","王","625","","","","","","","","","","","","","","","","","","","true","13","3","moral","754","negative","黑心","","","","","","","","","","","","","","","","",""
"null","","null","html-keyboard-response","99","167370","0.0-6.0-1.0-6.0-0.20","2","2","2","1","2","2","2","2","1","2","2","2","1","1","2","2","2","2","2","2","4","5","4","4","4","5","4","1","3","1","0","1","1","0","0","1","1","1","1","1","0","1","0","1","2","4","5","4","4","","4","4","5","3","3","793983472925548545","王","625","","","","","","","","","","","","","","","","","","","","","","","","","","","","","","","","","","","","","","","","","",""
"536","<p style=""color:rgb(150, 250, 100); font-size: 35px;"">我</p>","i","categorize-html","100","167908","0.0-6.0-1.0-6.0-1.20","2","2","2","1","2","2","2","2","1","2","2","2","1","1","2","2","2","2","2","2","4","5","4","4","4","5","4","1","3","1","0","1","1","0","0","1","1","1","1","1","0","1","0","1","2","4","5","4","4","","4","4","5","3","3","793983472925548545","王","625","","","","","","","","","","","","","","","","","","","true","13","3","moral","536","self","我","","","","","","","","","","","","","","","","",""
"null","","null","html-keyboard-response","101","168159","0.0-6.0-1.0-6.0-0.21","2","2","2","1","2","2","2","2","1","2","2","2","1","1","2","2","2","2","2","2","4","5","4","4","4","5","4","1","3","1","0","1","1","0","0","1","1","1","1","1","0","1","0","1","2","4","5","4","4","","4","4","5","3","3","793983472925548545","王","625","","","","","","","","","","","","","","","","","","","","","","","","","","","","","","","","","","","","","","","","","",""
"1343","<p style=""color:white; font-size: 35px;"">正直</p>","e","categorize-html","102","169503","0.0-6.0-1.0-6.0-1.21","2","2","2","1","2","2","2","2","1","2","2","2","1","1","2","2","2","2","2","2","4","5","4","4","4","5","4","1","3","1","0","1","1","0","0","1","1","1","1","1","0","1","0","1","2","4","5","4","4","","4","4","5","3","3","793983472925548545","王","625","","","","","","","","","","","","","","","","","","","true","13","3","moral","1343","positive","正直","","","","","","","","","","","","","","","","",""
"null","","null","html-keyboard-response","103","169754","0.0-6.0-1.0-6.0-0.22","2","2","2","1","2","2","2","2","1","2","2","2","1","1","2","2","2","2","2","2","4","5","4","4","4","5","4","1","3","1","0","1","1","0","0","1","1","1","1","1","0","1","0","1","2","4","5","4","4","","4","4","5","3","3","793983472925548545","王","625","","","","","","","","","","","","","","","","","","","","","","","","","","","","","","","","","","","","","","","","","",""
"724","<p style=""color:rgb(150, 250, 100); font-size: 35px;"">他</p>","e","categorize-html","104","170479","0.0-6.0-1.0-6.0-1.22","2","2","2","1","2","2","2","2","1","2","2","2","1","1","2","2","2","2","2","2","4","5","4","4","4","5","4","1","3","1","0","1","1","0","0","1","1","1","1","1","0","1","0","1","2","4","5","4","4","","4","4","5","3","3","793983472925548545","王","625","","","","","","","","","","","","","","","","","","","true","13","3","moral","724","other","他","","","","","","","","","","","","","","","","",""
"null","","null","html-keyboard-response","105","170730","0.0-6.0-1.0-6.0-0.23","2","2","2","1","2","2","2","2","1","2","2","2","1","1","2","2","2","2","2","2","4","5","4","4","4","5","4","1","3","1","0","1","1","0","0","1","1","1","1","1","0","1","0","1","2","4","5","4","4","","4","4","5","3","3","793983472925548545","王","625","","","","","","","","","","","","","","","","","","","","","","","","","","","","","","","","","","","","","","","","","",""
"614","<p style=""color:white; font-size: 35px;"">不仁</p>","i","categorize-html","106","171345","0.0-6.0-1.0-6.0-1.23","2","2","2","1","2","2","2","2","1","2","2","2","1","1","2","2","2","2","2","2","4","5","4","4","4","5","4","1","3","1","0","1","1","0","0","1","1","1","1","1","0","1","0","1","2","4","5","4","4","","4","4","5","3","3","793983472925548545","王","625","","","","","","","","","","","","","","","","","","","true","13","3","moral","614","negative","不仁","","","","","","","","","","","","","","","","",""
"3090","
    <div class=""tag-bottom""><p>
    —— 任务4：对“他人/积极”词和“自我/消极”词分类 ——<p/>
    <span style=""color:#78DCE8""><b>与刚才的任务完全相同，请再次对这四类词语分类</b></span><p/>
    <span style=""color:#FFD866""><b>请根据上方标签的提示，尽可能正确并且快速地做出按键反应</b></span><p/>
    当按键错误时屏幕中会出现<span style=""color:red""> X </span>，需要按另一个键纠正才能继续<br/><p/>
    请把双手食指分别放在键盘的“E”键和“I”键上<p/>
    按<空格键>开始
    </p></div>"," ","html-keyboard-response","107","174436","0.0-6.0-1.0-7.0","2","2","2","1","2","2","2","2","1","2","2","2","1","1","2","2","2","2","2","2","4","5","4","4","4","5","4","1","3","1","0","1","1","0","0","1","1","1","1","1","0","1","0","1","2","4","5","4","4","","4","4","5","3","3","793983472925548545","王","625","","","","","","","","","","","","","","","","","","","","","","","","","","","","","","","","","","","","","","","","","",""
"null","","null","html-keyboard-response","108","174687","0.0-6.0-1.0-8.0-0.0","2","2","2","1","2","2","2","2","1","2","2","2","1","1","2","2","2","2","2","2","4","5","4","4","4","5","4","1","3","1","0","1","1","0","0","1","1","1","1","1","0","1","0","1","2","4","5","4","4","","4","4","5","3","3","793983472925548545","王","625","","","","","","","","","","","","","","","","","","","","","","","","","","","","","","","","","","","","","","","","","",""
"840","<p style=""color:rgb(150, 250, 100); font-size: 35px;"">他的</p>","e","categorize-html","109","175529","0.0-6.0-1.0-8.0-1.0","2","2","2","1","2","2","2","2","1","2","2","2","1","1","2","2","2","2","2","2","4","5","4","4","4","5","4","1","3","1","0","1","1","0","0","1","1","1","1","1","0","1","0","1","2","4","5","4","4","","4","4","5","3","3","793983472925548545","王","625","","","","","","","","","","","","","","","","","","","true","14","4","moral","840","other","他的","","","","","","","","","","","","","","","","",""
"null","","null","html-keyboard-response","110","175779","0.0-6.0-1.0-8.0-0.1","2","2","2","1","2","2","2","2","1","2","2","2","1","1","2","2","2","2","2","2","4","5","4","4","4","5","4","1","3","1","0","1","1","0","0","1","1","1","1","1","0","1","0","1","2","4","5","4","4","","4","4","5","3","3","793983472925548545","王","625","","","","","","","","","","","","","","","","","","","","","","","","","","","","","","","","","","","","","","","","","",""
"841","<p style=""color:white; font-size: 35px;"">小人</p>","e","categorize-html","111","177036","0.0-6.0-1.0-8.0-1.1","2","2","2","1","2","2","2","2","1","2","2","2","1","1","2","2","2","2","2","2","4","5","4","4","4","5","4","1","3","1","0","1","1","0","0","1","1","1","1","1","0","1","0","1","2","4","5","4","4","","4","4","5","3","3","793983472925548545","王","625","","","","","","","","","","","","","","","","","","","false","14","4","moral","1358.2093023255813","negative","小人","","","","","","","","","","","","","","","","",""
"null","","null","html-keyboard-response","112","177287","0.0-6.0-1.0-8.0-0.2","2","2","2","1","2","2","2","2","1","2","2","2","1","1","2","2","2","2","2","2","4","5","4","4","4","5","4","1","3","1","0","1","1","0","0","1","1","1","1","1","0","1","0","1","2","4","5","4","4","","4","4","5","3","3","793983472925548545","王","625","","","","","","","","","","","","","","","","","","","","","","","","","","","","","","","","","","","","","","","","","",""
"578","<p style=""color:rgb(150, 250, 100); font-size: 35px;"">自己的</p>","i","categorize-html","113","177867","0.0-6.0-1.0-8.0-1.2","2","2","2","1","2","2","2","2","1","2","2","2","1","1","2","2","2","2","2","2","4","5","4","4","4","5","4","1","3","1","0","1","1","0","0","1","1","1","1","1","0","1","0","1","2","4","5","4","4","","4","4","5","3","3","793983472925548545","王","625","","","","","","","","","","","","","","","","","","","true","14","4","moral","578","self","自己的","","","","","","","","","","","","","","","","",""
"null","","null","html-keyboard-response","114","178118","0.0-6.0-1.0-8.0-0.3","2","2","2","1","2","2","2","2","1","2","2","2","1","1","2","2","2","2","2","2","4","5","4","4","4","5","4","1","3","1","0","1","1","0","0","1","1","1","1","1","0","1","0","1","2","4","5","4","4","","4","4","5","3","3","793983472925548545","王","625","","","","","","","","","","","","","","","","","","","","","","","","","","","","","","","","","","","","","","","","","",""
"648","<p style=""color:white; font-size: 35px;"">正直</p>","e","categorize-html","115","178767","0.0-6.0-1.0-8.0-1.3","2","2","2","1","2","2","2","2","1","2","2","2","1","1","2","2","2","2","2","2","4","5","4","4","4","5","4","1","3","1","0","1","1","0","0","1","1","1","1","1","0","1","0","1","2","4","5","4","4","","4","4","5","3","3","793983472925548545","王","625","","","","","","","","","","","","","","","","","","","true","14","4","moral","648","positive","正直","","","","","","","","","","","","","","","","",""
"null","","null","html-keyboard-response","116","179018","0.0-6.0-1.0-8.0-0.4","2","2","2","1","2","2","2","2","1","2","2","2","1","1","2","2","2","2","2","2","4","5","4","4","4","5","4","1","3","1","0","1","1","0","0","1","1","1","1","1","0","1","0","1","2","4","5","4","4","","4","4","5","3","3","793983472925548545","王","625","","","","","","","","","","","","","","","","","","","","","","","","","","","","","","","","","","","","","","","","","",""
"541","<p style=""color:rgb(150, 250, 100); font-size: 35px;"">自己的</p>","i","categorize-html","117","179560","0.0-6.0-1.0-8.0-1.4","2","2","2","1","2","2","2","2","1","2","2","2","1","1","2","2","2","2","2","2","4","5","4","4","4","5","4","1","3","1","0","1","1","0","0","1","1","1","1","1","0","1","0","1","2","4","5","4","4","","4","4","5","3","3","793983472925548545","王","625","","","","","","","","","","","","","","","","","","","true","14","4","moral","541","self","自己的","","","","","","","","","","","","","","","","",""
"null","","null","html-keyboard-response","118","179811","0.0-6.0-1.0-8.0-0.5","2","2","2","1","2","2","2","2","1","2","2","2","1","1","2","2","2","2","2","2","4","5","4","4","4","5","4","1","3","1","0","1","1","0","0","1","1","1","1","1","0","1","0","1","2","4","5","4","4","","4","4","5","3","3","793983472925548545","王","625","","","","","","","","","","","","","","","","","","","","","","","","","","","","","","","","","","","","","","","","","",""
"588","<p style=""color:white; font-size: 35px;"">诚信</p>","e","categorize-html","119","180400","0.0-6.0-1.0-8.0-1.5","2","2","2","1","2","2","2","2","1","2","2","2","1","1","2","2","2","2","2","2","4","5","4","4","4","5","4","1","3","1","0","1","1","0","0","1","1","1","1","1","0","1","0","1","2","4","5","4","4","","4","4","5","3","3","793983472925548545","王","625","","","","","","","","","","","","","","","","","","","true","14","4","moral","588","positive","诚信","","","","","","","","","","","","","","","","",""
"null","","null","html-keyboard-response","120","180651","0.0-6.0-1.0-8.0-0.6","2","2","2","1","2","2","2","2","1","2","2","2","1","1","2","2","2","2","2","2","4","5","4","4","4","5","4","1","3","1","0","1","1","0","0","1","1","1","1","1","0","1","0","1","2","4","5","4","4","","4","4","5","3","3","793983472925548545","王","625","","","","","","","","","","","","","","","","","","","","","","","","","","","","","","","","","","","","","","","","","",""
"525","<p style=""color:rgb(150, 250, 100); font-size: 35px;"">别人的</p>","i","categorize-html","121","181547","0.0-6.0-1.0-8.0-1.6","2","2","2","1","2","2","2","2","1","2","2","2","1","1","2","2","2","2","2","2","4","5","4","4","4","5","4","1","3","1","0","1","1","0","0","1","1","1","1","1","0","1","0","1","2","4","5","4","4","","4","4","5","3","3","793983472925548545","王","625","","","","","","","","","","","","","","","","","","","false","14","4","moral","1358.2093023255813","other","别人的","","","","","","","","","","","","","","","","",""
"null","","null","html-keyboard-response","122","181798","0.0-6.0-1.0-8.0-0.7","2","2","2","1","2","2","2","2","1","2","2","2","1","1","2","2","2","2","2","2","4","5","4","4","4","5","4","1","3","1","0","1","1","0","0","1","1","1","1","1","0","1","0","1","2","4","5","4","4","","4","4","5","3","3","793983472925548545","王","625","","","","","","","","","","","","","","","","","","","","","","","","","","","","","","","","","","","","","","","","","",""
"1666","<p style=""color:white; font-size: 35px;"">卑鄙</p>","i","categorize-html","123","183466","0.0-6.0-1.0-8.0-1.7","2","2","2","1","2","2","2","2","1","2","2","2","1","1","2","2","2","2","2","2","4","5","4","4","4","5","4","1","3","1","0","1","1","0","0","1","1","1","1","1","0","1","0","1","2","4","5","4","4","","4","4","5","3","3","793983472925548545","王","625","","","","","","","","","","","","","","","","","","","true","14","4","moral","1666","negative","卑鄙","","","","","","","","","","","","","","","","",""
"null","","null","html-keyboard-response","124","183716","0.0-6.0-1.0-8.0-0.8","2","2","2","1","2","2","2","2","1","2","2","2","1","1","2","2","2","2","2","2","4","5","4","4","4","5","4","1","3","1","0","1","1","0","0","1","1","1","1","1","0","1","0","1","2","4","5","4","4","","4","4","5","3","3","793983472925548545","王","625","","","","","","","","","","","","","","","","","","","","","","","","","","","","","","","","","","","","","","","","","",""
"604","<p style=""color:rgb(150, 250, 100); font-size: 35px;"">我的</p>","i","categorize-html","125","184322","0.0-6.0-1.0-8.0-1.8","2","2","2","1","2","2","2","2","1","2","2","2","1","1","2","2","2","2","2","2","4","5","4","4","4","5","4","1","3","1","0","1","1","0","0","1","1","1","1","1","0","1","0","1","2","4","5","4","4","","4","4","5","3","3","793983472925548545","王","625","","","","","","","","","","","","","","","","","","","true","14","4","moral","604","self","我的","","","","","","","","","","","","","","","","",""
"null","","null","html-keyboard-response","126","184572","0.0-6.0-1.0-8.0-0.9","2","2","2","1","2","2","2","2","1","2","2","2","1","1","2","2","2","2","2","2","4","5","4","4","4","5","4","1","3","1","0","1","1","0","0","1","1","1","1","1","0","1","0","1","2","4","5","4","4","","4","4","5","3","3","793983472925548545","王","625","","","","","","","","","","","","","","","","","","","","","","","","","","","","","","","","","","","","","","","","","",""
"1406","<p style=""color:white; font-size: 35px;"">黑心</p>","i","categorize-html","127","185980","0.0-6.0-1.0-8.0-1.9","2","2","2","1","2","2","2","2","1","2","2","2","1","1","2","2","2","2","2","2","4","5","4","4","4","5","4","1","3","1","0","1","1","0","0","1","1","1","1","1","0","1","0","1","2","4","5","4","4","","4","4","5","3","3","793983472925548545","王","625","","","","","","","","","","","","","","","","","","","true","14","4","moral","1406","negative","黑心","","","","","","","","","","","","","","","","",""
"null","","null","html-keyboard-response","128","186231","0.0-6.0-1.0-8.0-0.10","2","2","2","1","2","2","2","2","1","2","2","2","1","1","2","2","2","2","2","2","4","5","4","4","4","5","4","1","3","1","0","1","1","0","0","1","1","1","1","1","0","1","0","1","2","4","5","4","4","","4","4","5","3","3","793983472925548545","王","625","","","","","","","","","","","","","","","","","","","","","","","","","","","","","","","","","","","","","","","","","",""
"588","<p style=""color:rgb(150, 250, 100); font-size: 35px;"">他人的</p>","e","categorize-html","129","186820","0.0-6.0-1.0-8.0-1.10","2","2","2","1","2","2","2","2","1","2","2","2","1","1","2","2","2","2","2","2","4","5","4","4","4","5","4","1","3","1","0","1","1","0","0","1","1","1","1","1","0","1","0","1","2","4","5","4","4","","4","4","5","3","3","793983472925548545","王","625","","","","","","","","","","","","","","","","","","","true","14","4","moral","588","other","他人的","","","","","","","","","","","","","","","","",""
"null","","null","html-keyboard-response","130","187070","0.0-6.0-1.0-8.0-0.11","2","2","2","1","2","2","2","2","1","2","2","2","1","1","2","2","2","2","2","2","4","5","4","4","4","5","4","1","3","1","0","1","1","0","0","1","1","1","1","1","0","1","0","1","2","4","5","4","4","","4","4","5","3","3","793983472925548545","王","625","","","","","","","","","","","","","","","","","","","","","","","","","","","","","","","","","","","","","","","","","",""
"686","<p style=""color:white; font-size: 35px;"">廉正</p>","e","categorize-html","131","187758","0.0-6.0-1.0-8.0-1.11","2","2","2","1","2","2","2","2","1","2","2","2","1","1","2","2","2","2","2","2","4","5","4","4","4","5","4","1","3","1","0","1","1","0","0","1","1","1","1","1","0","1","0","1","2","4","5","4","4","","4","4","5","3","3","793983472925548545","王","625","","","","","","","","","","","","","","","","","","","true","14","4","moral","686","positive","廉正","","","","","","","","","","","","","","","","",""
"null","","null","html-keyboard-response","132","188009","0.0-6.0-1.0-8.0-0.12","2","2","2","1","2","2","2","2","1","2","2","2","1","1","2","2","2","2","2","2","4","5","4","4","4","5","4","1","3","1","0","1","1","0","0","1","1","1","1","1","0","1","0","1","2","4","5","4","4","","4","4","5","3","3","793983472925548545","王","625","","","","","","","","","","","","","","","","","","","","","","","","","","","","","","","","","","","","","","","","","",""
"931","<p style=""color:rgb(150, 250, 100); font-size: 35px;"">他</p>","e","categorize-html","133","188941","0.0-6.0-1.0-8.0-1.12","2","2","2","1","2","2","2","2","1","2","2","2","1","1","2","2","2","2","2","2","4","5","4","4","4","5","4","1","3","1","0","1","1","0","0","1","1","1","1","1","0","1","0","1","2","4","5","4","4","","4","4","5","3","3","793983472925548545","王","625","","","","","","","","","","","","","","","","","","","true","14","4","moral","931","other","他","","","","","","","","","","","","","","","","",""
"null","","null","html-keyboard-response","134","189192","0.0-6.0-1.0-8.0-0.13","2","2","2","1","2","2","2","2","1","2","2","2","1","1","2","2","2","2","2","2","4","5","4","4","4","5","4","1","3","1","0","1","1","0","0","1","1","1","1","1","0","1","0","1","2","4","5","4","4","","4","4","5","3","3","793983472925548545","王","625","","","","","","","","","","","","","","","","","","","","","","","","","","","","","","","","","","","","","","","","","",""
"1141","<p style=""color:white; font-size: 35px;"">不仁</p>","i","categorize-html","135","190334","0.0-6.0-1.0-8.0-1.13","2","2","2","1","2","2","2","2","1","2","2","2","1","1","2","2","2","2","2","2","4","5","4","4","4","5","4","1","3","1","0","1","1","0","0","1","1","1","1","1","0","1","0","1","2","4","5","4","4","","4","4","5","3","3","793983472925548545","王","625","","","","","","","","","","","","","","","","","","","true","14","4","moral","1141","negative","不仁","","","","","","","","","","","","","","","","",""
"null","","null","html-keyboard-response","136","190585","0.0-6.0-1.0-8.0-0.14","2","2","2","1","2","2","2","2","1","2","2","2","1","1","2","2","2","2","2","2","4","5","4","4","4","5","4","1","3","1","0","1","1","0","0","1","1","1","1","1","0","1","0","1","2","4","5","4","4","","4","4","5","3","3","793983472925548545","王","625","","","","","","","","","","","","","","","","","","","","","","","","","","","","","","","","","","","","","","","","","",""
"1023","<p style=""color:rgb(150, 250, 100); font-size: 35px;"">本人的</p>","i","categorize-html","137","191609","0.0-6.0-1.0-8.0-1.14","2","2","2","1","2","2","2","2","1","2","2","2","1","1","2","2","2","2","2","2","4","5","4","4","4","5","4","1","3","1","0","1","1","0","0","1","1","1","1","1","0","1","0","1","2","4","5","4","4","","4","4","5","3","3","793983472925548545","王","625","","","","","","","","","","","","","","","","","","","true","14","4","moral","1023","self","本人的","","","","","","","","","","","","","","","","",""
"null","","null","html-keyboard-response","138","191860","0.0-6.0-1.0-8.0-0.15","2","2","2","1","2","2","2","2","1","2","2","2","1","1","2","2","2","2","2","2","4","5","4","4","4","5","4","1","3","1","0","1","1","0","0","1","1","1","1","1","0","1","0","1","2","4","5","4","4","","4","4","5","3","3","793983472925548545","王","625","","","","","","","","","","","","","","","","","","","","","","","","","","","","","","","","","","","","","","","","","",""
"1158","<p style=""color:white; font-size: 35px;"">正直</p>","e","categorize-html","139","193020","0.0-6.0-1.0-8.0-1.15","2","2","2","1","2","2","2","2","1","2","2","2","1","1","2","2","2","2","2","2","4","5","4","4","4","5","4","1","3","1","0","1","1","0","0","1","1","1","1","1","0","1","0","1","2","4","5","4","4","","4","4","5","3","3","793983472925548545","王","625","","","","","","","","","","","","","","","","","","","true","14","4","moral","1158","positive","正直","","","","","","","","","","","","","","","","",""
"null","","null","html-keyboard-response","140","193271","0.0-6.0-1.0-8.0-0.16","2","2","2","1","2","2","2","2","1","2","2","2","1","1","2","2","2","2","2","2","4","5","4","4","4","5","4","1","3","1","0","1","1","0","0","1","1","1","1","1","0","1","0","1","2","4","5","4","4","","4","4","5","3","3","793983472925548545","王","625","","","","","","","","","","","","","","","","","","","","","","","","","","","","","","","","","","","","","","","","","",""
"695","<p style=""color:rgb(150, 250, 100); font-size: 35px;"">他人</p>","e","categorize-html","141","193967","0.0-6.0-1.0-8.0-1.16","2","2","2","1","2","2","2","2","1","2","2","2","1","1","2","2","2","2","2","2","4","5","4","4","4","5","4","1","3","1","0","1","1","0","0","1","1","1","1","1","0","1","0","1","2","4","5","4","4","","4","4","5","3","3","793983472925548545","王","625","","","","","","","","","","","","","","","","","","","true","14","4","moral","695","other","他人","","","","","","","","","","","","","","","","",""
"null","","null","html-keyboard-response","142","194218","0.0-6.0-1.0-8.0-0.17","2","2","2","1","2","2","2","2","1","2","2","2","1","1","2","2","2","2","2","2","4","5","4","4","4","5","4","1","3","1","0","1","1","0","0","1","1","1","1","1","0","1","0","1","2","4","5","4","4","","4","4","5","3","3","793983472925548545","王","625","","","","","","","","","","","","","","","","","","","","","","","","","","","","","","","","","","","","","","","","","",""
"1075","<p style=""color:white; font-size: 35px;"">廉正</p>","e","categorize-html","143","195294","0.0-6.0-1.0-8.0-1.17","2","2","2","1","2","2","2","2","1","2","2","2","1","1","2","2","2","2","2","2","4","5","4","4","4","5","4","1","3","1","0","1","1","0","0","1","1","1","1","1","0","1","0","1","2","4","5","4","4","","4","4","5","3","3","793983472925548545","王","625","","","","","","","","","","","","","","","","","","","true","14","4","moral","1075","positive","廉正","","","","","","","","","","","","","","","","",""
"null","","null","html-keyboard-response","144","195544","0.0-6.0-1.0-8.0-0.18","2","2","2","1","2","2","2","2","1","2","2","2","1","1","2","2","2","2","2","2","4","5","4","4","4","5","4","1","3","1","0","1","1","0","0","1","1","1","1","1","0","1","0","1","2","4","5","4","4","","4","4","5","3","3","793983472925548545","王","625","","","","","","","","","","","","","","","","","","","","","","","","","","","","","","","","","","","","","","","","","",""
"525","<p style=""color:rgb(150, 250, 100); font-size: 35px;"">我的</p>","i","categorize-html","145","196072","0.0-6.0-1.0-8.0-1.18","2","2","2","1","2","2","2","2","1","2","2","2","1","1","2","2","2","2","2","2","4","5","4","4","4","5","4","1","3","1","0","1","1","0","0","1","1","1","1","1","0","1","0","1","2","4","5","4","4","","4","4","5","3","3","793983472925548545","王","625","","","","","","","","","","","","","","","","","","","true","14","4","moral","525","self","我的","","","","","","","","","","","","","","","","",""
"null","","null","html-keyboard-response","146","196323","0.0-6.0-1.0-8.0-0.19","2","2","2","1","2","2","2","2","1","2","2","2","1","1","2","2","2","2","2","2","4","5","4","4","4","5","4","1","3","1","0","1","1","0","0","1","1","1","1","1","0","1","0","1","2","4","5","4","4","","4","4","5","3","3","793983472925548545","王","625","","","","","","","","","","","","","","","","","","","","","","","","","","","","","","","","","","","","","","","","","",""
"1045","<p style=""color:white; font-size: 35px;"">不孝</p>","e","categorize-html","147","197803","0.0-6.0-1.0-8.0-1.19","2","2","2","1","2","2","2","2","1","2","2","2","1","1","2","2","2","2","2","2","4","5","4","4","4","5","4","1","3","1","0","1","1","0","0","1","1","1","1","1","0","1","0","1","2","4","5","4","4","","4","4","5","3","3","793983472925548545","王","625","","","","","","","","","","","","","","","","","","","false","14","4","moral","1358.2093023255813","negative","不孝","","","","","","","","","","","","","","","","",""
"null","","null","html-keyboard-response","148","198055","0.0-6.0-1.0-8.0-0.20","2","2","2","1","2","2","2","2","1","2","2","2","1","1","2","2","2","2","2","2","4","5","4","4","4","5","4","1","3","1","0","1","1","0","0","1","1","1","1","1","0","1","0","1","2","4","5","4","4","","4","4","5","3","3","793983472925548545","王","625","","","","","","","","","","","","","","","","","","","","","","","","","","","","","","","","","","","","","","","","","",""
"687","<p style=""color:rgb(150, 250, 100); font-size: 35px;"">他人的</p>","e","categorize-html","149","198743","0.0-6.0-1.0-8.0-1.20","2","2","2","1","2","2","2","2","1","2","2","2","1","1","2","2","2","2","2","2","4","5","4","4","4","5","4","1","3","1","0","1","1","0","0","1","1","1","1","1","0","1","0","1","2","4","5","4","4","","4","4","5","3","3","793983472925548545","王","625","","","","","","","","","","","","","","","","","","","true","14","4","moral","687","other","他人的","","","","","","","","","","","","","","","","",""
"null","","null","html-keyboard-response","150","198994","0.0-6.0-1.0-8.0-0.21","2","2","2","1","2","2","2","2","1","2","2","2","1","1","2","2","2","2","2","2","4","5","4","4","4","5","4","1","3","1","0","1","1","0","0","1","1","1","1","1","0","1","0","1","2","4","5","4","4","","4","4","5","3","3","793983472925548545","王","625","","","","","","","","","","","","","","","","","","","","","","","","","","","","","","","","","","","","","","","","","",""
"604","<p style=""color:white; font-size: 35px;"">君子</p>","e","categorize-html","151","199599","0.0-6.0-1.0-8.0-1.21","2","2","2","1","2","2","2","2","1","2","2","2","1","1","2","2","2","2","2","2","4","5","4","4","4","5","4","1","3","1","0","1","1","0","0","1","1","1","1","1","0","1","0","1","2","4","5","4","4","","4","4","5","3","3","793983472925548545","王","625","","","","","","","","","","","","","","","","","","","true","14","4","moral","604","positive","君子","","","","","","","","","","","","","","","","",""
"null","","null","html-keyboard-response","152","199850","0.0-6.0-1.0-8.0-0.22","2","2","2","1","2","2","2","2","1","2","2","2","1","1","2","2","2","2","2","2","4","5","4","4","4","5","4","1","3","1","0","1","1","0","0","1","1","1","1","1","0","1","0","1","2","4","5","4","4","","4","4","5","3","3","793983472925548545","王","625","","","","","","","","","","","","","","","","","","","","","","","","","","","","","","","","","","","","","","","","","",""
"630","<p style=""color:rgb(150, 250, 100); font-size: 35px;"">我</p>","i","categorize-html","153","200481","0.0-6.0-1.0-8.0-1.22","2","2","2","1","2","2","2","2","1","2","2","2","1","1","2","2","2","2","2","2","4","5","4","4","4","5","4","1","3","1","0","1","1","0","0","1","1","1","1","1","0","1","0","1","2","4","5","4","4","","4","4","5","3","3","793983472925548545","王","625","","","","","","","","","","","","","","","","","","","true","14","4","moral","630","self","我","","","","","","","","","","","","","","","","",""
"null","","null","html-keyboard-response","154","200733","0.0-6.0-1.0-8.0-0.23","2","2","2","1","2","2","2","2","1","2","2","2","1","1","2","2","2","2","2","2","4","5","4","4","4","5","4","1","3","1","0","1","1","0","0","1","1","1","1","1","0","1","0","1","2","4","5","4","4","","4","4","5","3","3","793983472925548545","王","625","","","","","","","","","","","","","","","","","","","","","","","","","","","","","","","","","","","","","","","","","",""
"472","<p style=""color:white; font-size: 35px;"">不孝</p>","i","categorize-html","155","201207","0.0-6.0-1.0-8.0-1.23","2","2","2","1","2","2","2","2","1","2","2","2","1","1","2","2","2","2","2","2","4","5","4","4","4","5","4","1","3","1","0","1","1","0","0","1","1","1","1","1","0","1","0","1","2","4","5","4","4","","4","4","5","3","3","793983472925548545","王","625","","","","","","","","","","","","","","","","","","","true","14","4","moral","472","negative","不孝","","","","","","","","","","","","","","","","",""
"null","","null","html-keyboard-response","156","201458","0.0-6.0-1.0-8.0-0.24","2","2","2","1","2","2","2","2","1","2","2","2","1","1","2","2","2","2","2","2","4","5","4","4","4","5","4","1","3","1","0","1","1","0","0","1","1","1","1","1","0","1","0","1","2","4","5","4","4","","4","4","5","3","3","793983472925548545","王","625","","","","","","","","","","","","","","","","","","","","","","","","","","","","","","","","","","","","","","","","","",""
"570","<p style=""color:rgb(150, 250, 100); font-size: 35px;"">本人的</p>","i","categorize-html","157","202029","0.0-6.0-1.0-8.0-1.24","2","2","2","1","2","2","2","2","1","2","2","2","1","1","2","2","2","2","2","2","4","5","4","4","4","5","4","1","3","1","0","1","1","0","0","1","1","1","1","1","0","1","0","1","2","4","5","4","4","","4","4","5","3","3","793983472925548545","王","625","","","","","","","","","","","","","","","","","","","true","14","4","moral","570","self","本人的","","","","","","","","","","","","","","","","",""
"null","","null","html-keyboard-response","158","202280","0.0-6.0-1.0-8.0-0.25","2","2","2","1","2","2","2","2","1","2","2","2","1","1","2","2","2","2","2","2","4","5","4","4","4","5","4","1","3","1","0","1","1","0","0","1","1","1","1","1","0","1","0","1","2","4","5","4","4","","4","4","5","3","3","793983472925548545","王","625","","","","","","","","","","","","","","","","","","","","","","","","","","","","","","","","","","","","","","","","","",""
"1256","<p style=""color:white; font-size: 35px;"">君子</p>","e","categorize-html","159","203538","0.0-6.0-1.0-8.0-1.25","2","2","2","1","2","2","2","2","1","2","2","2","1","1","2","2","2","2","2","2","4","5","4","4","4","5","4","1","3","1","0","1","1","0","0","1","1","1","1","1","0","1","0","1","2","4","5","4","4","","4","4","5","3","3","793983472925548545","王","625","","","","","","","","","","","","","","","","","","","true","14","4","moral","1256","positive","君子","","","","","","","","","","","","","","","","",""
"null","","null","html-keyboard-response","160","203789","0.0-6.0-1.0-8.0-0.26","2","2","2","1","2","2","2","2","1","2","2","2","1","1","2","2","2","2","2","2","4","5","4","4","4","5","4","1","3","1","0","1","1","0","0","1","1","1","1","1","0","1","0","1","2","4","5","4","4","","4","4","5","3","3","793983472925548545","王","625","","","","","","","","","","","","","","","","","","","","","","","","","","","","","","","","","","","","","","","","","",""
"596","<p style=""color:rgb(150, 250, 100); font-size: 35px;"">他的</p>","e","categorize-html","161","204386","0.0-6.0-1.0-8.0-1.26","2","2","2","1","2","2","2","2","1","2","2","2","1","1","2","2","2","2","2","2","4","5","4","4","4","5","4","1","3","1","0","1","1","0","0","1","1","1","1","1","0","1","0","1","2","4","5","4","4","","4","4","5","3","3","793983472925548545","王","625","","","","","","","","","","","","","","","","","","","true","14","4","moral","596","other","他的","","","","","","","","","","","","","","","","",""
"null","","null","html-keyboard-response","162","204637","0.0-6.0-1.0-8.0-0.27","2","2","2","1","2","2","2","2","1","2","2","2","1","1","2","2","2","2","2","2","4","5","4","4","4","5","4","1","3","1","0","1","1","0","0","1","1","1","1","1","0","1","0","1","2","4","5","4","4","","4","4","5","3","3","793983472925548545","王","625","","","","","","","","","","","","","","","","","","","","","","","","","","","","","","","","","","","","","","","","","",""
"675","<p style=""color:white; font-size: 35px;"">黑心</p>","i","categorize-html","163","205312","0.0-6.0-1.0-8.0-1.27","2","2","2","1","2","2","2","2","1","2","2","2","1","1","2","2","2","2","2","2","4","5","4","4","4","5","4","1","3","1","0","1","1","0","0","1","1","1","1","1","0","1","0","1","2","4","5","4","4","","4","4","5","3","3","793983472925548545","王","625","","","","","","","","","","","","","","","","","","","true","14","4","moral","675","negative","黑心","","","","","","","","","","","","","","","","",""
"null","","null","html-keyboard-response","164","205563","0.0-6.0-1.0-8.0-0.28","2","2","2","1","2","2","2","2","1","2","2","2","1","1","2","2","2","2","2","2","4","5","4","4","4","5","4","1","3","1","0","1","1","0","0","1","1","1","1","1","0","1","0","1","2","4","5","4","4","","4","4","5","3","3","793983472925548545","王","625","","","","","","","","","","","","","","","","","","","","","","","","","","","","","","","","","","","","","","","","","",""
"594","<p style=""color:rgb(150, 250, 100); font-size: 35px;"">他</p>","e","categorize-html","165","206158","0.0-6.0-1.0-8.0-1.28","2","2","2","1","2","2","2","2","1","2","2","2","1","1","2","2","2","2","2","2","4","5","4","4","4","5","4","1","3","1","0","1","1","0","0","1","1","1","1","1","0","1","0","1","2","4","5","4","4","","4","4","5","3","3","793983472925548545","王","625","","","","","","","","","","","","","","","","","","","true","14","4","moral","594","other","他","","","","","","","","","","","","","","","","",""
"null","","null","html-keyboard-response","166","206409","0.0-6.0-1.0-8.0-0.29","2","2","2","1","2","2","2","2","1","2","2","2","1","1","2","2","2","2","2","2","4","5","4","4","4","5","4","1","3","1","0","1","1","0","0","1","1","1","1","1","0","1","0","1","2","4","5","4","4","","4","4","5","3","3","793983472925548545","王","625","","","","","","","","","","","","","","","","","","","","","","","","","","","","","","","","","","","","","","","","","",""
"680","<p style=""color:white; font-size: 35px;"">小人</p>","e","categorize-html","167","207591","0.0-6.0-1.0-8.0-1.29","2","2","2","1","2","2","2","2","1","2","2","2","1","1","2","2","2","2","2","2","4","5","4","4","4","5","4","1","3","1","0","1","1","0","0","1","1","1","1","1","0","1","0","1","2","4","5","4","4","","4","4","5","3","3","793983472925548545","王","625","","","","","","","","","","","","","","","","","","","false","14","4","moral","1358.2093023255813","negative","小人","","","","","","","","","","","","","","","","",""
"null","","null","html-keyboard-response","168","207841","0.0-6.0-1.0-8.0-0.30","2","2","2","1","2","2","2","2","1","2","2","2","1","1","2","2","2","2","2","2","4","5","4","4","4","5","4","1","3","1","0","1","1","0","0","1","1","1","1","1","0","1","0","1","2","4","5","4","4","","4","4","5","3","3","793983472925548545","王","625","","","","","","","","","","","","","","","","","","","","","","","","","","","","","","","","","","","","","","","","","",""
"417","<p style=""color:rgb(150, 250, 100); font-size: 35px;"">自己</p>","i","categorize-html","169","208260","0.0-6.0-1.0-8.0-1.30","2","2","2","1","2","2","2","2","1","2","2","2","1","1","2","2","2","2","2","2","4","5","4","4","4","5","4","1","3","1","0","1","1","0","0","1","1","1","1","1","0","1","0","1","2","4","5","4","4","","4","4","5","3","3","793983472925548545","王","625","","","","","","","","","","","","","","","","","","","true","14","4","moral","417","self","自己","","","","","","","","","","","","","","","","",""
"null","","null","html-keyboard-response","170","208510","0.0-6.0-1.0-8.0-0.31","2","2","2","1","2","2","2","2","1","2","2","2","1","1","2","2","2","2","2","2","4","5","4","4","4","5","4","1","3","1","0","1","1","0","0","1","1","1","1","1","0","1","0","1","2","4","5","4","4","","4","4","5","3","3","793983472925548545","王","625","","","","","","","","","","","","","","","","","","","","","","","","","","","","","","","","","","","","","","","","","",""
"719","<p style=""color:white; font-size: 35px;"">高尚</p>","e","categorize-html","171","209231","0.0-6.0-1.0-8.0-1.31","2","2","2","1","2","2","2","2","1","2","2","2","1","1","2","2","2","2","2","2","4","5","4","4","4","5","4","1","3","1","0","1","1","0","0","1","1","1","1","1","0","1","0","1","2","4","5","4","4","","4","4","5","3","3","793983472925548545","王","625","","","","","","","","","","","","","","","","","","","true","14","4","moral","719","positive","高尚","","","","","","","","","","","","","","","","",""
"null","","null","html-keyboard-response","172","209482","0.0-6.0-1.0-8.0-0.32","2","2","2","1","2","2","2","2","1","2","2","2","1","1","2","2","2","2","2","2","4","5","4","4","4","5","4","1","3","1","0","1","1","0","0","1","1","1","1","1","0","1","0","1","2","4","5","4","4","","4","4","5","3","3","793983472925548545","王","625","","","","","","","","","","","","","","","","","","","","","","","","","","","","","","","","","","","","","","","","","",""
"837","<p style=""color:rgb(150, 250, 100); font-size: 35px;"">别人的</p>","e","categorize-html","173","210320","0.0-6.0-1.0-8.0-1.32","2","2","2","1","2","2","2","2","1","2","2","2","1","1","2","2","2","2","2","2","4","5","4","4","4","5","4","1","3","1","0","1","1","0","0","1","1","1","1","1","0","1","0","1","2","4","5","4","4","","4","4","5","3","3","793983472925548545","王","625","","","","","","","","","","","","","","","","","","","true","14","4","moral","837","other","别人的","","","","","","","","","","","","","","","","",""
"null","","null","html-keyboard-response","174","210571","0.0-6.0-1.0-8.0-0.33","2","2","2","1","2","2","2","2","1","2","2","2","1","1","2","2","2","2","2","2","4","5","4","4","4","5","4","1","3","1","0","1","1","0","0","1","1","1","1","1","0","1","0","1","2","4","5","4","4","","4","4","5","3","3","793983472925548545","王","625","","","","","","","","","","","","","","","","","","","","","","","","","","","","","","","","","","","","","","","","","",""
"605","<p style=""color:white; font-size: 35px;"">不仁</p>","i","categorize-html","175","211177","0.0-6.0-1.0-8.0-1.33","2","2","2","1","2","2","2","2","1","2","2","2","1","1","2","2","2","2","2","2","4","5","4","4","4","5","4","1","3","1","0","1","1","0","0","1","1","1","1","1","0","1","0","1","2","4","5","4","4","","4","4","5","3","3","793983472925548545","王","625","","","","","","","","","","","","","","","","","","","true","14","4","moral","605","negative","不仁","","","","","","","","","","","","","","","","",""
"null","","null","html-keyboard-response","176","211428","0.0-6.0-1.0-8.0-0.34","2","2","2","1","2","2","2","2","1","2","2","2","1","1","2","2","2","2","2","2","4","5","4","4","4","5","4","1","3","1","0","1","1","0","0","1","1","1","1","1","0","1","0","1","2","4","5","4","4","","4","4","5","3","3","793983472925548545","王","625","","","","","","","","","","","","","","","","","","","","","","","","","","","","","","","","","","","","","","","","","",""
"607","<p style=""color:rgb(150, 250, 100); font-size: 35px;"">本人</p>","i","categorize-html","177","212036","0.0-6.0-1.0-8.0-1.34","2","2","2","1","2","2","2","2","1","2","2","2","1","1","2","2","2","2","2","2","4","5","4","4","4","5","4","1","3","1","0","1","1","0","0","1","1","1","1","1","0","1","0","1","2","4","5","4","4","","4","4","5","3","3","793983472925548545","王","625","","","","","","","","","","","","","","","","","","","true","14","4","moral","607","self","本人","","","","","","","","","","","","","","","","",""
"null","","null","html-keyboard-response","178","212286","0.0-6.0-1.0-8.0-0.35","2","2","2","1","2","2","2","2","1","2","2","2","1","1","2","2","2","2","2","2","4","5","4","4","4","5","4","1","3","1","0","1","1","0","0","1","1","1","1","1","0","1","0","1","2","4","5","4","4","","4","4","5","3","3","793983472925548545","王","625","","","","","","","","","","","","","","","","","","","","","","","","","","","","","","","","","","","","","","","","","",""
"712","<p style=""color:white; font-size: 35px;"">诚信</p>","e","categorize-html","179","212999","0.0-6.0-1.0-8.0-1.35","2","2","2","1","2","2","2","2","1","2","2","2","1","1","2","2","2","2","2","2","4","5","4","4","4","5","4","1","3","1","0","1","1","0","0","1","1","1","1","1","0","1","0","1","2","4","5","4","4","","4","4","5","3","3","793983472925548545","王","625","","","","","","","","","","","","","","","","","","","true","14","4","moral","712","positive","诚信","","","","","","","","","","","","","","","","",""
"null","","null","html-keyboard-response","180","213250","0.0-6.0-1.0-8.0-0.36","2","2","2","1","2","2","2","2","1","2","2","2","1","1","2","2","2","2","2","2","4","5","4","4","4","5","4","1","3","1","0","1","1","0","0","1","1","1","1","1","0","1","0","1","2","4","5","4","4","","4","4","5","3","3","793983472925548545","王","625","","","","","","","","","","","","","","","","","","","","","","","","","","","","","","","","","","","","","","","","","",""
"626","<p style=""color:rgb(150, 250, 100); font-size: 35px;"">别人</p>","e","categorize-html","181","213877","0.0-6.0-1.0-8.0-1.36","2","2","2","1","2","2","2","2","1","2","2","2","1","1","2","2","2","2","2","2","4","5","4","4","4","5","4","1","3","1","0","1","1","0","0","1","1","1","1","1","0","1","0","1","2","4","5","4","4","","4","4","5","3","3","793983472925548545","王","625","","","","","","","","","","","","","","","","","","","true","14","4","moral","626","other","别人","","","","","","","","","","","","","","","","",""
"null","","null","html-keyboard-response","182","214128","0.0-6.0-1.0-8.0-0.37","2","2","2","1","2","2","2","2","1","2","2","2","1","1","2","2","2","2","2","2","4","5","4","4","4","5","4","1","3","1","0","1","1","0","0","1","1","1","1","1","0","1","0","1","2","4","5","4","4","","4","4","5","3","3","793983472925548545","王","625","","","","","","","","","","","","","","","","","","","","","","","","","","","","","","","","","","","","","","","","","",""
"990","<p style=""color:white; font-size: 35px;"">善良</p>","e","categorize-html","183","215119","0.0-6.0-1.0-8.0-1.37","2","2","2","1","2","2","2","2","1","2","2","2","1","1","2","2","2","2","2","2","4","5","4","4","4","5","4","1","3","1","0","1","1","0","0","1","1","1","1","1","0","1","0","1","2","4","5","4","4","","4","4","5","3","3","793983472925548545","王","625","","","","","","","","","","","","","","","","","","","true","14","4","moral","990","positive","善良","","","","","","","","","","","","","","","","",""
"null","","null","html-keyboard-response","184","215370","0.0-6.0-1.0-8.0-0.38","2","2","2","1","2","2","2","2","1","2","2","2","1","1","2","2","2","2","2","2","4","5","4","4","4","5","4","1","3","1","0","1","1","0","0","1","1","1","1","1","0","1","0","1","2","4","5","4","4","","4","4","5","3","3","793983472925548545","王","625","","","","","","","","","","","","","","","","","","","","","","","","","","","","","","","","","","","","","","","","","",""
"475","<p style=""color:rgb(150, 250, 100); font-size: 35px;"">本人</p>","e","categorize-html","185","216044","0.0-6.0-1.0-8.0-1.38","2","2","2","1","2","2","2","2","1","2","2","2","1","1","2","2","2","2","2","2","4","5","4","4","4","5","4","1","3","1","0","1","1","0","0","1","1","1","1","1","0","1","0","1","2","4","5","4","4","","4","4","5","3","3","793983472925548545","王","625","","","","","","","","","","","","","","","","","","","false","14","4","moral","1358.2093023255813","self","本人","","","","","","","","","","","","","","","","",""
"null","","null","html-keyboard-response","186","216295","0.0-6.0-1.0-8.0-0.39","2","2","2","1","2","2","2","2","1","2","2","2","1","1","2","2","2","2","2","2","4","5","4","4","4","5","4","1","3","1","0","1","1","0","0","1","1","1","1","1","0","1","0","1","2","4","5","4","4","","4","4","5","3","3","793983472925548545","王","625","","","","","","","","","","","","","","","","","","","","","","","","","","","","","","","","","","","","","","","","","",""
"1861","<p style=""color:white; font-size: 35px;"">缺德</p>","i","categorize-html","187","218158","0.0-6.0-1.0-8.0-1.39","2","2","2","1","2","2","2","2","1","2","2","2","1","1","2","2","2","2","2","2","4","5","4","4","4","5","4","1","3","1","0","1","1","0","0","1","1","1","1","1","0","1","0","1","2","4","5","4","4","","4","4","5","3","3","793983472925548545","王","625","","","","","","","","","","","","","","","","","","","true","14","4","moral","1861","negative","缺德","","","","","","","","","","","","","","","","",""
"null","","null","html-keyboard-response","188","218409","0.0-6.0-1.0-8.0-0.40","2","2","2","1","2","2","2","2","1","2","2","2","1","1","2","2","2","2","2","2","4","5","4","4","4","5","4","1","3","1","0","1","1","0","0","1","1","1","1","1","0","1","0","1","2","4","5","4","4","","4","4","5","3","3","793983472925548545","王","625","","","","","","","","","","","","","","","","","","","","","","","","","","","","","","","","","","","","","","","","","",""
"496","<p style=""color:rgb(150, 250, 100); font-size: 35px;"">别人</p>","e","categorize-html","189","218906","0.0-6.0-1.0-8.0-1.40","2","2","2","1","2","2","2","2","1","2","2","2","1","1","2","2","2","2","2","2","4","5","4","4","4","5","4","1","3","1","0","1","1","0","0","1","1","1","1","1","0","1","0","1","2","4","5","4","4","","4","4","5","3","3","793983472925548545","王","625","","","","","","","","","","","","","","","","","","","true","14","4","moral","496","other","别人","","","","","","","","","","","","","","","","",""
"null","","null","html-keyboard-response","190","219156","0.0-6.0-1.0-8.0-0.41","2","2","2","1","2","2","2","2","1","2","2","2","1","1","2","2","2","2","2","2","4","5","4","4","4","5","4","1","3","1","0","1","1","0","0","1","1","1","1","1","0","1","0","1","2","4","5","4","4","","4","4","5","3","3","793983472925548545","王","625","","","","","","","","","","","","","","","","","","","","","","","","","","","","","","","","","","","","","","","","","",""
"542","<p style=""color:white; font-size: 35px;"">缺德</p>","i","categorize-html","191","219700","0.0-6.0-1.0-8.0-1.41","2","2","2","1","2","2","2","2","1","2","2","2","1","1","2","2","2","2","2","2","4","5","4","4","4","5","4","1","3","1","0","1","1","0","0","1","1","1","1","1","0","1","0","1","2","4","5","4","4","","4","4","5","3","3","793983472925548545","王","625","","","","","","","","","","","","","","","","","","","true","14","4","moral","542","negative","缺德","","","","","","","","","","","","","","","","",""
