"rt","stimulus","response","trial_type","trial_index","time_elapsed","internal_node_id","ses_1","ses_2","ses_3","ses_4","ses_5","ses_6","ses_7","ses_8","ses_9","ses_10","coreself_1","coreself_2","coreself_3","coreself_4","coreself_5","coreself_6","coreself_7","coreself_8","coreself_9","coreself_10","SGPS_1","SGPS_2","SGPS_3","SGPS_4","SGPS_5","SGPS_6","SGPS_7","SGPS_8","SGPS_9","NPI1","NPI2","NPI3","NPI4","NPI5","NPI6","NPI7","NPI8","NPI9","NPI10","NPI11","NPI12","NPI13","NPI14","NPI15","hsns_1","hsns_2","hsns_3","hsns_4","hsns_5","trap1","hsns_6","hsns_7","hsns_8","hsns_9","hsns_10","subj_idx","friend_name","ParticipantID","value","success","user_agent","responses","item_order","radio_event_ids","radio_event_times","key_event_times","mouse_event_times","straightlining","zigzagging","honeypot","timeout","failed_images","failed_audio","failed_video","version_attrib2","version_target2","correct","IAT","screen_id","task_id","RT","condition","word","varname","summary","version_attrib","version_target","time_stamp","view_history","response_type","key_press","avg_frame_time","center_x","center_y","correct_response","identity","Image","question_order","correct_answer","trap1_item"
"15803","
   <p><div style = ""color: white;font-size:25px;"">您好，欢迎参加本次实验。</div> </p>
   <p><div style = ""color: white;font-size:25px;"">为充分保障您的权利，请确保您已经知晓并同意《参与实验同意书》以及《数据公开知情同意书》。</div></p>
   <p><div style = ""color: white;font-size:25px;"">如果您未见过上述内容，请咨询实验员。</div></p>
   <p><div style = ""color: white;font-size:25px;"">如果您选择继续实验，则表示您已经清楚两份知情同意书的内容并同意。</div></p>
   <p><div style = ""color: pink;font-size:30px;"">请确保您记得day0的实验编号，您将在本次实验输入该编号，若您忘记，请咨询实验员后作答。</div></p>
   <p><div style = ""color: lightblue;font-size:25px;"">请您尽可能认真地作答，我们将依据您在各问卷和按键任务中的作答质量发放报酬。</div></p>
   <p> <div style = ""color: green;font-size:25px;""><按空格键至下页></div> </p>
   "," ","html-keyboard-response","0","15814","0.0-0.0","3","4","3","3","3","3","3","2","3","3","3","2","2","3","2","4","3","3","4","4","4","4","4","4","4","4","3","4","4","1","0","1","1","0","0","0","1","0","1","1","0","1","0","1","5","5","4","5","4","4","5","4","4","3","2","789936991620964354","叶","279","","","","","","","","","","","","","","","","","","","","","","","","","","","","","","","","","","","","","","","","","",""
"","","","call-function","1","15818","0.0-1.0-0.0","3","4","3","3","3","3","3","2","3","3","3","2","2","3","2","4","3","3","4","4","4","4","4","4","4","4","3","4","4","1","0","1","1","0","0","0","1","0","1","1","0","1","0","1","5","5","4","5","4","4","5","4","4","3","2","789936991620964354","叶","279","","","","","","","","","","","","","","","","","","","","","","","","","","","","","","","","","","","","","","","","","",""
"49598","","{""friend_name"":""叶"",""ParticipantID"":""279""}","survey-html-form","2","65418","0.0-1.0-1.0","3","4","3","3","3","3","3","2","3","3","3","2","2","3","2","4","3","3","4","4","4","4","4","4","4","4","3","4","4","1","0","1","1","0","0","0","1","0","1","1","0","1","0","1","5","5","4","5","4","4","5","4","4","3","2","789936991620964354","叶","279","","","","","","","","","","","","","","","","","","","","","","","","","","","","","","","","","","","","","","","","","",""
"","","","fullscreen","3","70728","0.0-2.0","3","4","3","3","3","3","3","2","3","3","3","2","2","3","2","4","3","3","4","4","4","4","4","4","4","4","3","4","4","1","0","1","1","0","0","0","1","0","1","1","0","1","0","1","5","5","4","5","4","4","5","4","4","3","2","789936991620964354","叶","279","","true","{}","","","","","","","","","","","","","","","","","","","","","","","","","","","","","","","","","","","","","","",""
"44981.59999999998","","{""Q01"":""3"",""Q02"":""4"",""Q03"":""3"",""Q04"":""3"",""Q05"":""3"",""Q06"":""3"",""Q07"":""3"",""Q08"":""2"",""Q09"":""3"",""Q10"":""3""}","survey-template","4","115716","0.0-3.0","3","4","3","3","3","3","3","2","3","3","3","2","2","3","2","4","3","3","4","4","4","4","4","4","4","4","3","4","4","1","0","1","1","0","0","0","1","0","1","1","0","1","0","1","5","5","4","5","4","4","5","4","4","3","2","789936991620964354","叶","279","","","","{""Q01"":""3"",""Q02"":""4"",""Q03"":""3"",""Q04"":""3"",""Q05"":""3"",""Q06"":""3"",""Q07"":""3"",""Q08"":""2"",""Q09"":""3"",""Q10"":""3""}","[0,1,2,3,4,5,6,7,8,9]","[""Q01"",""Q02"",""Q03"",""Q04"",""Q05"",""Q06"",""Q07"",""Q08"",""Q09"",""Q10""]","[6229.400000000023,9610.5,15632.800000000047,20295,26535.599999999977,29628.5,31052.5,35926.5,42218.59999999998,43500.70000000007]","[]","[6229.400000000023,9238.70000000007,9610.5,15632.800000000047,20295,26535.599999999977,29628.5,31052.5,35926.5,42218.59999999998,43500.70000000007,44978.90000000002]","0.5","0.5555555555555556","0","","","","","","","","","","","","","","","","","","","","","","","","","","","","","",""
"76516.09999999998","","{""Q01"":""3"",""Q02"":""2"",""Q03"":""2"",""Q04"":""3"",""Q05"":""2"",""Q06"":""4"",""Q07"":""3"",""Q08"":""3"",""Q09"":""4"",""Q10"":""4""}","survey-template","5","192246","0.0-4.0","3","4","3","3","3","3","3","2","3","3","3","2","2","3","2","4","3","3","4","4","4","4","4","4","4","4","3","4","4","1","0","1","1","0","0","0","1","0","1","1","0","1","0","1","5","5","4","5","4","4","5","4","4","3","2","789936991620964354","叶","279","","","","{""Q01"":""3"",""Q02"":""2"",""Q03"":""2"",""Q04"":""3"",""Q05"":""2"",""Q06"":""4"",""Q07"":""3"",""Q08"":""3"",""Q09"":""4"",""Q10"":""4""}","[0,1,2,3,4,5,6,7,8,9]","[""Q01"",""Q02"",""Q03"",""Q04"",""Q05"",""Q06"",""Q07"",""Q07"",""Q07"",""Q04"",""Q08"",""Q09"",""Q10"",""Q10""]","[15241.300000000047,21261.400000000023,25745.099999999977,29258.900000000023,34469.30000000005,36277.5,39929.09999999998,42329.30000000005,44506.69999999995,61381.09999999998,68265.19999999995,70231.19999999995,72953.30000000005,75448.90000000002]","[]","[15241.300000000047,21261.400000000023,25745.099999999977,29258.900000000023,34469.30000000005,36277.5,39929.09999999998,42329.30000000005,44506.69999999995,61381.09999999998,68265.19999999995,70231.19999999995,72953.30000000005,75448.90000000002,76513.5]","0.5","0.5555555555555556","0","","","","","","","","","","","","","","","","","","","","","","","","","","","","","",""
"","","","preload","6","192613","0.0-5.0","3","4","3","3","3","3","3","2","3","3","3","2","2","3","2","4","3","3","4","4","4","4","4","4","4","4","3","4","4","1","0","1","1","0","0","0","1","0","1","1","0","1","0","1","5","5","4","5","4","4","5","4","4","3","2","789936991620964354","叶","279","","true","","","","","","","","","","","false","[]","[]","[]","","","","","","","","","","","","","","","","","","","","","","","","","",""
"55117","
    <h3>词语分类任务</h3>
    <p>在接下来的任务中，你需要对一系列词语进行分类。<p/>
    请先熟悉这些词语，这有利于你完成接下来的任务。</p>
    <table align=""center"" border=1 cellpadding=3 cellspacing=0>
    <tr> <th>类别</th> <th>词语</th> </tr>
    <tr> <td>&emsp;积极&emsp;</td> <td>&emsp;高尚、诚信、善良、君子、廉正、正直&emsp;</td> </tr>
    <tr> <td>&emsp;消极&emsp;</td> <td>&emsp;缺德、卑鄙、不孝、不仁、小人、黑心&emsp;</td> </tr>
    <tr> <td>&emsp;自我&emsp;</td> <td>&emsp;我、我的、自己、自己的、本人、本人的&emsp;</td> </tr>
    <tr> <td>&emsp;他人&emsp;</td> <td>&emsp;他、他的、别人、别人的、他人、他人的&emsp;</td> </tr>
    </table><br/>","0","html-button-response","7","247735","0.0-6.0-1.0-0.0","3","4","3","3","3","3","3","2","3","3","3","2","2","3","2","4","3","3","4","4","4","4","4","4","4","4","3","4","4","1","0","1","1","0","0","0","1","0","1","1","0","1","0","1","5","5","4","5","4","4","5","4","4","3","2","789936991620964354","叶","279","","","","","","","","","","","","","","","","","2","1","","","","","","","","","","","","","","","","","","","","","","","",""
"11598","
    <div class=""tag-bottom""><p>
    —— 任务1：对“自我”词和“他人”词分类 ——<p/>
    不同词语会出现在屏幕中央，类别标签将始终显示在屏幕上方<p/>   
    <span style=""color:#FFD866""><b>请根据上方标签的提示，尽可能正确并且快速地做出按键反应</b></span><p/>
    当按键错误时屏幕中会出现<span style=""color:red""> X </span>，需要按另一个键纠正才能继续<br/><p/>
    请把双手食指分别放在键盘的“E”键和“I”键上<p/>
    按<空格键>开始
    </p></div>"," ","html-keyboard-response","8","259342","0.0-6.0-1.0-1.0","3","4","3","3","3","3","3","2","3","3","3","2","2","3","2","4","3","3","4","4","4","4","4","4","4","4","3","4","4","1","0","1","1","0","0","0","1","0","1","1","0","1","0","1","5","5","4","5","4","4","5","4","4","3","2","789936991620964354","叶","279","","","","","","","","","","","","","","","","","","","","","","","","","","","","","","","","","","","","","","","","","",""
"null","","null","html-keyboard-response","9","259601","0.0-6.0-1.0-2.0-0.0","3","4","3","3","3","3","3","2","3","3","3","2","2","3","2","4","3","3","4","4","4","4","4","4","4","4","3","4","4","1","0","1","1","0","0","0","1","0","1","1","0","1","0","1","5","5","4","5","4","4","5","4","4","3","2","789936991620964354","叶","279","","","","","","","","","","","","","","","","","","","","","","","","","","","","","","","","","","","","","","","","","",""
"1036","<p style=""color:rgb(150, 250, 100); font-size: 35px;"">别人的</p>","i","categorize-html","10","260645","0.0-6.0-1.0-2.0-1.0","3","4","3","3","3","3","3","2","3","3","3","2","2","3","2","4","3","3","4","4","4","4","4","4","4","4","3","4","4","1","0","1","1","0","0","0","1","0","1","1","0","1","0","1","5","5","4","5","4","4","5","4","4","3","2","789936991620964354","叶","279","","","","","","","","","","","","","","","","","","","true","11","1","moral","1036","other","别人的","","","","","","","","","","","","","","","","",""
"null","","null","html-keyboard-response","11","260905","0.0-6.0-1.0-2.0-0.1","3","4","3","3","3","3","3","2","3","3","3","2","2","3","2","4","3","3","4","4","4","4","4","4","4","4","3","4","4","1","0","1","1","0","0","0","1","0","1","1","0","1","0","1","5","5","4","5","4","4","5","4","4","3","2","789936991620964354","叶","279","","","","","","","","","","","","","","","","","","","","","","","","","","","","","","","","","","","","","","","","","",""
"544","<p style=""color:rgb(150, 250, 100); font-size: 35px;"">自己</p>","e","categorize-html","12","261454","0.0-6.0-1.0-2.0-1.1","3","4","3","3","3","3","3","2","3","3","3","2","2","3","2","4","3","3","4","4","4","4","4","4","4","4","3","4","4","1","0","1","1","0","0","0","1","0","1","1","0","1","0","1","5","5","4","5","4","4","5","4","4","3","2","789936991620964354","叶","279","","","","","","","","","","","","","","","","","","","true","11","1","moral","544","self","自己","","","","","","","","","","","","","","","","",""
"null","","null","html-keyboard-response","13","261720","0.0-6.0-1.0-2.0-0.2","3","4","3","3","3","3","3","2","3","3","3","2","2","3","2","4","3","3","4","4","4","4","4","4","4","4","3","4","4","1","0","1","1","0","0","0","1","0","1","1","0","1","0","1","5","5","4","5","4","4","5","4","4","3","2","789936991620964354","叶","279","","","","","","","","","","","","","","","","","","","","","","","","","","","","","","","","","","","","","","","","","",""
"638","<p style=""color:rgb(150, 250, 100); font-size: 35px;"">他人</p>","i","categorize-html","14","262362","0.0-6.0-1.0-2.0-1.2","3","4","3","3","3","3","3","2","3","3","3","2","2","3","2","4","3","3","4","4","4","4","4","4","4","4","3","4","4","1","0","1","1","0","0","0","1","0","1","1","0","1","0","1","5","5","4","5","4","4","5","4","4","3","2","789936991620964354","叶","279","","","","","","","","","","","","","","","","","","","true","11","1","moral","638","other","他人","","","","","","","","","","","","","","","","",""
"null","","null","html-keyboard-response","15","262627","0.0-6.0-1.0-2.0-0.3","3","4","3","3","3","3","3","2","3","3","3","2","2","3","2","4","3","3","4","4","4","4","4","4","4","4","3","4","4","1","0","1","1","0","0","0","1","0","1","1","0","1","0","1","5","5","4","5","4","4","5","4","4","3","2","789936991620964354","叶","279","","","","","","","","","","","","","","","","","","","","","","","","","","","","","","","","","","","","","","","","","",""
"511","<p style=""color:rgb(150, 250, 100); font-size: 35px;"">本人的</p>","e","categorize-html","16","263142","0.0-6.0-1.0-2.0-1.3","3","4","3","3","3","3","3","2","3","3","3","2","2","3","2","4","3","3","4","4","4","4","4","4","4","4","3","4","4","1","0","1","1","0","0","0","1","0","1","1","0","1","0","1","5","5","4","5","4","4","5","4","4","3","2","789936991620964354","叶","279","","","","","","","","","","","","","","","","","","","true","11","1","moral","511","self","本人的","","","","","","","","","","","","","","","","",""
"null","","null","html-keyboard-response","17","263400","0.0-6.0-1.0-2.0-0.4","3","4","3","3","3","3","3","2","3","3","3","2","2","3","2","4","3","3","4","4","4","4","4","4","4","4","3","4","4","1","0","1","1","0","0","0","1","0","1","1","0","1","0","1","5","5","4","5","4","4","5","4","4","3","2","789936991620964354","叶","279","","","","","","","","","","","","","","","","","","","","","","","","","","","","","","","","","","","","","","","","","",""
"396","<p style=""color:rgb(150, 250, 100); font-size: 35px;"">本人</p>","e","categorize-html","18","263800","0.0-6.0-1.0-2.0-1.4","3","4","3","3","3","3","3","2","3","3","3","2","2","3","2","4","3","3","4","4","4","4","4","4","4","4","3","4","4","1","0","1","1","0","0","0","1","0","1","1","0","1","0","1","5","5","4","5","4","4","5","4","4","3","2","789936991620964354","叶","279","","","","","","","","","","","","","","","","","","","true","11","1","moral","396","self","本人","","","","","","","","","","","","","","","","",""
"null","","null","html-keyboard-response","19","264056","0.0-6.0-1.0-2.0-0.5","3","4","3","3","3","3","3","2","3","3","3","2","2","3","2","4","3","3","4","4","4","4","4","4","4","4","3","4","4","1","0","1","1","0","0","0","1","0","1","1","0","1","0","1","5","5","4","5","4","4","5","4","4","3","2","789936991620964354","叶","279","","","","","","","","","","","","","","","","","","","","","","","","","","","","","","","","","","","","","","","","","",""
"405","<p style=""color:rgb(150, 250, 100); font-size: 35px;"">自己的</p>","e","categorize-html","20","264466","0.0-6.0-1.0-2.0-1.5","3","4","3","3","3","3","3","2","3","3","3","2","2","3","2","4","3","3","4","4","4","4","4","4","4","4","3","4","4","1","0","1","1","0","0","0","1","0","1","1","0","1","0","1","5","5","4","5","4","4","5","4","4","3","2","789936991620964354","叶","279","","","","","","","","","","","","","","","","","","","true","11","1","moral","405","self","自己的","","","","","","","","","","","","","","","","",""
"null","","null","html-keyboard-response","21","264731","0.0-6.0-1.0-2.0-0.6","3","4","3","3","3","3","3","2","3","3","3","2","2","3","2","4","3","3","4","4","4","4","4","4","4","4","3","4","4","1","0","1","1","0","0","0","1","0","1","1","0","1","0","1","5","5","4","5","4","4","5","4","4","3","2","789936991620964354","叶","279","","","","","","","","","","","","","","","","","","","","","","","","","","","","","","","","","","","","","","","","","",""
"465","<p style=""color:rgb(150, 250, 100); font-size: 35px;"">别人</p>","i","categorize-html","22","265200","0.0-6.0-1.0-2.0-1.6","3","4","3","3","3","3","3","2","3","3","3","2","2","3","2","4","3","3","4","4","4","4","4","4","4","4","3","4","4","1","0","1","1","0","0","0","1","0","1","1","0","1","0","1","5","5","4","5","4","4","5","4","4","3","2","789936991620964354","叶","279","","","","","","","","","","","","","","","","","","","true","11","1","moral","465","other","别人","","","","","","","","","","","","","","","","",""
"null","","null","html-keyboard-response","23","265459","0.0-6.0-1.0-2.0-0.7","3","4","3","3","3","3","3","2","3","3","3","2","2","3","2","4","3","3","4","4","4","4","4","4","4","4","3","4","4","1","0","1","1","0","0","0","1","0","1","1","0","1","0","1","5","5","4","5","4","4","5","4","4","3","2","789936991620964354","叶","279","","","","","","","","","","","","","","","","","","","","","","","","","","","","","","","","","","","","","","","","","",""
"486","<p style=""color:rgb(150, 250, 100); font-size: 35px;"">他的</p>","i","categorize-html","24","265950","0.0-6.0-1.0-2.0-1.7","3","4","3","3","3","3","3","2","3","3","3","2","2","3","2","4","3","3","4","4","4","4","4","4","4","4","3","4","4","1","0","1","1","0","0","0","1","0","1","1","0","1","0","1","5","5","4","5","4","4","5","4","4","3","2","789936991620964354","叶","279","","","","","","","","","","","","","","","","","","","true","11","1","moral","486","other","他的","","","","","","","","","","","","","","","","",""
"null","","null","html-keyboard-response","25","266214","0.0-6.0-1.0-2.0-0.8","3","4","3","3","3","3","3","2","3","3","3","2","2","3","2","4","3","3","4","4","4","4","4","4","4","4","3","4","4","1","0","1","1","0","0","0","1","0","1","1","0","1","0","1","5","5","4","5","4","4","5","4","4","3","2","789936991620964354","叶","279","","","","","","","","","","","","","","","","","","","","","","","","","","","","","","","","","","","","","","","","","",""
"451","<p style=""color:rgb(150, 250, 100); font-size: 35px;"">我的</p>","e","categorize-html","26","266667","0.0-6.0-1.0-2.0-1.8","3","4","3","3","3","3","3","2","3","3","3","2","2","3","2","4","3","3","4","4","4","4","4","4","4","4","3","4","4","1","0","1","1","0","0","0","1","0","1","1","0","1","0","1","5","5","4","5","4","4","5","4","4","3","2","789936991620964354","叶","279","","","","","","","","","","","","","","","","","","","true","11","1","moral","451","self","我的","","","","","","","","","","","","","","","","",""
"null","","null","html-keyboard-response","27","266927","0.0-6.0-1.0-2.0-0.9","3","4","3","3","3","3","3","2","3","3","3","2","2","3","2","4","3","3","4","4","4","4","4","4","4","4","3","4","4","1","0","1","1","0","0","0","1","0","1","1","0","1","0","1","5","5","4","5","4","4","5","4","4","3","2","789936991620964354","叶","279","","","","","","","","","","","","","","","","","","","","","","","","","","","","","","","","","","","","","","","","","",""
"404","<p style=""color:rgb(150, 250, 100); font-size: 35px;"">我</p>","e","categorize-html","28","267335","0.0-6.0-1.0-2.0-1.9","3","4","3","3","3","3","3","2","3","3","3","2","2","3","2","4","3","3","4","4","4","4","4","4","4","4","3","4","4","1","0","1","1","0","0","0","1","0","1","1","0","1","0","1","5","5","4","5","4","4","5","4","4","3","2","789936991620964354","叶","279","","","","","","","","","","","","","","","","","","","true","11","1","moral","404","self","我","","","","","","","","","","","","","","","","",""
"null","","null","html-keyboard-response","29","267602","0.0-6.0-1.0-2.0-0.10","3","4","3","3","3","3","3","2","3","3","3","2","2","3","2","4","3","3","4","4","4","4","4","4","4","4","3","4","4","1","0","1","1","0","0","0","1","0","1","1","0","1","0","1","5","5","4","5","4","4","5","4","4","3","2","789936991620964354","叶","279","","","","","","","","","","","","","","","","","","","","","","","","","","","","","","","","","","","","","","","","","",""
"434","<p style=""color:rgb(150, 250, 100); font-size: 35px;"">他人的</p>","i","categorize-html","30","268040","0.0-6.0-1.0-2.0-1.10","3","4","3","3","3","3","3","2","3","3","3","2","2","3","2","4","3","3","4","4","4","4","4","4","4","4","3","4","4","1","0","1","1","0","0","0","1","0","1","1","0","1","0","1","5","5","4","5","4","4","5","4","4","3","2","789936991620964354","叶","279","","","","","","","","","","","","","","","","","","","true","11","1","moral","434","other","他人的","","","","","","","","","","","","","","","","",""
"null","","null","html-keyboard-response","31","268303","0.0-6.0-1.0-2.0-0.11","3","4","3","3","3","3","3","2","3","3","3","2","2","3","2","4","3","3","4","4","4","4","4","4","4","4","3","4","4","1","0","1","1","0","0","0","1","0","1","1","0","1","0","1","5","5","4","5","4","4","5","4","4","3","2","789936991620964354","叶","279","","","","","","","","","","","","","","","","","","","","","","","","","","","","","","","","","","","","","","","","","",""
"485","<p style=""color:rgb(150, 250, 100); font-size: 35px;"">他</p>","i","categorize-html","32","268791","0.0-6.0-1.0-2.0-1.11","3","4","3","3","3","3","3","2","3","3","3","2","2","3","2","4","3","3","4","4","4","4","4","4","4","4","3","4","4","1","0","1","1","0","0","0","1","0","1","1","0","1","0","1","5","5","4","5","4","4","5","4","4","3","2","789936991620964354","叶","279","","","","","","","","","","","","","","","","","","","true","11","1","moral","485","other","他","","","","","","","","","","","","","","","","",""
"5211","
    <div class=""tag-bottom""><p>
    —— 任务2：对“消极”词和“积极”词分类 ——<p/>   
    <span style=""color:#78DCE8""><b>注意上方，类别标签和需要分类的词语都已经改变</b></span><p/>
    <span style=""color:#FFD866""><b>请根据上方标签的提示，尽可能正确并且快速地做出按键反应</b></span><p/>
    当按键错误时屏幕中会出现<span style=""color:red""> X </span>，需要按另一个键纠正才能继续<br/><p/>
    请把双手食指分别放在键盘的“E”键和“I”键上<p/>
    按<空格键>开始
    </p></div>"," ","html-keyboard-response","33","274003","0.0-6.0-1.0-3.0","3","4","3","3","3","3","3","2","3","3","3","2","2","3","2","4","3","3","4","4","4","4","4","4","4","4","3","4","4","1","0","1","1","0","0","0","1","0","1","1","0","1","0","1","5","5","4","5","4","4","5","4","4","3","2","789936991620964354","叶","279","","","","","","","","","","","","","","","","","","","","","","","","","","","","","","","","","","","","","","","","","",""
"null","","null","html-keyboard-response","34","274267","0.0-6.0-1.0-4.0-0.0","3","4","3","3","3","3","3","2","3","3","3","2","2","3","2","4","3","3","4","4","4","4","4","4","4","4","3","4","4","1","0","1","1","0","0","0","1","0","1","1","0","1","0","1","5","5","4","5","4","4","5","4","4","3","2","789936991620964354","叶","279","","","","","","","","","","","","","","","","","","","","","","","","","","","","","","","","","","","","","","","","","",""
"740","<p style=""color:white; font-size: 35px;"">廉正</p>","i","categorize-html","35","275010","0.0-6.0-1.0-4.0-1.0","3","4","3","3","3","3","3","2","3","3","3","2","2","3","2","4","3","3","4","4","4","4","4","4","4","4","3","4","4","1","0","1","1","0","0","0","1","0","1","1","0","1","0","1","5","5","4","5","4","4","5","4","4","3","2","789936991620964354","叶","279","","","","","","","","","","","","","","","","","","","true","12","2","moral","740","positive","廉正","","","","","","","","","","","","","","","","",""
"null","","null","html-keyboard-response","36","275284","0.0-6.0-1.0-4.0-0.1","3","4","3","3","3","3","3","2","3","3","3","2","2","3","2","4","3","3","4","4","4","4","4","4","4","4","3","4","4","1","0","1","1","0","0","0","1","0","1","1","0","1","0","1","5","5","4","5","4","4","5","4","4","3","2","789936991620964354","叶","279","","","","","","","","","","","","","","","","","","","","","","","","","","","","","","","","","","","","","","","","","",""
"564","<p style=""color:white; font-size: 35px;"">高尚</p>","i","categorize-html","37","275853","0.0-6.0-1.0-4.0-1.1","3","4","3","3","3","3","3","2","3","3","3","2","2","3","2","4","3","3","4","4","4","4","4","4","4","4","3","4","4","1","0","1","1","0","0","0","1","0","1","1","0","1","0","1","5","5","4","5","4","4","5","4","4","3","2","789936991620964354","叶","279","","","","","","","","","","","","","","","","","","","true","12","2","moral","564","positive","高尚","","","","","","","","","","","","","","","","",""
"null","","null","html-keyboard-response","38","276110","0.0-6.0-1.0-4.0-0.2","3","4","3","3","3","3","3","2","3","3","3","2","2","3","2","4","3","3","4","4","4","4","4","4","4","4","3","4","4","1","0","1","1","0","0","0","1","0","1","1","0","1","0","1","5","5","4","5","4","4","5","4","4","3","2","789936991620964354","叶","279","","","","","","","","","","","","","","","","","","","","","","","","","","","","","","","","","","","","","","","","","",""
"463","<p style=""color:white; font-size: 35px;"">善良</p>","i","categorize-html","39","276579","0.0-6.0-1.0-4.0-1.2","3","4","3","3","3","3","3","2","3","3","3","2","2","3","2","4","3","3","4","4","4","4","4","4","4","4","3","4","4","1","0","1","1","0","0","0","1","0","1","1","0","1","0","1","5","5","4","5","4","4","5","4","4","3","2","789936991620964354","叶","279","","","","","","","","","","","","","","","","","","","true","12","2","moral","463","positive","善良","","","","","","","","","","","","","","","","",""
"null","","null","html-keyboard-response","40","276846","0.0-6.0-1.0-4.0-0.3","3","4","3","3","3","3","3","2","3","3","3","2","2","3","2","4","3","3","4","4","4","4","4","4","4","4","3","4","4","1","0","1","1","0","0","0","1","0","1","1","0","1","0","1","5","5","4","5","4","4","5","4","4","3","2","789936991620964354","叶","279","","","","","","","","","","","","","","","","","","","","","","","","","","","","","","","","","","","","","","","","","",""
"469","<p style=""color:white; font-size: 35px;"">卑鄙</p>","e","categorize-html","41","277319","0.0-6.0-1.0-4.0-1.3","3","4","3","3","3","3","3","2","3","3","3","2","2","3","2","4","3","3","4","4","4","4","4","4","4","4","3","4","4","1","0","1","1","0","0","0","1","0","1","1","0","1","0","1","5","5","4","5","4","4","5","4","4","3","2","789936991620964354","叶","279","","","","","","","","","","","","","","","","","","","true","12","2","moral","469","negative","卑鄙","","","","","","","","","","","","","","","","",""
"null","","null","html-keyboard-response","42","277581","0.0-6.0-1.0-4.0-0.4","3","4","3","3","3","3","3","2","3","3","3","2","2","3","2","4","3","3","4","4","4","4","4","4","4","4","3","4","4","1","0","1","1","0","0","0","1","0","1","1","0","1","0","1","5","5","4","5","4","4","5","4","4","3","2","789936991620964354","叶","279","","","","","","","","","","","","","","","","","","","","","","","","","","","","","","","","","","","","","","","","","",""
"666","<p style=""color:white; font-size: 35px;"">君子</p>","i","categorize-html","43","278251","0.0-6.0-1.0-4.0-1.4","3","4","3","3","3","3","3","2","3","3","3","2","2","3","2","4","3","3","4","4","4","4","4","4","4","4","3","4","4","1","0","1","1","0","0","0","1","0","1","1","0","1","0","1","5","5","4","5","4","4","5","4","4","3","2","789936991620964354","叶","279","","","","","","","","","","","","","","","","","","","true","12","2","moral","666","positive","君子","","","","","","","","","","","","","","","","",""
"null","","null","html-keyboard-response","44","278513","0.0-6.0-1.0-4.0-0.5","3","4","3","3","3","3","3","2","3","3","3","2","2","3","2","4","3","3","4","4","4","4","4","4","4","4","3","4","4","1","0","1","1","0","0","0","1","0","1","1","0","1","0","1","5","5","4","5","4","4","5","4","4","3","2","789936991620964354","叶","279","","","","","","","","","","","","","","","","","","","","","","","","","","","","","","","","","","","","","","","","","",""
"911","<p style=""color:white; font-size: 35px;"">不孝</p>","e","categorize-html","45","279431","0.0-6.0-1.0-4.0-1.5","3","4","3","3","3","3","3","2","3","3","3","2","2","3","2","4","3","3","4","4","4","4","4","4","4","4","3","4","4","1","0","1","1","0","0","0","1","0","1","1","0","1","0","1","5","5","4","5","4","4","5","4","4","3","2","789936991620964354","叶","279","","","","","","","","","","","","","","","","","","","true","12","2","moral","911","negative","不孝","","","","","","","","","","","","","","","","",""
"null","","null","html-keyboard-response","46","279688","0.0-6.0-1.0-4.0-0.6","3","4","3","3","3","3","3","2","3","3","3","2","2","3","2","4","3","3","4","4","4","4","4","4","4","4","3","4","4","1","0","1","1","0","0","0","1","0","1","1","0","1","0","1","5","5","4","5","4","4","5","4","4","3","2","789936991620964354","叶","279","","","","","","","","","","","","","","","","","","","","","","","","","","","","","","","","","","","","","","","","","",""
"551","<p style=""color:white; font-size: 35px;"">小人</p>","e","categorize-html","47","280245","0.0-6.0-1.0-4.0-1.6","3","4","3","3","3","3","3","2","3","3","3","2","2","3","2","4","3","3","4","4","4","4","4","4","4","4","3","4","4","1","0","1","1","0","0","0","1","0","1","1","0","1","0","1","5","5","4","5","4","4","5","4","4","3","2","789936991620964354","叶","279","","","","","","","","","","","","","","","","","","","true","12","2","moral","551","negative","小人","","","","","","","","","","","","","","","","",""
"null","","null","html-keyboard-response","48","280504","0.0-6.0-1.0-4.0-0.7","3","4","3","3","3","3","3","2","3","3","3","2","2","3","2","4","3","3","4","4","4","4","4","4","4","4","3","4","4","1","0","1","1","0","0","0","1","0","1","1","0","1","0","1","5","5","4","5","4","4","5","4","4","3","2","789936991620964354","叶","279","","","","","","","","","","","","","","","","","","","","","","","","","","","","","","","","","","","","","","","","","",""
"620","<p style=""color:white; font-size: 35px;"">正直</p>","i","categorize-html","49","281128","0.0-6.0-1.0-4.0-1.7","3","4","3","3","3","3","3","2","3","3","3","2","2","3","2","4","3","3","4","4","4","4","4","4","4","4","3","4","4","1","0","1","1","0","0","0","1","0","1","1","0","1","0","1","5","5","4","5","4","4","5","4","4","3","2","789936991620964354","叶","279","","","","","","","","","","","","","","","","","","","true","12","2","moral","620","positive","正直","","","","","","","","","","","","","","","","",""
"null","","null","html-keyboard-response","50","281384","0.0-6.0-1.0-4.0-0.8","3","4","3","3","3","3","3","2","3","3","3","2","2","3","2","4","3","3","4","4","4","4","4","4","4","4","3","4","4","1","0","1","1","0","0","0","1","0","1","1","0","1","0","1","5","5","4","5","4","4","5","4","4","3","2","789936991620964354","叶","279","","","","","","","","","","","","","","","","","","","","","","","","","","","","","","","","","","","","","","","","","",""
"600","<p style=""color:white; font-size: 35px;"">不仁</p>","e","categorize-html","51","281987","0.0-6.0-1.0-4.0-1.8","3","4","3","3","3","3","3","2","3","3","3","2","2","3","2","4","3","3","4","4","4","4","4","4","4","4","3","4","4","1","0","1","1","0","0","0","1","0","1","1","0","1","0","1","5","5","4","5","4","4","5","4","4","3","2","789936991620964354","叶","279","","","","","","","","","","","","","","","","","","","true","12","2","moral","600","negative","不仁","","","","","","","","","","","","","","","","",""
"null","","null","html-keyboard-response","52","282251","0.0-6.0-1.0-4.0-0.9","3","4","3","3","3","3","3","2","3","3","3","2","2","3","2","4","3","3","4","4","4","4","4","4","4","4","3","4","4","1","0","1","1","0","0","0","1","0","1","1","0","1","0","1","5","5","4","5","4","4","5","4","4","3","2","789936991620964354","叶","279","","","","","","","","","","","","","","","","","","","","","","","","","","","","","","","","","","","","","","","","","",""
"882","<p style=""color:white; font-size: 35px;"">诚信</p>","i","categorize-html","53","283139","0.0-6.0-1.0-4.0-1.9","3","4","3","3","3","3","3","2","3","3","3","2","2","3","2","4","3","3","4","4","4","4","4","4","4","4","3","4","4","1","0","1","1","0","0","0","1","0","1","1","0","1","0","1","5","5","4","5","4","4","5","4","4","3","2","789936991620964354","叶","279","","","","","","","","","","","","","","","","","","","true","12","2","moral","882","positive","诚信","","","","","","","","","","","","","","","","",""
"null","","null","html-keyboard-response","54","283401","0.0-6.0-1.0-4.0-0.10","3","4","3","3","3","3","3","2","3","3","3","2","2","3","2","4","3","3","4","4","4","4","4","4","4","4","3","4","4","1","0","1","1","0","0","0","1","0","1","1","0","1","0","1","5","5","4","5","4","4","5","4","4","3","2","789936991620964354","叶","279","","","","","","","","","","","","","","","","","","","","","","","","","","","","","","","","","","","","","","","","","",""
"607","<p style=""color:white; font-size: 35px;"">缺德</p>","e","categorize-html","55","284016","0.0-6.0-1.0-4.0-1.10","3","4","3","3","3","3","3","2","3","3","3","2","2","3","2","4","3","3","4","4","4","4","4","4","4","4","3","4","4","1","0","1","1","0","0","0","1","0","1","1","0","1","0","1","5","5","4","5","4","4","5","4","4","3","2","789936991620964354","叶","279","","","","","","","","","","","","","","","","","","","true","12","2","moral","607","negative","缺德","","","","","","","","","","","","","","","","",""
"null","","null","html-keyboard-response","56","284270","0.0-6.0-1.0-4.0-0.11","3","4","3","3","3","3","3","2","3","3","3","2","2","3","2","4","3","3","4","4","4","4","4","4","4","4","3","4","4","1","0","1","1","0","0","0","1","0","1","1","0","1","0","1","5","5","4","5","4","4","5","4","4","3","2","789936991620964354","叶","279","","","","","","","","","","","","","","","","","","","","","","","","","","","","","","","","","","","","","","","","","",""
"694","<p style=""color:white; font-size: 35px;"">黑心</p>","e","categorize-html","57","284967","0.0-6.0-1.0-4.0-1.11","3","4","3","3","3","3","3","2","3","3","3","2","2","3","2","4","3","3","4","4","4","4","4","4","4","4","3","4","4","1","0","1","1","0","0","0","1","0","1","1","0","1","0","1","5","5","4","5","4","4","5","4","4","3","2","789936991620964354","叶","279","","","","","","","","","","","","","","","","","","","true","12","2","moral","694","negative","黑心","","","","","","","","","","","","","","","","",""
"10976","
    <div class=""tag-bottom""><p>
    —— 任务3：对“自我/消极”词和“他人/积极”词分类 ——<p/>
    <span style=""color:#78DCE8""><b>注意上方，之前的四类词语将混合在一起交替呈现</b></span><p/>
    <span style=""color:#FFD866""><b>请根据上方标签的提示，尽可能正确并且快速地做出按键反应</b></span><p/>
    当按键错误时屏幕中会出现<span style=""color:red""> X </span>，需要按另一个键纠正才能继续<br/><p/>
    请把双手食指分别放在键盘的“E”键和“I”键上<p/>
    按<空格键>开始
    </p></div>"," ","html-keyboard-response","58","295944","0.0-6.0-1.0-5.0","3","4","3","3","3","3","3","2","3","3","3","2","2","3","2","4","3","3","4","4","4","4","4","4","4","4","3","4","4","1","0","1","1","0","0","0","1","0","1","1","0","1","0","1","5","5","4","5","4","4","5","4","4","3","2","789936991620964354","叶","279","","","","","","","","","","","","","","","","","","","","","","","","","","","","","","","","","","","","","","","","","",""
"null","","null","html-keyboard-response","59","296200","0.0-6.0-1.0-6.0-0.0","3","4","3","3","3","3","3","2","3","3","3","2","2","3","2","4","3","3","4","4","4","4","4","4","4","4","3","4","4","1","0","1","1","0","0","0","1","0","1","1","0","1","0","1","5","5","4","5","4","4","5","4","4","3","2","789936991620964354","叶","279","","","","","","","","","","","","","","","","","","","","","","","","","","","","","","","","","","","","","","","","","",""
"745","<p style=""color:rgb(150, 250, 100); font-size: 35px;"">自己</p>","e","categorize-html","60","296952","0.0-6.0-1.0-6.0-1.0","3","4","3","3","3","3","3","2","3","3","3","2","2","3","2","4","3","3","4","4","4","4","4","4","4","4","3","4","4","1","0","1","1","0","0","0","1","0","1","1","0","1","0","1","5","5","4","5","4","4","5","4","4","3","2","789936991620964354","叶","279","","","","","","","","","","","","","","","","","","","true","13","3","moral","745","self","自己","","","","","","","","","","","","","","","","",""
"null","","null","html-keyboard-response","61","297211","0.0-6.0-1.0-6.0-0.1","3","4","3","3","3","3","3","2","3","3","3","2","2","3","2","4","3","3","4","4","4","4","4","4","4","4","3","4","4","1","0","1","1","0","0","0","1","0","1","1","0","1","0","1","5","5","4","5","4","4","5","4","4","3","2","789936991620964354","叶","279","","","","","","","","","","","","","","","","","","","","","","","","","","","","","","","","","","","","","","","","","",""
"730","<p style=""color:white; font-size: 35px;"">小人</p>","e","categorize-html","62","297943","0.0-6.0-1.0-6.0-1.1","3","4","3","3","3","3","3","2","3","3","3","2","2","3","2","4","3","3","4","4","4","4","4","4","4","4","3","4","4","1","0","1","1","0","0","0","1","0","1","1","0","1","0","1","5","5","4","5","4","4","5","4","4","3","2","789936991620964354","叶","279","","","","","","","","","","","","","","","","","","","true","13","3","moral","730","negative","小人","","","","","","","","","","","","","","","","",""
"null","","null","html-keyboard-response","63","298199","0.0-6.0-1.0-6.0-0.2","3","4","3","3","3","3","3","2","3","3","3","2","2","3","2","4","3","3","4","4","4","4","4","4","4","4","3","4","4","1","0","1","1","0","0","0","1","0","1","1","0","1","0","1","5","5","4","5","4","4","5","4","4","3","2","789936991620964354","叶","279","","","","","","","","","","","","","","","","","","","","","","","","","","","","","","","","","","","","","","","","","",""
"729","<p style=""color:rgb(150, 250, 100); font-size: 35px;"">别人</p>","i","categorize-html","64","298934","0.0-6.0-1.0-6.0-1.2","3","4","3","3","3","3","3","2","3","3","3","2","2","3","2","4","3","3","4","4","4","4","4","4","4","4","3","4","4","1","0","1","1","0","0","0","1","0","1","1","0","1","0","1","5","5","4","5","4","4","5","4","4","3","2","789936991620964354","叶","279","","","","","","","","","","","","","","","","","","","true","13","3","moral","729","other","别人","","","","","","","","","","","","","","","","",""
"null","","null","html-keyboard-response","65","299197","0.0-6.0-1.0-6.0-0.3","3","4","3","3","3","3","3","2","3","3","3","2","2","3","2","4","3","3","4","4","4","4","4","4","4","4","3","4","4","1","0","1","1","0","0","0","1","0","1","1","0","1","0","1","5","5","4","5","4","4","5","4","4","3","2","789936991620964354","叶","279","","","","","","","","","","","","","","","","","","","","","","","","","","","","","","","","","","","","","","","","","",""
"657","<p style=""color:white; font-size: 35px;"">君子</p>","i","categorize-html","66","299864","0.0-6.0-1.0-6.0-1.3","3","4","3","3","3","3","3","2","3","3","3","2","2","3","2","4","3","3","4","4","4","4","4","4","4","4","3","4","4","1","0","1","1","0","0","0","1","0","1","1","0","1","0","1","5","5","4","5","4","4","5","4","4","3","2","789936991620964354","叶","279","","","","","","","","","","","","","","","","","","","true","13","3","moral","657","positive","君子","","","","","","","","","","","","","","","","",""
"null","","null","html-keyboard-response","67","300122","0.0-6.0-1.0-6.0-0.4","3","4","3","3","3","3","3","2","3","3","3","2","2","3","2","4","3","3","4","4","4","4","4","4","4","4","3","4","4","1","0","1","1","0","0","0","1","0","1","1","0","1","0","1","5","5","4","5","4","4","5","4","4","3","2","789936991620964354","叶","279","","","","","","","","","","","","","","","","","","","","","","","","","","","","","","","","","","","","","","","","","",""
"925","<p style=""color:rgb(150, 250, 100); font-size: 35px;"">本人的</p>","e","categorize-html","68","301054","0.0-6.0-1.0-6.0-1.4","3","4","3","3","3","3","3","2","3","3","3","2","2","3","2","4","3","3","4","4","4","4","4","4","4","4","3","4","4","1","0","1","1","0","0","0","1","0","1","1","0","1","0","1","5","5","4","5","4","4","5","4","4","3","2","789936991620964354","叶","279","","","","","","","","","","","","","","","","","","","true","13","3","moral","925","self","本人的","","","","","","","","","","","","","","","","",""
"null","","null","html-keyboard-response","69","301315","0.0-6.0-1.0-6.0-0.5","3","4","3","3","3","3","3","2","3","3","3","2","2","3","2","4","3","3","4","4","4","4","4","4","4","4","3","4","4","1","0","1","1","0","0","0","1","0","1","1","0","1","0","1","5","5","4","5","4","4","5","4","4","3","2","789936991620964354","叶","279","","","","","","","","","","","","","","","","","","","","","","","","","","","","","","","","","","","","","","","","","",""
"2555","<p style=""color:white; font-size: 35px;"">高尚</p>","i","categorize-html","70","303878","0.0-6.0-1.0-6.0-1.5","3","4","3","3","3","3","3","2","3","3","3","2","2","3","2","4","3","3","4","4","4","4","4","4","4","4","3","4","4","1","0","1","1","0","0","0","1","0","1","1","0","1","0","1","5","5","4","5","4","4","5","4","4","3","2","789936991620964354","叶","279","","","","","","","","","","","","","","","","","","","true","13","3","moral","2555","positive","高尚","","","","","","","","","","","","","","","","",""
"null","","null","html-keyboard-response","71","304145","0.0-6.0-1.0-6.0-0.6","3","4","3","3","3","3","3","2","3","3","3","2","2","3","2","4","3","3","4","4","4","4","4","4","4","4","3","4","4","1","0","1","1","0","0","0","1","0","1","1","0","1","0","1","5","5","4","5","4","4","5","4","4","3","2","789936991620964354","叶","279","","","","","","","","","","","","","","","","","","","","","","","","","","","","","","","","","","","","","","","","","",""
"1271","<p style=""color:rgb(150, 250, 100); font-size: 35px;"">他人的</p>","i","categorize-html","72","305423","0.0-6.0-1.0-6.0-1.6","3","4","3","3","3","3","3","2","3","3","3","2","2","3","2","4","3","3","4","4","4","4","4","4","4","4","3","4","4","1","0","1","1","0","0","0","1","0","1","1","0","1","0","1","5","5","4","5","4","4","5","4","4","3","2","789936991620964354","叶","279","","","","","","","","","","","","","","","","","","","true","13","3","moral","1271","other","他人的","","","","","","","","","","","","","","","","",""
"null","","null","html-keyboard-response","73","305680","0.0-6.0-1.0-6.0-0.7","3","4","3","3","3","3","3","2","3","3","3","2","2","3","2","4","3","3","4","4","4","4","4","4","4","4","3","4","4","1","0","1","1","0","0","0","1","0","1","1","0","1","0","1","5","5","4","5","4","4","5","4","4","3","2","789936991620964354","叶","279","","","","","","","","","","","","","","","","","","","","","","","","","","","","","","","","","","","","","","","","","",""
"1211","<p style=""color:white; font-size: 35px;"">不孝</p>","e","categorize-html","74","306898","0.0-6.0-1.0-6.0-1.7","3","4","3","3","3","3","3","2","3","3","3","2","2","3","2","4","3","3","4","4","4","4","4","4","4","4","3","4","4","1","0","1","1","0","0","0","1","0","1","1","0","1","0","1","5","5","4","5","4","4","5","4","4","3","2","789936991620964354","叶","279","","","","","","","","","","","","","","","","","","","true","13","3","moral","1211","negative","不孝","","","","","","","","","","","","","","","","",""
"null","","null","html-keyboard-response","75","307160","0.0-6.0-1.0-6.0-0.8","3","4","3","3","3","3","3","2","3","3","3","2","2","3","2","4","3","3","4","4","4","4","4","4","4","4","3","4","4","1","0","1","1","0","0","0","1","0","1","1","0","1","0","1","5","5","4","5","4","4","5","4","4","3","2","789936991620964354","叶","279","","","","","","","","","","","","","","","","","","","","","","","","","","","","","","","","","","","","","","","","","",""
"754","<p style=""color:rgb(150, 250, 100); font-size: 35px;"">我的</p>","e","categorize-html","76","307923","0.0-6.0-1.0-6.0-1.8","3","4","3","3","3","3","3","2","3","3","3","2","2","3","2","4","3","3","4","4","4","4","4","4","4","4","3","4","4","1","0","1","1","0","0","0","1","0","1","1","0","1","0","1","5","5","4","5","4","4","5","4","4","3","2","789936991620964354","叶","279","","","","","","","","","","","","","","","","","","","true","13","3","moral","754","self","我的","","","","","","","","","","","","","","","","",""
"null","","null","html-keyboard-response","77","308185","0.0-6.0-1.0-6.0-0.9","3","4","3","3","3","3","3","2","3","3","3","2","2","3","2","4","3","3","4","4","4","4","4","4","4","4","3","4","4","1","0","1","1","0","0","0","1","0","1","1","0","1","0","1","5","5","4","5","4","4","5","4","4","3","2","789936991620964354","叶","279","","","","","","","","","","","","","","","","","","","","","","","","","","","","","","","","","","","","","","","","","",""
"1188","<p style=""color:white; font-size: 35px;"">廉正</p>","i","categorize-html","78","309376","0.0-6.0-1.0-6.0-1.9","3","4","3","3","3","3","3","2","3","3","3","2","2","3","2","4","3","3","4","4","4","4","4","4","4","4","3","4","4","1","0","1","1","0","0","0","1","0","1","1","0","1","0","1","5","5","4","5","4","4","5","4","4","3","2","789936991620964354","叶","279","","","","","","","","","","","","","","","","","","","true","13","3","moral","1188","positive","廉正","","","","","","","","","","","","","","","","",""
"null","","null","html-keyboard-response","79","309635","0.0-6.0-1.0-6.0-0.10","3","4","3","3","3","3","3","2","3","3","3","2","2","3","2","4","3","3","4","4","4","4","4","4","4","4","3","4","4","1","0","1","1","0","0","0","1","0","1","1","0","1","0","1","5","5","4","5","4","4","5","4","4","3","2","789936991620964354","叶","279","","","","","","","","","","","","","","","","","","","","","","","","","","","","","","","","","","","","","","","","","",""
"702","<p style=""color:rgb(150, 250, 100); font-size: 35px;"">他的</p>","i","categorize-html","80","310343","0.0-6.0-1.0-6.0-1.10","3","4","3","3","3","3","3","2","3","3","3","2","2","3","2","4","3","3","4","4","4","4","4","4","4","4","3","4","4","1","0","1","1","0","0","0","1","0","1","1","0","1","0","1","5","5","4","5","4","4","5","4","4","3","2","789936991620964354","叶","279","","","","","","","","","","","","","","","","","","","true","13","3","moral","702","other","他的","","","","","","","","","","","","","","","","",""
"null","","null","html-keyboard-response","81","310605","0.0-6.0-1.0-6.0-0.11","3","4","3","3","3","3","3","2","3","3","3","2","2","3","2","4","3","3","4","4","4","4","4","4","4","4","3","4","4","1","0","1","1","0","0","0","1","0","1","1","0","1","0","1","5","5","4","5","4","4","5","4","4","3","2","789936991620964354","叶","279","","","","","","","","","","","","","","","","","","","","","","","","","","","","","","","","","","","","","","","","","",""
"810","<p style=""color:white; font-size: 35px;"">缺德</p>","e","categorize-html","82","311418","0.0-6.0-1.0-6.0-1.11","3","4","3","3","3","3","3","2","3","3","3","2","2","3","2","4","3","3","4","4","4","4","4","4","4","4","3","4","4","1","0","1","1","0","0","0","1","0","1","1","0","1","0","1","5","5","4","5","4","4","5","4","4","3","2","789936991620964354","叶","279","","","","","","","","","","","","","","","","","","","true","13","3","moral","810","negative","缺德","","","","","","","","","","","","","","","","",""
"null","","null","html-keyboard-response","83","311679","0.0-6.0-1.0-6.0-0.12","3","4","3","3","3","3","3","2","3","3","3","2","2","3","2","4","3","3","4","4","4","4","4","4","4","4","3","4","4","1","0","1","1","0","0","0","1","0","1","1","0","1","0","1","5","5","4","5","4","4","5","4","4","3","2","789936991620964354","叶","279","","","","","","","","","","","","","","","","","","","","","","","","","","","","","","","","","","","","","","","","","",""
"936","<p style=""color:rgb(150, 250, 100); font-size: 35px;"">他人</p>","i","categorize-html","84","312622","0.0-6.0-1.0-6.0-1.12","3","4","3","3","3","3","3","2","3","3","3","2","2","3","2","4","3","3","4","4","4","4","4","4","4","4","3","4","4","1","0","1","1","0","0","0","1","0","1","1","0","1","0","1","5","5","4","5","4","4","5","4","4","3","2","789936991620964354","叶","279","","","","","","","","","","","","","","","","","","","true","13","3","moral","936","other","他人","","","","","","","","","","","","","","","","",""
"null","","null","html-keyboard-response","85","312878","0.0-6.0-1.0-6.0-0.13","3","4","3","3","3","3","3","2","3","3","3","2","2","3","2","4","3","3","4","4","4","4","4","4","4","4","3","4","4","1","0","1","1","0","0","0","1","0","1","1","0","1","0","1","5","5","4","5","4","4","5","4","4","3","2","789936991620964354","叶","279","","","","","","","","","","","","","","","","","","","","","","","","","","","","","","","","","","","","","","","","","",""
"1599","<p style=""color:white; font-size: 35px;"">黑心</p>","e","categorize-html","86","314480","0.0-6.0-1.0-6.0-1.13","3","4","3","3","3","3","3","2","3","3","3","2","2","3","2","4","3","3","4","4","4","4","4","4","4","4","3","4","4","1","0","1","1","0","0","0","1","0","1","1","0","1","0","1","5","5","4","5","4","4","5","4","4","3","2","789936991620964354","叶","279","","","","","","","","","","","","","","","","","","","true","13","3","moral","1599","negative","黑心","","","","","","","","","","","","","","","","",""
"null","","null","html-keyboard-response","87","314738","0.0-6.0-1.0-6.0-0.14","3","4","3","3","3","3","3","2","3","3","3","2","2","3","2","4","3","3","4","4","4","4","4","4","4","4","3","4","4","1","0","1","1","0","0","0","1","0","1","1","0","1","0","1","5","5","4","5","4","4","5","4","4","3","2","789936991620964354","叶","279","","","","","","","","","","","","","","","","","","","","","","","","","","","","","","","","","","","","","","","","","",""
"796","<p style=""color:rgb(150, 250, 100); font-size: 35px;"">本人</p>","e","categorize-html","88","315539","0.0-6.0-1.0-6.0-1.14","3","4","3","3","3","3","3","2","3","3","3","2","2","3","2","4","3","3","4","4","4","4","4","4","4","4","3","4","4","1","0","1","1","0","0","0","1","0","1","1","0","1","0","1","5","5","4","5","4","4","5","4","4","3","2","789936991620964354","叶","279","","","","","","","","","","","","","","","","","","","true","13","3","moral","796","self","本人","","","","","","","","","","","","","","","","",""
"null","","null","html-keyboard-response","89","315802","0.0-6.0-1.0-6.0-0.15","3","4","3","3","3","3","3","2","3","3","3","2","2","3","2","4","3","3","4","4","4","4","4","4","4","4","3","4","4","1","0","1","1","0","0","0","1","0","1","1","0","1","0","1","5","5","4","5","4","4","5","4","4","3","2","789936991620964354","叶","279","","","","","","","","","","","","","","","","","","","","","","","","","","","","","","","","","","","","","","","","","",""
"904","<p style=""color:white; font-size: 35px;"">正直</p>","i","categorize-html","90","316710","0.0-6.0-1.0-6.0-1.15","3","4","3","3","3","3","3","2","3","3","3","2","2","3","2","4","3","3","4","4","4","4","4","4","4","4","3","4","4","1","0","1","1","0","0","0","1","0","1","1","0","1","0","1","5","5","4","5","4","4","5","4","4","3","2","789936991620964354","叶","279","","","","","","","","","","","","","","","","","","","true","13","3","moral","904","positive","正直","","","","","","","","","","","","","","","","",""
"null","","null","html-keyboard-response","91","316969","0.0-6.0-1.0-6.0-0.16","3","4","3","3","3","3","3","2","3","3","3","2","2","3","2","4","3","3","4","4","4","4","4","4","4","4","3","4","4","1","0","1","1","0","0","0","1","0","1","1","0","1","0","1","5","5","4","5","4","4","5","4","4","3","2","789936991620964354","叶","279","","","","","","","","","","","","","","","","","","","","","","","","","","","","","","","","","","","","","","","","","",""
"564","<p style=""color:rgb(150, 250, 100); font-size: 35px;"">他</p>","i","categorize-html","92","317538","0.0-6.0-1.0-6.0-1.16","3","4","3","3","3","3","3","2","3","3","3","2","2","3","2","4","3","3","4","4","4","4","4","4","4","4","3","4","4","1","0","1","1","0","0","0","1","0","1","1","0","1","0","1","5","5","4","5","4","4","5","4","4","3","2","789936991620964354","叶","279","","","","","","","","","","","","","","","","","","","true","13","3","moral","564","other","他","","","","","","","","","","","","","","","","",""
"null","","null","html-keyboard-response","93","317805","0.0-6.0-1.0-6.0-0.17","3","4","3","3","3","3","3","2","3","3","3","2","2","3","2","4","3","3","4","4","4","4","4","4","4","4","3","4","4","1","0","1","1","0","0","0","1","0","1","1","0","1","0","1","5","5","4","5","4","4","5","4","4","3","2","789936991620964354","叶","279","","","","","","","","","","","","","","","","","","","","","","","","","","","","","","","","","","","","","","","","","",""
"1111","<p style=""color:white; font-size: 35px;"">卑鄙</p>","e","categorize-html","94","318922","0.0-6.0-1.0-6.0-1.17","3","4","3","3","3","3","3","2","3","3","3","2","2","3","2","4","3","3","4","4","4","4","4","4","4","4","3","4","4","1","0","1","1","0","0","0","1","0","1","1","0","1","0","1","5","5","4","5","4","4","5","4","4","3","2","789936991620964354","叶","279","","","","","","","","","","","","","","","","","","","true","13","3","moral","1111","negative","卑鄙","","","","","","","","","","","","","","","","",""
"null","","null","html-keyboard-response","95","319188","0.0-6.0-1.0-6.0-0.18","3","4","3","3","3","3","3","2","3","3","3","2","2","3","2","4","3","3","4","4","4","4","4","4","4","4","3","4","4","1","0","1","1","0","0","0","1","0","1","1","0","1","0","1","5","5","4","5","4","4","5","4","4","3","2","789936991620964354","叶","279","","","","","","","","","","","","","","","","","","","","","","","","","","","","","","","","","","","","","","","","","",""
"508","<p style=""color:rgb(150, 250, 100); font-size: 35px;"">我</p>","e","categorize-html","96","319702","0.0-6.0-1.0-6.0-1.18","3","4","3","3","3","3","3","2","3","3","3","2","2","3","2","4","3","3","4","4","4","4","4","4","4","4","3","4","4","1","0","1","1","0","0","0","1","0","1","1","0","1","0","1","5","5","4","5","4","4","5","4","4","3","2","789936991620964354","叶","279","","","","","","","","","","","","","","","","","","","true","13","3","moral","508","self","我","","","","","","","","","","","","","","","","",""
"null","","null","html-keyboard-response","97","319965","0.0-6.0-1.0-6.0-0.19","3","4","3","3","3","3","3","2","3","3","3","2","2","3","2","4","3","3","4","4","4","4","4","4","4","4","3","4","4","1","0","1","1","0","0","0","1","0","1","1","0","1","0","1","5","5","4","5","4","4","5","4","4","3","2","789936991620964354","叶","279","","","","","","","","","","","","","","","","","","","","","","","","","","","","","","","","","","","","","","","","","",""
"708","<p style=""color:white; font-size: 35px;"">善良</p>","i","categorize-html","98","320681","0.0-6.0-1.0-6.0-1.19","3","4","3","3","3","3","3","2","3","3","3","2","2","3","2","4","3","3","4","4","4","4","4","4","4","4","3","4","4","1","0","1","1","0","0","0","1","0","1","1","0","1","0","1","5","5","4","5","4","4","5","4","4","3","2","789936991620964354","叶","279","","","","","","","","","","","","","","","","","","","true","13","3","moral","708","positive","善良","","","","","","","","","","","","","","","","",""
"null","","null","html-keyboard-response","99","320947","0.0-6.0-1.0-6.0-0.20","3","4","3","3","3","3","3","2","3","3","3","2","2","3","2","4","3","3","4","4","4","4","4","4","4","4","3","4","4","1","0","1","1","0","0","0","1","0","1","1","0","1","0","1","5","5","4","5","4","4","5","4","4","3","2","789936991620964354","叶","279","","","","","","","","","","","","","","","","","","","","","","","","","","","","","","","","","","","","","","","","","",""
"1043","<p style=""color:rgb(150, 250, 100); font-size: 35px;"">自己的</p>","e","categorize-html","100","321993","0.0-6.0-1.0-6.0-1.20","3","4","3","3","3","3","3","2","3","3","3","2","2","3","2","4","3","3","4","4","4","4","4","4","4","4","3","4","4","1","0","1","1","0","0","0","1","0","1","1","0","1","0","1","5","5","4","5","4","4","5","4","4","3","2","789936991620964354","叶","279","","","","","","","","","","","","","","","","","","","true","13","3","moral","1043","self","自己的","","","","","","","","","","","","","","","","",""
"null","","null","html-keyboard-response","101","322248","0.0-6.0-1.0-6.0-0.21","3","4","3","3","3","3","3","2","3","3","3","2","2","3","2","4","3","3","4","4","4","4","4","4","4","4","3","4","4","1","0","1","1","0","0","0","1","0","1","1","0","1","0","1","5","5","4","5","4","4","5","4","4","3","2","789936991620964354","叶","279","","","","","","","","","","","","","","","","","","","","","","","","","","","","","","","","","","","","","","","","","",""
"630","<p style=""color:white; font-size: 35px;"">不仁</p>","i","categorize-html","102","323879","0.0-6.0-1.0-6.0-1.21","3","4","3","3","3","3","3","2","3","3","3","2","2","3","2","4","3","3","4","4","4","4","4","4","4","4","3","4","4","1","0","1","1","0","0","0","1","0","1","1","0","1","0","1","5","5","4","5","4","4","5","4","4","3","2","789936991620964354","叶","279","","","","","","","","","","","","","","","","","","","false","13","3","moral","1567.590909090909","negative","不仁","","","","","","","","","","","","","","","","",""
"null","","null","html-keyboard-response","103","324136","0.0-6.0-1.0-6.0-0.22","3","4","3","3","3","3","3","2","3","3","3","2","2","3","2","4","3","3","4","4","4","4","4","4","4","4","3","4","4","1","0","1","1","0","0","0","1","0","1","1","0","1","0","1","5","5","4","5","4","4","5","4","4","3","2","789936991620964354","叶","279","","","","","","","","","","","","","","","","","","","","","","","","","","","","","","","","","","","","","","","","","",""
"841","<p style=""color:rgb(150, 250, 100); font-size: 35px;"">别人的</p>","i","categorize-html","104","324983","0.0-6.0-1.0-6.0-1.22","3","4","3","3","3","3","3","2","3","3","3","2","2","3","2","4","3","3","4","4","4","4","4","4","4","4","3","4","4","1","0","1","1","0","0","0","1","0","1","1","0","1","0","1","5","5","4","5","4","4","5","4","4","3","2","789936991620964354","叶","279","","","","","","","","","","","","","","","","","","","true","13","3","moral","841","other","别人的","","","","","","","","","","","","","","","","",""
"null","","null","html-keyboard-response","105","325245","0.0-6.0-1.0-6.0-0.23","3","4","3","3","3","3","3","2","3","3","3","2","2","3","2","4","3","3","4","4","4","4","4","4","4","4","3","4","4","1","0","1","1","0","0","0","1","0","1","1","0","1","0","1","5","5","4","5","4","4","5","4","4","3","2","789936991620964354","叶","279","","","","","","","","","","","","","","","","","","","","","","","","","","","","","","","","","","","","","","","","","",""
"674","<p style=""color:white; font-size: 35px;"">诚信</p>","e","categorize-html","106","326475","0.0-6.0-1.0-6.0-1.23","3","4","3","3","3","3","3","2","3","3","3","2","2","3","2","4","3","3","4","4","4","4","4","4","4","4","3","4","4","1","0","1","1","0","0","0","1","0","1","1","0","1","0","1","5","5","4","5","4","4","5","4","4","3","2","789936991620964354","叶","279","","","","","","","","","","","","","","","","","","","false","13","3","moral","1567.590909090909","positive","诚信","","","","","","","","","","","","","","","","",""
"1542","
    <div class=""tag-bottom""><p>
    —— 任务4：对“自我/消极”词和“他人/积极”词分类 ——<p/>
    <span style=""color:#78DCE8""><b>与刚才的任务完全相同，请再次对这四类词语分类</b></span><p/>
    <span style=""color:#FFD866""><b>请根据上方标签的提示，尽可能正确并且快速地做出按键反应</b></span><p/>
    当按键错误时屏幕中会出现<span style=""color:red""> X </span>，需要按另一个键纠正才能继续<br/><p/>
    请把双手食指分别放在键盘的“E”键和“I”键上<p/>
    按<空格键>开始
    </p></div>"," ","html-keyboard-response","107","328019","0.0-6.0-1.0-7.0","3","4","3","3","3","3","3","2","3","3","3","2","2","3","2","4","3","3","4","4","4","4","4","4","4","4","3","4","4","1","0","1","1","0","0","0","1","0","1","1","0","1","0","1","5","5","4","5","4","4","5","4","4","3","2","789936991620964354","叶","279","","","","","","","","","","","","","","","","","","","","","","","","","","","","","","","","","","","","","","","","","",""
"null","","null","html-keyboard-response","108","328283","0.0-6.0-1.0-8.0-0.0","3","4","3","3","3","3","3","2","3","3","3","2","2","3","2","4","3","3","4","4","4","4","4","4","4","4","3","4","4","1","0","1","1","0","0","0","1","0","1","1","0","1","0","1","5","5","4","5","4","4","5","4","4","3","2","789936991620964354","叶","279","","","","","","","","","","","","","","","","","","","","","","","","","","","","","","","","","","","","","","","","","",""
"1289","<p style=""color:rgb(150, 250, 100); font-size: 35px;"">本人的</p>","e","categorize-html","109","329579","0.0-6.0-1.0-8.0-1.0","3","4","3","3","3","3","3","2","3","3","3","2","2","3","2","4","3","3","4","4","4","4","4","4","4","4","3","4","4","1","0","1","1","0","0","0","1","0","1","1","0","1","0","1","5","5","4","5","4","4","5","4","4","3","2","789936991620964354","叶","279","","","","","","","","","","","","","","","","","","","true","14","4","moral","1289","self","本人的","","","","","","","","","","","","","","","","",""
"null","","null","html-keyboard-response","110","329845","0.0-6.0-1.0-8.0-0.1","3","4","3","3","3","3","3","2","3","3","3","2","2","3","2","4","3","3","4","4","4","4","4","4","4","4","3","4","4","1","0","1","1","0","0","0","1","0","1","1","0","1","0","1","5","5","4","5","4","4","5","4","4","3","2","789936991620964354","叶","279","","","","","","","","","","","","","","","","","","","","","","","","","","","","","","","","","","","","","","","","","",""
"3208","<p style=""color:white; font-size: 35px;"">君子</p>","i","categorize-html","111","333059","0.0-6.0-1.0-8.0-1.1","3","4","3","3","3","3","3","2","3","3","3","2","2","3","2","4","3","3","4","4","4","4","4","4","4","4","3","4","4","1","0","1","1","0","0","0","1","0","1","1","0","1","0","1","5","5","4","5","4","4","5","4","4","3","2","789936991620964354","叶","279","","","","","","","","","","","","","","","","","","","true","14","4","moral","3208","positive","君子","","","","","","","","","","","","","","","","",""
"null","","null","html-keyboard-response","112","333320","0.0-6.0-1.0-8.0-0.2","3","4","3","3","3","3","3","2","3","3","3","2","2","3","2","4","3","3","4","4","4","4","4","4","4","4","3","4","4","1","0","1","1","0","0","0","1","0","1","1","0","1","0","1","5","5","4","5","4","4","5","4","4","3","2","789936991620964354","叶","279","","","","","","","","","","","","","","","","","","","","","","","","","","","","","","","","","","","","","","","","","",""
"1030","<p style=""color:rgb(150, 250, 100); font-size: 35px;"">别人的</p>","i","categorize-html","113","334358","0.0-6.0-1.0-8.0-1.2","3","4","3","3","3","3","3","2","3","3","3","2","2","3","2","4","3","3","4","4","4","4","4","4","4","4","3","4","4","1","0","1","1","0","0","0","1","0","1","1","0","1","0","1","5","5","4","5","4","4","5","4","4","3","2","789936991620964354","叶","279","","","","","","","","","","","","","","","","","","","true","14","4","moral","1030","other","别人的","","","","","","","","","","","","","","","","",""
"null","","null","html-keyboard-response","114","334615","0.0-6.0-1.0-8.0-0.3","3","4","3","3","3","3","3","2","3","3","3","2","2","3","2","4","3","3","4","4","4","4","4","4","4","4","3","4","4","1","0","1","1","0","0","0","1","0","1","1","0","1","0","1","5","5","4","5","4","4","5","4","4","3","2","789936991620964354","叶","279","","","","","","","","","","","","","","","","","","","","","","","","","","","","","","","","","","","","","","","","","",""
"1961","<p style=""color:white; font-size: 35px;"">卑鄙</p>","e","categorize-html","115","336583","0.0-6.0-1.0-8.0-1.3","3","4","3","3","3","3","3","2","3","3","3","2","2","3","2","4","3","3","4","4","4","4","4","4","4","4","3","4","4","1","0","1","1","0","0","0","1","0","1","1","0","1","0","1","5","5","4","5","4","4","5","4","4","3","2","789936991620964354","叶","279","","","","","","","","","","","","","","","","","","","true","14","4","moral","1961","negative","卑鄙","","","","","","","","","","","","","","","","",""
"null","","null","html-keyboard-response","116","336847","0.0-6.0-1.0-8.0-0.4","3","4","3","3","3","3","3","2","3","3","3","2","2","3","2","4","3","3","4","4","4","4","4","4","4","4","3","4","4","1","0","1","1","0","0","0","1","0","1","1","0","1","0","1","5","5","4","5","4","4","5","4","4","3","2","789936991620964354","叶","279","","","","","","","","","","","","","","","","","","","","","","","","","","","","","","","","","","","","","","","","","",""
"755","<p style=""color:rgb(150, 250, 100); font-size: 35px;"">别人</p>","i","categorize-html","117","337611","0.0-6.0-1.0-8.0-1.4","3","4","3","3","3","3","3","2","3","3","3","2","2","3","2","4","3","3","4","4","4","4","4","4","4","4","3","4","4","1","0","1","1","0","0","0","1","0","1","1","0","1","0","1","5","5","4","5","4","4","5","4","4","3","2","789936991620964354","叶","279","","","","","","","","","","","","","","","","","","","true","14","4","moral","755","other","别人","","","","","","","","","","","","","","","","",""
"null","","null","html-keyboard-response","118","337873","0.0-6.0-1.0-8.0-0.5","3","4","3","3","3","3","3","2","3","3","3","2","2","3","2","4","3","3","4","4","4","4","4","4","4","4","3","4","4","1","0","1","1","0","0","0","1","0","1","1","0","1","0","1","5","5","4","5","4","4","5","4","4","3","2","789936991620964354","叶","279","","","","","","","","","","","","","","","","","","","","","","","","","","","","","","","","","","","","","","","","","",""
"1795","<p style=""color:white; font-size: 35px;"">小人</p>","e","categorize-html","119","339674","0.0-6.0-1.0-8.0-1.5","3","4","3","3","3","3","3","2","3","3","3","2","2","3","2","4","3","3","4","4","4","4","4","4","4","4","3","4","4","1","0","1","1","0","0","0","1","0","1","1","0","1","0","1","5","5","4","5","4","4","5","4","4","3","2","789936991620964354","叶","279","","","","","","","","","","","","","","","","","","","true","14","4","moral","1795","negative","小人","","","","","","","","","","","","","","","","",""
"null","","null","html-keyboard-response","120","339933","0.0-6.0-1.0-8.0-0.6","3","4","3","3","3","3","3","2","3","3","3","2","2","3","2","4","3","3","4","4","4","4","4","4","4","4","3","4","4","1","0","1","1","0","0","0","1","0","1","1","0","1","0","1","5","5","4","5","4","4","5","4","4","3","2","789936991620964354","叶","279","","","","","","","","","","","","","","","","","","","","","","","","","","","","","","","","","","","","","","","","","",""
"1205","<p style=""color:rgb(150, 250, 100); font-size: 35px;"">自己</p>","e","categorize-html","121","341146","0.0-6.0-1.0-8.0-1.6","3","4","3","3","3","3","3","2","3","3","3","2","2","3","2","4","3","3","4","4","4","4","4","4","4","4","3","4","4","1","0","1","1","0","0","0","1","0","1","1","0","1","0","1","5","5","4","5","4","4","5","4","4","3","2","789936991620964354","叶","279","","","","","","","","","","","","","","","","","","","true","14","4","moral","1205","self","自己","","","","","","","","","","","","","","","","",""
"null","","null","html-keyboard-response","122","341407","0.0-6.0-1.0-8.0-0.7","3","4","3","3","3","3","3","2","3","3","3","2","2","3","2","4","3","3","4","4","4","4","4","4","4","4","3","4","4","1","0","1","1","0","0","0","1","0","1","1","0","1","0","1","5","5","4","5","4","4","5","4","4","3","2","789936991620964354","叶","279","","","","","","","","","","","","","","","","","","","","","","","","","","","","","","","","","","","","","","","","","",""
"759","<p style=""color:white; font-size: 35px;"">高尚</p>","i","categorize-html","123","342173","0.0-6.0-1.0-8.0-1.7","3","4","3","3","3","3","3","2","3","3","3","2","2","3","2","4","3","3","4","4","4","4","4","4","4","4","3","4","4","1","0","1","1","0","0","0","1","0","1","1","0","1","0","1","5","5","4","5","4","4","5","4","4","3","2","789936991620964354","叶","279","","","","","","","","","","","","","","","","","","","true","14","4","moral","759","positive","高尚","","","","","","","","","","","","","","","","",""
"null","","null","html-keyboard-response","124","342438","0.0-6.0-1.0-8.0-0.8","3","4","3","3","3","3","3","2","3","3","3","2","2","3","2","4","3","3","4","4","4","4","4","4","4","4","3","4","4","1","0","1","1","0","0","0","1","0","1","1","0","1","0","1","5","5","4","5","4","4","5","4","4","3","2","789936991620964354","叶","279","","","","","","","","","","","","","","","","","","","","","","","","","","","","","","","","","","","","","","","","","",""
"1301","<p style=""color:rgb(150, 250, 100); font-size: 35px;"">他人</p>","i","categorize-html","125","343745","0.0-6.0-1.0-8.0-1.8","3","4","3","3","3","3","3","2","3","3","3","2","2","3","2","4","3","3","4","4","4","4","4","4","4","4","3","4","4","1","0","1","1","0","0","0","1","0","1","1","0","1","0","1","5","5","4","5","4","4","5","4","4","3","2","789936991620964354","叶","279","","","","","","","","","","","","","","","","","","","true","14","4","moral","1301","other","他人","","","","","","","","","","","","","","","","",""
"null","","null","html-keyboard-response","126","344001","0.0-6.0-1.0-8.0-0.9","3","4","3","3","3","3","3","2","3","3","3","2","2","3","2","4","3","3","4","4","4","4","4","4","4","4","3","4","4","1","0","1","1","0","0","0","1","0","1","1","0","1","0","1","5","5","4","5","4","4","5","4","4","3","2","789936991620964354","叶","279","","","","","","","","","","","","","","","","","","","","","","","","","","","","","","","","","","","","","","","","","",""
"741","<p style=""color:white; font-size: 35px;"">正直</p>","i","categorize-html","127","344749","0.0-6.0-1.0-8.0-1.9","3","4","3","3","3","3","3","2","3","3","3","2","2","3","2","4","3","3","4","4","4","4","4","4","4","4","3","4","4","1","0","1","1","0","0","0","1","0","1","1","0","1","0","1","5","5","4","5","4","4","5","4","4","3","2","789936991620964354","叶","279","","","","","","","","","","","","","","","","","","","true","14","4","moral","741","positive","正直","","","","","","","","","","","","","","","","",""
"null","","null","html-keyboard-response","128","345008","0.0-6.0-1.0-8.0-0.10","3","4","3","3","3","3","3","2","3","3","3","2","2","3","2","4","3","3","4","4","4","4","4","4","4","4","3","4","4","1","0","1","1","0","0","0","1","0","1","1","0","1","0","1","5","5","4","5","4","4","5","4","4","3","2","789936991620964354","叶","279","","","","","","","","","","","","","","","","","","","","","","","","","","","","","","","","","","","","","","","","","",""
"802","<p style=""color:rgb(150, 250, 100); font-size: 35px;"">本人</p>","e","categorize-html","129","345820","0.0-6.0-1.0-8.0-1.10","3","4","3","3","3","3","3","2","3","3","3","2","2","3","2","4","3","3","4","4","4","4","4","4","4","4","3","4","4","1","0","1","1","0","0","0","1","0","1","1","0","1","0","1","5","5","4","5","4","4","5","4","4","3","2","789936991620964354","叶","279","","","","","","","","","","","","","","","","","","","true","14","4","moral","802","self","本人","","","","","","","","","","","","","","","","",""
"null","","null","html-keyboard-response","130","346084","0.0-6.0-1.0-8.0-0.11","3","4","3","3","3","3","3","2","3","3","3","2","2","3","2","4","3","3","4","4","4","4","4","4","4","4","3","4","4","1","0","1","1","0","0","0","1","0","1","1","0","1","0","1","5","5","4","5","4","4","5","4","4","3","2","789936991620964354","叶","279","","","","","","","","","","","","","","","","","","","","","","","","","","","","","","","","","","","","","","","","","",""
"852","<p style=""color:white; font-size: 35px;"">不仁</p>","e","categorize-html","131","346941","0.0-6.0-1.0-8.0-1.11","3","4","3","3","3","3","3","2","3","3","3","2","2","3","2","4","3","3","4","4","4","4","4","4","4","4","3","4","4","1","0","1","1","0","0","0","1","0","1","1","0","1","0","1","5","5","4","5","4","4","5","4","4","3","2","789936991620964354","叶","279","","","","","","","","","","","","","","","","","","","true","14","4","moral","852","negative","不仁","","","","","","","","","","","","","","","","",""
"null","","null","html-keyboard-response","132","347198","0.0-6.0-1.0-8.0-0.12","3","4","3","3","3","3","3","2","3","3","3","2","2","3","2","4","3","3","4","4","4","4","4","4","4","4","3","4","4","1","0","1","1","0","0","0","1","0","1","1","0","1","0","1","5","5","4","5","4","4","5","4","4","3","2","789936991620964354","叶","279","","","","","","","","","","","","","","","","","","","","","","","","","","","","","","","","","","","","","","","","","",""
"690","<p style=""color:rgb(150, 250, 100); font-size: 35px;"">他的</p>","i","categorize-html","133","347893","0.0-6.0-1.0-8.0-1.12","3","4","3","3","3","3","3","2","3","3","3","2","2","3","2","4","3","3","4","4","4","4","4","4","4","4","3","4","4","1","0","1","1","0","0","0","1","0","1","1","0","1","0","1","5","5","4","5","4","4","5","4","4","3","2","789936991620964354","叶","279","","","","","","","","","","","","","","","","","","","true","14","4","moral","690","other","他的","","","","","","","","","","","","","","","","",""
"null","","null","html-keyboard-response","134","348152","0.0-6.0-1.0-8.0-0.13","3","4","3","3","3","3","3","2","3","3","3","2","2","3","2","4","3","3","4","4","4","4","4","4","4","4","3","4","4","1","0","1","1","0","0","0","1","0","1","1","0","1","0","1","5","5","4","5","4","4","5","4","4","3","2","789936991620964354","叶","279","","","","","","","","","","","","","","","","","","","","","","","","","","","","","","","","","","","","","","","","","",""
"749","<p style=""color:white; font-size: 35px;"">廉正</p>","i","categorize-html","135","348906","0.0-6.0-1.0-8.0-1.13","3","4","3","3","3","3","3","2","3","3","3","2","2","3","2","4","3","3","4","4","4","4","4","4","4","4","3","4","4","1","0","1","1","0","0","0","1","0","1","1","0","1","0","1","5","5","4","5","4","4","5","4","4","3","2","789936991620964354","叶","279","","","","","","","","","","","","","","","","","","","true","14","4","moral","749","positive","廉正","","","","","","","","","","","","","","","","",""
"null","","null","html-keyboard-response","136","349168","0.0-6.0-1.0-8.0-0.14","3","4","3","3","3","3","3","2","3","3","3","2","2","3","2","4","3","3","4","4","4","4","4","4","4","4","3","4","4","1","0","1","1","0","0","0","1","0","1","1","0","1","0","1","5","5","4","5","4","4","5","4","4","3","2","789936991620964354","叶","279","","","","","","","","","","","","","","","","","","","","","","","","","","","","","","","","","","","","","","","","","",""
"902","<p style=""color:rgb(150, 250, 100); font-size: 35px;"">本人</p>","e","categorize-html","137","350075","0.0-6.0-1.0-8.0-1.14","3","4","3","3","3","3","3","2","3","3","3","2","2","3","2","4","3","3","4","4","4","4","4","4","4","4","3","4","4","1","0","1","1","0","0","0","1","0","1","1","0","1","0","1","5","5","4","5","4","4","5","4","4","3","2","789936991620964354","叶","279","","","","","","","","","","","","","","","","","","","true","14","4","moral","902","self","本人","","","","","","","","","","","","","","","","",""
"null","","null","html-keyboard-response","138","350340","0.0-6.0-1.0-8.0-0.15","3","4","3","3","3","3","3","2","3","3","3","2","2","3","2","4","3","3","4","4","4","4","4","4","4","4","3","4","4","1","0","1","1","0","0","0","1","0","1","1","0","1","0","1","5","5","4","5","4","4","5","4","4","3","2","789936991620964354","叶","279","","","","","","","","","","","","","","","","","","","","","","","","","","","","","","","","","","","","","","","","","",""
"818","<p style=""color:white; font-size: 35px;"">不孝</p>","e","categorize-html","139","351163","0.0-6.0-1.0-8.0-1.15","3","4","3","3","3","3","3","2","3","3","3","2","2","3","2","4","3","3","4","4","4","4","4","4","4","4","3","4","4","1","0","1","1","0","0","0","1","0","1","1","0","1","0","1","5","5","4","5","4","4","5","4","4","3","2","789936991620964354","叶","279","","","","","","","","","","","","","","","","","","","true","14","4","moral","818","negative","不孝","","","","","","","","","","","","","","","","",""
"null","","null","html-keyboard-response","140","351423","0.0-6.0-1.0-8.0-0.16","3","4","3","3","3","3","3","2","3","3","3","2","2","3","2","4","3","3","4","4","4","4","4","4","4","4","3","4","4","1","0","1","1","0","0","0","1","0","1","1","0","1","0","1","5","5","4","5","4","4","5","4","4","3","2","789936991620964354","叶","279","","","","","","","","","","","","","","","","","","","","","","","","","","","","","","","","","","","","","","","","","",""
"693","<p style=""color:rgb(150, 250, 100); font-size: 35px;"">别人的</p>","i","categorize-html","141","352120","0.0-6.0-1.0-8.0-1.16","3","4","3","3","3","3","3","2","3","3","3","2","2","3","2","4","3","3","4","4","4","4","4","4","4","4","3","4","4","1","0","1","1","0","0","0","1","0","1","1","0","1","0","1","5","5","4","5","4","4","5","4","4","3","2","789936991620964354","叶","279","","","","","","","","","","","","","","","","","","","true","14","4","moral","693","other","别人的","","","","","","","","","","","","","","","","",""
"null","","null","html-keyboard-response","142","352374","0.0-6.0-1.0-8.0-0.17","3","4","3","3","3","3","3","2","3","3","3","2","2","3","2","4","3","3","4","4","4","4","4","4","4","4","3","4","4","1","0","1","1","0","0","0","1","0","1","1","0","1","0","1","5","5","4","5","4","4","5","4","4","3","2","789936991620964354","叶","279","","","","","","","","","","","","","","","","","","","","","","","","","","","","","","","","","","","","","","","","","",""
"966","<p style=""color:white; font-size: 35px;"">高尚</p>","i","categorize-html","143","353346","0.0-6.0-1.0-8.0-1.17","3","4","3","3","3","3","3","2","3","3","3","2","2","3","2","4","3","3","4","4","4","4","4","4","4","4","3","4","4","1","0","1","1","0","0","0","1","0","1","1","0","1","0","1","5","5","4","5","4","4","5","4","4","3","2","789936991620964354","叶","279","","","","","","","","","","","","","","","","","","","true","14","4","moral","966","positive","高尚","","","","","","","","","","","","","","","","",""
"null","","null","html-keyboard-response","144","353599","0.0-6.0-1.0-8.0-0.18","3","4","3","3","3","3","3","2","3","3","3","2","2","3","2","4","3","3","4","4","4","4","4","4","4","4","3","4","4","1","0","1","1","0","0","0","1","0","1","1","0","1","0","1","5","5","4","5","4","4","5","4","4","3","2","789936991620964354","叶","279","","","","","","","","","","","","","","","","","","","","","","","","","","","","","","","","","","","","","","","","","",""
"497","<p style=""color:rgb(150, 250, 100); font-size: 35px;"">我的</p>","e","categorize-html","145","354100","0.0-6.0-1.0-8.0-1.18","3","4","3","3","3","3","3","2","3","3","3","2","2","3","2","4","3","3","4","4","4","4","4","4","4","4","3","4","4","1","0","1","1","0","0","0","1","0","1","1","0","1","0","1","5","5","4","5","4","4","5","4","4","3","2","789936991620964354","叶","279","","","","","","","","","","","","","","","","","","","true","14","4","moral","497","self","我的","","","","","","","","","","","","","","","","",""
"null","","null","html-keyboard-response","146","354359","0.0-6.0-1.0-8.0-0.19","3","4","3","3","3","3","3","2","3","3","3","2","2","3","2","4","3","3","4","4","4","4","4","4","4","4","3","4","4","1","0","1","1","0","0","0","1","0","1","1","0","1","0","1","5","5","4","5","4","4","5","4","4","3","2","789936991620964354","叶","279","","","","","","","","","","","","","","","","","","","","","","","","","","","","","","","","","","","","","","","","","",""
"649","<p style=""color:white; font-size: 35px;"">黑心</p>","e","categorize-html","147","355012","0.0-6.0-1.0-8.0-1.19","3","4","3","3","3","3","3","2","3","3","3","2","2","3","2","4","3","3","4","4","4","4","4","4","4","4","3","4","4","1","0","1","1","0","0","0","1","0","1","1","0","1","0","1","5","5","4","5","4","4","5","4","4","3","2","789936991620964354","叶","279","","","","","","","","","","","","","","","","","","","true","14","4","moral","649","negative","黑心","","","","","","","","","","","","","","","","",""
"null","","null","html-keyboard-response","148","355271","0.0-6.0-1.0-8.0-0.20","3","4","3","3","3","3","3","2","3","3","3","2","2","3","2","4","3","3","4","4","4","4","4","4","4","4","3","4","4","1","0","1","1","0","0","0","1","0","1","1","0","1","0","1","5","5","4","5","4","4","5","4","4","3","2","789936991620964354","叶","279","","","","","","","","","","","","","","","","","","","","","","","","","","","","","","","","","","","","","","","","","",""
"913","<p style=""color:rgb(150, 250, 100); font-size: 35px;"">本人的</p>","e","categorize-html","149","356189","0.0-6.0-1.0-8.0-1.20","3","4","3","3","3","3","3","2","3","3","3","2","2","3","2","4","3","3","4","4","4","4","4","4","4","4","3","4","4","1","0","1","1","0","0","0","1","0","1","1","0","1","0","1","5","5","4","5","4","4","5","4","4","3","2","789936991620964354","叶","279","","","","","","","","","","","","","","","","","","","true","14","4","moral","913","self","本人的","","","","","","","","","","","","","","","","",""
"null","","null","html-keyboard-response","150","356452","0.0-6.0-1.0-8.0-0.21","3","4","3","3","3","3","3","2","3","3","3","2","2","3","2","4","3","3","4","4","4","4","4","4","4","4","3","4","4","1","0","1","1","0","0","0","1","0","1","1","0","1","0","1","5","5","4","5","4","4","5","4","4","3","2","789936991620964354","叶","279","","","","","","","","","","","","","","","","","","","","","","","","","","","","","","","","","","","","","","","","","",""
"638","<p style=""color:white; font-size: 35px;"">缺德</p>","e","categorize-html","151","357095","0.0-6.0-1.0-8.0-1.21","3","4","3","3","3","3","3","2","3","3","3","2","2","3","2","4","3","3","4","4","4","4","4","4","4","4","3","4","4","1","0","1","1","0","0","0","1","0","1","1","0","1","0","1","5","5","4","5","4","4","5","4","4","3","2","789936991620964354","叶","279","","","","","","","","","","","","","","","","","","","true","14","4","moral","638","negative","缺德","","","","","","","","","","","","","","","","",""
"null","","null","html-keyboard-response","152","357364","0.0-6.0-1.0-8.0-0.22","3","4","3","3","3","3","3","2","3","3","3","2","2","3","2","4","3","3","4","4","4","4","4","4","4","4","3","4","4","1","0","1","1","0","0","0","1","0","1","1","0","1","0","1","5","5","4","5","4","4","5","4","4","3","2","789936991620964354","叶","279","","","","","","","","","","","","","","","","","","","","","","","","","","","","","","","","","","","","","","","","","",""
"558","<p style=""color:rgb(150, 250, 100); font-size: 35px;"">他人的</p>","i","categorize-html","153","357926","0.0-6.0-1.0-8.0-1.22","3","4","3","3","3","3","3","2","3","3","3","2","2","3","2","4","3","3","4","4","4","4","4","4","4","4","3","4","4","1","0","1","1","0","0","0","1","0","1","1","0","1","0","1","5","5","4","5","4","4","5","4","4","3","2","789936991620964354","叶","279","","","","","","","","","","","","","","","","","","","true","14","4","moral","558","other","他人的","","","","","","","","","","","","","","","","",""
"null","","null","html-keyboard-response","154","358186","0.0-6.0-1.0-8.0-0.23","3","4","3","3","3","3","3","2","3","3","3","2","2","3","2","4","3","3","4","4","4","4","4","4","4","4","3","4","4","1","0","1","1","0","0","0","1","0","1","1","0","1","0","1","5","5","4","5","4","4","5","4","4","3","2","789936991620964354","叶","279","","","","","","","","","","","","","","","","","","","","","","","","","","","","","","","","","","","","","","","","","",""
"1029","<p style=""color:white; font-size: 35px;"">诚信</p>","i","categorize-html","155","359223","0.0-6.0-1.0-8.0-1.23","3","4","3","3","3","3","3","2","3","3","3","2","2","3","2","4","3","3","4","4","4","4","4","4","4","4","3","4","4","1","0","1","1","0","0","0","1","0","1","1","0","1","0","1","5","5","4","5","4","4","5","4","4","3","2","789936991620964354","叶","279","","","","","","","","","","","","","","","","","","","true","14","4","moral","1029","positive","诚信","","","","","","","","","","","","","","","","",""
"null","","null","html-keyboard-response","156","359488","0.0-6.0-1.0-8.0-0.24","3","4","3","3","3","3","3","2","3","3","3","2","2","3","2","4","3","3","4","4","4","4","4","4","4","4","3","4","4","1","0","1","1","0","0","0","1","0","1","1","0","1","0","1","5","5","4","5","4","4","5","4","4","3","2","789936991620964354","叶","279","","","","","","","","","","","","","","","","","","","","","","","","","","","","","","","","","","","","","","","","","",""
"738","<p style=""color:rgb(150, 250, 100); font-size: 35px;"">我的</p>","e","categorize-html","157","360231","0.0-6.0-1.0-8.0-1.24","3","4","3","3","3","3","3","2","3","3","3","2","2","3","2","4","3","3","4","4","4","4","4","4","4","4","3","4","4","1","0","1","1","0","0","0","1","0","1","1","0","1","0","1","5","5","4","5","4","4","5","4","4","3","2","789936991620964354","叶","279","","","","","","","","","","","","","","","","","","","true","14","4","moral","738","self","我的","","","","","","","","","","","","","","","","",""
"null","","null","html-keyboard-response","158","360488","0.0-6.0-1.0-8.0-0.25","3","4","3","3","3","3","3","2","3","3","3","2","2","3","2","4","3","3","4","4","4","4","4","4","4","4","3","4","4","1","0","1","1","0","0","0","1","0","1","1","0","1","0","1","5","5","4","5","4","4","5","4","4","3","2","789936991620964354","叶","279","","","","","","","","","","","","","","","","","","","","","","","","","","","","","","","","","","","","","","","","","",""
"639","<p style=""color:white; font-size: 35px;"">不孝</p>","e","categorize-html","159","361132","0.0-6.0-1.0-8.0-1.25","3","4","3","3","3","3","3","2","3","3","3","2","2","3","2","4","3","3","4","4","4","4","4","4","4","4","3","4","4","1","0","1","1","0","0","0","1","0","1","1","0","1","0","1","5","5","4","5","4","4","5","4","4","3","2","789936991620964354","叶","279","","","","","","","","","","","","","","","","","","","true","14","4","moral","639","negative","不孝","","","","","","","","","","","","","","","","",""
"null","","null","html-keyboard-response","160","361397","0.0-6.0-1.0-8.0-0.26","3","4","3","3","3","3","3","2","3","3","3","2","2","3","2","4","3","3","4","4","4","4","4","4","4","4","3","4","4","1","0","1","1","0","0","0","1","0","1","1","0","1","0","1","5","5","4","5","4","4","5","4","4","3","2","789936991620964354","叶","279","","","","","","","","","","","","","","","","","","","","","","","","","","","","","","","","","","","","","","","","","",""
"1132","<p style=""color:rgb(150, 250, 100); font-size: 35px;"">别人</p>","i","categorize-html","161","362535","0.0-6.0-1.0-8.0-1.26","3","4","3","3","3","3","3","2","3","3","3","2","2","3","2","4","3","3","4","4","4","4","4","4","4","4","3","4","4","1","0","1","1","0","0","0","1","0","1","1","0","1","0","1","5","5","4","5","4","4","5","4","4","3","2","789936991620964354","叶","279","","","","","","","","","","","","","","","","","","","true","14","4","moral","1132","other","别人","","","","","","","","","","","","","","","","",""
"null","","null","html-keyboard-response","162","362800","0.0-6.0-1.0-8.0-0.27","3","4","3","3","3","3","3","2","3","3","3","2","2","3","2","4","3","3","4","4","4","4","4","4","4","4","3","4","4","1","0","1","1","0","0","0","1","0","1","1","0","1","0","1","5","5","4","5","4","4","5","4","4","3","2","789936991620964354","叶","279","","","","","","","","","","","","","","","","","","","","","","","","","","","","","","","","","","","","","","","","","",""
"796","<p style=""color:white; font-size: 35px;"">善良</p>","e","categorize-html","163","364059","0.0-6.0-1.0-8.0-1.27","3","4","3","3","3","3","3","2","3","3","3","2","2","3","2","4","3","3","4","4","4","4","4","4","4","4","3","4","4","1","0","1","1","0","0","0","1","0","1","1","0","1","0","1","5","5","4","5","4","4","5","4","4","3","2","789936991620964354","叶","279","","","","","","","","","","","","","","","","","","","false","14","4","moral","1582.6304347826087","positive","善良","","","","","","","","","","","","","","","","",""
"null","","null","html-keyboard-response","164","364321","0.0-6.0-1.0-8.0-0.28","3","4","3","3","3","3","3","2","3","3","3","2","2","3","2","4","3","3","4","4","4","4","4","4","4","4","3","4","4","1","0","1","1","0","0","0","1","0","1","1","0","1","0","1","5","5","4","5","4","4","5","4","4","3","2","789936991620964354","叶","279","","","","","","","","","","","","","","","","","","","","","","","","","","","","","","","","","","","","","","","","","",""
"1597","<p style=""color:rgb(150, 250, 100); font-size: 35px;"">他人的</p>","i","categorize-html","165","365923","0.0-6.0-1.0-8.0-1.28","3","4","3","3","3","3","3","2","3","3","3","2","2","3","2","4","3","3","4","4","4","4","4","4","4","4","3","4","4","1","0","1","1","0","0","0","1","0","1","1","0","1","0","1","5","5","4","5","4","4","5","4","4","3","2","789936991620964354","叶","279","","","","","","","","","","","","","","","","","","","true","14","4","moral","1597","other","他人的","","","","","","","","","","","","","","","","",""
"null","","null","html-keyboard-response","166","366189","0.0-6.0-1.0-8.0-0.29","3","4","3","3","3","3","3","2","3","3","3","2","2","3","2","4","3","3","4","4","4","4","4","4","4","4","3","4","4","1","0","1","1","0","0","0","1","0","1","1","0","1","0","1","5","5","4","5","4","4","5","4","4","3","2","789936991620964354","叶","279","","","","","","","","","","","","","","","","","","","","","","","","","","","","","","","","","","","","","","","","","",""
"1330","<p style=""color:white; font-size: 35px;"">廉正</p>","i","categorize-html","167","367524","0.0-6.0-1.0-8.0-1.29","3","4","3","3","3","3","3","2","3","3","3","2","2","3","2","4","3","3","4","4","4","4","4","4","4","4","3","4","4","1","0","1","1","0","0","0","1","0","1","1","0","1","0","1","5","5","4","5","4","4","5","4","4","3","2","789936991620964354","叶","279","","","","","","","","","","","","","","","","","","","true","14","4","moral","1330","positive","廉正","","","","","","","","","","","","","","","","",""
"null","","null","html-keyboard-response","168","367785","0.0-6.0-1.0-8.0-0.30","3","4","3","3","3","3","3","2","3","3","3","2","2","3","2","4","3","3","4","4","4","4","4","4","4","4","3","4","4","1","0","1","1","0","0","0","1","0","1","1","0","1","0","1","5","5","4","5","4","4","5","4","4","3","2","789936991620964354","叶","279","","","","","","","","","","","","","","","","","","","","","","","","","","","","","","","","","","","","","","","","","",""
"499","<p style=""color:rgb(150, 250, 100); font-size: 35px;"">我</p>","e","categorize-html","169","368290","0.0-6.0-1.0-8.0-1.30","3","4","3","3","3","3","3","2","3","3","3","2","2","3","2","4","3","3","4","4","4","4","4","4","4","4","3","4","4","1","0","1","1","0","0","0","1","0","1","1","0","1","0","1","5","5","4","5","4","4","5","4","4","3","2","789936991620964354","叶","279","","","","","","","","","","","","","","","","","","","true","14","4","moral","499","self","我","","","","","","","","","","","","","","","","",""
"null","","null","html-keyboard-response","170","368552","0.0-6.0-1.0-8.0-0.31","3","4","3","3","3","3","3","2","3","3","3","2","2","3","2","4","3","3","4","4","4","4","4","4","4","4","3","4","4","1","0","1","1","0","0","0","1","0","1","1","0","1","0","1","5","5","4","5","4","4","5","4","4","3","2","789936991620964354","叶","279","","","","","","","","","","","","","","","","","","","","","","","","","","","","","","","","","","","","","","","","","",""
"2234","<p style=""color:white; font-size: 35px;"">小人</p>","e","categorize-html","171","370791","0.0-6.0-1.0-8.0-1.31","3","4","3","3","3","3","3","2","3","3","3","2","2","3","2","4","3","3","4","4","4","4","4","4","4","4","3","4","4","1","0","1","1","0","0","0","1","0","1","1","0","1","0","1","5","5","4","5","4","4","5","4","4","3","2","789936991620964354","叶","279","","","","","","","","","","","","","","","","","","","true","14","4","moral","2234","negative","小人","","","","","","","","","","","","","","","","",""
"null","","null","html-keyboard-response","172","371054","0.0-6.0-1.0-8.0-0.32","3","4","3","3","3","3","3","2","3","3","3","2","2","3","2","4","3","3","4","4","4","4","4","4","4","4","3","4","4","1","0","1","1","0","0","0","1","0","1","1","0","1","0","1","5","5","4","5","4","4","5","4","4","3","2","789936991620964354","叶","279","","","","","","","","","","","","","","","","","","","","","","","","","","","","","","","","","","","","","","","","","",""
"487","<p style=""color:rgb(150, 250, 100); font-size: 35px;"">自己的</p>","e","categorize-html","173","371546","0.0-6.0-1.0-8.0-1.32","3","4","3","3","3","3","3","2","3","3","3","2","2","3","2","4","3","3","4","4","4","4","4","4","4","4","3","4","4","1","0","1","1","0","0","0","1","0","1","1","0","1","0","1","5","5","4","5","4","4","5","4","4","3","2","789936991620964354","叶","279","","","","","","","","","","","","","","","","","","","true","14","4","moral","487","self","自己的","","","","","","","","","","","","","","","","",""
"null","","null","html-keyboard-response","174","371803","0.0-6.0-1.0-8.0-0.33","3","4","3","3","3","3","3","2","3","3","3","2","2","3","2","4","3","3","4","4","4","4","4","4","4","4","3","4","4","1","0","1","1","0","0","0","1","0","1","1","0","1","0","1","5","5","4","5","4","4","5","4","4","3","2","789936991620964354","叶","279","","","","","","","","","","","","","","","","","","","","","","","","","","","","","","","","","","","","","","","","","",""
"579","<p style=""color:white; font-size: 35px;"">卑鄙</p>","e","categorize-html","175","372386","0.0-6.0-1.0-8.0-1.33","3","4","3","3","3","3","3","2","3","3","3","2","2","3","2","4","3","3","4","4","4","4","4","4","4","4","3","4","4","1","0","1","1","0","0","0","1","0","1","1","0","1","0","1","5","5","4","5","4","4","5","4","4","3","2","789936991620964354","叶","279","","","","","","","","","","","","","","","","","","","true","14","4","moral","579","negative","卑鄙","","","","","","","","","","","","","","","","",""
"null","","null","html-keyboard-response","176","372653","0.0-6.0-1.0-8.0-0.34","3","4","3","3","3","3","3","2","3","3","3","2","2","3","2","4","3","3","4","4","4","4","4","4","4","4","3","4","4","1","0","1","1","0","0","0","1","0","1","1","0","1","0","1","5","5","4","5","4","4","5","4","4","3","2","789936991620964354","叶","279","","","","","","","","","","","","","","","","","","","","","","","","","","","","","","","","","","","","","","","","","",""
"501","<p style=""color:rgb(150, 250, 100); font-size: 35px;"">他</p>","i","categorize-html","177","373159","0.0-6.0-1.0-8.0-1.34","3","4","3","3","3","3","3","2","3","3","3","2","2","3","2","4","3","3","4","4","4","4","4","4","4","4","3","4","4","1","0","1","1","0","0","0","1","0","1","1","0","1","0","1","5","5","4","5","4","4","5","4","4","3","2","789936991620964354","叶","279","","","","","","","","","","","","","","","","","","","true","14","4","moral","501","other","他","","","","","","","","","","","","","","","","",""
"null","","null","html-keyboard-response","178","373431","0.0-6.0-1.0-8.0-0.35","3","4","3","3","3","3","3","2","3","3","3","2","2","3","2","4","3","3","4","4","4","4","4","4","4","4","3","4","4","1","0","1","1","0","0","0","1","0","1","1","0","1","0","1","5","5","4","5","4","4","5","4","4","3","2","789936991620964354","叶","279","","","","","","","","","","","","","","","","","","","","","","","","","","","","","","","","","","","","","","","","","",""
"485","<p style=""color:white; font-size: 35px;"">君子</p>","i","categorize-html","179","373921","0.0-6.0-1.0-8.0-1.35","3","4","3","3","3","3","3","2","3","3","3","2","2","3","2","4","3","3","4","4","4","4","4","4","4","4","3","4","4","1","0","1","1","0","0","0","1","0","1","1","0","1","0","1","5","5","4","5","4","4","5","4","4","3","2","789936991620964354","叶","279","","","","","","","","","","","","","","","","","","","true","14","4","moral","485","positive","君子","","","","","","","","","","","","","","","","",""
"null","","null","html-keyboard-response","180","374182","0.0-6.0-1.0-8.0-0.36","3","4","3","3","3","3","3","2","3","3","3","2","2","3","2","4","3","3","4","4","4","4","4","4","4","4","3","4","4","1","0","1","1","0","0","0","1","0","1","1","0","1","0","1","5","5","4","5","4","4","5","4","4","3","2","789936991620964354","叶","279","","","","","","","","","","","","","","","","","","","","","","","","","","","","","","","","","","","","","","","","","",""
"619","<p style=""color:rgb(150, 250, 100); font-size: 35px;"">自己</p>","e","categorize-html","181","374806","0.0-6.0-1.0-8.0-1.36","3","4","3","3","3","3","3","2","3","3","3","2","2","3","2","4","3","3","4","4","4","4","4","4","4","4","3","4","4","1","0","1","1","0","0","0","1","0","1","1","0","1","0","1","5","5","4","5","4","4","5","4","4","3","2","789936991620964354","叶","279","","","","","","","","","","","","","","","","","","","true","14","4","moral","619","self","自己","","","","","","","","","","","","","","","","",""
"null","","null","html-keyboard-response","182","375064","0.0-6.0-1.0-8.0-0.37","3","4","3","3","3","3","3","2","3","3","3","2","2","3","2","4","3","3","4","4","4","4","4","4","4","4","3","4","4","1","0","1","1","0","0","0","1","0","1","1","0","1","0","1","5","5","4","5","4","4","5","4","4","3","2","789936991620964354","叶","279","","","","","","","","","","","","","","","","","","","","","","","","","","","","","","","","","","","","","","","","","",""
"1281","<p style=""color:white; font-size: 35px;"">正直</p>","i","categorize-html","183","376347","0.0-6.0-1.0-8.0-1.37","3","4","3","3","3","3","3","2","3","3","3","2","2","3","2","4","3","3","4","4","4","4","4","4","4","4","3","4","4","1","0","1","1","0","0","0","1","0","1","1","0","1","0","1","5","5","4","5","4","4","5","4","4","3","2","789936991620964354","叶","279","","","","","","","","","","","","","","","","","","","true","14","4","moral","1281","positive","正直","","","","","","","","","","","","","","","","",""
"null","","null","html-keyboard-response","184","376609","0.0-6.0-1.0-8.0-0.38","3","4","3","3","3","3","3","2","3","3","3","2","2","3","2","4","3","3","4","4","4","4","4","4","4","4","3","4","4","1","0","1","1","0","0","0","1","0","1","1","0","1","0","1","5","5","4","5","4","4","5","4","4","3","2","789936991620964354","叶","279","","","","","","","","","","","","","","","","","","","","","","","","","","","","","","","","","","","","","","","","","",""
"1130","<p style=""color:rgb(150, 250, 100); font-size: 35px;"">他的</p>","i","categorize-html","185","377747","0.0-6.0-1.0-8.0-1.38","3","4","3","3","3","3","3","2","3","3","3","2","2","3","2","4","3","3","4","4","4","4","4","4","4","4","3","4","4","1","0","1","1","0","0","0","1","0","1","1","0","1","0","1","5","5","4","5","4","4","5","4","4","3","2","789936991620964354","叶","279","","","","","","","","","","","","","","","","","","","true","14","4","moral","1130","other","他的","","","","","","","","","","","","","","","","",""
"null","","null","html-keyboard-response","186","378005","0.0-6.0-1.0-8.0-0.39","3","4","3","3","3","3","3","2","3","3","3","2","2","3","2","4","3","3","4","4","4","4","4","4","4","4","3","4","4","1","0","1","1","0","0","0","1","0","1","1","0","1","0","1","5","5","4","5","4","4","5","4","4","3","2","789936991620964354","叶","279","","","","","","","","","","","","","","","","","","","","","","","","","","","","","","","","","","","","","","","","","",""
"679","<p style=""color:white; font-size: 35px;"">黑心</p>","e","categorize-html","187","378690","0.0-6.0-1.0-8.0-1.39","3","4","3","3","3","3","3","2","3","3","3","2","2","3","2","4","3","3","4","4","4","4","4","4","4","4","3","4","4","1","0","1","1","0","0","0","1","0","1","1","0","1","0","1","5","5","4","5","4","4","5","4","4","3","2","789936991620964354","叶","279","","","","","","","","","","","","","","","","","","","true","14","4","moral","679","negative","黑心","","","","","","","","","","","","","","","","",""
"null","","null","html-keyboard-response","188","378958","0.0-6.0-1.0-8.0-0.40","3","4","3","3","3","3","3","2","3","3","3","2","2","3","2","4","3","3","4","4","4","4","4","4","4","4","3","4","4","1","0","1","1","0","0","0","1","0","1","1","0","1","0","1","5","5","4","5","4","4","5","4","4","3","2","789936991620964354","叶","279","","","","","","","","","","","","","","","","","","","","","","","","","","","","","","","","","","","","","","","","","",""
"540","<p style=""color:rgb(150, 250, 100); font-size: 35px;"">我</p>","e","categorize-html","189","379504","0.0-6.0-1.0-8.0-1.40","3","4","3","3","3","3","3","2","3","3","3","2","2","3","2","4","3","3","4","4","4","4","4","4","4","4","3","4","4","1","0","1","1","0","0","0","1","0","1","1","0","1","0","1","5","5","4","5","4","4","5","4","4","3","2","789936991620964354","叶","279","","","","","","","","","","","","","","","","","","","true","14","4","moral","540","self","我","","","","","","","","","","","","","","","","",""
"null","","null","html-keyboard-response","190","379761","0.0-6.0-1.0-8.0-0.41","3","4","3","3","3","3","3","2","3","3","3","2","2","3","2","4","3","3","4","4","4","4","4","4","4","4","3","4","4","1","0","1","1","0","0","0","1","0","1","1","0","1","0","1","5","5","4","5","4","4","5","4","4","3","2","789936991620964354","叶","279","","","","","","","","","","","","","","","","","","","","","","","","","","","","","","","","","","","","","","","","","",""
"470","<p style=""color:white; font-size: 35px;"">善良</p>","e","categorize-html","191","380621","0.0-6.0-1.0-8.0-1.41","3","4","3","3","3","3","3","2","3","3","3","2","2","3","2","4","3","3","4","4","4","4","4","4","4","4","3","4","4","1","0","1","1","0","0","0","1","0","1","1","0","1","0","1","5","5","4","5","4","4","5","4","4","3","2","789936991620964354","叶","279","","","","","","","","","","","","","","","","","","","false","14","4","moral","1582.6304347826087","positive","善良","","","","","","","","","","","","","","","","",""
"null","","null","html-keyboard-response","192","380874","0.0-6.0-1.0-8.0-0.42","3","4","3","3","3","3","3","2","3","3","3","2","2","3","2","4","3","3","4","4","4","4","4","4","4","4","3","4","4","1","0","1","1","0","0","0","1","0","1","1","0","1","0","1","5","5","4","5","4","4","5","4","4","3","2","789936991620964354","叶","279","","","","","","","","","","","","","","","","","","","","","","","","","","","","","","","","","","","","","","","","","",""
