"rt","stimulus","response","trial_type","trial_index","time_elapsed","internal_node_id","ses_1","ses_2","ses_3","ses_4","ses_5","ses_6","ses_7","ses_8","ses_9","ses_10","coreself_1","coreself_2","coreself_3","coreself_4","coreself_5","coreself_6","coreself_7","coreself_8","coreself_9","coreself_10","SGPS_1","SGPS_2","SGPS_3","SGPS_4","SGPS_5","SGPS_6","SGPS_7","SGPS_8","SGPS_9","NPI1","NPI2","NPI3","NPI4","NPI5","NPI6","NPI7","NPI8","NPI9","NPI10","NPI11","NPI12","NPI13","NPI14","NPI15","hsns_1","hsns_2","hsns_3","hsns_4","hsns_5","trap1","hsns_6","hsns_7","hsns_8","hsns_9","hsns_10","subj_idx","friend_name","ParticipantID","value","success","user_agent","responses","item_order","radio_event_ids","radio_event_times","key_event_times","mouse_event_times","straightlining","zigzagging","honeypot","timeout","failed_images","failed_audio","failed_video","view_history","response_type","key_press","avg_frame_time","center_x","center_y","correct_response","correct","identity","Image","word","condition","task_id","screen_id","time_stamp","version_attrib2","version_target2","IAT","RT","varname","summary","version_attrib","version_target","question_order","correct_answer","trap1_item"
"1585","
   <p><div style = ""color: white;font-size:25px;"">您好，欢迎参加本次实验。</div> </p>
   <p><div style = ""color: white;font-size:25px;"">为充分保障您的权利，请确保您已经知晓并同意《参与实验同意书》以及《数据公开知情同意书》。</div></p>
   <p><div style = ""color: white;font-size:25px;"">如果您未见过上述内容，请咨询实验员。</div></p>
   <p><div style = ""color: white;font-size:25px;"">如果您选择继续实验，则表示您已经清楚两份知情同意书的内容并同意。</div></p>
   <p><div style = ""color: pink;font-size:30px;"">请确保您记得day0的实验编号，您将在本次实验输入该编号，若您忘记，请咨询实验员后作答。</div></p>
   <p><div style = ""color: lightblue;font-size:25px;"">请您尽可能认真地作答，我们将依据您在各问卷和按键任务中的作答质量发放报酬。</div></p>
   <p> <div style = ""color: green;font-size:25px;""><按空格键至下页></div> </p>
   "," ","html-keyboard-response","0","1592","0.0-0.0","3","3","3","4","3","3","3","4","3","3","4","3","2","4","3","4","3","3","4","4","1","2","2","2","2","2","2","2","1","1","0","1","1","0","0","1","1","0","1","1","0","1","0","1","4","4","3","1","3","","3","4","4","3","2","797758262056460290","叶","207","","","","","","","","","","","","","","","","","","","","","","","","","","","","","","","","","","","","","","","","","",""
"","","","call-function","1","1594","0.0-1.0-0.0","3","3","3","4","3","3","3","4","3","3","4","3","2","4","3","4","3","3","4","4","1","2","2","2","2","2","2","2","1","1","0","1","1","0","0","1","1","0","1","1","0","1","0","1","4","4","3","1","3","","3","4","4","3","2","797758262056460290","叶","207","","","","","","","","","","","","","","","","","","","","","","","","","","","","","","","","","","","","","","","","","",""
"18289","","{""friend_name"":""叶"",""ParticipantID"":""207""}","survey-html-form","2","19886","0.0-1.0-1.0","3","3","3","4","3","3","3","4","3","3","4","3","2","4","3","4","3","3","4","4","1","2","2","2","2","2","2","2","1","1","0","1","1","0","0","1","1","0","1","1","0","1","0","1","4","4","3","1","3","","3","4","4","3","2","797758262056460290","叶","207","","","","","","","","","","","","","","","","","","","","","","","","","","","","","","","","","","","","","","","","","",""
"","","","fullscreen","3","25148","0.0-2.0","3","3","3","4","3","3","3","4","3","3","4","3","2","4","3","4","3","3","4","4","1","2","2","2","2","2","2","2","1","1","0","1","1","0","0","1","1","0","1","1","0","1","0","1","4","4","3","1","3","","3","4","4","3","2","797758262056460290","叶","207","","true","{}","","","","","","","","","","","","","","","","","","","","","","","","","","","","","","","","","","","","","","",""
"25535.300000000745","","{""Q01"":""3"",""Q02"":""3"",""Q03"":""3"",""Q04"":""4"",""Q05"":""3"",""Q06"":""3"",""Q07"":""3"",""Q08"":""4"",""Q09"":""3"",""Q10"":""3""}","survey-template","4","50691","0.0-3.0","3","3","3","4","3","3","3","4","3","3","4","3","2","4","3","4","3","3","4","4","1","2","2","2","2","2","2","2","1","1","0","1","1","0","0","1","1","0","1","1","0","1","0","1","4","4","3","1","3","","3","4","4","3","2","797758262056460290","叶","207","","","","{""Q01"":""3"",""Q02"":""3"",""Q03"":""3"",""Q04"":""4"",""Q05"":""3"",""Q06"":""3"",""Q07"":""3"",""Q08"":""4"",""Q09"":""3"",""Q10"":""3""}","[0,1,2,3,4,5,6,7,8,9]","[""Q01"",""Q02"",""Q03"",""Q04"",""Q05"",""Q07"",""Q06"",""Q08"",""Q09"",""Q10""]","[8723.800000000745,9859.60000000149,11963.900000002235,13075.60000000149,14539.400000002235,17571.300000000745,18515.300000000745,21803.20000000298,23035.20000000298,24475.300000000745]","[]","[8723.800000000745,9859.60000000149,11963.900000002235,13075.60000000149,14539.400000002235,15499.60000000149,16651.20000000298,17251.10000000149,17571.300000000745,18051.400000002235,18515.300000000745,21803.20000000298,22652,23035.20000000298,24475.300000000745,25531.5]","0.4","0.3333333333333333","0","","","","","","","","","","","","","","","","","","","","","","","","","","","","","",""
"27561","","{""Q01"":""4"",""Q02"":""3"",""Q03"":""2"",""Q04"":""4"",""Q05"":""3"",""Q06"":""4"",""Q07"":""3"",""Q08"":""3"",""Q09"":""4"",""Q10"":""4""}","survey-template","5","78274","0.0-4.0","3","3","3","4","3","3","3","4","3","3","4","3","2","4","3","4","3","3","4","4","1","2","2","2","2","2","2","2","1","1","0","1","1","0","0","1","1","0","1","1","0","1","0","1","4","4","3","1","3","","3","4","4","3","2","797758262056460290","叶","207","","","","{""Q01"":""4"",""Q02"":""3"",""Q03"":""2"",""Q04"":""4"",""Q05"":""3"",""Q06"":""4"",""Q07"":""3"",""Q08"":""3"",""Q09"":""4"",""Q10"":""4""}","[0,1,2,3,4,5,6,7,8,9]","[""Q01"",""Q02"",""Q03"",""Q04"",""Q05"",""Q06"",""Q07"",""Q08"",""Q09"",""Q10""]","[10677.89999999851,14181.5,16357.5,17109.199999999255,19093.5,20789.599999997765,21757.5,23629.39999999851,24957.39999999851,26877.199999999255]","[]","[10677.89999999851,14181.5,16357.5,17109.199999999255,19093.5,20789.599999997765,21757.5,23629.39999999851,24957.39999999851,26149.5,26437.29999999702,26877.199999999255,27557.599999997765]","0.5","0.6666666666666666","0","","","","","","","","","","","","","","","","","","","","","","","","","","","","","",""
"","","","preload","6","78772","0.0-5.0","3","3","3","4","3","3","3","4","3","3","4","3","2","4","3","4","3","3","4","4","1","2","2","2","2","2","2","2","1","1","0","1","1","0","0","1","1","0","1","1","0","1","0","1","4","4","3","1","3","","3","4","4","3","2","797758262056460290","叶","207","","true","","","","","","","","","","","false","[]","[]","[]","","","","","","","","","","","","","","","","","","","","","","","","","",""
"19672","","","instructions","7","98446","0.0-6.0","3","3","3","4","3","3","3","4","3","3","4","3","2","4","3","4","3","3","4","4","1","2","2","2","2","2","2","2","1","1","0","1","1","0","0","1","1","0","1","1","0","1","0","1","4","4","3","1","3","","3","4","4","3","2","797758262056460290","叶","207","","","","","","","","","","","","","","","","","[{""page_index"":0,""viewing_time"":19671}]","","","","","","","","","","","","","","","","","","","","","","","","",""
"10698","","","instructions","8","109149","0.0-7.0-0.0-0.0","3","3","3","4","3","3","3","4","3","3","4","3","2","4","3","4","3","3","4","4","1","2","2","2","2","2","2","2","1","1","0","1","1","0","0","1","1","0","1","1","0","1","0","1","4","4","3","1","3","","3","4","4","3","2","797758262056460290","叶","207","","","","","","","","","","","","","","","","","[{""page_index"":0,""viewing_time"":8666},{""page_index"":1,""viewing_time"":1152},{""page_index"":2,""viewing_time"":880}]","","","","","","","","","","","","","","","","","","","","","","","","",""
"897","","j","psychophysics","9","111060","0.0-7.0-0.0-1.0-0.0-0.0","3","3","3","4","3","3","3","4","3","3","4","3","2","4","3","4","3","3","4","4","1","2","2","2","2","2","2","2","1","1","0","1","1","0","0","1","1","0","1","1","0","1","0","1","4","4","3","1","3","","3","4","4","3","2","797758262056460290","叶","207","","","","match","","","","","","","","","","","","","","key","j","16.6662232142857","683","380","f","false","nonmatch","img/diamond.png","三角","菱形","ALT1_1","prac_ALT1_1","","","","","","","","","","","",""
"null","<span style='color:red; font-size: 70px;'>错误! </span>","null","html-keyboard-response","10","111563","0.0-7.0-0.0-1.0-0.0-1.0","3","3","3","4","3","3","3","4","3","3","4","3","2","4","3","4","3","3","4","4","1","2","2","2","2","2","2","2","1","1","0","1","1","0","0","1","1","0","1","1","0","1","0","1","4","4","3","1","3","","3","4","4","3","2","797758262056460290","叶","207","","","","","","","","","","","","","","","","","","","","","","","","","","","","","","feedback_test","","","","","","","","","","","",""
"806","","f","psychophysics","11","113372","0.0-7.0-0.0-1.0-0.0-0.1","3","3","3","4","3","3","3","4","3","3","4","3","2","4","3","4","3","3","4","4","1","2","2","2","2","2","2","2","1","1","0","1","1","0","0","1","1","0","1","1","0","1","0","1","4","4","3","1","3","","3","4","4","3","2","797758262056460290","叶","207","","","","nonmatch","","","","","","","","","","","","","","key","f","16.82133962264156","683","380","j","false","match","img/diamond.png","菱形","菱形","ALT1_1","prac_ALT1_1","","","","","","","","","","","",""
"null","<span style='color:red; font-size: 70px;'>错误! </span>","null","html-keyboard-response","12","113875","0.0-7.0-0.0-1.0-0.0-1.1","3","3","3","4","3","3","3","4","3","3","4","3","2","4","3","4","3","3","4","4","1","2","2","2","2","2","2","2","1","1","0","1","1","0","0","1","1","0","1","1","0","1","0","1","4","4","3","1","3","","3","4","4","3","2","797758262056460290","叶","207","","","","","","","","","","","","","","","","","","","","","","","","","","","","","","feedback_test","","","","","","","","","","","",""
"728","","j","psychophysics","13","115611","0.0-7.0-0.0-1.0-0.0-0.2","3","3","3","4","3","3","3","4","3","3","4","3","2","4","3","4","3","3","4","4","1","2","2","2","2","2","2","2","1","1","0","1","1","0","0","1","1","0","1","1","0","1","0","1","4","4","3","1","3","","3","4","4","3","2","797758262056460290","叶","207","","","","match","","","","","","","","","","","","","","key","j","16.66708737864084","683","380","j","true","match","img/ellipse.png","椭圆","椭圆","ALT1_1","prac_ALT1_1","","","","","","","","","","","",""
"null","<span style='color:GreenYellow; font-size: 70px;'>正确! </span>","null","html-keyboard-response","14","116114","0.0-7.0-0.0-1.0-0.0-1.2","3","3","3","4","3","3","3","4","3","3","4","3","2","4","3","4","3","3","4","4","1","2","2","2","2","2","2","2","1","1","0","1","1","0","0","1","1","0","1","1","0","1","0","1","4","4","3","1","3","","3","4","4","3","2","797758262056460290","叶","207","","","","","","","","","","","","","","","","","","","","","","","","","","","","","","feedback_test","","","","","","","","","","","",""
"902","","f","psychophysics","15","118021","0.0-7.0-0.0-1.0-0.0-0.3","3","3","3","4","3","3","3","4","3","3","4","3","2","4","3","4","3","3","4","4","1","2","2","2","2","2","2","2","1","1","0","1","1","0","0","1","1","0","1","1","0","1","0","1","4","4","3","1","3","","3","4","4","3","2","797758262056460290","叶","207","","","","nonmatch","","","","","","","","","","","","","","key","f","16.81508928571423","683","380","f","true","nonmatch","img/ellipse.png","菱形","椭圆","ALT1_1","prac_ALT1_1","","","","","","","","","","","",""
"null","<span style='color:GreenYellow; font-size: 70px;'>正确! </span>","null","html-keyboard-response","16","118530","0.0-7.0-0.0-1.0-0.0-1.3","3","3","3","4","3","3","3","4","3","3","4","3","2","4","3","4","3","3","4","4","1","2","2","2","2","2","2","2","1","1","0","1","1","0","0","1","1","0","1","1","0","1","0","1","4","4","3","1","3","","3","4","4","3","2","797758262056460290","叶","207","","","","","","","","","","","","","","","","","","","","","","","","","","","","","","feedback_test","","","","","","","","","","","",""
"885","","j","psychophysics","17","120421","0.0-7.0-0.0-1.0-0.0-0.4","3","3","3","4","3","3","3","4","3","3","4","3","2","4","3","4","3","3","4","4","1","2","2","2","2","2","2","2","1","1","0","1","1","0","0","1","1","0","1","1","0","1","0","1","4","4","3","1","3","","3","4","4","3","2","797758262056460290","叶","207","","","","match","","","","","","","","","","","","","","key","j","16.667495495495533","683","380","j","true","match","img/hexagon.png","六边","六边","ALT1_1","prac_ALT1_1","","","","","","","","","","","",""
"null","<span style='color:GreenYellow; font-size: 70px;'>正确! </span>","null","html-keyboard-response","18","120922","0.0-7.0-0.0-1.0-0.0-1.4","3","3","3","4","3","3","3","4","3","3","4","3","2","4","3","4","3","3","4","4","1","2","2","2","2","2","2","2","1","1","0","1","1","0","0","1","1","0","1","1","0","1","0","1","4","4","3","1","3","","3","4","4","3","2","797758262056460290","叶","207","","","","","","","","","","","","","","","","","","","","","","","","","","","","","","feedback_test","","","","","","","","","","","",""
"722","","j","psychophysics","19","122653","0.0-7.0-0.0-1.0-0.0-0.5","3","3","3","4","3","3","3","4","3","3","4","3","2","4","3","4","3","3","4","4","1","2","2","2","2","2","2","2","1","1","0","1","1","0","0","1","1","0","1","1","0","1","0","1","4","4","3","1","3","","3","4","4","3","2","797758262056460290","叶","207","","","","match","","","","","","","","","","","","","","key","j","16.83076470588233","683","380","j","true","match","img/hexagon.png","六边","六边","ALT1_1","prac_ALT1_1","","","","","","","","","","","",""
"null","<span style='color:GreenYellow; font-size: 70px;'>正确! </span>","null","html-keyboard-response","20","123162","0.0-7.0-0.0-1.0-0.0-1.5","3","3","3","4","3","3","3","4","3","3","4","3","2","4","3","4","3","3","4","4","1","2","2","2","2","2","2","2","1","1","0","1","1","0","0","1","1","0","1","1","0","1","0","1","4","4","3","1","3","","3","4","4","3","2","797758262056460290","叶","207","","","","","","","","","","","","","","","","","","","","","","","","","","","","","","feedback_test","","","","","","","","","","","",""
"700","","j","psychophysics","21","124869","0.0-7.0-0.0-1.0-0.0-0.6","3","3","3","4","3","3","3","4","3","3","4","3","2","4","3","4","3","3","4","4","1","2","2","2","2","2","2","2","1","1","0","1","1","0","0","1","1","0","1","1","0","1","0","1","4","4","3","1","3","","3","4","4","3","2","797758262056460290","叶","207","","","","match","","","","","","","","","","","","","","key","j","16.666029411764825","683","380","j","true","match","img/hexagon.png","六边","六边","ALT1_1","prac_ALT1_1","","","","","","","","","","","",""
"null","<span style='color:GreenYellow; font-size: 70px;'>正确! </span>","null","html-keyboard-response","22","125371","0.0-7.0-0.0-1.0-0.0-1.6","3","3","3","4","3","3","3","4","3","3","4","3","2","4","3","4","3","3","4","4","1","2","2","2","2","2","2","2","1","1","0","1","1","0","0","1","1","0","1","1","0","1","0","1","4","4","3","1","3","","3","4","4","3","2","797758262056460290","叶","207","","","","","","","","","","","","","","","","","","","","","","","","","","","","","","feedback_test","","","","","","","","","","","",""
"777","","f","psychophysics","23","127155","0.0-7.0-0.0-1.0-0.0-0.7","3","3","3","4","3","3","3","4","3","3","4","3","2","4","3","4","3","3","4","4","1","2","2","2","2","2","2","2","1","1","0","1","1","0","0","1","1","0","1","1","0","1","0","1","4","4","3","1","3","","3","4","4","3","2","797758262056460290","叶","207","","","","nonmatch","","","","","","","","","","","","","","key","f","16.826371428571292","683","380","f","true","nonmatch","img/triangle.png","六边","三角","ALT1_1","prac_ALT1_1","","","","","","","","","","","",""
"null","<span style='color:GreenYellow; font-size: 70px;'>正确! </span>","null","html-keyboard-response","24","127659","0.0-7.0-0.0-1.0-0.0-1.7","3","3","3","4","3","3","3","4","3","3","4","3","2","4","3","4","3","3","4","4","1","2","2","2","2","2","2","2","1","1","0","1","1","0","0","1","1","0","1","1","0","1","0","1","4","4","3","1","3","","3","4","4","3","2","797758262056460290","叶","207","","","","","","","","","","","","","","","","","","","","","","","","","","","","","","feedback_test","","","","","","","","","","","",""
"688","","j","psychophysics","25","129356","0.0-7.0-0.0-1.0-0.0-0.8","3","3","3","4","3","3","3","4","3","3","4","3","2","4","3","4","3","3","4","4","1","2","2","2","2","2","2","2","1","1","0","1","1","0","0","1","1","0","1","1","0","1","0","1","4","4","3","1","3","","3","4","4","3","2","797758262056460290","叶","207","","","","match","","","","","","","","","","","","","","key","j","16.827390000000015","683","380","j","true","match","img/triangle.png","三角","三角","ALT1_1","prac_ALT1_1","","","","","","","","","","","",""
"null","<span style='color:GreenYellow; font-size: 70px;'>正确! </span>","null","html-keyboard-response","26","129859","0.0-7.0-0.0-1.0-0.0-1.8","3","3","3","4","3","3","3","4","3","3","4","3","2","4","3","4","3","3","4","4","1","2","2","2","2","2","2","2","1","1","0","1","1","0","0","1","1","0","1","1","0","1","0","1","4","4","3","1","3","","3","4","4","3","2","797758262056460290","叶","207","","","","","","","","","","","","","","","","","","","","","","","","","","","","","","feedback_test","","","","","","","","","","","",""
"703","","j","psychophysics","27","131572","0.0-7.0-0.0-1.0-0.0-0.9","3","3","3","4","3","3","3","4","3","3","4","3","2","4","3","4","3","3","4","4","1","2","2","2","2","2","2","2","1","1","0","1","1","0","0","1","1","0","1","1","0","1","0","1","4","4","3","1","3","","3","4","4","3","2","797758262056460290","叶","207","","","","match","","","","","","","","","","","","","","key","j","16.667215686274336","683","380","j","true","match","img/triangle.png","三角","三角","ALT1_1","prac_ALT1_1","","","","","","","","","","","",""
"null","<span style='color:GreenYellow; font-size: 70px;'>正确! </span>","null","html-keyboard-response","28","132075","0.0-7.0-0.0-1.0-0.0-1.9","3","3","3","4","3","3","3","4","3","3","4","3","2","4","3","4","3","3","4","4","1","2","2","2","2","2","2","2","1","1","0","1","1","0","0","1","1","0","1","1","0","1","0","1","4","4","3","1","3","","3","4","4","3","2","797758262056460290","叶","207","","","","","","","","","","","","","","","","","","","","","","","","","","","","","","feedback_test","","","","","","","","","","","",""
"1083","","j","psychophysics","29","134168","0.0-7.0-0.0-1.0-0.0-0.10","3","3","3","4","3","3","3","4","3","3","4","3","2","4","3","4","3","3","4","4","1","2","2","2","2","2","2","2","1","1","0","1","1","0","0","1","1","0","1","1","0","1","0","1","4","4","3","1","3","","3","4","4","3","2","797758262056460290","叶","207","","","","match","","","","","","","","","","","","","","key","j","16.669360000000104","683","380","j","true","match","img/ellipse.png","椭圆","椭圆","ALT1_1","prac_ALT1_1","","","","","","","","","","","",""
"null","<span style='color:GreenYellow; font-size: 70px;'>正确! </span>","null","html-keyboard-response","30","134675","0.0-7.0-0.0-1.0-0.0-1.10","3","3","3","4","3","3","3","4","3","3","4","3","2","4","3","4","3","3","4","4","1","2","2","2","2","2","2","2","1","1","0","1","1","0","0","1","1","0","1","1","0","1","0","1","4","4","3","1","3","","3","4","4","3","2","797758262056460290","叶","207","","","","","","","","","","","","","","","","","","","","","","","","","","","","","","feedback_test","","","","","","","","","","","",""
"718","","j","psychophysics","31","136404","0.0-7.0-0.0-1.0-0.0-0.11","3","3","3","4","3","3","3","4","3","3","4","3","2","4","3","4","3","3","4","4","1","2","2","2","2","2","2","2","1","1","0","1","1","0","0","1","1","0","1","1","0","1","0","1","4","4","3","1","3","","3","4","4","3","2","797758262056460290","叶","207","","","","match","","","","","","","","","","","","","","key","j","16.826490196078392","683","380","j","true","match","img/triangle.png","三角","三角","ALT1_1","prac_ALT1_1","","","","","","","","","","","",""
"null","<span style='color:GreenYellow; font-size: 70px;'>正确! </span>","null","html-keyboard-response","32","136907","0.0-7.0-0.0-1.0-0.0-1.11","3","3","3","4","3","3","3","4","3","3","4","3","2","4","3","4","3","3","4","4","1","2","2","2","2","2","2","2","1","1","0","1","1","0","0","1","1","0","1","1","0","1","0","1","4","4","3","1","3","","3","4","4","3","2","797758262056460290","叶","207","","","","","","","","","","","","","","","","","","","","","","","","","","","","","","feedback_test","","","","","","","","","","","",""
"1005","","f","psychophysics","33","138924","0.0-7.0-0.0-1.0-0.0-0.12","3","3","3","4","3","3","3","4","3","3","4","3","2","4","3","4","3","3","4","4","1","2","2","2","2","2","2","2","1","1","0","1","1","0","0","1","1","0","1","1","0","1","0","1","4","4","3","1","3","","3","4","4","3","2","797758262056460290","叶","207","","","","nonmatch","","","","","","","","","","","","","","key","f","16.665750000000116","683","380","f","true","nonmatch","img/triangle.png","菱形","三角","ALT1_1","prac_ALT1_1","","","","","","","","","","","",""
"null","<span style='color:GreenYellow; font-size: 70px;'>正确! </span>","null","html-keyboard-response","34","139428","0.0-7.0-0.0-1.0-0.0-1.12","3","3","3","4","3","3","3","4","3","3","4","3","2","4","3","4","3","3","4","4","1","2","2","2","2","2","2","2","1","1","0","1","1","0","0","1","1","0","1","1","0","1","0","1","4","4","3","1","3","","3","4","4","3","2","797758262056460290","叶","207","","","","","","","","","","","","","","","","","","","","","","","","","","","","","","feedback_test","","","","","","","","","","","",""
"849","","f","psychophysics","35","141285","0.0-7.0-0.0-1.0-0.0-0.13","3","3","3","4","3","3","3","4","3","3","4","3","2","4","3","4","3","3","4","4","1","2","2","2","2","2","2","2","1","1","0","1","1","0","0","1","1","0","1","1","0","1","0","1","4","4","3","1","3","","3","4","4","3","2","797758262056460290","叶","207","","","","nonmatch","","","","","","","","","","","","","","key","f","16.975146788990802","683","380","f","true","nonmatch","img/hexagon.png","椭圆","六边","ALT1_1","prac_ALT1_1","","","","","","","","","","","",""
"null","<span style='color:GreenYellow; font-size: 70px;'>正确! </span>","null","html-keyboard-response","36","141796","0.0-7.0-0.0-1.0-0.0-1.13","3","3","3","4","3","3","3","4","3","3","4","3","2","4","3","4","3","3","4","4","1","2","2","2","2","2","2","2","1","1","0","1","1","0","0","1","1","0","1","1","0","1","0","1","4","4","3","1","3","","3","4","4","3","2","797758262056460290","叶","207","","","","","","","","","","","","","","","","","","","","","","","","","","","","","","feedback_test","","","","","","","","","","","",""
"972","","j","psychophysics","37","143772","0.0-7.0-0.0-1.0-0.0-0.14","3","3","3","4","3","3","3","4","3","3","4","3","2","4","3","4","3","3","4","4","1","2","2","2","2","2","2","2","1","1","0","1","1","0","0","1","1","0","1","1","0","1","0","1","4","4","3","1","3","","3","4","4","3","2","797758262056460290","叶","207","","","","match","","","","","","","","","","","","","","key","j","16.664198275861995","683","380","j","true","match","img/diamond.png","菱形","菱形","ALT1_1","prac_ALT1_1","","","","","","","","","","","",""
"null","<span style='color:GreenYellow; font-size: 70px;'>正确! </span>","null","html-keyboard-response","38","144275","0.0-7.0-0.0-1.0-0.0-1.14","3","3","3","4","3","3","3","4","3","3","4","3","2","4","3","4","3","3","4","4","1","2","2","2","2","2","2","2","1","1","0","1","1","0","0","1","1","0","1","1","0","1","0","1","4","4","3","1","3","","3","4","4","3","2","797758262056460290","叶","207","","","","","","","","","","","","","","","","","","","","","","","","","","","","","","feedback_test","","","","","","","","","","","",""
"738","","f","psychophysics","39","146020","0.0-7.0-0.0-1.0-0.0-0.15","3","3","3","4","3","3","3","4","3","3","4","3","2","4","3","4","3","3","4","4","1","2","2","2","2","2","2","2","1","1","0","1","1","0","0","1","1","0","1","1","0","1","0","1","4","4","3","1","3","","3","4","4","3","2","797758262056460290","叶","207","","","","nonmatch","","","","","","","","","","","","","","key","f","16.827155339805966","683","380","f","true","nonmatch","img/hexagon.png","三角","六边","ALT1_1","prac_ALT1_1","","","","","","","","","","","",""
"null","<span style='color:GreenYellow; font-size: 70px;'>正确! </span>","null","html-keyboard-response","40","146523","0.0-7.0-0.0-1.0-0.0-1.15","3","3","3","4","3","3","3","4","3","3","4","3","2","4","3","4","3","3","4","4","1","2","2","2","2","2","2","2","1","1","0","1","1","0","0","1","1","0","1","1","0","1","0","1","4","4","3","1","3","","3","4","4","3","2","797758262056460290","叶","207","","","","","","","","","","","","","","","","","","","","","","","","","","","","","","feedback_test","","","","","","","","","","","",""
"669","","j","psychophysics","41","148203","0.0-7.0-0.0-1.0-0.0-0.16","3","3","3","4","3","3","3","4","3","3","4","3","2","4","3","4","3","3","4","4","1","2","2","2","2","2","2","2","1","1","0","1","1","0","0","1","1","0","1","1","0","1","0","1","4","4","3","1","3","","3","4","4","3","2","797758262056460290","叶","207","","","","match","","","","","","","","","","","","","","key","j","17.00942857142856","683","380","j","true","match","img/ellipse.png","椭圆","椭圆","ALT1_1","prac_ALT1_1","","","","","","","","","","","",""
"null","<span style='color:GreenYellow; font-size: 70px;'>正确! </span>","null","html-keyboard-response","42","148707","0.0-7.0-0.0-1.0-0.0-1.16","3","3","3","4","3","3","3","4","3","3","4","3","2","4","3","4","3","3","4","4","1","2","2","2","2","2","2","2","1","1","0","1","1","0","0","1","1","0","1","1","0","1","0","1","4","4","3","1","3","","3","4","4","3","2","797758262056460290","叶","207","","","","","","","","","","","","","","","","","","","","","","","","","","","","","","feedback_test","","","","","","","","","","","",""
"800","","f","psychophysics","43","150518","0.0-7.0-0.0-1.0-0.0-0.17","3","3","3","4","3","3","3","4","3","3","4","3","2","4","3","4","3","3","4","4","1","2","2","2","2","2","2","2","1","1","0","1","1","0","0","1","1","0","1","1","0","1","0","1","4","4","3","1","3","","3","4","4","3","2","797758262056460290","叶","207","","","","nonmatch","","","","","","","","","","","","","","key","f","16.81479439252327","683","380","f","true","nonmatch","img/hexagon.png","菱形","六边","ALT1_1","prac_ALT1_1","","","","","","","","","","","",""
"null","<span style='color:GreenYellow; font-size: 70px;'>正确! </span>","null","html-keyboard-response","44","151027","0.0-7.0-0.0-1.0-0.0-1.17","3","3","3","4","3","3","3","4","3","3","4","3","2","4","3","4","3","3","4","4","1","2","2","2","2","2","2","2","1","1","0","1","1","0","0","1","1","0","1","1","0","1","0","1","4","4","3","1","3","","3","4","4","3","2","797758262056460290","叶","207","","","","","","","","","","","","","","","","","","","","","","","","","","","","","","feedback_test","","","","","","","","","","","",""
"802","","f","psychophysics","45","152835","0.0-7.0-0.0-1.0-0.0-0.18","3","3","3","4","3","3","3","4","3","3","4","3","2","4","3","4","3","3","4","4","1","2","2","2","2","2","2","2","1","1","0","1","1","0","0","1","1","0","1","1","0","1","0","1","4","4","3","1","3","","3","4","4","3","2","797758262056460290","叶","207","","","","nonmatch","","","","","","","","","","","","","","key","f","16.673018867924494","683","380","f","true","nonmatch","img/triangle.png","椭圆","三角","ALT1_1","prac_ALT1_1","","","","","","","","","","","",""
"null","<span style='color:GreenYellow; font-size: 70px;'>正确! </span>","null","html-keyboard-response","46","153339","0.0-7.0-0.0-1.0-0.0-1.18","3","3","3","4","3","3","3","4","3","3","4","3","2","4","3","4","3","3","4","4","1","2","2","2","2","2","2","2","1","1","0","1","1","0","0","1","1","0","1","1","0","1","0","1","4","4","3","1","3","","3","4","4","3","2","797758262056460290","叶","207","","","","","","","","","","","","","","","","","","","","","","","","","","","","","","feedback_test","","","","","","","","","","","",""
"750","","f","psychophysics","47","155100","0.0-7.0-0.0-1.0-0.0-0.19","3","3","3","4","3","3","3","4","3","3","4","3","2","4","3","4","3","3","4","4","1","2","2","2","2","2","2","2","1","1","0","1","1","0","0","1","1","0","1","1","0","1","0","1","4","4","3","1","3","","3","4","4","3","2","797758262056460290","叶","207","","","","nonmatch","","","","","","","","","","","","","","key","f","16.6690285714285","683","380","f","true","nonmatch","img/ellipse.png","三角","椭圆","ALT1_1","prac_ALT1_1","","","","","","","","","","","",""
"null","<span style='color:GreenYellow; font-size: 70px;'>正确! </span>","null","html-keyboard-response","48","155603","0.0-7.0-0.0-1.0-0.0-1.19","3","3","3","4","3","3","3","4","3","3","4","3","2","4","3","4","3","3","4","4","1","2","2","2","2","2","2","2","1","1","0","1","1","0","0","1","1","0","1","1","0","1","0","1","4","4","3","1","3","","3","4","4","3","2","797758262056460290","叶","207","","","","","","","","","","","","","","","","","","","","","","","","","","","","","","feedback_test","","","","","","","","","","","",""
"792","","f","psychophysics","49","157403","0.0-7.0-0.0-1.0-0.0-0.20","3","3","3","4","3","3","3","4","3","3","4","3","2","4","3","4","3","3","4","4","1","2","2","2","2","2","2","2","1","1","0","1","1","0","0","1","1","0","1","1","0","1","0","1","4","4","3","1","3","","3","4","4","3","2","797758262056460290","叶","207","","","","nonmatch","","","","","","","","","","","","","","key","f","16.82983962264168","683","380","f","true","nonmatch","img/diamond.png","椭圆","菱形","ALT1_1","prac_ALT1_1","","","","","","","","","","","",""
"null","<span style='color:GreenYellow; font-size: 70px;'>正确! </span>","null","html-keyboard-response","50","157907","0.0-7.0-0.0-1.0-0.0-1.20","3","3","3","4","3","3","3","4","3","3","4","3","2","4","3","4","3","3","4","4","1","2","2","2","2","2","2","2","1","1","0","1","1","0","0","1","1","0","1","1","0","1","0","1","4","4","3","1","3","","3","4","4","3","2","797758262056460290","叶","207","","","","","","","","","","","","","","","","","","","","","","","","","","","","","","feedback_test","","","","","","","","","","","",""
"895","","f","psychophysics","51","159812","0.0-7.0-0.0-1.0-0.0-0.21","3","3","3","4","3","3","3","4","3","3","4","3","2","4","3","4","3","3","4","4","1","2","2","2","2","2","2","2","1","1","0","1","1","0","0","1","1","0","1","1","0","1","0","1","4","4","3","1","3","","3","4","4","3","2","797758262056460290","叶","207","","","","nonmatch","","","","","","","","","","","","","","key","f","16.961558558558625","683","380","f","true","nonmatch","img/diamond.png","六边","菱形","ALT1_1","prac_ALT1_1","","","","","","","","","","","",""
"null","<span style='color:GreenYellow; font-size: 70px;'>正确! </span>","null","html-keyboard-response","52","160323","0.0-7.0-0.0-1.0-0.0-1.21","3","3","3","4","3","3","3","4","3","3","4","3","2","4","3","4","3","3","4","4","1","2","2","2","2","2","2","2","1","1","0","1","1","0","0","1","1","0","1","1","0","1","0","1","4","4","3","1","3","","3","4","4","3","2","797758262056460290","叶","207","","","","","","","","","","","","","","","","","","","","","","","","","","","","","","feedback_test","","","","","","","","","","","",""
"718","","f","psychophysics","53","162052","0.0-7.0-0.0-1.0-0.0-0.22","3","3","3","4","3","3","3","4","3","3","4","3","2","4","3","4","3","3","4","4","1","2","2","2","2","2","2","2","1","1","0","1","1","0","0","1","1","0","1","1","0","1","0","1","4","4","3","1","3","","3","4","4","3","2","797758262056460290","叶","207","","","","nonmatch","","","","","","","","","","","","","","key","f","16.83299999999986","683","380","f","true","nonmatch","img/ellipse.png","六边","椭圆","ALT1_1","prac_ALT1_1","","","","","","","","","","","",""
"null","<span style='color:GreenYellow; font-size: 70px;'>正确! </span>","null","html-keyboard-response","54","162555","0.0-7.0-0.0-1.0-0.0-1.22","3","3","3","4","3","3","3","4","3","3","4","3","2","4","3","4","3","3","4","4","1","2","2","2","2","2","2","2","1","1","0","1","1","0","0","1","1","0","1","1","0","1","0","1","4","4","3","1","3","","3","4","4","3","2","797758262056460290","叶","207","","","","","","","","","","","","","","","","","","","","","","","","","","","","","","feedback_test","","","","","","","","","","","",""
"990","","j","psychophysics","55","164555","0.0-7.0-0.0-1.0-0.0-0.23","3","3","3","4","3","3","3","4","3","3","4","3","2","4","3","4","3","3","4","4","1","2","2","2","2","2","2","2","1","1","0","1","1","0","0","1","1","0","1","1","0","1","0","1","4","4","3","1","3","","3","4","4","3","2","797758262056460290","叶","207","","","","match","","","","","","","","","","","","","","key","j","16.662777777777887","683","380","j","true","match","img/diamond.png","菱形","菱形","ALT1_1","prac_ALT1_1","","","","","","","","","","","",""
"null","<span style='color:GreenYellow; font-size: 70px;'>正确! </span>","null","html-keyboard-response","56","165060","0.0-7.0-0.0-1.0-0.0-1.23","3","3","3","4","3","3","3","4","3","3","4","3","2","4","3","4","3","3","4","4","1","2","2","2","2","2","2","2","1","1","0","1","1","0","0","1","1","0","1","1","0","1","0","1","4","4","3","1","3","","3","4","4","3","2","797758262056460290","叶","207","","","","","","","","","","","","","","","","","","","","","","","","","","","","","","feedback_test","","","","","","","","","","","",""
"732","","f","psychophysics","57","166799","0.0-7.0-0.0-1.0-0.0-0.24","3","3","3","4","3","3","3","4","3","3","4","3","2","4","3","4","3","3","4","4","1","2","2","2","2","2","2","2","1","1","0","1","1","0","0","1","1","0","1","1","0","1","0","1","4","4","3","1","3","","3","4","4","3","2","797758262056460290","叶","207","","","","nonmatch","","","","","","","","","","","","","","key","f","16.99313725490213","683","380","f","true","nonmatch","img/hexagon.png","菱形","六边","ALT1_1","prac_ALT1_1","","","","","","","","","","","",""
"null","<span style='color:GreenYellow; font-size: 70px;'>正确! </span>","null","html-keyboard-response","58","167308","0.0-7.0-0.0-1.0-0.0-1.24","3","3","3","4","3","3","3","4","3","3","4","3","2","4","3","4","3","3","4","4","1","2","2","2","2","2","2","2","1","1","0","1","1","0","0","1","1","0","1","1","0","1","0","1","4","4","3","1","3","","3","4","4","3","2","797758262056460290","叶","207","","","","","","","","","","","","","","","","","","","","","","","","","","","","","","feedback_test","","","","","","","","","","","",""
"935","","f","psychophysics","59","169251","0.0-7.0-0.0-1.0-0.0-0.25","3","3","3","4","3","3","3","4","3","3","4","3","2","4","3","4","3","3","4","4","1","2","2","2","2","2","2","2","1","1","0","1","1","0","0","1","1","0","1","1","0","1","0","1","4","4","3","1","3","","3","4","4","3","2","797758262056460290","叶","207","","","","nonmatch","","","","","","","","","","","","","","key","f","16.808565217391436","683","380","f","true","nonmatch","img/diamond.png","六边","菱形","ALT1_1","prac_ALT1_1","","","","","","","","","","","",""
"null","<span style='color:GreenYellow; font-size: 70px;'>正确! </span>","null","html-keyboard-response","60","169755","0.0-7.0-0.0-1.0-0.0-1.25","3","3","3","4","3","3","3","4","3","3","4","3","2","4","3","4","3","3","4","4","1","2","2","2","2","2","2","2","1","1","0","1","1","0","0","1","1","0","1","1","0","1","0","1","4","4","3","1","3","","3","4","4","3","2","797758262056460290","叶","207","","","","","","","","","","","","","","","","","","","","","","","","","","","","","","feedback_test","","","","","","","","","","","",""
"770","","j","psychophysics","61","171534","0.0-7.0-0.0-1.0-0.0-0.26","3","3","3","4","3","3","3","4","3","3","4","3","2","4","3","4","3","3","4","4","1","2","2","2","2","2","2","2","1","1","0","1","1","0","0","1","1","0","1","1","0","1","0","1","4","4","3","1","3","","3","4","4","3","2","797758262056460290","叶","207","","","","match","","","","","","","","","","","","","","key","j","16.81498095238099","683","380","j","true","match","img/diamond.png","菱形","菱形","ALT1_1","prac_ALT1_1","","","","","","","","","","","",""
"null","<span style='color:GreenYellow; font-size: 70px;'>正确! </span>","null","html-keyboard-response","62","172043","0.0-7.0-0.0-1.0-0.0-1.26","3","3","3","4","3","3","3","4","3","3","4","3","2","4","3","4","3","3","4","4","1","2","2","2","2","2","2","2","1","1","0","1","1","0","0","1","1","0","1","1","0","1","0","1","4","4","3","1","3","","3","4","4","3","2","797758262056460290","叶","207","","","","","","","","","","","","","","","","","","","","","","","","","","","","","","feedback_test","","","","","","","","","","","",""
"810","","j","psychophysics","63","173859","0.0-7.0-0.0-1.0-0.0-0.27","3","3","3","4","3","3","3","4","3","3","4","3","2","4","3","4","3","3","4","4","1","2","2","2","2","2","2","2","1","1","0","1","1","0","0","1","1","0","1","1","0","1","0","1","4","4","3","1","3","","3","4","4","3","2","797758262056460290","叶","207","","","","match","","","","","","","","","","","","","","key","j","16.82358878504683","683","380","j","true","match","img/hexagon.png","六边","六边","ALT1_1","prac_ALT1_1","","","","","","","","","","","",""
"null","<span style='color:GreenYellow; font-size: 70px;'>正确! </span>","null","html-keyboard-response","64","174363","0.0-7.0-0.0-1.0-0.0-1.27","3","3","3","4","3","3","3","4","3","3","4","3","2","4","3","4","3","3","4","4","1","2","2","2","2","2","2","2","1","1","0","1","1","0","0","1","1","0","1","1","0","1","0","1","4","4","3","1","3","","3","4","4","3","2","797758262056460290","叶","207","","","","","","","","","","","","","","","","","","","","","","","","","","","","","","feedback_test","","","","","","","","","","","",""
"1038","","f","psychophysics","65","176403","0.0-7.0-0.0-1.0-0.0-0.28","3","3","3","4","3","3","3","4","3","3","4","3","2","4","3","4","3","3","4","4","1","2","2","2","2","2","2","2","1","1","0","1","1","0","0","1","1","0","1","1","0","1","0","1","4","4","3","1","3","","3","4","4","3","2","797758262056460290","叶","207","","","","nonmatch","","","","","","","","","","","","","","key","f","16.655710743801535","683","380","f","true","nonmatch","img/triangle.png","菱形","三角","ALT1_1","prac_ALT1_1","","","","","","","","","","","",""
"null","<span style='color:GreenYellow; font-size: 70px;'>正确! </span>","null","html-keyboard-response","66","176907","0.0-7.0-0.0-1.0-0.0-1.28","3","3","3","4","3","3","3","4","3","3","4","3","2","4","3","4","3","3","4","4","1","2","2","2","2","2","2","2","1","1","0","1","1","0","0","1","1","0","1","1","0","1","0","1","4","4","3","1","3","","3","4","4","3","2","797758262056460290","叶","207","","","","","","","","","","","","","","","","","","","","","","","","","","","","","","feedback_test","","","","","","","","","","","",""
"697","","f","psychophysics","67","178614","0.0-7.0-0.0-1.0-0.0-0.29","3","3","3","4","3","3","3","4","3","3","4","3","2","4","3","4","3","3","4","4","1","2","2","2","2","2","2","2","1","1","0","1","1","0","0","1","1","0","1","1","0","1","0","1","4","4","3","1","3","","3","4","4","3","2","797758262056460290","叶","207","","","","nonmatch","","","","","","","","","","","","","","key","f","16.83529999999999","683","380","f","true","nonmatch","img/ellipse.png","三角","椭圆","ALT1_1","prac_ALT1_1","","","","","","","","","","","",""
"null","<span style='color:GreenYellow; font-size: 70px;'>正确! </span>","null","html-keyboard-response","68","179123","0.0-7.0-0.0-1.0-0.0-1.29","3","3","3","4","3","3","3","4","3","3","4","3","2","4","3","4","3","3","4","4","1","2","2","2","2","2","2","2","1","1","0","1","1","0","0","1","1","0","1","1","0","1","0","1","4","4","3","1","3","","3","4","4","3","2","797758262056460290","叶","207","","","","","","","","","","","","","","","","","","","","","","","","","","","","","","feedback_test","","","","","","","","","","","",""
"727","","f","psychophysics","69","180859","0.0-7.0-0.0-1.0-0.0-0.30","3","3","3","4","3","3","3","4","3","3","4","3","2","4","3","4","3","3","4","4","1","2","2","2","2","2","2","2","1","1","0","1","1","0","0","1","1","0","1","1","0","1","0","1","4","4","3","1","3","","3","4","4","3","2","797758262056460290","叶","207","","","","nonmatch","","","","","","","","","","","","","","key","f","16.83260784313732","683","380","f","true","nonmatch","img/ellipse.png","六边","椭圆","ALT1_1","prac_ALT1_1","","","","","","","","","","","",""
"null","<span style='color:GreenYellow; font-size: 70px;'>正确! </span>","null","html-keyboard-response","70","181363","0.0-7.0-0.0-1.0-0.0-1.30","3","3","3","4","3","3","3","4","3","3","4","3","2","4","3","4","3","3","4","4","1","2","2","2","2","2","2","2","1","1","0","1","1","0","0","1","1","0","1","1","0","1","0","1","4","4","3","1","3","","3","4","4","3","2","797758262056460290","叶","207","","","","","","","","","","","","","","","","","","","","","","","","","","","","","","feedback_test","","","","","","","","","","","",""
"864","","f","psychophysics","71","183235","0.0-7.0-0.0-1.0-0.0-0.31","3","3","3","4","3","3","3","4","3","3","4","3","2","4","3","4","3","3","4","4","1","2","2","2","2","2","2","2","1","1","0","1","1","0","0","1","1","0","1","1","0","1","0","1","4","4","3","1","3","","3","4","4","3","2","797758262056460290","叶","207","","","","nonmatch","","","","","","","","","","","","","","key","f","16.667018018017927","683","380","f","true","nonmatch","img/diamond.png","三角","菱形","ALT1_1","prac_ALT1_1","","","","","","","","","","","",""
"null","<span style='color:GreenYellow; font-size: 70px;'>正确! </span>","null","html-keyboard-response","72","183739","0.0-7.0-0.0-1.0-0.0-1.31","3","3","3","4","3","3","3","4","3","3","4","3","2","4","3","4","3","3","4","4","1","2","2","2","2","2","2","2","1","1","0","1","1","0","0","1","1","0","1","1","0","1","0","1","4","4","3","1","3","","3","4","4","3","2","797758262056460290","叶","207","","","","","","","","","","","","","","","","","","","","","","","","","","","","","","feedback_test","","","","","","","","","","","",""
"736","","f","psychophysics","73","185483","0.0-7.0-0.0-1.0-0.0-0.32","3","3","3","4","3","3","3","4","3","3","4","3","2","4","3","4","3","3","4","4","1","2","2","2","2","2","2","2","1","1","0","1","1","0","0","1","1","0","1","1","0","1","0","1","4","4","3","1","3","","3","4","4","3","2","797758262056460290","叶","207","","","","nonmatch","","","","","","","","","","","","","","key","f","16.65952884615371","683","380","f","true","nonmatch","img/triangle.png","椭圆","三角","ALT1_1","prac_ALT1_1","","","","","","","","","","","",""
"null","<span style='color:GreenYellow; font-size: 70px;'>正确! </span>","null","html-keyboard-response","74","185987","0.0-7.0-0.0-1.0-0.0-1.32","3","3","3","4","3","3","3","4","3","3","4","3","2","4","3","4","3","3","4","4","1","2","2","2","2","2","2","2","1","1","0","1","1","0","0","1","1","0","1","1","0","1","0","1","4","4","3","1","3","","3","4","4","3","2","797758262056460290","叶","207","","","","","","","","","","","","","","","","","","","","","","","","","","","","","","feedback_test","","","","","","","","","","","",""
"756","","j","psychophysics","75","187755","0.0-7.0-0.0-1.0-0.0-0.33","3","3","3","4","3","3","3","4","3","3","4","3","2","4","3","4","3","3","4","4","1","2","2","2","2","2","2","2","1","1","0","1","1","0","0","1","1","0","1","1","0","1","0","1","4","4","3","1","3","","3","4","4","3","2","797758262056460290","叶","207","","","","match","","","","","","","","","","","","","","key","j","16.827249999999857","683","380","j","true","match","img/hexagon.png","六边","六边","ALT1_1","prac_ALT1_1","","","","","","","","","","","",""
"null","<span style='color:GreenYellow; font-size: 70px;'>正确! </span>","null","html-keyboard-response","76","188260","0.0-7.0-0.0-1.0-0.0-1.33","3","3","3","4","3","3","3","4","3","3","4","3","2","4","3","4","3","3","4","4","1","2","2","2","2","2","2","2","1","1","0","1","1","0","0","1","1","0","1","1","0","1","0","1","4","4","3","1","3","","3","4","4","3","2","797758262056460290","叶","207","","","","","","","","","","","","","","","","","","","","","","","","","","","","","","feedback_test","","","","","","","","","","","",""
"1012","","j","psychophysics","77","190275","0.0-7.0-0.0-1.0-0.0-0.34","3","3","3","4","3","3","3","4","3","3","4","3","2","4","3","4","3","3","4","4","1","2","2","2","2","2","2","2","1","1","0","1","1","0","0","1","1","0","1","1","0","1","0","1","4","4","3","1","3","","3","4","4","3","2","797758262056460290","叶","207","","","","match","","","","","","","","","","","","","","key","j","16.66629411764722","683","380","j","true","match","img/diamond.png","菱形","菱形","ALT1_1","prac_ALT1_1","","","","","","","","","","","",""
"null","<span style='color:GreenYellow; font-size: 70px;'>正确! </span>","null","html-keyboard-response","78","190780","0.0-7.0-0.0-1.0-0.0-1.34","3","3","3","4","3","3","3","4","3","3","4","3","2","4","3","4","3","3","4","4","1","2","2","2","2","2","2","2","1","1","0","1","1","0","0","1","1","0","1","1","0","1","0","1","4","4","3","1","3","","3","4","4","3","2","797758262056460290","叶","207","","","","","","","","","","","","","","","","","","","","","","","","","","","","","","feedback_test","","","","","","","","","","","",""
"960","","j","psychophysics","79","192749","0.0-7.0-0.0-1.0-0.0-0.35","3","3","3","4","3","3","3","4","3","3","4","3","2","4","3","4","3","3","4","4","1","2","2","2","2","2","2","2","1","1","0","1","1","0","0","1","1","0","1","1","0","1","0","1","4","4","3","1","3","","3","4","4","3","2","797758262056460290","叶","207","","","","match","","","","","","","","","","","","","","key","j","16.81006034482737","683","380","j","true","match","img/diamond.png","菱形","菱形","ALT1_1","prac_ALT1_1","","","","","","","","","","","",""
"null","<span style='color:GreenYellow; font-size: 70px;'>正确! </span>","null","html-keyboard-response","80","193251","0.0-7.0-0.0-1.0-0.0-1.35","3","3","3","4","3","3","3","4","3","3","4","3","2","4","3","4","3","3","4","4","1","2","2","2","2","2","2","2","1","1","0","1","1","0","0","1","1","0","1","1","0","1","0","1","4","4","3","1","3","","3","4","4","3","2","797758262056460290","叶","207","","","","","","","","","","","","","","","","","","","","","","","","","","","","","","feedback_test","","","","","","","","","","","",""
"938","","j","psychophysics","81","195203","0.0-7.0-0.0-1.0-0.0-0.36","3","3","3","4","3","3","3","4","3","3","4","3","2","4","3","4","3","3","4","4","1","2","2","2","2","2","2","2","1","1","0","1","1","0","0","1","1","0","1","1","0","1","0","1","4","4","3","1","3","","3","4","4","3","2","797758262056460290","叶","207","","","","match","","","","","","","","","","","","","","key","j","16.66675862068976","683","380","j","true","match","img/ellipse.png","椭圆","椭圆","ALT1_1","prac_ALT1_1","","","","","","","","","","","",""
"null","<span style='color:GreenYellow; font-size: 70px;'>正确! </span>","null","html-keyboard-response","82","195708","0.0-7.0-0.0-1.0-0.0-1.36","3","3","3","4","3","3","3","4","3","3","4","3","2","4","3","4","3","3","4","4","1","2","2","2","2","2","2","2","1","1","0","1","1","0","0","1","1","0","1","1","0","1","0","1","4","4","3","1","3","","3","4","4","3","2","797758262056460290","叶","207","","","","","","","","","","","","","","","","","","","","","","","","","","","","","","feedback_test","","","","","","","","","","","",""
"956","","f","psychophysics","83","197669","0.0-7.0-0.0-1.0-0.0-0.37","3","3","3","4","3","3","3","4","3","3","4","3","2","4","3","4","3","3","4","4","1","2","2","2","2","2","2","2","1","1","0","1","1","0","0","1","1","0","1","1","0","1","0","1","4","4","3","1","3","","3","4","4","3","2","797758262056460290","叶","207","","","","nonmatch","","","","","","","","","","","","","","key","f","16.81174137931044","683","380","f","true","nonmatch","img/hexagon.png","三角","六边","ALT1_1","prac_ALT1_1","","","","","","","","","","","",""
"null","<span style='color:GreenYellow; font-size: 70px;'>正确! </span>","null","html-keyboard-response","84","198173","0.0-7.0-0.0-1.0-0.0-1.37","3","3","3","4","3","3","3","4","3","3","4","3","2","4","3","4","3","3","4","4","1","2","2","2","2","2","2","2","1","1","0","1","1","0","0","1","1","0","1","1","0","1","0","1","4","4","3","1","3","","3","4","4","3","2","797758262056460290","叶","207","","","","","","","","","","","","","","","","","","","","","","","","","","","","","","feedback_test","","","","","","","","","","","",""
"879","","f","psychophysics","85","200061","0.0-7.0-0.0-1.0-0.0-0.38","3","3","3","4","3","3","3","4","3","3","4","3","2","4","3","4","3","3","4","4","1","2","2","2","2","2","2","2","1","1","0","1","1","0","0","1","1","0","1","1","0","1","0","1","4","4","3","1","3","","3","4","4","3","2","797758262056460290","叶","207","","","","nonmatch","","","","","","","","","","","","","","key","f","16.657535714285718","683","380","f","true","nonmatch","img/diamond.png","椭圆","菱形","ALT1_1","prac_ALT1_1","","","","","","","","","","","",""
"null","<span style='color:GreenYellow; font-size: 70px;'>正确! </span>","null","html-keyboard-response","86","200565","0.0-7.0-0.0-1.0-0.0-1.38","3","3","3","4","3","3","3","4","3","3","4","3","2","4","3","4","3","3","4","4","1","2","2","2","2","2","2","2","1","1","0","1","1","0","0","1","1","0","1","1","0","1","0","1","4","4","3","1","3","","3","4","4","3","2","797758262056460290","叶","207","","","","","","","","","","","","","","","","","","","","","","","","","","","","","","feedback_test","","","","","","","","","","","",""
"761","","f","psychophysics","87","202334","0.0-7.0-0.0-1.0-0.0-0.39","3","3","3","4","3","3","3","4","3","3","4","3","2","4","3","4","3","3","4","4","1","2","2","2","2","2","2","2","1","1","0","1","1","0","0","1","1","0","1","1","0","1","0","1","4","4","3","1","3","","3","4","4","3","2","797758262056460290","叶","207","","","","nonmatch","","","","","","","","","","","","","","key","f","16.67106666666666","683","380","f","true","nonmatch","img/hexagon.png","椭圆","六边","ALT1_1","prac_ALT1_1","","","","","","","","","","","",""
"null","<span style='color:GreenYellow; font-size: 70px;'>正确! </span>","null","html-keyboard-response","88","202837","0.0-7.0-0.0-1.0-0.0-1.39","3","3","3","4","3","3","3","4","3","3","4","3","2","4","3","4","3","3","4","4","1","2","2","2","2","2","2","2","1","1","0","1","1","0","0","1","1","0","1","1","0","1","0","1","4","4","3","1","3","","3","4","4","3","2","797758262056460290","叶","207","","","","","","","","","","","","","","","","","","","","","","","","","","","","","","feedback_test","","","","","","","","","","","",""
"682","","j","psychophysics","89","204534","0.0-7.0-0.0-1.0-0.0-0.40","3","3","3","4","3","3","3","4","3","3","4","3","2","4","3","4","3","3","4","4","1","2","2","2","2","2","2","2","1","1","0","1","1","0","0","1","1","0","1","1","0","1","0","1","4","4","3","1","3","","3","4","4","3","2","797758262056460290","叶","207","","","","match","","","","","","","","","","","","","","key","j","16.67012871287119","683","380","j","true","match","img/ellipse.png","椭圆","椭圆","ALT1_1","prac_ALT1_1","","","","","","","","","","","",""
"null","<span style='color:GreenYellow; font-size: 70px;'>正确! </span>","null","html-keyboard-response","90","205037","0.0-7.0-0.0-1.0-0.0-1.40","3","3","3","4","3","3","3","4","3","3","4","3","2","4","3","4","3","3","4","4","1","2","2","2","2","2","2","2","1","1","0","1","1","0","0","1","1","0","1","1","0","1","0","1","4","4","3","1","3","","3","4","4","3","2","797758262056460290","叶","207","","","","","","","","","","","","","","","","","","","","","","","","","","","","","","feedback_test","","","","","","","","","","","",""
"733","","f","psychophysics","91","206784","0.0-7.0-0.0-1.0-0.0-0.41","3","3","3","4","3","3","3","4","3","3","4","3","2","4","3","4","3","3","4","4","1","2","2","2","2","2","2","2","1","1","0","1","1","0","0","1","1","0","1","1","0","1","0","1","4","4","3","1","3","","3","4","4","3","2","797758262056460290","叶","207","","","","nonmatch","","","","","","","","","","","","","","key","f","16.83298058252447","683","380","f","true","nonmatch","img/triangle.png","六边","三角","ALT1_1","prac_ALT1_1","","","","","","","","","","","",""
"null","<span style='color:GreenYellow; font-size: 70px;'>正确! </span>","null","html-keyboard-response","92","207285","0.0-7.0-0.0-1.0-0.0-1.41","3","3","3","4","3","3","3","4","3","3","4","3","2","4","3","4","3","3","4","4","1","2","2","2","2","2","2","2","1","1","0","1","1","0","0","1","1","0","1","1","0","1","0","1","4","4","3","1","3","","3","4","4","3","2","797758262056460290","叶","207","","","","","","","","","","","","","","","","","","","","","","","","","","","","","","feedback_test","","","","","","","","","","","",""
"743","","j","psychophysics","93","209036","0.0-7.0-0.0-1.0-0.0-0.42","3","3","3","4","3","3","3","4","3","3","4","3","2","4","3","4","3","3","4","4","1","2","2","2","2","2","2","2","1","1","0","1","1","0","0","1","1","0","1","1","0","1","0","1","4","4","3","1","3","","3","4","4","3","2","797758262056460290","叶","207","","","","match","","","","","","","","","","","","","","key","j","16.667971153846267","683","380","j","true","match","img/hexagon.png","六边","六边","ALT1_1","prac_ALT1_1","","","","","","","","","","","",""
"null","<span style='color:GreenYellow; font-size: 70px;'>正确! </span>","null","html-keyboard-response","94","209541","0.0-7.0-0.0-1.0-0.0-1.42","3","3","3","4","3","3","3","4","3","3","4","3","2","4","3","4","3","3","4","4","1","2","2","2","2","2","2","2","1","1","0","1","1","0","0","1","1","0","1","1","0","1","0","1","4","4","3","1","3","","3","4","4","3","2","797758262056460290","叶","207","","","","","","","","","","","","","","","","","","","","","","","","","","","","","","feedback_test","","","","","","","","","","","",""
"903","","j","psychophysics","95","211452","0.0-7.0-0.0-1.0-0.0-0.43","3","3","3","4","3","3","3","4","3","3","4","3","2","4","3","4","3","3","4","4","1","2","2","2","2","2","2","2","1","1","0","1","1","0","0","1","1","0","1","1","0","1","0","1","4","4","3","1","3","","3","4","4","3","2","797758262056460290","叶","207","","","","match","","","","","","","","","","","","","","key","j","16.661675438596593","683","380","j","true","match","img/triangle.png","三角","三角","ALT1_1","prac_ALT1_1","","","","","","","","","","","",""
"null","<span style='color:GreenYellow; font-size: 70px;'>正确! </span>","null","html-keyboard-response","96","211957","0.0-7.0-0.0-1.0-0.0-1.43","3","3","3","4","3","3","3","4","3","3","4","3","2","4","3","4","3","3","4","4","1","2","2","2","2","2","2","2","1","1","0","1","1","0","0","1","1","0","1","1","0","1","0","1","4","4","3","1","3","","3","4","4","3","2","797758262056460290","叶","207","","","","","","","","","","","","","","","","","","","","","","","","","","","","","","feedback_test","","","","","","","","","","","",""
"986","","j","psychophysics","97","213950","0.0-7.0-0.0-1.0-0.0-0.44","3","3","3","4","3","3","3","4","3","3","4","3","2","4","3","4","3","3","4","4","1","2","2","2","2","2","2","2","1","1","0","1","1","0","0","1","1","0","1","1","0","1","0","1","4","4","3","1","3","","3","4","4","3","2","797758262056460290","叶","207","","","","match","","","","","","","","","","","","","","key","j","16.950854700854702","683","380","j","true","match","img/triangle.png","三角","三角","ALT1_1","prac_ALT1_1","","","","","","","","","","","",""
"null","<span style='color:GreenYellow; font-size: 70px;'>正确! </span>","null","html-keyboard-response","98","214453","0.0-7.0-0.0-1.0-0.0-1.44","3","3","3","4","3","3","3","4","3","3","4","3","2","4","3","4","3","3","4","4","1","2","2","2","2","2","2","2","1","1","0","1","1","0","0","1","1","0","1","1","0","1","0","1","4","4","3","1","3","","3","4","4","3","2","797758262056460290","叶","207","","","","","","","","","","","","","","","","","","","","","","","","","","","","","","feedback_test","","","","","","","","","","","",""
"740","","j","psychophysics","99","216205","0.0-7.0-0.0-1.0-0.0-0.45","3","3","3","4","3","3","3","4","3","3","4","3","2","4","3","4","3","3","4","4","1","2","2","2","2","2","2","2","1","1","0","1","1","0","0","1","1","0","1","1","0","1","0","1","4","4","3","1","3","","3","4","4","3","2","797758262056460290","叶","207","","","","match","","","","","","","","","","","","","","key","j","16.82408737864072","683","380","j","true","match","img/triangle.png","三角","三角","ALT1_1","prac_ALT1_1","","","","","","","","","","","",""
"null","<span style='color:GreenYellow; font-size: 70px;'>正确! </span>","null","html-keyboard-response","100","216710","0.0-7.0-0.0-1.0-0.0-1.45","3","3","3","4","3","3","3","4","3","3","4","3","2","4","3","4","3","3","4","4","1","2","2","2","2","2","2","2","1","1","0","1","1","0","0","1","1","0","1","1","0","1","0","1","4","4","3","1","3","","3","4","4","3","2","797758262056460290","叶","207","","","","","","","","","","","","","","","","","","","","","","","","","","","","","","feedback_test","","","","","","","","","","","",""
"689","","j","psychophysics","101","218404","0.0-7.0-0.0-1.0-0.0-0.46","3","3","3","4","3","3","3","4","3","3","4","3","2","4","3","4","3","3","4","4","1","2","2","2","2","2","2","2","1","1","0","1","1","0","0","1","1","0","1","1","0","1","0","1","4","4","3","1","3","","3","4","4","3","2","797758262056460290","叶","207","","","","match","","","","","","","","","","","","","","key","j","16.652960396039536","683","380","j","true","match","img/ellipse.png","椭圆","椭圆","ALT1_1","prac_ALT1_1","","","","","","","","","","","",""
"null","<span style='color:GreenYellow; font-size: 70px;'>正确! </span>","null","html-keyboard-response","102","218910","0.0-7.0-0.0-1.0-0.0-1.46","3","3","3","4","3","3","3","4","3","3","4","3","2","4","3","4","3","3","4","4","1","2","2","2","2","2","2","2","1","1","0","1","1","0","0","1","1","0","1","1","0","1","0","1","4","4","3","1","3","","3","4","4","3","2","797758262056460290","叶","207","","","","","","","","","","","","","","","","","","","","","","","","","","","","","","feedback_test","","","","","","","","","","","",""
"889","","f","psychophysics","103","220804","0.0-7.0-0.0-1.0-0.0-0.47","3","3","3","4","3","3","3","4","3","3","4","3","2","4","3","4","3","3","4","4","1","2","2","2","2","2","2","2","1","1","0","1","1","0","0","1","1","0","1","1","0","1","0","1","4","4","3","1","3","","3","4","4","3","2","797758262056460290","叶","207","","","","nonmatch","","","","","","","","","","","","","","key","f","16.817783783783828","683","380","f","true","nonmatch","img/ellipse.png","菱形","椭圆","ALT1_1","prac_ALT1_1","","","","","","","","","","","",""
"null","<span style='color:GreenYellow; font-size: 70px;'>正确! </span>","null","html-keyboard-response","104","221310","0.0-7.0-0.0-1.0-0.0-1.47","3","3","3","4","3","3","3","4","3","3","4","3","2","4","3","4","3","3","4","4","1","2","2","2","2","2","2","2","1","1","0","1","1","0","0","1","1","0","1","1","0","1","0","1","4","4","3","1","3","","3","4","4","3","2","797758262056460290","叶","207","","","","","","","","","","","","","","","","","","","","","","","","","","","","","","feedback_test","","","","","","","","","","","",""
"1534","<style>.context{color:white; font-size: 35px; line-height:40px}</style>                            <div><p class='context'>您正确回答了96% 的试次。</p><p class='context'>您的平均反应时为822毫秒。</p><p class='context'>恭喜您完成练习。按空格键进入正式实验。</p><p class='footer' style='font-size: 35px; line-height:40px;'>请在进入正式实验之前将您的<span style='color: lightgreen;'>食指</span>放在电脑键盘的相应键位上进行按键。</p>"," ","html-keyboard-response","105","222852","0.0-7.0-0.0-2.0","3","3","3","4","3","3","3","4","3","3","4","3","2","4","3","4","3","3","4","4","1","2","2","2","2","2","2","2","1","1","0","1","1","0","0","1","1","0","1","1","0","1","0","1","4","4","3","1","3","","3","4","4","3","2","797758262056460290","叶","207","","","","","","","","","","","","","","","","","","","","","","","","","","","","","","","","","","","","","","","","","",""
"488","
    <p style='color: white; font-size: 22px'>请您将手指放在按键上，准备进入正式的匹配任务。</p>
    <p> <div style = ""color: green""><按空格键进入下一阶段的匹配任务></div></p>
    "," ","html-keyboard-response","106","223348","0.0-7.0-0.0-3.0","3","3","3","4","3","3","3","4","3","3","4","3","2","4","3","4","3","3","4","4","1","2","2","2","2","2","2","2","1","1","0","1","1","0","0","1","1","0","1","1","0","1","0","1","4","4","3","1","3","","3","4","4","3","2","797758262056460290","叶","207","","","","","","","","","","","","","","","","","","","","","","","","","","","","","","","","","","","","","","","","","",""
"1048","","j","psychophysics","107","225404","0.0-7.0-0.0-4.0-0.0-0.0","3","3","3","4","3","3","3","4","3","3","4","3","2","4","3","4","3","3","4","4","1","2","2","2","2","2","2","2","1","1","0","1","1","0","0","1","1","0","1","1","0","1","0","1","4","4","3","1","3","","3","4","4","3","2","797758262056460290","叶","207","","","","match","","","","","","","","","","","","","","key","j","16.666540983606552","683","380","j","true","match","img/diamond.png","菱形","菱形","ALT1","formal_ALT1_1","","","","","","","","","","","",""
"null","<span style='color:GreenYellow; font-size: 70px;'>正确! </span>","null","html-keyboard-response","108","225909","0.0-7.0-0.0-4.0-0.0-1.0","3","3","3","4","3","3","3","4","3","3","4","3","2","4","3","4","3","3","4","4","1","2","2","2","2","2","2","2","1","1","0","1","1","0","0","1","1","0","1","1","0","1","0","1","4","4","3","1","3","","3","4","4","3","2","797758262056460290","叶","207","","","","","","","","","","","","","","","","","","","","","","","","","","","","","","feedback_test","","","","","","","","","","","",""
"771","","j","psychophysics","109","227684","0.0-7.0-0.0-4.0-0.0-0.1","3","3","3","4","3","3","3","4","3","3","4","3","2","4","3","4","3","3","4","4","1","2","2","2","2","2","2","2","1","1","0","1","1","0","0","1","1","0","1","1","0","1","0","1","4","4","3","1","3","","3","4","4","3","2","797758262056460290","叶","207","","","","match","","","","","","","","","","","","","","key","j","16.832932692307693","683","380","j","true","match","img/ellipse.png","椭圆","椭圆","ALT1","formal_ALT1_1","","","","","","","","","","","",""
"null","<span style='color:GreenYellow; font-size: 70px;'>正确! </span>","null","html-keyboard-response","110","228189","0.0-7.0-0.0-4.0-0.0-1.1","3","3","3","4","3","3","3","4","3","3","4","3","2","4","3","4","3","3","4","4","1","2","2","2","2","2","2","2","1","1","0","1","1","0","0","1","1","0","1","1","0","1","0","1","4","4","3","1","3","","3","4","4","3","2","797758262056460290","叶","207","","","","","","","","","","","","","","","","","","","","","","","","","","","","","","feedback_test","","","","","","","","","","","",""
"767","","f","psychophysics","111","229965","0.0-7.0-0.0-4.0-0.0-0.2","3","3","3","4","3","3","3","4","3","3","4","3","2","4","3","4","3","3","4","4","1","2","2","2","2","2","2","2","1","1","0","1","1","0","0","1","1","0","1","1","0","1","0","1","4","4","3","1","3","","3","4","4","3","2","797758262056460290","叶","207","","","","nonmatch","","","","","","","","","","","","","","key","f","16.660783018867697","683","380","f","true","nonmatch","img/hexagon.png","三角","六边","ALT1","formal_ALT1_1","","","","","","","","","","","",""
"null","<span style='color:GreenYellow; font-size: 70px;'>正确! </span>","null","html-keyboard-response","112","230469","0.0-7.0-0.0-4.0-0.0-1.2","3","3","3","4","3","3","3","4","3","3","4","3","2","4","3","4","3","3","4","4","1","2","2","2","2","2","2","2","1","1","0","1","1","0","0","1","1","0","1","1","0","1","0","1","4","4","3","1","3","","3","4","4","3","2","797758262056460290","叶","207","","","","","","","","","","","","","","","","","","","","","","","","","","","","","","feedback_test","","","","","","","","","","","",""
"863","","j","psychophysics","113","232340","0.0-7.0-0.0-4.0-0.0-0.3","3","3","3","4","3","3","3","4","3","3","4","3","2","4","3","4","3","3","4","4","1","2","2","2","2","2","2","2","1","1","0","1","1","0","0","1","1","0","1","1","0","1","0","1","4","4","3","1","3","","3","4","4","3","2","797758262056460290","叶","207","","","","match","","","","","","","","","","","","","","key","j","16.813009090909194","683","380","j","true","match","img/ellipse.png","椭圆","椭圆","ALT1","formal_ALT1_1","","","","","","","","","","","",""
"null","<span style='color:GreenYellow; font-size: 70px;'>正确! </span>","null","html-keyboard-response","114","232845","0.0-7.0-0.0-4.0-0.0-1.3","3","3","3","4","3","3","3","4","3","3","4","3","2","4","3","4","3","3","4","4","1","2","2","2","2","2","2","2","1","1","0","1","1","0","0","1","1","0","1","1","0","1","0","1","4","4","3","1","3","","3","4","4","3","2","797758262056460290","叶","207","","","","","","","","","","","","","","","","","","","","","","","","","","","","","","feedback_test","","","","","","","","","","","",""
"783","","j","psychophysics","115","234636","0.0-7.0-0.0-4.0-0.0-0.4","3","3","3","4","3","3","3","4","3","3","4","3","2","4","3","4","3","3","4","4","1","2","2","2","2","2","2","2","1","1","0","1","1","0","0","1","1","0","1","1","0","1","0","1","4","4","3","1","3","","3","4","4","3","2","797758262056460290","叶","207","","","","match","","","","","","","","","","","","","","key","j","16.82109523809548","683","380","j","true","match","img/triangle.png","三角","三角","ALT1","formal_ALT1_1","","","","","","","","","","","",""
"null","<span style='color:GreenYellow; font-size: 70px;'>正确! </span>","null","html-keyboard-response","116","235141","0.0-7.0-0.0-4.0-0.0-1.4","3","3","3","4","3","3","3","4","3","3","4","3","2","4","3","4","3","3","4","4","1","2","2","2","2","2","2","2","1","1","0","1","1","0","0","1","1","0","1","1","0","1","0","1","4","4","3","1","3","","3","4","4","3","2","797758262056460290","叶","207","","","","","","","","","","","","","","","","","","","","","","","","","","","","","","feedback_test","","","","","","","","","","","",""
"701","","j","psychophysics","117","236847","0.0-7.0-0.0-4.0-0.0-0.5","3","3","3","4","3","3","3","4","3","3","4","3","2","4","3","4","3","3","4","4","1","2","2","2","2","2","2","2","1","1","0","1","1","0","0","1","1","0","1","1","0","1","0","1","4","4","3","1","3","","3","4","4","3","2","797758262056460290","叶","207","","","","match","","","","","","","","","","","","","","key","j","16.838269999999902","683","380","j","true","match","img/ellipse.png","椭圆","椭圆","ALT1","formal_ALT1_1","","","","","","","","","","","",""
"null","<span style='color:GreenYellow; font-size: 70px;'>正确! </span>","null","html-keyboard-response","118","237349","0.0-7.0-0.0-4.0-0.0-1.5","3","3","3","4","3","3","3","4","3","3","4","3","2","4","3","4","3","3","4","4","1","2","2","2","2","2","2","2","1","1","0","1","1","0","0","1","1","0","1","1","0","1","0","1","4","4","3","1","3","","3","4","4","3","2","797758262056460290","叶","207","","","","","","","","","","","","","","","","","","","","","","","","","","","","","","feedback_test","","","","","","","","","","","",""
"807","","j","psychophysics","119","239164","0.0-7.0-0.0-4.0-0.0-0.6","3","3","3","4","3","3","3","4","3","3","4","3","2","4","3","4","3","3","4","4","1","2","2","2","2","2","2","2","1","1","0","1","1","0","0","1","1","0","1","1","0","1","0","1","4","4","3","1","3","","3","4","4","3","2","797758262056460290","叶","207","","","","match","","","","","","","","","","","","","","key","j","16.667592592592648","683","380","j","true","match","img/triangle.png","三角","三角","ALT1","formal_ALT1_1","","","","","","","","","","","",""
"null","<span style='color:GreenYellow; font-size: 70px;'>正确! </span>","null","html-keyboard-response","120","239669","0.0-7.0-0.0-4.0-0.0-1.6","3","3","3","4","3","3","3","4","3","3","4","3","2","4","3","4","3","3","4","4","1","2","2","2","2","2","2","2","1","1","0","1","1","0","0","1","1","0","1","1","0","1","0","1","4","4","3","1","3","","3","4","4","3","2","797758262056460290","叶","207","","","","","","","","","","","","","","","","","","","","","","","","","","","","","","feedback_test","","","","","","","","","","","",""
"766","","f","psychophysics","121","241446","0.0-7.0-0.0-4.0-0.0-0.7","3","3","3","4","3","3","3","4","3","3","4","3","2","4","3","4","3","3","4","4","1","2","2","2","2","2","2","2","1","1","0","1","1","0","0","1","1","0","1","1","0","1","0","1","4","4","3","1","3","","3","4","4","3","2","797758262056460290","叶","207","","","","nonmatch","","","","","","","","","","","","","","key","f","16.830076190476152","683","380","f","true","nonmatch","img/ellipse.png","三角","椭圆","ALT1","formal_ALT1_1","","","","","","","","","","","",""
"null","<span style='color:GreenYellow; font-size: 70px;'>正确! </span>","null","html-keyboard-response","122","241949","0.0-7.0-0.0-4.0-0.0-1.7","3","3","3","4","3","3","3","4","3","3","4","3","2","4","3","4","3","3","4","4","1","2","2","2","2","2","2","2","1","1","0","1","1","0","0","1","1","0","1","1","0","1","0","1","4","4","3","1","3","","3","4","4","3","2","797758262056460290","叶","207","","","","","","","","","","","","","","","","","","","","","","","","","","","","","","feedback_test","","","","","","","","","","","",""
"759","","f","psychophysics","123","243716","0.0-7.0-0.0-4.0-0.0-0.8","3","3","3","4","3","3","3","4","3","3","4","3","2","4","3","4","3","3","4","4","1","2","2","2","2","2","2","2","1","1","0","1","1","0","0","1","1","0","1","1","0","1","0","1","4","4","3","1","3","","3","4","4","3","2","797758262056460290","叶","207","","","","nonmatch","","","","","","","","","","","","","","key","f","16.669951456310724","683","380","j","false","match","img/hexagon.png","六边","六边","ALT1","formal_ALT1_1","","","","","","","","","","","",""
"null","<span style='color:red; font-size: 70px;'>错误! </span>","null","html-keyboard-response","124","244222","0.0-7.0-0.0-4.0-0.0-1.8","3","3","3","4","3","3","3","4","3","3","4","3","2","4","3","4","3","3","4","4","1","2","2","2","2","2","2","2","1","1","0","1","1","0","0","1","1","0","1","1","0","1","0","1","4","4","3","1","3","","3","4","4","3","2","797758262056460290","叶","207","","","","","","","","","","","","","","","","","","","","","","","","","","","","","","feedback_test","","","","","","","","","","","",""
"745","","f","psychophysics","125","245972","0.0-7.0-0.0-4.0-0.0-0.9","3","3","3","4","3","3","3","4","3","3","4","3","2","4","3","4","3","3","4","4","1","2","2","2","2","2","2","2","1","1","0","1","1","0","0","1","1","0","1","1","0","1","0","1","4","4","3","1","3","","3","4","4","3","2","797758262056460290","叶","207","","","","nonmatch","","","","","","","","","","","","","","key","f","16.660817307692362","683","380","f","true","nonmatch","img/diamond.png","椭圆","菱形","ALT1","formal_ALT1_1","","","","","","","","","","","",""
"null","<span style='color:GreenYellow; font-size: 70px;'>正确! </span>","null","html-keyboard-response","126","246478","0.0-7.0-0.0-4.0-0.0-1.9","3","3","3","4","3","3","3","4","3","3","4","3","2","4","3","4","3","3","4","4","1","2","2","2","2","2","2","2","1","1","0","1","1","0","0","1","1","0","1","1","0","1","0","1","4","4","3","1","3","","3","4","4","3","2","797758262056460290","叶","207","","","","","","","","","","","","","","","","","","","","","","","","","","","","","","feedback_test","","","","","","","","","","","",""
"854","","j","psychophysics","127","248340","0.0-7.0-0.0-4.0-0.0-0.10","3","3","3","4","3","3","3","4","3","3","4","3","2","4","3","4","3","3","4","4","1","2","2","2","2","2","2","2","1","1","0","1","1","0","0","1","1","0","1","1","0","1","0","1","4","4","3","1","3","","3","4","4","3","2","797758262056460290","叶","207","","","","match","","","","","","","","","","","","","","key","j","16.65800000000008","683","380","j","true","match","img/diamond.png","菱形","菱形","ALT1","formal_ALT1_1","","","","","","","","","","","",""
"null","<span style='color:GreenYellow; font-size: 70px;'>正确! </span>","null","html-keyboard-response","128","248846","0.0-7.0-0.0-4.0-0.0-1.10","3","3","3","4","3","3","3","4","3","3","4","3","2","4","3","4","3","3","4","4","1","2","2","2","2","2","2","2","1","1","0","1","1","0","0","1","1","0","1","1","0","1","0","1","4","4","3","1","3","","3","4","4","3","2","797758262056460290","叶","207","","","","","","","","","","","","","","","","","","","","","","","","","","","","","","feedback_test","","","","","","","","","","","",""
"719","","f","psychophysics","129","250572","0.0-7.0-0.0-4.0-0.0-0.11","3","3","3","4","3","3","3","4","3","3","4","3","2","4","3","4","3","3","4","4","1","2","2","2","2","2","2","2","1","1","0","1","1","0","0","1","1","0","1","1","0","1","0","1","4","4","3","1","3","","3","4","4","3","2","797758262056460290","叶","207","","","","nonmatch","","","","","","","","","","","","","","key","f","16.657909999999973","683","380","f","true","nonmatch","img/ellipse.png","菱形","椭圆","ALT1","formal_ALT1_1","","","","","","","","","","","",""
"null","<span style='color:GreenYellow; font-size: 70px;'>正确! </span>","null","html-keyboard-response","130","251077","0.0-7.0-0.0-4.0-0.0-1.11","3","3","3","4","3","3","3","4","3","3","4","3","2","4","3","4","3","3","4","4","1","2","2","2","2","2","2","2","1","1","0","1","1","0","0","1","1","0","1","1","0","1","0","1","4","4","3","1","3","","3","4","4","3","2","797758262056460290","叶","207","","","","","","","","","","","","","","","","","","","","","","","","","","","","","","feedback_test","","","","","","","","","","","",""
"709","","f","psychophysics","131","252788","0.0-7.0-0.0-4.0-0.0-0.12","3","3","3","4","3","3","3","4","3","3","4","3","2","4","3","4","3","3","4","4","1","2","2","2","2","2","2","2","1","1","0","1","1","0","0","1","1","0","1","1","0","1","0","1","4","4","3","1","3","","3","4","4","3","2","797758262056460290","叶","207","","","","nonmatch","","","","","","","","","","","","","","key","f","16.669346534653386","683","380","f","true","nonmatch","img/hexagon.png","椭圆","六边","ALT1","formal_ALT1_1","","","","","","","","","","","",""
"null","<span style='color:GreenYellow; font-size: 70px;'>正确! </span>","null","html-keyboard-response","132","253293","0.0-7.0-0.0-4.0-0.0-1.12","3","3","3","4","3","3","3","4","3","3","4","3","2","4","3","4","3","3","4","4","1","2","2","2","2","2","2","2","1","1","0","1","1","0","0","1","1","0","1","1","0","1","0","1","4","4","3","1","3","","3","4","4","3","2","797758262056460290","叶","207","","","","","","","","","","","","","","","","","","","","","","","","","","","","","","feedback_test","","","","","","","","","","","",""
"919","","f","psychophysics","133","255219","0.0-7.0-0.0-4.0-0.0-0.13","3","3","3","4","3","3","3","4","3","3","4","3","2","4","3","4","3","3","4","4","1","2","2","2","2","2","2","2","1","1","0","1","1","0","0","1","1","0","1","1","0","1","0","1","4","4","3","1","3","","3","4","4","3","2","797758262056460290","叶","207","","","","nonmatch","","","","","","","","","","","","","","key","f","16.67478947368427","683","380","f","true","nonmatch","img/diamond.png","三角","菱形","ALT1","formal_ALT1_1","","","","","","","","","","","",""
"null","<span style='color:GreenYellow; font-size: 70px;'>正确! </span>","null","html-keyboard-response","134","255725","0.0-7.0-0.0-4.0-0.0-1.13","3","3","3","4","3","3","3","4","3","3","4","3","2","4","3","4","3","3","4","4","1","2","2","2","2","2","2","2","1","1","0","1","1","0","0","1","1","0","1","1","0","1","0","1","4","4","3","1","3","","3","4","4","3","2","797758262056460290","叶","207","","","","","","","","","","","","","","","","","","","","","","","","","","","","","","feedback_test","","","","","","","","","","","",""
"852","","f","psychophysics","135","257581","0.0-7.0-0.0-4.0-0.0-0.14","3","3","3","4","3","3","3","4","3","3","4","3","2","4","3","4","3","3","4","4","1","2","2","2","2","2","2","2","1","1","0","1","1","0","0","1","1","0","1","1","0","1","0","1","4","4","3","1","3","","3","4","4","3","2","797758262056460290","叶","207","","","","nonmatch","","","","","","","","","","","","","","key","f","16.820495412844114","683","380","f","true","nonmatch","img/ellipse.png","六边","椭圆","ALT1","formal_ALT1_1","","","","","","","","","","","",""
"null","<span style='color:GreenYellow; font-size: 70px;'>正确! </span>","null","html-keyboard-response","136","258086","0.0-7.0-0.0-4.0-0.0-1.14","3","3","3","4","3","3","3","4","3","3","4","3","2","4","3","4","3","3","4","4","1","2","2","2","2","2","2","2","1","1","0","1","1","0","0","1","1","0","1","1","0","1","0","1","4","4","3","1","3","","3","4","4","3","2","797758262056460290","叶","207","","","","","","","","","","","","","","","","","","","","","","","","","","","","","","feedback_test","","","","","","","","","","","",""
"908","","f","psychophysics","137","260005","0.0-7.0-0.0-4.0-0.0-0.15","3","3","3","4","3","3","3","4","3","3","4","3","2","4","3","4","3","3","4","4","1","2","2","2","2","2","2","2","1","1","0","1","1","0","0","1","1","0","1","1","0","1","0","1","4","4","3","1","3","","3","4","4","3","2","797758262056460290","叶","207","","","","nonmatch","","","","","","","","","","","","","","key","f","16.804646017699014","683","380","f","true","nonmatch","img/triangle.png","菱形","三角","ALT1","formal_ALT1_1","","","","","","","","","","","",""
"null","<span style='color:GreenYellow; font-size: 70px;'>正确! </span>","null","html-keyboard-response","138","260510","0.0-7.0-0.0-4.0-0.0-1.15","3","3","3","4","3","3","3","4","3","3","4","3","2","4","3","4","3","3","4","4","1","2","2","2","2","2","2","2","1","1","0","1","1","0","0","1","1","0","1","1","0","1","0","1","4","4","3","1","3","","3","4","4","3","2","797758262056460290","叶","207","","","","","","","","","","","","","","","","","","","","","","","","","","","","","","feedback_test","","","","","","","","","","","",""
"728","","f","psychophysics","139","262247","0.0-7.0-0.0-4.0-0.0-0.16","3","3","3","4","3","3","3","4","3","3","4","3","2","4","3","4","3","3","4","4","1","2","2","2","2","2","2","2","1","1","0","1","1","0","0","1","1","0","1","1","0","1","0","1","4","4","3","1","3","","3","4","4","3","2","797758262056460290","叶","207","","","","nonmatch","","","","","","","","","","","","","","key","f","16.829372549019798","683","380","f","true","nonmatch","img/triangle.png","六边","三角","ALT1","formal_ALT1_1","","","","","","","","","","","",""
"null","<span style='color:GreenYellow; font-size: 70px;'>正确! </span>","null","html-keyboard-response","140","262750","0.0-7.0-0.0-4.0-0.0-1.16","3","3","3","4","3","3","3","4","3","3","4","3","2","4","3","4","3","3","4","4","1","2","2","2","2","2","2","2","1","1","0","1","1","0","0","1","1","0","1","1","0","1","0","1","4","4","3","1","3","","3","4","4","3","2","797758262056460290","叶","207","","","","","","","","","","","","","","","","","","","","","","","","","","","","","","feedback_test","","","","","","","","","","","",""
"765","","f","psychophysics","141","264524","0.0-7.0-0.0-4.0-0.0-0.17","3","3","3","4","3","3","3","4","3","3","4","3","2","4","3","4","3","3","4","4","1","2","2","2","2","2","2","2","1","1","0","1","1","0","0","1","1","0","1","1","0","1","0","1","4","4","3","1","3","","3","4","4","3","2","797758262056460290","叶","207","","","","nonmatch","","","","","","","","","","","","","","key","f","16.65743809523826","683","380","f","true","nonmatch","img/triangle.png","椭圆","三角","ALT1","formal_ALT1_1","","","","","","","","","","","",""
"null","<span style='color:GreenYellow; font-size: 70px;'>正确! </span>","null","html-keyboard-response","142","265031","0.0-7.0-0.0-4.0-0.0-1.17","3","3","3","4","3","3","3","4","3","3","4","3","2","4","3","4","3","3","4","4","1","2","2","2","2","2","2","2","1","1","0","1","1","0","0","1","1","0","1","1","0","1","0","1","4","4","3","1","3","","3","4","4","3","2","797758262056460290","叶","207","","","","","","","","","","","","","","","","","","","","","","","","","","","","","","feedback_test","","","","","","","","","","","",""
"782","","j","psychophysics","143","266821","0.0-7.0-0.0-4.0-0.0-0.18","3","3","3","4","3","3","3","4","3","3","4","3","2","4","3","4","3","3","4","4","1","2","2","2","2","2","2","2","1","1","0","1","1","0","0","1","1","0","1","1","0","1","0","1","4","4","3","1","3","","3","4","4","3","2","797758262056460290","叶","207","","","","match","","","","","","","","","","","","","","key","j","16.668367924528386","683","380","j","true","match","img/hexagon.png","六边","六边","ALT1","formal_ALT1_1","","","","","","","","","","","",""
"null","<span style='color:GreenYellow; font-size: 70px;'>正确! </span>","null","html-keyboard-response","144","267327","0.0-7.0-0.0-4.0-0.0-1.18","3","3","3","4","3","3","3","4","3","3","4","3","2","4","3","4","3","3","4","4","1","2","2","2","2","2","2","2","1","1","0","1","1","0","0","1","1","0","1","1","0","1","0","1","4","4","3","1","3","","3","4","4","3","2","797758262056460290","叶","207","","","","","","","","","","","","","","","","","","","","","","","","","","","","","","feedback_test","","","","","","","","","","","",""
"854","","f","psychophysics","145","269189","0.0-7.0-0.0-4.0-0.0-0.19","3","3","3","4","3","3","3","4","3","3","4","3","2","4","3","4","3","3","4","4","1","2","2","2","2","2","2","2","1","1","0","1","1","0","0","1","1","0","1","1","0","1","0","1","4","4","3","1","3","","3","4","4","3","2","797758262056460290","叶","207","","","","nonmatch","","","","","","","","","","","","","","key","f","16.667799999999858","683","380","f","true","nonmatch","img/diamond.png","六边","菱形","ALT1","formal_ALT1_1","","","","","","","","","","","",""
"null","<span style='color:GreenYellow; font-size: 70px;'>正确! </span>","null","html-keyboard-response","146","269695","0.0-7.0-0.0-4.0-0.0-1.19","3","3","3","4","3","3","3","4","3","3","4","3","2","4","3","4","3","3","4","4","1","2","2","2","2","2","2","2","1","1","0","1","1","0","0","1","1","0","1","1","0","1","0","1","4","4","3","1","3","","3","4","4","3","2","797758262056460290","叶","207","","","","","","","","","","","","","","","","","","","","","","","","","","","","","","feedback_test","","","","","","","","","","","",""
"886","","j","psychophysics","147","271589","0.0-7.0-0.0-4.0-0.0-0.20","3","3","3","4","3","3","3","4","3","3","4","3","2","4","3","4","3","3","4","4","1","2","2","2","2","2","2","2","1","1","0","1","1","0","0","1","1","0","1","1","0","1","0","1","4","4","3","1","3","","3","4","4","3","2","797758262056460290","叶","207","","","","match","","","","","","","","","","","","","","key","j","16.66754545454539","683","380","j","true","match","img/hexagon.png","六边","六边","ALT1","formal_ALT1_1","","","","","","","","","","","",""
"null","<span style='color:GreenYellow; font-size: 70px;'>正确! </span>","null","html-keyboard-response","148","272095","0.0-7.0-0.0-4.0-0.0-1.20","3","3","3","4","3","3","3","4","3","3","4","3","2","4","3","4","3","3","4","4","1","2","2","2","2","2","2","2","1","1","0","1","1","0","0","1","1","0","1","1","0","1","0","1","4","4","3","1","3","","3","4","4","3","2","797758262056460290","叶","207","","","","","","","","","","","","","","","","","","","","","","","","","","","","","","feedback_test","","","","","","","","","","","",""
"966","","f","psychophysics","149","274069","0.0-7.0-0.0-4.0-0.0-0.21","3","3","3","4","3","3","3","4","3","3","4","3","2","4","3","4","3","3","4","4","1","2","2","2","2","2","2","2","1","1","0","1","1","0","0","1","1","0","1","1","0","1","0","1","4","4","3","1","3","","3","4","4","3","2","797758262056460290","叶","207","","","","nonmatch","","","","","","","","","","","","","","key","f","16.799741379310504","683","380","f","true","nonmatch","img/hexagon.png","菱形","六边","ALT1","formal_ALT1_1","","","","","","","","","","","",""
"null","<span style='color:GreenYellow; font-size: 70px;'>正确! </span>","null","html-keyboard-response","150","274575","0.0-7.0-0.0-4.0-0.0-1.21","3","3","3","4","3","3","3","4","3","3","4","3","2","4","3","4","3","3","4","4","1","2","2","2","2","2","2","2","1","1","0","1","1","0","0","1","1","0","1","1","0","1","0","1","4","4","3","1","3","","3","4","4","3","2","797758262056460290","叶","207","","","","","","","","","","","","","","","","","","","","","","","","","","","","","","feedback_test","","","","","","","","","","","",""
"892","","j","psychophysics","151","276469","0.0-7.0-0.0-4.0-0.0-0.22","3","3","3","4","3","3","3","4","3","3","4","3","2","4","3","4","3","3","4","4","1","2","2","2","2","2","2","2","1","1","0","1","1","0","0","1","1","0","1","1","0","1","0","1","4","4","3","1","3","","3","4","4","3","2","797758262056460290","叶","207","","","","match","","","","","","","","","","","","","","key","j","16.669027272727213","683","380","j","true","match","img/diamond.png","菱形","菱形","ALT1","formal_ALT1_1","","","","","","","","","","","",""
"null","<span style='color:GreenYellow; font-size: 70px;'>正确! </span>","null","html-keyboard-response","152","276975","0.0-7.0-0.0-4.0-0.0-1.22","3","3","3","4","3","3","3","4","3","3","4","3","2","4","3","4","3","3","4","4","1","2","2","2","2","2","2","2","1","1","0","1","1","0","0","1","1","0","1","1","0","1","0","1","4","4","3","1","3","","3","4","4","3","2","797758262056460290","叶","207","","","","","","","","","","","","","","","","","","","","","","","","","","","","","","feedback_test","","","","","","","","","","","",""
"956","","j","psychophysics","153","278934","0.0-7.0-0.0-4.0-0.0-0.23","3","3","3","4","3","3","3","4","3","3","4","3","2","4","3","4","3","3","4","4","1","2","2","2","2","2","2","2","1","1","0","1","1","0","0","1","1","0","1","1","0","1","0","1","4","4","3","1","3","","3","4","4","3","2","797758262056460290","叶","207","","","","match","","","","","","","","","","","","","","key","j","16.810721739129992","683","380","j","true","match","img/triangle.png","三角","三角","ALT1","formal_ALT1_1","","","","","","","","","","","",""
"null","<span style='color:GreenYellow; font-size: 70px;'>正确! </span>","null","html-keyboard-response","154","279438","0.0-7.0-0.0-4.0-0.0-1.23","3","3","3","4","3","3","3","4","3","3","4","3","2","4","3","4","3","3","4","4","1","2","2","2","2","2","2","2","1","1","0","1","1","0","0","1","1","0","1","1","0","1","0","1","4","4","3","1","3","","3","4","4","3","2","797758262056460290","叶","207","","","","","","","","","","","","","","","","","","","","","","","","","","","","","","feedback_test","","","","","","","","","","","",""
"1006","","j","psychophysics","155","281452","0.0-7.0-0.0-4.0-0.0-0.24","3","3","3","4","3","3","3","4","3","3","4","3","2","4","3","4","3","3","4","4","1","2","2","2","2","2","2","2","1","1","0","1","1","0","0","1","1","0","1","1","0","1","0","1","4","4","3","1","3","","3","4","4","3","2","797758262056460290","叶","207","","","","match","","","","","","","","","","","","","","key","j","16.949915254237506","683","380","j","true","match","img/diamond.png","菱形","菱形","ALT1","formal_ALT1_1","","","","","","","","","","","",""
"null","<span style='color:GreenYellow; font-size: 70px;'>正确! </span>","null","html-keyboard-response","156","281958","0.0-7.0-0.0-4.0-0.0-1.24","3","3","3","4","3","3","3","4","3","3","4","3","2","4","3","4","3","3","4","4","1","2","2","2","2","2","2","2","1","1","0","1","1","0","0","1","1","0","1","1","0","1","0","1","4","4","3","1","3","","3","4","4","3","2","797758262056460290","叶","207","","","","","","","","","","","","","","","","","","","","","","","","","","","","","","feedback_test","","","","","","","","","","","",""
"723","","f","psychophysics","157","283684","0.0-7.0-0.0-4.0-0.0-0.25","3","3","3","4","3","3","3","4","3","3","4","3","2","4","3","4","3","3","4","4","1","2","2","2","2","2","2","2","1","1","0","1","1","0","0","1","1","0","1","1","0","1","0","1","4","4","3","1","3","","3","4","4","3","2","797758262056460290","叶","207","","","","nonmatch","","","","","","","","","","","","","","key","f","16.82623762376249","683","380","j","false","match","img/hexagon.png","六边","六边","ALT1","formal_ALT1_1","","","","","","","","","","","",""
"null","<span style='color:red; font-size: 70px;'>错误! </span>","null","html-keyboard-response","158","284190","0.0-7.0-0.0-4.0-0.0-1.25","3","3","3","4","3","3","3","4","3","3","4","3","2","4","3","4","3","3","4","4","1","2","2","2","2","2","2","2","1","1","0","1","1","0","0","1","1","0","1","1","0","1","0","1","4","4","3","1","3","","3","4","4","3","2","797758262056460290","叶","207","","","","","","","","","","","","","","","","","","","","","","","","","","","","","","feedback_test","","","","","","","","","","","",""
"762","","j","psychophysics","159","285956","0.0-7.0-0.0-4.0-0.0-0.26","3","3","3","4","3","3","3","4","3","3","4","3","2","4","3","4","3","3","4","4","1","2","2","2","2","2","2","2","1","1","0","1","1","0","0","1","1","0","1","1","0","1","0","1","4","4","3","1","3","","3","4","4","3","2","797758262056460290","叶","207","","","","match","","","","","","","","","","","","","","key","j","16.661923076922765","683","380","j","true","match","img/ellipse.png","椭圆","椭圆","ALT1","formal_ALT1_1","","","","","","","","","","","",""
"null","<span style='color:GreenYellow; font-size: 70px;'>正确! </span>","null","html-keyboard-response","160","286462","0.0-7.0-0.0-4.0-0.0-1.26","3","3","3","4","3","3","3","4","3","3","4","3","2","4","3","4","3","3","4","4","1","2","2","2","2","2","2","2","1","1","0","1","1","0","0","1","1","0","1","1","0","1","0","1","4","4","3","1","3","","3","4","4","3","2","797758262056460290","叶","207","","","","","","","","","","","","","","","","","","","","","","","","","","","","","","feedback_test","","","","","","","","","","","",""
"702","","f","psychophysics","161","288172","0.0-7.0-0.0-4.0-0.0-0.27","3","3","3","4","3","3","3","4","3","3","4","3","2","4","3","4","3","3","4","4","1","2","2","2","2","2","2","2","1","1","0","1","1","0","0","1","1","0","1","1","0","1","0","1","4","4","3","1","3","","3","4","4","3","2","797758262056460290","叶","207","","","","nonmatch","","","","","","","","","","","","","","key","f","16.65739603960393","683","380","f","true","nonmatch","img/triangle.png","六边","三角","ALT1","formal_ALT1_1","","","","","","","","","","","",""
"null","<span style='color:GreenYellow; font-size: 70px;'>正确! </span>","null","html-keyboard-response","162","288678","0.0-7.0-0.0-4.0-0.0-1.27","3","3","3","4","3","3","3","4","3","3","4","3","2","4","3","4","3","3","4","4","1","2","2","2","2","2","2","2","1","1","0","1","1","0","0","1","1","0","1","1","0","1","0","1","4","4","3","1","3","","3","4","4","3","2","797758262056460290","叶","207","","","","","","","","","","","","","","","","","","","","","","","","","","","","","","feedback_test","","","","","","","","","","","",""
"966","","j","psychophysics","163","290652","0.0-7.0-0.0-4.0-0.0-0.28","3","3","3","4","3","3","3","4","3","3","4","3","2","4","3","4","3","3","4","4","1","2","2","2","2","2","2","2","1","1","0","1","1","0","0","1","1","0","1","1","0","1","0","1","4","4","3","1","3","","3","4","4","3","2","797758262056460290","叶","207","","","","match","","","","","","","","","","","","","","key","j","16.79931896551741","683","380","f","false","nonmatch","img/hexagon.png","菱形","六边","ALT1","formal_ALT1_1","","","","","","","","","","","",""
"null","<span style='color:red; font-size: 70px;'>错误! </span>","null","html-keyboard-response","164","291158","0.0-7.0-0.0-4.0-0.0-1.28","3","3","3","4","3","3","3","4","3","3","4","3","2","4","3","4","3","3","4","4","1","2","2","2","2","2","2","2","1","1","0","1","1","0","0","1","1","0","1","1","0","1","0","1","4","4","3","1","3","","3","4","4","3","2","797758262056460290","叶","207","","","","","","","","","","","","","","","","","","","","","","","","","","","","","","feedback_test","","","","","","","","","","","",""
"803","","f","psychophysics","165","292964","0.0-7.0-0.0-4.0-0.0-0.29","3","3","3","4","3","3","3","4","3","3","4","3","2","4","3","4","3","3","4","4","1","2","2","2","2","2","2","2","1","1","0","1","1","0","0","1","1","0","1","1","0","1","0","1","4","4","3","1","3","","3","4","4","3","2","797758262056460290","叶","207","","","","nonmatch","","","","","","","","","","","","","","key","f","16.672961904761557","683","380","f","true","nonmatch","img/diamond.png","六边","菱形","ALT1","formal_ALT1_1","","","","","","","","","","","",""
"null","<span style='color:GreenYellow; font-size: 70px;'>正确! </span>","null","html-keyboard-response","166","293471","0.0-7.0-0.0-4.0-0.0-1.29","3","3","3","4","3","3","3","4","3","3","4","3","2","4","3","4","3","3","4","4","1","2","2","2","2","2","2","2","1","1","0","1","1","0","0","1","1","0","1","1","0","1","0","1","4","4","3","1","3","","3","4","4","3","2","797758262056460290","叶","207","","","","","","","","","","","","","","","","","","","","","","","","","","","","","","feedback_test","","","","","","","","","","","",""
"752","","f","psychophysics","167","295229","0.0-7.0-0.0-4.0-0.0-0.30","3","3","3","4","3","3","3","4","3","3","4","3","2","4","3","4","3","3","4","4","1","2","2","2","2","2","2","2","1","1","0","1","1","0","0","1","1","0","1","1","0","1","0","1","4","4","3","1","3","","3","4","4","3","2","797758262056460290","叶","207","","","","nonmatch","","","","","","","","","","","","","","key","f","16.6604476190477","683","380","f","true","nonmatch","img/hexagon.png","椭圆","六边","ALT1","formal_ALT1_1","","","","","","","","","","","",""
"null","<span style='color:GreenYellow; font-size: 70px;'>正确! </span>","null","html-keyboard-response","168","295732","0.0-7.0-0.0-4.0-0.0-1.30","3","3","3","4","3","3","3","4","3","3","4","3","2","4","3","4","3","3","4","4","1","2","2","2","2","2","2","2","1","1","0","1","1","0","0","1","1","0","1","1","0","1","0","1","4","4","3","1","3","","3","4","4","3","2","797758262056460290","叶","207","","","","","","","","","","","","","","","","","","","","","","","","","","","","","","feedback_test","","","","","","","","","","","",""
"820","","j","psychophysics","169","297564","0.0-7.0-0.0-4.0-0.0-0.31","3","3","3","4","3","3","3","4","3","3","4","3","2","4","3","4","3","3","4","4","1","2","2","2","2","2","2","2","1","1","0","1","1","0","0","1","1","0","1","1","0","1","0","1","4","4","3","1","3","","3","4","4","3","2","797758262056460290","叶","207","","","","match","","","","","","","","","","","","","","key","j","16.806333333333086","683","380","j","true","match","img/triangle.png","三角","三角","ALT1","formal_ALT1_1","","","","","","","","","","","",""
"null","<span style='color:GreenYellow; font-size: 70px;'>正确! </span>","null","html-keyboard-response","170","298071","0.0-7.0-0.0-4.0-0.0-1.31","3","3","3","4","3","3","3","4","3","3","4","3","2","4","3","4","3","3","4","4","1","2","2","2","2","2","2","2","1","1","0","1","1","0","0","1","1","0","1","1","0","1","0","1","4","4","3","1","3","","3","4","4","3","2","797758262056460290","叶","207","","","","","","","","","","","","","","","","","","","","","","","","","","","","","","feedback_test","","","","","","","","","","","",""
"714","","j","psychophysics","171","299788","0.0-7.0-0.0-4.0-0.0-0.32","3","3","3","4","3","3","3","4","3","3","4","3","2","4","3","4","3","3","4","4","1","2","2","2","2","2","2","2","1","1","0","1","1","0","0","1","1","0","1","1","0","1","0","1","4","4","3","1","3","","3","4","4","3","2","797758262056460290","叶","207","","","","match","","","","","","","","","","","","","","key","j","16.828752475247217","683","380","j","true","match","img/triangle.png","三角","三角","ALT1","formal_ALT1_1","","","","","","","","","","","",""
"null","<span style='color:GreenYellow; font-size: 70px;'>正确! </span>","null","html-keyboard-response","172","300295","0.0-7.0-0.0-4.0-0.0-1.32","3","3","3","4","3","3","3","4","3","3","4","3","2","4","3","4","3","3","4","4","1","2","2","2","2","2","2","2","1","1","0","1","1","0","0","1","1","0","1","1","0","1","0","1","4","4","3","1","3","","3","4","4","3","2","797758262056460290","叶","207","","","","","","","","","","","","","","","","","","","","","","","","","","","","","","feedback_test","","","","","","","","","","","",""
"765","","j","psychophysics","173","302068","0.0-7.0-0.0-4.0-0.0-0.33","3","3","3","4","3","3","3","4","3","3","4","3","2","4","3","4","3","3","4","4","1","2","2","2","2","2","2","2","1","1","0","1","1","0","0","1","1","0","1","1","0","1","0","1","4","4","3","1","3","","3","4","4","3","2","797758262056460290","叶","207","","","","match","","","","","","","","","","","","","","key","j","16.667238095238073","683","380","j","true","match","img/diamond.png","菱形","菱形","ALT1","formal_ALT1_1","","","","","","","","","","","",""
"null","<span style='color:GreenYellow; font-size: 70px;'>正确! </span>","null","html-keyboard-response","174","302575","0.0-7.0-0.0-4.0-0.0-1.33","3","3","3","4","3","3","3","4","3","3","4","3","2","4","3","4","3","3","4","4","1","2","2","2","2","2","2","2","1","1","0","1","1","0","0","1","1","0","1","1","0","1","0","1","4","4","3","1","3","","3","4","4","3","2","797758262056460290","叶","207","","","","","","","","","","","","","","","","","","","","","","","","","","","","","","feedback_test","","","","","","","","","","","",""
"690","","f","psychophysics","175","304268","0.0-7.0-0.0-4.0-0.0-0.34","3","3","3","4","3","3","3","4","3","3","4","3","2","4","3","4","3","3","4","4","1","2","2","2","2","2","2","2","1","1","0","1","1","0","0","1","1","0","1","1","0","1","0","1","4","4","3","1","3","","3","4","4","3","2","797758262056460290","叶","207","","","","nonmatch","","","","","","","","","","","","","","key","f","16.664870000000228","683","380","j","false","match","img/triangle.png","三角","三角","ALT1","formal_ALT1_1","","","","","","","","","","","",""
"null","<span style='color:red; font-size: 70px;'>错误! </span>","null","html-keyboard-response","176","304774","0.0-7.0-0.0-4.0-0.0-1.34","3","3","3","4","3","3","3","4","3","3","4","3","2","4","3","4","3","3","4","4","1","2","2","2","2","2","2","2","1","1","0","1","1","0","0","1","1","0","1","1","0","1","0","1","4","4","3","1","3","","3","4","4","3","2","797758262056460290","叶","207","","","","","","","","","","","","","","","","","","","","","","","","","","","","","","feedback_test","","","","","","","","","","","",""
"711","","f","psychophysics","177","306493","0.0-7.0-0.0-4.0-0.0-0.35","3","3","3","4","3","3","3","4","3","3","4","3","2","4","3","4","3","3","4","4","1","2","2","2","2","2","2","2","1","1","0","1","1","0","0","1","1","0","1","1","0","1","0","1","4","4","3","1","3","","3","4","4","3","2","797758262056460290","叶","207","","","","nonmatch","","","","","","","","","","","","","","key","f","16.834970297029653","683","380","f","true","nonmatch","img/diamond.png","椭圆","菱形","ALT1","formal_ALT1_1","","","","","","","","","","","",""
"null","<span style='color:GreenYellow; font-size: 70px;'>正确! </span>","null","html-keyboard-response","178","306998","0.0-7.0-0.0-4.0-0.0-1.35","3","3","3","4","3","3","3","4","3","3","4","3","2","4","3","4","3","3","4","4","1","2","2","2","2","2","2","2","1","1","0","1","1","0","0","1","1","0","1","1","0","1","0","1","4","4","3","1","3","","3","4","4","3","2","797758262056460290","叶","207","","","","","","","","","","","","","","","","","","","","","","","","","","","","","","feedback_test","","","","","","","","","","","",""
"826","","f","psychophysics","179","308835","0.0-7.0-0.0-4.0-0.0-0.36","3","3","3","4","3","3","3","4","3","3","4","3","2","4","3","4","3","3","4","4","1","2","2","2","2","2","2","2","1","1","0","1","1","0","0","1","1","0","1","1","0","1","0","1","4","4","3","1","3","","3","4","4","3","2","797758262056460290","叶","207","","","","nonmatch","","","","","","","","","","","","","","key","f","16.667037383177227","683","380","f","true","nonmatch","img/ellipse.png","三角","椭圆","ALT1","formal_ALT1_1","","","","","","","","","","","",""
"null","<span style='color:GreenYellow; font-size: 70px;'>正确! </span>","null","html-keyboard-response","180","309342","0.0-7.0-0.0-4.0-0.0-1.36","3","3","3","4","3","3","3","4","3","3","4","3","2","4","3","4","3","3","4","4","1","2","2","2","2","2","2","2","1","1","0","1","1","0","0","1","1","0","1","1","0","1","0","1","4","4","3","1","3","","3","4","4","3","2","797758262056460290","叶","207","","","","","","","","","","","","","","","","","","","","","","","","","","","","","","feedback_test","","","","","","","","","","","",""
"759","","j","psychophysics","181","311109","0.0-7.0-0.0-4.0-0.0-0.37","3","3","3","4","3","3","3","4","3","3","4","3","2","4","3","4","3","3","4","4","1","2","2","2","2","2","2","2","1","1","0","1","1","0","0","1","1","0","1","1","0","1","0","1","4","4","3","1","3","","3","4","4","3","2","797758262056460290","叶","207","","","","match","","","","","","","","","","","","","","key","j","16.658723809524062","683","380","j","true","match","img/diamond.png","菱形","菱形","ALT1","formal_ALT1_1","","","","","","","","","","","",""
