"rt","stimulus","response","trial_type","trial_index","time_elapsed","internal_node_id","ses_1","ses_2","ses_3","ses_4","ses_5","ses_6","ses_7","ses_8","ses_9","ses_10","coreself_1","coreself_2","coreself_3","coreself_4","coreself_5","coreself_6","coreself_7","coreself_8","coreself_9","coreself_10","SGPS_1","SGPS_2","SGPS_3","SGPS_4","SGPS_5","SGPS_6","SGPS_7","SGPS_8","SGPS_9","NPI1","NPI2","NPI3","NPI4","NPI5","NPI6","NPI7","NPI8","NPI9","NPI10","NPI11","NPI12","NPI13","NPI14","NPI15","hsns_1","hsns_2","hsns_3","hsns_4","hsns_5","trap1","hsns_6","hsns_7","hsns_8","hsns_9","hsns_10","subj_idx","friend_name","ParticipantID","value","success","user_agent","responses","item_order","radio_event_ids","radio_event_times","key_event_times","mouse_event_times","straightlining","zigzagging","honeypot","timeout","failed_images","failed_audio","failed_video","view_history","response_type","key_press","avg_frame_time","center_x","center_y","correct_response","correct","identity","Image","word","condition","task_id","screen_id","time_stamp","version_attrib","version_target","IAT","RT","varname","summary","version_attrib2","version_target2","question_order","correct_answer","trap1_item"
"34435","
   <p><div style = ""color: white;font-size:25px;"">您好，欢迎参加本次实验。</div> </p>
   <p><div style = ""color: white;font-size:25px;"">为充分保障您的权利，请确保您已经知晓并同意《参与实验同意书》以及《数据公开知情同意书》。</div></p>
   <p><div style = ""color: white;font-size:25px;"">如果您未见过上述内容，请咨询实验员。</div></p>
   <p><div style = ""color: white;font-size:25px;"">如果您选择继续实验，则表示您已经清楚两份知情同意书的内容并同意。</div></p>
   <p><div style = ""color: pink;font-size:30px;"">请确保您记得day0的实验编号，您将在本次实验输入该编号，若您忘记，请咨询实验员后作答。</div></p>
   <p><div style = ""color: lightblue;font-size:25px;"">请您尽可能认真地作答，我们将依据您在各问卷和按键任务中的作答质量发放报酬。</div></p>
   <p> <div style = ""color: green;font-size:25px;""><按空格键至下页></div> </p>
   "," ","html-keyboard-response","0","34439","0.0-0.0","3","3","4","3","4","3","3","2","3","3","3","4","2","4","3","4","2","2","4","4","4","4","4","4","4","4","4","4","4","1","0","0","1","0","0","1","1","0","1","1","0","0","0","1","5","5","4","2","5","3","4","4","4","3","1","678265376743620608","王","533","","","","","","","","","","","","","","","","","","","","","","","","","","","","","","","","","","","","","","","","","",""
"","","","call-function","1","34442","0.0-1.0-0.0","3","3","4","3","4","3","3","2","3","3","3","4","2","4","3","4","2","2","4","4","4","4","4","4","4","4","4","4","4","1","0","0","1","0","0","1","1","0","1","1","0","0","0","1","5","5","4","2","5","3","4","4","4","3","1","678265376743620608","王","533","","","","","","","","","","","","","","","","","","","","","","","","","","","","","","","","","","","","","","","","","",""
"23125","","{""friend_name"":""王"",""ParticipantID"":""533""}","survey-html-form","2","57570","0.0-1.0-1.0","3","3","4","3","4","3","3","2","3","3","3","4","2","4","3","4","2","2","4","4","4","4","4","4","4","4","4","4","4","1","0","0","1","0","0","1","1","0","1","1","0","0","0","1","5","5","4","2","5","3","4","4","4","3","1","678265376743620608","王","533","","","","","","","","","","","","","","","","","","","","","","","","","","","","","","","","","","","","","","","","","",""
"","","","fullscreen","3","107535","0.0-2.0","3","3","4","3","4","3","3","2","3","3","3","4","2","4","3","4","2","2","4","4","4","4","4","4","4","4","4","4","4","1","0","0","1","0","0","1","1","0","1","1","0","0","0","1","5","5","4","2","5","3","4","4","4","3","1","678265376743620608","王","533","","true","{}","","","","","","","","","","","","","","","","","","","","","","","","","","","","","","","","","","","","","","",""
"52835.40000003576","","{""Q01"":""3"",""Q02"":""3"",""Q03"":""4"",""Q04"":""3"",""Q05"":""4"",""Q06"":""3"",""Q07"":""3"",""Q08"":""2"",""Q09"":""3"",""Q10"":""3""}","survey-template","4","160373","0.0-3.0","3","3","4","3","4","3","3","2","3","3","3","4","2","4","3","4","2","2","4","4","4","4","4","4","4","4","4","4","4","1","0","0","1","0","0","1","1","0","1","1","0","0","0","1","5","5","4","2","5","3","4","4","4","3","1","678265376743620608","王","533","","","","{""Q01"":""3"",""Q02"":""3"",""Q03"":""4"",""Q04"":""3"",""Q05"":""4"",""Q06"":""3"",""Q07"":""3"",""Q08"":""2"",""Q09"":""3"",""Q10"":""3""}","[0,1,2,3,4,5,6,7,8,9]","[""Q01"",""Q02"",""Q03"",""Q04"",""Q05"",""Q05"",""Q06"",""Q07"",""Q08"",""Q09"",""Q10""]","[6807.800000011921,10639.5,15455.800000011921,18297.200000047684,21775.900000035763,27519.400000035763,32375.600000023842,35183.90000003576,42407.700000047684,47375.5,50551.700000047684]","[]","[6807.800000011921,10639.5,15455.800000011921,18297.200000047684,21775.900000035763,27519.400000035763,32375.600000023842,35183.90000003576,42407.700000047684,47375.5,50551.700000047684,52834]","0.6","0.1111111111111111","0","","","","","","","","","","","","","","","","","","","","","","","","","","","","","",""
"59481.5","","{""Q01"":""3"",""Q02"":""4"",""Q03"":""2"",""Q04"":""4"",""Q05"":""3"",""Q06"":""4"",""Q07"":""2"",""Q08"":""2"",""Q09"":""4"",""Q10"":""4""}","survey-template","5","219861","0.0-4.0","3","3","4","3","4","3","3","2","3","3","3","4","2","4","3","4","2","2","4","4","4","4","4","4","4","4","4","4","4","1","0","0","1","0","0","1","1","0","1","1","0","0","0","1","5","5","4","2","5","3","4","4","4","3","1","678265376743620608","王","533","","","","{""Q01"":""3"",""Q02"":""4"",""Q03"":""2"",""Q04"":""4"",""Q05"":""3"",""Q06"":""4"",""Q07"":""2"",""Q08"":""2"",""Q09"":""4"",""Q10"":""4""}","[0,1,2,3,4,5,6,7,8,9]","[""Q01"",""Q02"",""Q03"",""Q04"",""Q05"",""Q06"",""Q07"",""Q08"",""Q09"",""Q10""]","[13567.700000047684,18549.80000001192,23462.30000001192,28230.200000047684,32766.100000023842,35294.30000001192,43726.200000047684,51550.30000001192,54886.200000047684,57854.40000003576]","[]","[13567.700000047684,18549.80000001192,23462.30000001192,28230.200000047684,32766.100000023842,35294.30000001192,43726.200000047684,51550.30000001192,54886.200000047684,57854.40000003576,59479.90000003576]","0.6","0.3333333333333333","0","","","","","","","","","","","","","","","","","","","","","","","","","","","","","",""
"","","","preload","6","220372","0.0-5.0","3","3","4","3","4","3","3","2","3","3","3","4","2","4","3","4","2","2","4","4","4","4","4","4","4","4","4","4","4","1","0","0","1","0","0","1","1","0","1","1","0","0","0","1","5","5","4","2","5","3","4","4","4","3","1","678265376743620608","王","533","","true","","","","","","","","","","","false","[]","[]","[]","","","","","","","","","","","","","","","","","","","","","","","","","",""
"29076","","","instructions","7","249449","0.0-6.0","3","3","4","3","4","3","3","2","3","3","3","4","2","4","3","4","2","2","4","4","4","4","4","4","4","4","4","4","4","1","0","0","1","0","0","1","1","0","1","1","0","0","0","1","5","5","4","2","5","3","4","4","4","3","1","678265376743620608","王","533","","","","","","","","","","","","","","","","","[{""page_index"":0,""viewing_time"":29076}]","","","","","","","","","","","","","","","","","","","","","","","","",""
"133485","","","instructions","8","382936","0.0-7.0-0.0-0.0","3","3","4","3","4","3","3","2","3","3","3","4","2","4","3","4","2","2","4","4","4","4","4","4","4","4","4","4","4","1","0","0","1","0","0","1","1","0","1","1","0","0","0","1","5","5","4","2","5","3","4","4","4","3","1","678265376743620608","王","533","","","","","","","","","","","","","","","","","[{""page_index"":0,""viewing_time"":107214},{""page_index"":1,""viewing_time"":19855},{""page_index"":2,""viewing_time"":6415}]","","","","","","","","","","","","","","","","","","","","","","","","",""
"null","","null","psychophysics","9","385147","0.0-7.0-0.0-1.0-0.0-0.0","3","3","4","3","4","3","3","2","3","3","3","4","2","4","3","4","2","2","4","4","4","4","4","4","4","4","4","4","4","1","0","0","1","0","0","1","1","0","1","1","0","0","0","1","5","5","4","2","5","3","4","4","4","3","1","678265376743620608","王","533","","","","null","","","","","","","","","","","","","","key","null","16.663358778626133","581.2120876189673","322.7272540741398","f","false","nonmatch","img/circle.png","六边","圆形","ALT1_1","prac_ALT1_1","","","","","","","","","","","",""
"null","<span class='add_' style='color:yellow; font-size: 70px;'> 太慢! </span>","null","html-keyboard-response","10","385650","0.0-7.0-0.0-1.0-0.0-1.0","3","3","4","3","4","3","3","2","3","3","3","4","2","4","3","4","2","2","4","4","4","4","4","4","4","4","4","4","4","1","0","0","1","0","0","1","1","0","1","1","0","0","0","1","5","5","4","2","5","3","4","4","4","3","1","678265376743620608","王","533","","","","","","","","","","","","","","","","","","","","","","","","","","","","","","feedback_test","","","","","","","","","","","",""
"997","","j","psychophysics","11","387652","0.0-7.0-0.0-1.0-0.0-0.1","3","3","4","3","4","3","3","2","3","3","3","4","2","4","3","4","2","2","4","4","4","4","4","4","4","4","4","4","4","1","0","0","1","0","0","1","1","0","1","1","0","0","0","1","5","5","4","2","5","3","4","4","4","3","1","678265376743620608","王","533","","","","match","","","","","","","","","","","","","","key","j","16.65882352941196","581.2120876189673","322.7272540741398","f","false","nonmatch","img/square.png","六边","方形","ALT1_1","prac_ALT1_1","","","","","","","","","","","",""
"null","<span style='color:red; font-size: 70px;'>错误! </span>","null","html-keyboard-response","12","388156","0.0-7.0-0.0-1.0-0.0-1.1","3","3","4","3","4","3","3","2","3","3","3","4","2","4","3","4","2","2","4","4","4","4","4","4","4","4","4","4","4","1","0","0","1","0","0","1","1","0","1","1","0","0","0","1","5","5","4","2","5","3","4","4","4","3","1","678265376743620608","王","533","","","","","","","","","","","","","","","","","","","","","","","","","","","","","","feedback_test","","","","","","","","","","","",""
"528","","j","psychophysics","13","389688","0.0-7.0-0.0-1.0-0.0-0.2","3","3","4","3","4","3","3","2","3","3","3","4","2","4","3","4","2","2","4","4","4","4","4","4","4","4","4","4","4","1","0","0","1","0","0","1","1","0","1","1","0","0","0","1","5","5","4","2","5","3","4","4","4","3","1","678265376743620608","王","533","","","","match","","","","","","","","","","","","","","key","j","16.66373626373588","581.2120876189673","322.7272540741398","f","false","nonmatch","img/square.png","梯形","方形","ALT1_1","prac_ALT1_1","","","","","","","","","","","",""
"null","<span style='color:red; font-size: 70px;'>错误! </span>","null","html-keyboard-response","14","390189","0.0-7.0-0.0-1.0-0.0-1.2","3","3","4","3","4","3","3","2","3","3","3","4","2","4","3","4","2","2","4","4","4","4","4","4","4","4","4","4","4","1","0","0","1","0","0","1","1","0","1","1","0","0","0","1","5","5","4","2","5","3","4","4","4","3","1","678265376743620608","王","533","","","","","","","","","","","","","","","","","","","","","","","","","","","","","","feedback_test","","","","","","","","","","","",""
"506","","f","psychophysics","15","391697","0.0-7.0-0.0-1.0-0.0-0.3","3","3","4","3","4","3","3","2","3","3","3","4","2","4","3","4","2","2","4","4","4","4","4","4","4","4","4","4","4","1","0","0","1","0","0","1","1","0","1","1","0","0","0","1","5","5","4","2","5","3","4","4","4","3","1","678265376743620608","王","533","","","","nonmatch","","","","","","","","","","","","","","key","f","16.665168539325972","581.2120876189673","322.7272540741398","j","false","match","img/trapezoid.png","梯形","梯形","ALT1_1","prac_ALT1_1","","","","","","","","","","","",""
"null","<span style='color:red; font-size: 70px;'>错误! </span>","null","html-keyboard-response","16","392200","0.0-7.0-0.0-1.0-0.0-1.3","3","3","4","3","4","3","3","2","3","3","3","4","2","4","3","4","2","2","4","4","4","4","4","4","4","4","4","4","4","1","0","0","1","0","0","1","1","0","1","1","0","0","0","1","5","5","4","2","5","3","4","4","4","3","1","678265376743620608","王","533","","","","","","","","","","","","","","","","","","","","","","","","","","","","","","feedback_test","","","","","","","","","","","",""
"800","","f","psychophysics","17","394004","0.0-7.0-0.0-1.0-0.0-0.4","3","3","4","3","4","3","3","2","3","3","3","4","2","4","3","4","2","2","4","4","4","4","4","4","4","4","4","4","4","1","0","0","1","0","0","1","1","0","1","1","0","0","0","1","5","5","4","2","5","3","4","4","4","3","1","678265376743620608","王","533","","","","nonmatch","","","","","","","","","","","","","","key","f","16.6588785046729","581.2120876189673","322.7272540741398","f","true","nonmatch","img/hexagon.png","圆形","六边","ALT1_1","prac_ALT1_1","","","","","","","","","","","",""
"null","<span style='color:GreenYellow; font-size: 70px;'>正确! </span>","null","html-keyboard-response","18","394505","0.0-7.0-0.0-1.0-0.0-1.4","3","3","4","3","4","3","3","2","3","3","3","4","2","4","3","4","2","2","4","4","4","4","4","4","4","4","4","4","4","1","0","0","1","0","0","1","1","0","1","1","0","0","0","1","5","5","4","2","5","3","4","4","4","3","1","678265376743620608","王","533","","","","","","","","","","","","","","","","","","","","","","","","","","","","","","feedback_test","","","","","","","","","","","",""
"1013","","f","psychophysics","19","396522","0.0-7.0-0.0-1.0-0.0-0.5","3","3","4","3","4","3","3","2","3","3","3","4","2","4","3","4","2","2","4","4","4","4","4","4","4","4","4","4","4","1","0","0","1","0","0","1","1","0","1","1","0","0","0","1","5","5","4","2","5","3","4","4","4","3","1","678265376743620608","王","533","","","","nonmatch","","","","","","","","","","","","","","key","f","16.660833333333237","581.2120876189673","322.7272540741398","f","true","nonmatch","img/hexagon.png","方形","六边","ALT1_1","prac_ALT1_1","","","","","","","","","","","",""
"null","<span style='color:GreenYellow; font-size: 70px;'>正确! </span>","null","html-keyboard-response","20","397024","0.0-7.0-0.0-1.0-0.0-1.5","3","3","4","3","4","3","3","2","3","3","3","4","2","4","3","4","2","2","4","4","4","4","4","4","4","4","4","4","4","1","0","0","1","0","0","1","1","0","1","1","0","0","0","1","5","5","4","2","5","3","4","4","4","3","1","678265376743620608","王","533","","","","","","","","","","","","","","","","","","","","","","","","","","","","","","feedback_test","","","","","","","","","","","",""
"1053","","j","psychophysics","21","399080","0.0-7.0-0.0-1.0-0.0-0.6","3","3","4","3","4","3","3","2","3","3","3","4","2","4","3","4","2","2","4","4","4","4","4","4","4","4","4","4","4","1","0","0","1","0","0","1","1","0","1","1","0","0","0","1","5","5","4","2","5","3","4","4","4","3","1","678265376743620608","王","533","","","","match","","","","","","","","","","","","","","key","j","16.65934959349622","581.2120876189673","322.7272540741398","j","true","match","img/square.png","方形","方形","ALT1_1","prac_ALT1_1","","","","","","","","","","","",""
"null","<span style='color:GreenYellow; font-size: 70px;'>正确! </span>","null","html-keyboard-response","22","399582","0.0-7.0-0.0-1.0-0.0-1.6","3","3","4","3","4","3","3","2","3","3","3","4","2","4","3","4","2","2","4","4","4","4","4","4","4","4","4","4","4","1","0","0","1","0","0","1","1","0","1","1","0","0","0","1","5","5","4","2","5","3","4","4","4","3","1","678265376743620608","王","533","","","","","","","","","","","","","","","","","","","","","","","","","","","","","","feedback_test","","","","","","","","","","","",""
"683","","j","psychophysics","23","401268","0.0-7.0-0.0-1.0-0.0-0.7","3","3","4","3","4","3","3","2","3","3","3","4","2","4","3","4","2","2","4","4","4","4","4","4","4","4","4","4","4","1","0","0","1","0","0","1","1","0","1","1","0","0","0","1","5","5","4","2","5","3","4","4","4","3","1","678265376743620608","王","533","","","","match","","","","","","","","","","","","","","key","j","16.661999999999534","581.2120876189673","322.7272540741398","j","true","match","img/square.png","方形","方形","ALT1_1","prac_ALT1_1","","","","","","","","","","","",""
"null","<span style='color:GreenYellow; font-size: 70px;'>正确! </span>","null","html-keyboard-response","24","401770","0.0-7.0-0.0-1.0-0.0-1.7","3","3","4","3","4","3","3","2","3","3","3","4","2","4","3","4","2","2","4","4","4","4","4","4","4","4","4","4","4","1","0","0","1","0","0","1","1","0","1","1","0","0","0","1","5","5","4","2","5","3","4","4","4","3","1","678265376743620608","王","533","","","","","","","","","","","","","","","","","","","","","","","","","","","","","","feedback_test","","","","","","","","","","","",""
"487","","j","psychophysics","25","403260","0.0-7.0-0.0-1.0-0.0-0.8","3","3","4","3","4","3","3","2","3","3","3","4","2","4","3","4","2","2","4","4","4","4","4","4","4","4","4","4","4","1","0","0","1","0","0","1","1","0","1","1","0","0","0","1","5","5","4","2","5","3","4","4","4","3","1","678265376743620608","王","533","","","","match","","","","","","","","","","","","","","key","j","16.65617977528116","581.2120876189673","322.7272540741398","j","true","match","img/square.png","方形","方形","ALT1_1","prac_ALT1_1","","","","","","","","","","","",""
"null","<span style='color:GreenYellow; font-size: 70px;'>正确! </span>","null","html-keyboard-response","26","403762","0.0-7.0-0.0-1.0-0.0-1.8","3","3","4","3","4","3","3","2","3","3","3","4","2","4","3","4","2","2","4","4","4","4","4","4","4","4","4","4","4","1","0","0","1","0","0","1","1","0","1","1","0","0","0","1","5","5","4","2","5","3","4","4","4","3","1","678265376743620608","王","533","","","","","","","","","","","","","","","","","","","","","","","","","","","","","","feedback_test","","","","","","","","","","","",""
"717","","j","psychophysics","27","405483","0.0-7.0-0.0-1.0-0.0-0.9","3","3","4","3","4","3","3","2","3","3","3","4","2","4","3","4","2","2","4","4","4","4","4","4","4","4","4","4","4","1","0","0","1","0","0","1","1","0","1","1","0","0","0","1","5","5","4","2","5","3","4","4","4","3","1","678265376743620608","王","533","","","","match","","","","","","","","","","","","","","key","j","16.66176470588235","581.2120876189673","322.7272540741398","f","false","nonmatch","img/circle.png","方形","圆形","ALT1_1","prac_ALT1_1","","","","","","","","","","","",""
"null","<span style='color:red; font-size: 70px;'>错误! </span>","null","html-keyboard-response","28","405985","0.0-7.0-0.0-1.0-0.0-1.9","3","3","4","3","4","3","3","2","3","3","3","4","2","4","3","4","2","2","4","4","4","4","4","4","4","4","4","4","4","1","0","0","1","0","0","1","1","0","1","1","0","0","0","1","5","5","4","2","5","3","4","4","4","3","1","678265376743620608","王","533","","","","","","","","","","","","","","","","","","","","","","","","","","","","","","feedback_test","","","","","","","","","","","",""
"997","","j","psychophysics","29","407984","0.0-7.0-0.0-1.0-0.0-0.10","3","3","4","3","4","3","3","2","3","3","3","4","2","4","3","4","2","2","4","4","4","4","4","4","4","4","4","4","4","1","0","0","1","0","0","1","1","0","1","1","0","0","0","1","5","5","4","2","5","3","4","4","4","3","1","678265376743620608","王","533","","","","match","","","","","","","","","","","","","","key","j","16.65882352941147","581.2120876189673","322.7272540741398","j","true","match","img/trapezoid.png","梯形","梯形","ALT1_1","prac_ALT1_1","","","","","","","","","","","",""
"null","<span style='color:GreenYellow; font-size: 70px;'>正确! </span>","null","html-keyboard-response","30","408487","0.0-7.0-0.0-1.0-0.0-1.10","3","3","4","3","4","3","3","2","3","3","3","4","2","4","3","4","2","2","4","4","4","4","4","4","4","4","4","4","4","1","0","0","1","0","0","1","1","0","1","1","0","0","0","1","5","5","4","2","5","3","4","4","4","3","1","678265376743620608","王","533","","","","","","","","","","","","","","","","","","","","","","","","","","","","","","feedback_test","","","","","","","","","","","",""
"1091","","j","psychophysics","31","410582","0.0-7.0-0.0-1.0-0.0-0.11","3","3","4","3","4","3","3","2","3","3","3","4","2","4","3","4","2","2","4","4","4","4","4","4","4","4","4","4","4","1","0","0","1","0","0","1","1","0","1","1","0","0","0","1","5","5","4","2","5","3","4","4","4","3","1","678265376743620608","王","533","","","","match","","","","","","","","","","","","","","key","j","16.66048387096746","581.2120876189673","322.7272540741398","j","true","match","img/trapezoid.png","梯形","梯形","ALT1_1","prac_ALT1_1","","","","","","","","","","","",""
"null","<span style='color:GreenYellow; font-size: 70px;'>正确! </span>","null","html-keyboard-response","32","411084","0.0-7.0-0.0-1.0-0.0-1.11","3","3","4","3","4","3","3","2","3","3","3","4","2","4","3","4","2","2","4","4","4","4","4","4","4","4","4","4","4","1","0","0","1","0","0","1","1","0","1","1","0","0","0","1","5","5","4","2","5","3","4","4","4","3","1","678265376743620608","王","533","","","","","","","","","","","","","","","","","","","","","","","","","","","","","","feedback_test","","","","","","","","","","","",""
"729","","j","psychophysics","33","412816","0.0-7.0-0.0-1.0-0.0-0.12","3","3","4","3","4","3","3","2","3","3","3","4","2","4","3","4","2","2","4","4","4","4","4","4","4","4","4","4","4","1","0","0","1","0","0","1","1","0","1","1","0","0","0","1","5","5","4","2","5","3","4","4","4","3","1","678265376743620608","王","533","","","","match","","","","","","","","","","","","","","key","j","16.660784313725717","581.2120876189673","322.7272540741398","j","true","match","img/hexagon.png","六边","六边","ALT1_1","prac_ALT1_1","","","","","","","","","","","",""
"null","<span style='color:GreenYellow; font-size: 70px;'>正确! </span>","null","html-keyboard-response","34","413319","0.0-7.0-0.0-1.0-0.0-1.12","3","3","4","3","4","3","3","2","3","3","3","4","2","4","3","4","2","2","4","4","4","4","4","4","4","4","4","4","4","1","0","0","1","0","0","1","1","0","1","1","0","0","0","1","5","5","4","2","5","3","4","4","4","3","1","678265376743620608","王","533","","","","","","","","","","","","","","","","","","","","","","","","","","","","","","feedback_test","","","","","","","","","","","",""
"638","","j","psychophysics","35","414959","0.0-7.0-0.0-1.0-0.0-0.13","3","3","4","3","4","3","3","2","3","3","3","4","2","4","3","4","2","2","4","4","4","4","4","4","4","4","4","4","4","1","0","0","1","0","0","1","1","0","1","1","0","0","0","1","5","5","4","2","5","3","4","4","4","3","1","678265376743620608","王","533","","","","match","","","","","","","","","","","","","","key","j","16.663917525773435","581.2120876189673","322.7272540741398","j","true","match","img/circle.png","圆形","圆形","ALT1_1","prac_ALT1_1","","","","","","","","","","","",""
"null","<span style='color:GreenYellow; font-size: 70px;'>正确! </span>","null","html-keyboard-response","36","415463","0.0-7.0-0.0-1.0-0.0-1.13","3","3","4","3","4","3","3","2","3","3","3","4","2","4","3","4","2","2","4","4","4","4","4","4","4","4","4","4","4","1","0","0","1","0","0","1","1","0","1","1","0","0","0","1","5","5","4","2","5","3","4","4","4","3","1","678265376743620608","王","533","","","","","","","","","","","","","","","","","","","","","","","","","","","","","","feedback_test","","","","","","","","","","","",""
"721","","j","psychophysics","37","417187","0.0-7.0-0.0-1.0-0.0-0.14","3","3","4","3","4","3","3","2","3","3","3","4","2","4","3","4","2","2","4","4","4","4","4","4","4","4","4","4","4","1","0","0","1","0","0","1","1","0","1","1","0","0","0","1","5","5","4","2","5","3","4","4","4","3","1","678265376743620608","王","533","","","","match","","","","","","","","","","","","","","key","j","16.65728155339817","581.2120876189673","322.7272540741398","j","true","match","img/hexagon.png","六边","六边","ALT1_1","prac_ALT1_1","","","","","","","","","","","",""
"null","<span style='color:GreenYellow; font-size: 70px;'>正确! </span>","null","html-keyboard-response","38","417689","0.0-7.0-0.0-1.0-0.0-1.14","3","3","4","3","4","3","3","2","3","3","3","4","2","4","3","4","2","2","4","4","4","4","4","4","4","4","4","4","4","1","0","0","1","0","0","1","1","0","1","1","0","0","0","1","5","5","4","2","5","3","4","4","4","3","1","678265376743620608","王","533","","","","","","","","","","","","","","","","","","","","","","","","","","","","","","feedback_test","","","","","","","","","","","",""
"506","","j","psychophysics","39","419198","0.0-7.0-0.0-1.0-0.0-0.15","3","3","4","3","4","3","3","2","3","3","3","4","2","4","3","4","2","2","4","4","4","4","4","4","4","4","4","4","4","1","0","0","1","0","0","1","1","0","1","1","0","0","0","1","5","5","4","2","5","3","4","4","4","3","1","678265376743620608","王","533","","","","match","","","","","","","","","","","","","","key","j","16.661797752808596","581.2120876189673","322.7272540741398","j","true","match","img/hexagon.png","六边","六边","ALT1_1","prac_ALT1_1","","","","","","","","","","","",""
"null","<span style='color:GreenYellow; font-size: 70px;'>正确! </span>","null","html-keyboard-response","40","419700","0.0-7.0-0.0-1.0-0.0-1.15","3","3","4","3","4","3","3","2","3","3","3","4","2","4","3","4","2","2","4","4","4","4","4","4","4","4","4","4","4","1","0","0","1","0","0","1","1","0","1","1","0","0","0","1","5","5","4","2","5","3","4","4","4","3","1","678265376743620608","王","533","","","","","","","","","","","","","","","","","","","","","","","","","","","","","","feedback_test","","","","","","","","","","","",""
"832","","f","psychophysics","41","421535","0.0-7.0-0.0-1.0-0.0-0.16","3","3","4","3","4","3","3","2","3","3","3","4","2","4","3","4","2","2","4","4","4","4","4","4","4","4","4","4","4","1","0","0","1","0","0","1","1","0","1","1","0","0","0","1","5","5","4","2","5","3","4","4","4","3","1","678265376743620608","王","533","","","","nonmatch","","","","","","","","","","","","","","key","f","16.643119266054832","581.2120876189673","322.7272540741398","f","true","nonmatch","img/trapezoid.png","六边","梯形","ALT1_1","prac_ALT1_1","","","","","","","","","","","",""
"null","<span style='color:GreenYellow; font-size: 70px;'>正确! </span>","null","html-keyboard-response","42","422036","0.0-7.0-0.0-1.0-0.0-1.16","3","3","4","3","4","3","3","2","3","3","3","4","2","4","3","4","2","2","4","4","4","4","4","4","4","4","4","4","4","1","0","0","1","0","0","1","1","0","1","1","0","0","0","1","5","5","4","2","5","3","4","4","4","3","1","678265376743620608","王","533","","","","","","","","","","","","","","","","","","","","","","","","","","","","","","feedback_test","","","","","","","","","","","",""
"832","","j","psychophysics","43","423872","0.0-7.0-0.0-1.0-0.0-0.17","3","3","4","3","4","3","3","2","3","3","3","4","2","4","3","4","2","2","4","4","4","4","4","4","4","4","4","4","4","1","0","0","1","0","0","1","1","0","1","1","0","0","0","1","5","5","4","2","5","3","4","4","4","3","1","678265376743620608","王","533","","","","match","","","","","","","","","","","","","","key","j","16.660550458715598","581.2120876189673","322.7272540741398","f","false","nonmatch","img/trapezoid.png","圆形","梯形","ALT1_1","prac_ALT1_1","","","","","","","","","","","",""
"null","<span style='color:red; font-size: 70px;'>错误! </span>","null","html-keyboard-response","44","424374","0.0-7.0-0.0-1.0-0.0-1.17","3","3","4","3","4","3","3","2","3","3","3","4","2","4","3","4","2","2","4","4","4","4","4","4","4","4","4","4","4","1","0","0","1","0","0","1","1","0","1","1","0","0","0","1","5","5","4","2","5","3","4","4","4","3","1","678265376743620608","王","533","","","","","","","","","","","","","","","","","","","","","","","","","","","","","","feedback_test","","","","","","","","","","","",""
"857","","f","psychophysics","45","426234","0.0-7.0-0.0-1.0-0.0-0.18","3","3","4","3","4","3","3","2","3","3","3","4","2","4","3","4","2","2","4","4","4","4","4","4","4","4","4","4","4","1","0","0","1","0","0","1","1","0","1","1","0","0","0","1","5","5","4","2","5","3","4","4","4","3","1","678265376743620608","王","533","","","","nonmatch","","","","","","","","","","","","","","key","f","16.661261261260947","581.2120876189673","322.7272540741398","f","true","nonmatch","img/hexagon.png","梯形","六边","ALT1_1","prac_ALT1_1","","","","","","","","","","","",""
"null","<span style='color:GreenYellow; font-size: 70px;'>正确! </span>","null","html-keyboard-response","46","426737","0.0-7.0-0.0-1.0-0.0-1.18","3","3","4","3","4","3","3","2","3","3","3","4","2","4","3","4","2","2","4","4","4","4","4","4","4","4","4","4","4","1","0","0","1","0","0","1","1","0","1","1","0","0","0","1","5","5","4","2","5","3","4","4","4","3","1","678265376743620608","王","533","","","","","","","","","","","","","","","","","","","","","","","","","","","","","","feedback_test","","","","","","","","","","","",""
"899","","f","psychophysics","47","428641","0.0-7.0-0.0-1.0-0.0-0.19","3","3","4","3","4","3","3","2","3","3","3","4","2","4","3","4","2","2","4","4","4","4","4","4","4","4","4","4","4","1","0","0","1","0","0","1","1","0","1","1","0","0","0","1","5","5","4","2","5","3","4","4","4","3","1","678265376743620608","王","533","","","","nonmatch","","","","","","","","","","","","","","key","f","16.662831858406772","581.2120876189673","322.7272540741398","f","true","nonmatch","img/square.png","圆形","方形","ALT1_1","prac_ALT1_1","","","","","","","","","","","",""
"null","<span style='color:GreenYellow; font-size: 70px;'>正确! </span>","null","html-keyboard-response","48","429143","0.0-7.0-0.0-1.0-0.0-1.19","3","3","4","3","4","3","3","2","3","3","3","4","2","4","3","4","2","2","4","4","4","4","4","4","4","4","4","4","4","1","0","0","1","0","0","1","1","0","1","1","0","0","0","1","5","5","4","2","5","3","4","4","4","3","1","678265376743620608","王","533","","","","","","","","","","","","","","","","","","","","","","","","","","","","","","feedback_test","","","","","","","","","","","",""
"800","","j","psychophysics","49","430945","0.0-7.0-0.0-1.0-0.0-0.20","3","3","4","3","4","3","3","2","3","3","3","4","2","4","3","4","2","2","4","4","4","4","4","4","4","4","4","4","4","1","0","0","1","0","0","1","1","0","1","1","0","0","0","1","5","5","4","2","5","3","4","4","4","3","1","678265376743620608","王","533","","","","match","","","","","","","","","","","","","","key","j","16.65514018691567","581.2120876189673","322.7272540741398","j","true","match","img/circle.png","圆形","圆形","ALT1_1","prac_ALT1_1","","","","","","","","","","","",""
"null","<span style='color:GreenYellow; font-size: 70px;'>正确! </span>","null","html-keyboard-response","50","431446","0.0-7.0-0.0-1.0-0.0-1.20","3","3","4","3","4","3","3","2","3","3","3","4","2","4","3","4","2","2","4","4","4","4","4","4","4","4","4","4","4","1","0","0","1","0","0","1","1","0","1","1","0","0","0","1","5","5","4","2","5","3","4","4","4","3","1","678265376743620608","王","533","","","","","","","","","","","","","","","","","","","","","","","","","","","","","","feedback_test","","","","","","","","","","","",""
"775","","j","psychophysics","51","433224","0.0-7.0-0.0-1.0-0.0-0.21","3","3","4","3","4","3","3","2","3","3","3","4","2","4","3","4","2","2","4","4","4","4","4","4","4","4","4","4","4","1","0","0","1","0","0","1","1","0","1","1","0","0","0","1","5","5","4","2","5","3","4","4","4","3","1","678265376743620608","王","533","","","","match","","","","","","","","","","","","","","key","j","16.65999999999989","581.2120876189673","322.7272540741398","j","true","match","img/circle.png","圆形","圆形","ALT1_1","prac_ALT1_1","","","","","","","","","","","",""
"null","<span style='color:GreenYellow; font-size: 70px;'>正确! </span>","null","html-keyboard-response","52","433741","0.0-7.0-0.0-1.0-0.0-1.21","3","3","4","3","4","3","3","2","3","3","3","4","2","4","3","4","2","2","4","4","4","4","4","4","4","4","4","4","4","1","0","0","1","0","0","1","1","0","1","1","0","0","0","1","5","5","4","2","5","3","4","4","4","3","1","678265376743620608","王","533","","","","","","","","","","","","","","","","","","","","","","","","","","","","","","feedback_test","","","","","","","","","","","",""
"907","","j","psychophysics","53","435651","0.0-7.0-0.0-1.0-0.0-0.22","3","3","4","3","4","3","3","2","3","3","3","4","2","4","3","4","2","2","4","4","4","4","4","4","4","4","4","4","4","1","0","0","1","0","0","1","1","0","1","1","0","0","0","1","5","5","4","2","5","3","4","4","4","3","1","678265376743620608","王","533","","","","match","","","","","","","","","","","","","","key","j","16.660176991150237","581.2120876189673","322.7272540741398","f","false","nonmatch","img/trapezoid.png","方形","梯形","ALT1_1","prac_ALT1_1","","","","","","","","","","","",""
"null","<span style='color:red; font-size: 70px;'>错误! </span>","null","html-keyboard-response","54","436154","0.0-7.0-0.0-1.0-0.0-1.22","3","3","4","3","4","3","3","2","3","3","3","4","2","4","3","4","2","2","4","4","4","4","4","4","4","4","4","4","4","1","0","0","1","0","0","1","1","0","1","1","0","0","0","1","5","5","4","2","5","3","4","4","4","3","1","678265376743620608","王","533","","","","","","","","","","","","","","","","","","","","","","","","","","","","","","feedback_test","","","","","","","","","","","",""
"875","","f","psychophysics","55","438032","0.0-7.0-0.0-1.0-0.0-0.23","3","3","4","3","4","3","3","2","3","3","3","4","2","4","3","4","2","2","4","4","4","4","4","4","4","4","4","4","4","1","0","0","1","0","0","1","1","0","1","1","0","0","0","1","5","5","4","2","5","3","4","4","4","3","1","678265376743620608","王","533","","","","nonmatch","","","","","","","","","","","","","","key","f","16.658035714285298","581.2120876189673","322.7272540741398","f","true","nonmatch","img/circle.png","梯形","圆形","ALT1_1","prac_ALT1_1","","","","","","","","","","","",""
"null","<span style='color:GreenYellow; font-size: 70px;'>正确! </span>","null","html-keyboard-response","56","438534","0.0-7.0-0.0-1.0-0.0-1.23","3","3","4","3","4","3","3","2","3","3","3","4","2","4","3","4","2","2","4","4","4","4","4","4","4","4","4","4","4","1","0","0","1","0","0","1","1","0","1","1","0","0","0","1","5","5","4","2","5","3","4","4","4","3","1","678265376743620608","王","533","","","","","","","","","","","","","","","","","","","","","","","","","","","","","","feedback_test","","","","","","","","","","","",""
"892","","f","psychophysics","57","440433","0.0-7.0-0.0-1.0-0.0-0.24","3","3","4","3","4","3","3","2","3","3","3","4","2","4","3","4","2","2","4","4","4","4","4","4","4","4","4","4","4","1","0","0","1","0","0","1","1","0","1","1","0","0","0","1","5","5","4","2","5","3","4","4","4","3","1","678265376743620608","王","533","","","","nonmatch","","","","","","","","","","","","","","key","f","16.656637168141696","581.2120876189673","322.7272540741398","f","true","nonmatch","img/square.png","梯形","方形","ALT1_1","prac_ALT1_1","","","","","","","","","","","",""
"null","<span style='color:GreenYellow; font-size: 70px;'>正确! </span>","null","html-keyboard-response","58","440935","0.0-7.0-0.0-1.0-0.0-1.24","3","3","4","3","4","3","3","2","3","3","3","4","2","4","3","4","2","2","4","4","4","4","4","4","4","4","4","4","4","1","0","0","1","0","0","1","1","0","1","1","0","0","0","1","5","5","4","2","5","3","4","4","4","3","1","678265376743620608","王","533","","","","","","","","","","","","","","","","","","","","","","","","","","","","","","feedback_test","","","","","","","","","","","",""
"764","","f","psychophysics","59","442702","0.0-7.0-0.0-1.0-0.0-0.25","3","3","4","3","4","3","3","2","3","3","3","4","2","4","3","4","2","2","4","4","4","4","4","4","4","4","4","4","4","1","0","0","1","0","0","1","1","0","1","1","0","0","0","1","5","5","4","2","5","3","4","4","4","3","1","678265376743620608","王","533","","","","nonmatch","","","","","","","","","","","","","","key","f","16.65714285714286","581.2120876189673","322.7272540741398","f","true","nonmatch","img/trapezoid.png","六边","梯形","ALT1_1","prac_ALT1_1","","","","","","","","","","","",""
"null","<span style='color:GreenYellow; font-size: 70px;'>正确! </span>","null","html-keyboard-response","60","443206","0.0-7.0-0.0-1.0-0.0-1.25","3","3","4","3","4","3","3","2","3","3","3","4","2","4","3","4","2","2","4","4","4","4","4","4","4","4","4","4","4","1","0","0","1","0","0","1","1","0","1","1","0","0","0","1","5","5","4","2","5","3","4","4","4","3","1","678265376743620608","王","533","","","","","","","","","","","","","","","","","","","","","","","","","","","","","","feedback_test","","","","","","","","","","","",""
"820","","f","psychophysics","61","445029","0.0-7.0-0.0-1.0-0.0-0.26","3","3","4","3","4","3","3","2","3","3","3","4","2","4","3","4","2","2","4","4","4","4","4","4","4","4","4","4","4","1","0","0","1","0","0","1","1","0","1","1","0","0","0","1","5","5","4","2","5","3","4","4","4","3","1","678265376743620608","王","533","","","","nonmatch","","","","","","","","","","","","","","key","f","16.662962962963288","581.2120876189673","322.7272540741398","f","true","nonmatch","img/hexagon.png","圆形","六边","ALT1_1","prac_ALT1_1","","","","","","","","","","","",""
"null","<span style='color:GreenYellow; font-size: 70px;'>正确! </span>","null","html-keyboard-response","62","445532","0.0-7.0-0.0-1.0-0.0-1.26","3","3","4","3","4","3","3","2","3","3","3","4","2","4","3","4","2","2","4","4","4","4","4","4","4","4","4","4","4","1","0","0","1","0","0","1","1","0","1","1","0","0","0","1","5","5","4","2","5","3","4","4","4","3","1","678265376743620608","王","533","","","","","","","","","","","","","","","","","","","","","","","","","","","","","","feedback_test","","","","","","","","","","","",""
"857","","j","psychophysics","63","447396","0.0-7.0-0.0-1.0-0.0-0.27","3","3","4","3","4","3","3","2","3","3","3","4","2","4","3","4","2","2","4","4","4","4","4","4","4","4","4","4","4","1","0","0","1","0","0","1","1","0","1","1","0","0","0","1","5","5","4","2","5","3","4","4","4","3","1","678265376743620608","王","533","","","","match","","","","","","","","","","","","","","key","j","16.663063063062854","581.2120876189673","322.7272540741398","j","true","match","img/trapezoid.png","梯形","梯形","ALT1_1","prac_ALT1_1","","","","","","","","","","","",""
"null","<span style='color:GreenYellow; font-size: 70px;'>正确! </span>","null","html-keyboard-response","64","447899","0.0-7.0-0.0-1.0-0.0-1.27","3","3","4","3","4","3","3","2","3","3","3","4","2","4","3","4","2","2","4","4","4","4","4","4","4","4","4","4","4","1","0","0","1","0","0","1","1","0","1","1","0","0","0","1","5","5","4","2","5","3","4","4","4","3","1","678265376743620608","王","533","","","","","","","","","","","","","","","","","","","","","","","","","","","","","","feedback_test","","","","","","","","","","","",""
"744","","f","psychophysics","65","449645","0.0-7.0-0.0-1.0-0.0-0.28","3","3","4","3","4","3","3","2","3","3","3","4","2","4","3","4","2","2","4","4","4","4","4","4","4","4","4","4","4","1","0","0","1","0","0","1","1","0","1","1","0","0","0","1","5","5","4","2","5","3","4","4","4","3","1","678265376743620608","王","533","","","","nonmatch","","","","","","","","","","","","","","key","f","16.658653846153847","581.2120876189673","322.7272540741398","f","true","nonmatch","img/hexagon.png","方形","六边","ALT1_1","prac_ALT1_1","","","","","","","","","","","",""
"null","<span style='color:GreenYellow; font-size: 70px;'>正确! </span>","null","html-keyboard-response","66","450146","0.0-7.0-0.0-1.0-0.0-1.28","3","3","4","3","4","3","3","2","3","3","3","4","2","4","3","4","2","2","4","4","4","4","4","4","4","4","4","4","4","1","0","0","1","0","0","1","1","0","1","1","0","0","0","1","5","5","4","2","5","3","4","4","4","3","1","678265376743620608","王","533","","","","","","","","","","","","","","","","","","","","","","","","","","","","","","feedback_test","","","","","","","","","","","",""
"886","","j","psychophysics","67","452036","0.0-7.0-0.0-1.0-0.0-0.29","3","3","4","3","4","3","3","2","3","3","3","4","2","4","3","4","2","2","4","4","4","4","4","4","4","4","4","4","4","1","0","0","1","0","0","1","1","0","1","1","0","0","0","1","5","5","4","2","5","3","4","4","4","3","1","678265376743620608","王","533","","","","match","","","","","","","","","","","","","","key","j","16.663392857142753","581.2120876189673","322.7272540741398","j","true","match","img/hexagon.png","六边","六边","ALT1_1","prac_ALT1_1","","","","","","","","","","","",""
"null","<span style='color:GreenYellow; font-size: 70px;'>正确! </span>","null","html-keyboard-response","68","452539","0.0-7.0-0.0-1.0-0.0-1.29","3","3","4","3","4","3","3","2","3","3","3","4","2","4","3","4","2","2","4","4","4","4","4","4","4","4","4","4","4","1","0","0","1","0","0","1","1","0","1","1","0","0","0","1","5","5","4","2","5","3","4","4","4","3","1","678265376743620608","王","533","","","","","","","","","","","","","","","","","","","","","","","","","","","","","","feedback_test","","","","","","","","","","","",""
"701","","j","psychophysics","69","454244","0.0-7.0-0.0-1.0-0.0-0.30","3","3","4","3","4","3","3","2","3","3","3","4","2","4","3","4","2","2","4","4","4","4","4","4","4","4","4","4","4","1","0","0","1","0","0","1","1","0","1","1","0","0","0","1","5","5","4","2","5","3","4","4","4","3","1","678265376743620608","王","533","","","","match","","","","","","","","","","","","","","key","j","16.662376237623416","581.2120876189673","322.7272540741398","j","true","match","img/square.png","方形","方形","ALT1_1","prac_ALT1_1","","","","","","","","","","","",""
"null","<span style='color:GreenYellow; font-size: 70px;'>正确! </span>","null","html-keyboard-response","70","454753","0.0-7.0-0.0-1.0-0.0-1.30","3","3","4","3","4","3","3","2","3","3","3","4","2","4","3","4","2","2","4","4","4","4","4","4","4","4","4","4","4","1","0","0","1","0","0","1","1","0","1","1","0","0","0","1","5","5","4","2","5","3","4","4","4","3","1","678265376743620608","王","533","","","","","","","","","","","","","","","","","","","","","","","","","","","","","","feedback_test","","","","","","","","","","","",""
"735","","j","psychophysics","71","456492","0.0-7.0-0.0-1.0-0.0-0.31","3","3","4","3","4","3","3","2","3","3","3","4","2","4","3","4","2","2","4","4","4","4","4","4","4","4","4","4","4","1","0","0","1","0","0","1","1","0","1","1","0","0","0","1","5","5","4","2","5","3","4","4","4","3","1","678265376743620608","王","533","","","","match","","","","","","","","","","","","","","key","j","16.66213592233021","581.2120876189673","322.7272540741398","f","false","nonmatch","img/circle.png","方形","圆形","ALT1_1","prac_ALT1_1","","","","","","","","","","","",""
"null","<span style='color:red; font-size: 70px;'>错误! </span>","null","html-keyboard-response","72","456994","0.0-7.0-0.0-1.0-0.0-1.31","3","3","4","3","4","3","3","2","3","3","3","4","2","4","3","4","2","2","4","4","4","4","4","4","4","4","4","4","4","1","0","0","1","0","0","1","1","0","1","1","0","0","0","1","5","5","4","2","5","3","4","4","4","3","1","678265376743620608","王","533","","","","","","","","","","","","","","","","","","","","","","","","","","","","","","feedback_test","","","","","","","","","","","",""
"779","","f","psychophysics","73","458776","0.0-7.0-0.0-1.0-0.0-0.32","3","3","4","3","4","3","3","2","3","3","3","4","2","4","3","4","2","2","4","4","4","4","4","4","4","4","4","4","4","1","0","0","1","0","0","1","1","0","1","1","0","0","0","1","5","5","4","2","5","3","4","4","4","3","1","678265376743620608","王","533","","","","nonmatch","","","","","","","","","","","","","","key","f","16.656603773585235","581.2120876189673","322.7272540741398","f","true","nonmatch","img/circle.png","梯形","圆形","ALT1_1","prac_ALT1_1","","","","","","","","","","","",""
"null","<span style='color:GreenYellow; font-size: 70px;'>正确! </span>","null","html-keyboard-response","74","459278","0.0-7.0-0.0-1.0-0.0-1.32","3","3","4","3","4","3","3","2","3","3","3","4","2","4","3","4","2","2","4","4","4","4","4","4","4","4","4","4","4","1","0","0","1","0","0","1","1","0","1","1","0","0","0","1","5","5","4","2","5","3","4","4","4","3","1","678265376743620608","王","533","","","","","","","","","","","","","","","","","","","","","","","","","","","","","","feedback_test","","","","","","","","","","","",""
"700","","f","psychophysics","75","460981","0.0-7.0-0.0-1.0-0.0-0.33","3","3","4","3","4","3","3","2","3","3","3","4","2","4","3","4","2","2","4","4","4","4","4","4","4","4","4","4","4","1","0","0","1","0","0","1","1","0","1","1","0","0","0","1","5","5","4","2","5","3","4","4","4","3","1","678265376743620608","王","533","","","","nonmatch","","","","","","","","","","","","","","key","f","16.65544554455457","581.2120876189673","322.7272540741398","f","true","nonmatch","img/circle.png","六边","圆形","ALT1_1","prac_ALT1_1","","","","","","","","","","","",""
"null","<span style='color:GreenYellow; font-size: 70px;'>正确! </span>","null","html-keyboard-response","76","461485","0.0-7.0-0.0-1.0-0.0-1.33","3","3","4","3","4","3","3","2","3","3","3","4","2","4","3","4","2","2","4","4","4","4","4","4","4","4","4","4","4","1","0","0","1","0","0","1","1","0","1","1","0","0","0","1","5","5","4","2","5","3","4","4","4","3","1","678265376743620608","王","533","","","","","","","","","","","","","","","","","","","","","","","","","","","","","","feedback_test","","","","","","","","","","","",""
"812","","f","psychophysics","77","463302","0.0-7.0-0.0-1.0-0.0-0.34","3","3","4","3","4","3","3","2","3","3","3","4","2","4","3","4","2","2","4","4","4","4","4","4","4","4","4","4","4","1","0","0","1","0","0","1","1","0","1","1","0","0","0","1","5","5","4","2","5","3","4","4","4","3","1","678265376743620608","王","533","","","","nonmatch","","","","","","","","","","","","","","key","f","16.663888888888998","581.2120876189673","322.7272540741398","j","false","match","img/trapezoid.png","梯形","梯形","ALT1_1","prac_ALT1_1","","","","","","","","","","","",""
"null","<span style='color:red; font-size: 70px;'>错误! </span>","null","html-keyboard-response","78","463804","0.0-7.0-0.0-1.0-0.0-1.34","3","3","4","3","4","3","3","2","3","3","3","4","2","4","3","4","2","2","4","4","4","4","4","4","4","4","4","4","4","1","0","0","1","0","0","1","1","0","1","1","0","0","0","1","5","5","4","2","5","3","4","4","4","3","1","678265376743620608","王","533","","","","","","","","","","","","","","","","","","","","","","","","","","","","","","feedback_test","","","","","","","","","","","",""
"859","","f","psychophysics","79","465667","0.0-7.0-0.0-1.0-0.0-0.35","3","3","4","3","4","3","3","2","3","3","3","4","2","4","3","4","2","2","4","4","4","4","4","4","4","4","4","4","4","1","0","0","1","0","0","1","1","0","1","1","0","0","0","1","5","5","4","2","5","3","4","4","4","3","1","678265376743620608","王","533","","","","nonmatch","","","","","","","","","","","","","","key","f","16.660360360360254","581.2120876189673","322.7272540741398","f","true","nonmatch","img/hexagon.png","梯形","六边","ALT1_1","prac_ALT1_1","","","","","","","","","","","",""
"null","<span style='color:GreenYellow; font-size: 70px;'>正确! </span>","null","html-keyboard-response","80","466170","0.0-7.0-0.0-1.0-0.0-1.35","3","3","4","3","4","3","3","2","3","3","3","4","2","4","3","4","2","2","4","4","4","4","4","4","4","4","4","4","4","1","0","0","1","0","0","1","1","0","1","1","0","0","0","1","5","5","4","2","5","3","4","4","4","3","1","678265376743620608","王","533","","","","","","","","","","","","","","","","","","","","","","","","","","","","","","feedback_test","","","","","","","","","","","",""
"802","","j","psychophysics","81","467976","0.0-7.0-0.0-1.0-0.0-0.36","3","3","4","3","4","3","3","2","3","3","3","4","2","4","3","4","2","2","4","4","4","4","4","4","4","4","4","4","4","1","0","0","1","0","0","1","1","0","1","1","0","0","0","1","5","5","4","2","5","3","4","4","4","3","1","678265376743620608","王","533","","","","match","","","","","","","","","","","","","","key","j","16.66355140186916","581.2120876189673","322.7272540741398","j","true","match","img/trapezoid.png","梯形","梯形","ALT1_1","prac_ALT1_1","","","","","","","","","","","",""
"null","<span style='color:GreenYellow; font-size: 70px;'>正确! </span>","null","html-keyboard-response","82","468478","0.0-7.0-0.0-1.0-0.0-1.36","3","3","4","3","4","3","3","2","3","3","3","4","2","4","3","4","2","2","4","4","4","4","4","4","4","4","4","4","4","1","0","0","1","0","0","1","1","0","1","1","0","0","0","1","5","5","4","2","5","3","4","4","4","3","1","678265376743620608","王","533","","","","","","","","","","","","","","","","","","","","","","","","","","","","","","feedback_test","","","","","","","","","","","",""
"833","","f","psychophysics","83","470314","0.0-7.0-0.0-1.0-0.0-0.37","3","3","4","3","4","3","3","2","3","3","3","4","2","4","3","4","2","2","4","4","4","4","4","4","4","4","4","4","4","1","0","0","1","0","0","1","1","0","1","1","0","0","0","1","5","5","4","2","5","3","4","4","4","3","1","678265376743620608","王","533","","","","nonmatch","","","","","","","","","","","","","","key","f","16.660550458715598","581.2120876189673","322.7272540741398","f","true","nonmatch","img/trapezoid.png","方形","梯形","ALT1_1","prac_ALT1_1","","","","","","","","","","","",""
"null","<span style='color:GreenYellow; font-size: 70px;'>正确! </span>","null","html-keyboard-response","84","470829","0.0-7.0-0.0-1.0-0.0-1.37","3","3","4","3","4","3","3","2","3","3","3","4","2","4","3","4","2","2","4","4","4","4","4","4","4","4","4","4","4","1","0","0","1","0","0","1","1","0","1","1","0","0","0","1","5","5","4","2","5","3","4","4","4","3","1","678265376743620608","王","533","","","","","","","","","","","","","","","","","","","","","","","","","","","","","","feedback_test","","","","","","","","","","","",""
"917","","j","psychophysics","85","472749","0.0-7.0-0.0-1.0-0.0-0.38","3","3","4","3","4","3","3","2","3","3","3","4","2","4","3","4","2","2","4","4","4","4","4","4","4","4","4","4","4","1","0","0","1","0","0","1","1","0","1","1","0","0","0","1","5","5","4","2","5","3","4","4","4","3","1","678265376743620608","王","533","","","","match","","","","","","","","","","","","","","key","j","16.660526315789372","581.2120876189673","322.7272540741398","j","true","match","img/circle.png","圆形","圆形","ALT1_1","prac_ALT1_1","","","","","","","","","","","",""
"null","<span style='color:GreenYellow; font-size: 70px;'>正确! </span>","null","html-keyboard-response","86","473252","0.0-7.0-0.0-1.0-0.0-1.38","3","3","4","3","4","3","3","2","3","3","3","4","2","4","3","4","2","2","4","4","4","4","4","4","4","4","4","4","4","1","0","0","1","0","0","1","1","0","1","1","0","0","0","1","5","5","4","2","5","3","4","4","4","3","1","678265376743620608","王","533","","","","","","","","","","","","","","","","","","","","","","","","","","","","","","feedback_test","","","","","","","","","","","",""
"765","","j","psychophysics","87","475021","0.0-7.0-0.0-1.0-0.0-0.39","3","3","4","3","4","3","3","2","3","3","3","4","2","4","3","4","2","2","4","4","4","4","4","4","4","4","4","4","4","1","0","0","1","0","0","1","1","0","1","1","0","0","0","1","5","5","4","2","5","3","4","4","4","3","1","678265376743620608","王","533","","","","match","","","","","","","","","","","","","","key","j","16.6609523809526","581.2120876189673","322.7272540741398","j","true","match","img/square.png","方形","方形","ALT1_1","prac_ALT1_1","","","","","","","","","","","",""
"null","<span style='color:GreenYellow; font-size: 70px;'>正确! </span>","null","html-keyboard-response","88","475524","0.0-7.0-0.0-1.0-0.0-1.39","3","3","4","3","4","3","3","2","3","3","3","4","2","4","3","4","2","2","4","4","4","4","4","4","4","4","4","4","4","1","0","0","1","0","0","1","1","0","1","1","0","0","0","1","5","5","4","2","5","3","4","4","4","3","1","678265376743620608","王","533","","","","","","","","","","","","","","","","","","","","","","","","","","","","","","feedback_test","","","","","","","","","","","",""
"763","","j","psychophysics","89","477290","0.0-7.0-0.0-1.0-0.0-0.40","3","3","4","3","4","3","3","2","3","3","3","4","2","4","3","4","2","2","4","4","4","4","4","4","4","4","4","4","4","1","0","0","1","0","0","1","1","0","1","1","0","0","0","1","5","5","4","2","5","3","4","4","4","3","1","678265376743620608","王","533","","","","match","","","","","","","","","","","","","","key","j","16.660576923077034","581.2120876189673","322.7272540741398","j","true","match","img/circle.png","圆形","圆形","ALT1_1","prac_ALT1_1","","","","","","","","","","","",""
"null","<span style='color:GreenYellow; font-size: 70px;'>正确! </span>","null","html-keyboard-response","90","477794","0.0-7.0-0.0-1.0-0.0-1.40","3","3","4","3","4","3","3","2","3","3","3","4","2","4","3","4","2","2","4","4","4","4","4","4","4","4","4","4","4","1","0","0","1","0","0","1","1","0","1","1","0","0","0","1","5","5","4","2","5","3","4","4","4","3","1","678265376743620608","王","533","","","","","","","","","","","","","","","","","","","","","","","","","","","","","","feedback_test","","","","","","","","","","","",""
"716","","j","psychophysics","91","479514","0.0-7.0-0.0-1.0-0.0-0.41","3","3","4","3","4","3","3","2","3","3","3","4","2","4","3","4","2","2","4","4","4","4","4","4","4","4","4","4","4","1","0","0","1","0","0","1","1","0","1","1","0","0","0","1","5","5","4","2","5","3","4","4","4","3","1","678265376743620608","王","533","","","","match","","","","","","","","","","","","","","key","j","16.66078431372515","581.2120876189673","322.7272540741398","j","true","match","img/hexagon.png","六边","六边","ALT1_1","prac_ALT1_1","","","","","","","","","","","",""
"null","<span style='color:GreenYellow; font-size: 70px;'>正确! </span>","null","html-keyboard-response","92","480015","0.0-7.0-0.0-1.0-0.0-1.41","3","3","4","3","4","3","3","2","3","3","3","4","2","4","3","4","2","2","4","4","4","4","4","4","4","4","4","4","4","1","0","0","1","0","0","1","1","0","1","1","0","0","0","1","5","5","4","2","5","3","4","4","4","3","1","678265376743620608","王","533","","","","","","","","","","","","","","","","","","","","","","","","","","","","","","feedback_test","","","","","","","","","","","",""
"725","","j","psychophysics","93","481744","0.0-7.0-0.0-1.0-0.0-0.42","3","3","4","3","4","3","3","2","3","3","3","4","2","4","3","4","2","2","4","4","4","4","4","4","4","4","4","4","4","1","0","0","1","0","0","1","1","0","1","1","0","0","0","1","5","5","4","2","5","3","4","4","4","3","1","678265376743620608","王","533","","","","match","","","","","","","","","","","","","","key","j","16.660194174757283","581.2120876189673","322.7272540741398","j","true","match","img/circle.png","圆形","圆形","ALT1_1","prac_ALT1_1","","","","","","","","","","","",""
"null","<span style='color:GreenYellow; font-size: 70px;'>正确! </span>","null","html-keyboard-response","94","482253","0.0-7.0-0.0-1.0-0.0-1.42","3","3","4","3","4","3","3","2","3","3","3","4","2","4","3","4","2","2","4","4","4","4","4","4","4","4","4","4","4","1","0","0","1","0","0","1","1","0","1","1","0","0","0","1","5","5","4","2","5","3","4","4","4","3","1","678265376743620608","王","533","","","","","","","","","","","","","","","","","","","","","","","","","","","","","","feedback_test","","","","","","","","","","","",""
"696","","j","psychophysics","95","483952","0.0-7.0-0.0-1.0-0.0-0.43","3","3","4","3","4","3","3","2","3","3","3","4","2","4","3","4","2","2","4","4","4","4","4","4","4","4","4","4","4","1","0","0","1","0","0","1","1","0","1","1","0","0","0","1","5","5","4","2","5","3","4","4","4","3","1","678265376743620608","王","533","","","","match","","","","","","","","","","","","","","key","j","16.664000000000232","581.2120876189673","322.7272540741398","j","true","match","img/hexagon.png","六边","六边","ALT1_1","prac_ALT1_1","","","","","","","","","","","",""
"null","<span style='color:GreenYellow; font-size: 70px;'>正确! </span>","null","html-keyboard-response","96","484455","0.0-7.0-0.0-1.0-0.0-1.43","3","3","4","3","4","3","3","2","3","3","3","4","2","4","3","4","2","2","4","4","4","4","4","4","4","4","4","4","4","1","0","0","1","0","0","1","1","0","1","1","0","0","0","1","5","5","4","2","5","3","4","4","4","3","1","678265376743620608","王","533","","","","","","","","","","","","","","","","","","","","","","","","","","","","","","feedback_test","","","","","","","","","","","",""
"778","","f","psychophysics","97","486237","0.0-7.0-0.0-1.0-0.0-0.44","3","3","4","3","4","3","3","2","3","3","3","4","2","4","3","4","2","2","4","4","4","4","4","4","4","4","4","4","4","1","0","0","1","0","0","1","1","0","1","1","0","0","0","1","5","5","4","2","5","3","4","4","4","3","1","678265376743620608","王","533","","","","nonmatch","","","","","","","","","","","","","","key","f","16.65809523809557","581.2120876189673","322.7272540741398","f","true","nonmatch","img/trapezoid.png","圆形","梯形","ALT1_1","prac_ALT1_1","","","","","","","","","","","",""
"null","<span style='color:GreenYellow; font-size: 70px;'>正确! </span>","null","html-keyboard-response","98","486738","0.0-7.0-0.0-1.0-0.0-1.44","3","3","4","3","4","3","3","2","3","3","3","4","2","4","3","4","2","2","4","4","4","4","4","4","4","4","4","4","4","1","0","0","1","0","0","1","1","0","1","1","0","0","0","1","5","5","4","2","5","3","4","4","4","3","1","678265376743620608","王","533","","","","","","","","","","","","","","","","","","","","","","","","","","","","","","feedback_test","","","","","","","","","","","",""
"874","","f","psychophysics","99","488615","0.0-7.0-0.0-1.0-0.0-0.45","3","3","4","3","4","3","3","2","3","3","3","4","2","4","3","4","2","2","4","4","4","4","4","4","4","4","4","4","4","1","0","0","1","0","0","1","1","0","1","1","0","0","0","1","5","5","4","2","5","3","4","4","4","3","1","678265376743620608","王","533","","","","nonmatch","","","","","","","","","","","","","","key","f","16.661261261261473","581.2120876189673","322.7272540741398","f","true","nonmatch","img/square.png","六边","方形","ALT1_1","prac_ALT1_1","","","","","","","","","","","",""
"null","<span style='color:GreenYellow; font-size: 70px;'>正确! </span>","null","html-keyboard-response","100","489116","0.0-7.0-0.0-1.0-0.0-1.45","3","3","4","3","4","3","3","2","3","3","3","4","2","4","3","4","2","2","4","4","4","4","4","4","4","4","4","4","4","1","0","0","1","0","0","1","1","0","1","1","0","0","0","1","5","5","4","2","5","3","4","4","4","3","1","678265376743620608","王","533","","","","","","","","","","","","","","","","","","","","","","","","","","","","","","feedback_test","","","","","","","","","","","",""
"798","","f","psychophysics","101","490916","0.0-7.0-0.0-1.0-0.0-0.46","3","3","4","3","4","3","3","2","3","3","3","4","2","4","3","4","2","2","4","4","4","4","4","4","4","4","4","4","4","1","0","0","1","0","0","1","1","0","1","1","0","0","0","1","5","5","4","2","5","3","4","4","4","3","1","678265376743620608","王","533","","","","nonmatch","","","","","","","","","","","","","","key","f","16.66074766355151","581.2120876189673","322.7272540741398","j","false","match","img/square.png","方形","方形","ALT1_1","prac_ALT1_1","","","","","","","","","","","",""
"null","<span style='color:red; font-size: 70px;'>错误! </span>","null","html-keyboard-response","102","491419","0.0-7.0-0.0-1.0-0.0-1.46","3","3","4","3","4","3","3","2","3","3","3","4","2","4","3","4","2","2","4","4","4","4","4","4","4","4","4","4","4","1","0","0","1","0","0","1","1","0","1","1","0","0","0","1","5","5","4","2","5","3","4","4","4","3","1","678265376743620608","王","533","","","","","","","","","","","","","","","","","","","","","","","","","","","","","","feedback_test","","","","","","","","","","","",""
"987","","f","psychophysics","103","493409","0.0-7.0-0.0-1.0-0.0-0.47","3","3","4","3","4","3","3","2","3","3","3","4","2","4","3","4","2","2","4","4","4","4","4","4","4","4","4","4","4","1","0","0","1","0","0","1","1","0","1","1","0","0","0","1","5","5","4","2","5","3","4","4","4","3","1","678265376743620608","王","533","","","","nonmatch","","","","","","","","","","","","","","key","f","16.66016949152562","581.2120876189673","322.7272540741398","f","true","nonmatch","img/square.png","圆形","方形","ALT1_1","prac_ALT1_1","","","","","","","","","","","",""
"null","<span style='color:GreenYellow; font-size: 70px;'>正确! </span>","null","html-keyboard-response","104","493913","0.0-7.0-0.0-1.0-0.0-1.47","3","3","4","3","4","3","3","2","3","3","3","4","2","4","3","4","2","2","4","4","4","4","4","4","4","4","4","4","4","1","0","0","1","0","0","1","1","0","1","1","0","0","0","1","5","5","4","2","5","3","4","4","4","3","1","678265376743620608","王","533","","","","","","","","","","","","","","","","","","","","","","","","","","","","","","feedback_test","","","","","","","","","","","",""
"11760","<style>.context{color:white; font-size: 35px; line-height:40px}</style>                            <div><p class='context'>您正确回答了79% 的试次。</p><p class='context'>您的平均反应时为806毫秒。</p><p class='context'>恭喜您完成练习。按空格键进入正式实验。</p><p class='footer' style='font-size: 35px; line-height:40px;'>请在进入正式实验之前将您的<span style='color: lightgreen;'>食指</span>放在电脑键盘的相应键位上进行按键。</p>","arrowright","html-keyboard-response","105","505681","0.0-7.0-0.0-2.0","3","3","4","3","4","3","3","2","3","3","3","4","2","4","3","4","2","2","4","4","4","4","4","4","4","4","4","4","4","1","0","0","1","0","0","1","1","0","1","1","0","0","0","1","5","5","4","2","5","3","4","4","4","3","1","678265376743620608","王","533","","","","","","","","","","","","","","","","","","","","","","","","","","","","","","","","","","","","","","","","","",""
"8220","
    <p style='color: white; font-size: 22px'>请您将手指放在按键上，准备进入正式的匹配任务。</p>
    <p> <div style = ""color: green""><按空格键进入下一阶段的匹配任务></div></p>
    "," ","html-keyboard-response","106","513906","0.0-7.0-0.0-3.0","3","3","4","3","4","3","3","2","3","3","3","4","2","4","3","4","2","2","4","4","4","4","4","4","4","4","4","4","4","1","0","0","1","0","0","1","1","0","1","1","0","0","0","1","5","5","4","2","5","3","4","4","4","3","1","678265376743620608","王","533","","","","","","","","","","","","","","","","","","","","","","","","","","","","","","","","","","","","","","","","","",""
"976","","f","psychophysics","107","515885","0.0-7.0-0.0-4.0-0.0-0.0","3","3","4","3","4","3","3","2","3","3","3","4","2","4","3","4","2","2","4","4","4","4","4","4","4","4","4","4","4","1","0","0","1","0","0","1","1","0","1","1","0","0","0","1","5","5","4","2","5","3","4","4","4","3","1","678265376743620608","王","533","","","","nonmatch","","","","","","","","","","","","","","key","f","16.659829059828663","581.2120876189673","322.7272540741398","f","true","nonmatch","img/trapezoid.png","方形","梯形","ALT1","formal_ALT1_1","","","","","","","","","","","",""
"null","<span style='color:GreenYellow; font-size: 70px;'>正确! </span>","null","html-keyboard-response","108","516388","0.0-7.0-0.0-4.0-0.0-1.0","3","3","4","3","4","3","3","2","3","3","3","4","2","4","3","4","2","2","4","4","4","4","4","4","4","4","4","4","4","1","0","0","1","0","0","1","1","0","1","1","0","0","0","1","5","5","4","2","5","3","4","4","4","3","1","678265376743620608","王","533","","","","","","","","","","","","","","","","","","","","","","","","","","","","","","feedback_test","","","","","","","","","","","",""
"892","","j","psychophysics","109","518283","0.0-7.0-0.0-4.0-0.0-0.1","3","3","4","3","4","3","3","2","3","3","3","4","2","4","3","4","2","2","4","4","4","4","4","4","4","4","4","4","4","1","0","0","1","0","0","1","1","0","1","1","0","0","0","1","5","5","4","2","5","3","4","4","4","3","1","678265376743620608","王","533","","","","match","","","","","","","","","","","","","","key","j","16.652678571428364","581.2120876189673","322.7272540741398","j","true","match","img/square.png","方形","方形","ALT1","formal_ALT1_1","","","","","","","","","","","",""
"null","<span style='color:GreenYellow; font-size: 70px;'>正确! </span>","null","html-keyboard-response","110","518786","0.0-7.0-0.0-4.0-0.0-1.1","3","3","4","3","4","3","3","2","3","3","3","4","2","4","3","4","2","2","4","4","4","4","4","4","4","4","4","4","4","1","0","0","1","0","0","1","1","0","1","1","0","0","0","1","5","5","4","2","5","3","4","4","4","3","1","678265376743620608","王","533","","","","","","","","","","","","","","","","","","","","","","","","","","","","","","feedback_test","","","","","","","","","","","",""
"715","","j","psychophysics","111","520504","0.0-7.0-0.0-4.0-0.0-0.2","3","3","4","3","4","3","3","2","3","3","3","4","2","4","3","4","2","2","4","4","4","4","4","4","4","4","4","4","4","1","0","0","1","0","0","1","1","0","1","1","0","0","0","1","5","5","4","2","5","3","4","4","4","3","1","678265376743620608","王","533","","","","match","","","","","","","","","","","","","","key","j","16.65686274509804","581.2120876189673","322.7272540741398","j","true","match","img/circle.png","圆形","圆形","ALT1","formal_ALT1_1","","","","","","","","","","","",""
"null","<span style='color:GreenYellow; font-size: 70px;'>正确! </span>","null","html-keyboard-response","112","521006","0.0-7.0-0.0-4.0-0.0-1.2","3","3","4","3","4","3","3","2","3","3","3","4","2","4","3","4","2","2","4","4","4","4","4","4","4","4","4","4","4","1","0","0","1","0","0","1","1","0","1","1","0","0","0","1","5","5","4","2","5","3","4","4","4","3","1","678265376743620608","王","533","","","","","","","","","","","","","","","","","","","","","","","","","","","","","","feedback_test","","","","","","","","","","","",""
"701","","f","psychophysics","113","522711","0.0-7.0-0.0-4.0-0.0-0.3","3","3","4","3","4","3","3","2","3","3","3","4","2","4","3","4","2","2","4","4","4","4","4","4","4","4","4","4","4","1","0","0","1","0","0","1","1","0","1","1","0","0","0","1","5","5","4","2","5","3","4","4","4","3","1","678265376743620608","王","533","","","","nonmatch","","","","","","","","","","","","","","key","f","16.659405940594404","581.2120876189673","322.7272540741398","f","true","nonmatch","img/circle.png","梯形","圆形","ALT1","formal_ALT1_1","","","","","","","","","","","",""
"null","<span style='color:GreenYellow; font-size: 70px;'>正确! </span>","null","html-keyboard-response","114","523214","0.0-7.0-0.0-4.0-0.0-1.3","3","3","4","3","4","3","3","2","3","3","3","4","2","4","3","4","2","2","4","4","4","4","4","4","4","4","4","4","4","1","0","0","1","0","0","1","1","0","1","1","0","0","0","1","5","5","4","2","5","3","4","4","4","3","1","678265376743620608","王","533","","","","","","","","","","","","","","","","","","","","","","","","","","","","","","feedback_test","","","","","","","","","","","",""
"924","","f","psychophysics","115","525140","0.0-7.0-0.0-4.0-0.0-0.4","3","3","4","3","4","3","3","2","3","3","3","4","2","4","3","4","2","2","4","4","4","4","4","4","4","4","4","4","4","1","0","0","1","0","0","1","1","0","1","1","0","0","0","1","5","5","4","2","5","3","4","4","4","3","1","678265376743620608","王","533","","","","nonmatch","","","","","","","","","","","","","","key","f","16.66173913043458","581.2120876189673","322.7272540741398","f","true","nonmatch","img/hexagon.png","圆形","六边","ALT1","formal_ALT1_1","","","","","","","","","","","",""
"null","<span style='color:GreenYellow; font-size: 70px;'>正确! </span>","null","html-keyboard-response","116","525642","0.0-7.0-0.0-4.0-0.0-1.4","3","3","4","3","4","3","3","2","3","3","3","4","2","4","3","4","2","2","4","4","4","4","4","4","4","4","4","4","4","1","0","0","1","0","0","1","1","0","1","1","0","0","0","1","5","5","4","2","5","3","4","4","4","3","1","678265376743620608","王","533","","","","","","","","","","","","","","","","","","","","","","","","","","","","","","feedback_test","","","","","","","","","","","",""
"838","","f","psychophysics","117","527484","0.0-7.0-0.0-4.0-0.0-0.5","3","3","4","3","4","3","3","2","3","3","3","4","2","4","3","4","2","2","4","4","4","4","4","4","4","4","4","4","4","1","0","0","1","0","0","1","1","0","1","1","0","0","0","1","5","5","4","2","5","3","4","4","4","3","1","678265376743620608","王","533","","","","nonmatch","","","","","","","","","","","","","","key","f","16.66330275229294","581.2120876189673","322.7272540741398","f","true","nonmatch","img/circle.png","方形","圆形","ALT1","formal_ALT1_1","","","","","","","","","","","",""
"null","<span style='color:GreenYellow; font-size: 70px;'>正确! </span>","null","html-keyboard-response","118","527987","0.0-7.0-0.0-4.0-0.0-1.5","3","3","4","3","4","3","3","2","3","3","3","4","2","4","3","4","2","2","4","4","4","4","4","4","4","4","4","4","4","1","0","0","1","0","0","1","1","0","1","1","0","0","0","1","5","5","4","2","5","3","4","4","4","3","1","678265376743620608","王","533","","","","","","","","","","","","","","","","","","","","","","","","","","","","","","feedback_test","","","","","","","","","","","",""
"751","","j","psychophysics","119","529741","0.0-7.0-0.0-4.0-0.0-0.6","3","3","4","3","4","3","3","2","3","3","3","4","2","4","3","4","2","2","4","4","4","4","4","4","4","4","4","4","4","1","0","0","1","0","0","1","1","0","1","1","0","0","0","1","5","5","4","2","5","3","4","4","4","3","1","678265376743620608","王","533","","","","match","","","","","","","","","","","","","","key","j","16.658653846153847","581.2120876189673","322.7272540741398","j","true","match","img/hexagon.png","六边","六边","ALT1","formal_ALT1_1","","","","","","","","","","","",""
"null","<span style='color:GreenYellow; font-size: 70px;'>正确! </span>","null","html-keyboard-response","120","530242","0.0-7.0-0.0-4.0-0.0-1.6","3","3","4","3","4","3","3","2","3","3","3","4","2","4","3","4","2","2","4","4","4","4","4","4","4","4","4","4","4","1","0","0","1","0","0","1","1","0","1","1","0","0","0","1","5","5","4","2","5","3","4","4","4","3","1","678265376743620608","王","533","","","","","","","","","","","","","","","","","","","","","","","","","","","","","","feedback_test","","","","","","","","","","","",""
"1057","","j","psychophysics","121","532303","0.0-7.0-0.0-4.0-0.0-0.7","3","3","4","3","4","3","3","2","3","3","3","4","2","4","3","4","2","2","4","4","4","4","4","4","4","4","4","4","4","1","0","0","1","0","0","1","1","0","1","1","0","0","0","1","5","5","4","2","5","3","4","4","4","3","1","678265376743620608","王","533","","","","match","","","","","","","","","","","","","","key","j","16.660162601625636","581.2120876189673","322.7272540741398","j","true","match","img/square.png","方形","方形","ALT1","formal_ALT1_1","","","","","","","","","","","",""
"null","<span style='color:GreenYellow; font-size: 70px;'>正确! </span>","null","html-keyboard-response","122","532808","0.0-7.0-0.0-4.0-0.0-1.7","3","3","4","3","4","3","3","2","3","3","3","4","2","4","3","4","2","2","4","4","4","4","4","4","4","4","4","4","4","1","0","0","1","0","0","1","1","0","1","1","0","0","0","1","5","5","4","2","5","3","4","4","4","3","1","678265376743620608","王","533","","","","","","","","","","","","","","","","","","","","","","","","","","","","","","feedback_test","","","","","","","","","","","",""
"785","","j","psychophysics","123","534597","0.0-7.0-0.0-4.0-0.0-0.8","3","3","4","3","4","3","3","2","3","3","3","4","2","4","3","4","2","2","4","4","4","4","4","4","4","4","4","4","4","1","0","0","1","0","0","1","1","0","1","1","0","0","0","1","5","5","4","2","5","3","4","4","4","3","1","678265376743620608","王","533","","","","match","","","","","","","","","","","","","","key","j","16.664150943396447","581.2120876189673","322.7272540741398","j","true","match","img/trapezoid.png","梯形","梯形","ALT1","formal_ALT1_1","","","","","","","","","","","",""
"null","<span style='color:GreenYellow; font-size: 70px;'>正确! </span>","null","html-keyboard-response","124","535099","0.0-7.0-0.0-4.0-0.0-1.8","3","3","4","3","4","3","3","2","3","3","3","4","2","4","3","4","2","2","4","4","4","4","4","4","4","4","4","4","4","1","0","0","1","0","0","1","1","0","1","1","0","0","0","1","5","5","4","2","5","3","4","4","4","3","1","678265376743620608","王","533","","","","","","","","","","","","","","","","","","","","","","","","","","","","","","feedback_test","","","","","","","","","","","",""
"618","","j","psychophysics","125","536719","0.0-7.0-0.0-4.0-0.0-0.9","3","3","4","3","4","3","3","2","3","3","3","4","2","4","3","4","2","2","4","4","4","4","4","4","4","4","4","4","4","1","0","0","1","0","0","1","1","0","1","1","0","0","0","1","5","5","4","2","5","3","4","4","4","3","1","678265376743620608","王","533","","","","match","","","","","","","","","","","","","","key","j","16.659375000000484","581.2120876189673","322.7272540741398","j","true","match","img/circle.png","圆形","圆形","ALT1","formal_ALT1_1","","","","","","","","","","","",""
"null","<span style='color:GreenYellow; font-size: 70px;'>正确! </span>","null","html-keyboard-response","126","537221","0.0-7.0-0.0-4.0-0.0-1.9","3","3","4","3","4","3","3","2","3","3","3","4","2","4","3","4","2","2","4","4","4","4","4","4","4","4","4","4","4","1","0","0","1","0","0","1","1","0","1","1","0","0","0","1","5","5","4","2","5","3","4","4","4","3","1","678265376743620608","王","533","","","","","","","","","","","","","","","","","","","","","","","","","","","","","","feedback_test","","","","","","","","","","","",""
"665","","j","psychophysics","127","538888","0.0-7.0-0.0-4.0-0.0-0.10","3","3","4","3","4","3","3","2","3","3","3","4","2","4","3","4","2","2","4","4","4","4","4","4","4","4","4","4","4","1","0","0","1","0","0","1","1","0","1","1","0","0","0","1","5","5","4","2","5","3","4","4","4","3","1","678265376743620608","王","533","","","","match","","","","","","","","","","","","","","key","j","16.663636363637067","581.2120876189673","322.7272540741398","j","true","match","img/circle.png","圆形","圆形","ALT1","formal_ALT1_1","","","","","","","","","","","",""
"null","<span style='color:GreenYellow; font-size: 70px;'>正确! </span>","null","html-keyboard-response","128","539390","0.0-7.0-0.0-4.0-0.0-1.10","3","3","4","3","4","3","3","2","3","3","3","4","2","4","3","4","2","2","4","4","4","4","4","4","4","4","4","4","4","1","0","0","1","0","0","1","1","0","1","1","0","0","0","1","5","5","4","2","5","3","4","4","4","3","1","678265376743620608","王","533","","","","","","","","","","","","","","","","","","","","","","","","","","","","","","feedback_test","","","","","","","","","","","",""
"796","","j","psychophysics","129","541189","0.0-7.0-0.0-4.0-0.0-0.11","3","3","4","3","4","3","3","2","3","3","3","4","2","4","3","4","2","2","4","4","4","4","4","4","4","4","4","4","4","1","0","0","1","0","0","1","1","0","1","1","0","0","0","1","5","5","4","2","5","3","4","4","4","3","1","678265376743620608","王","533","","","","match","","","","","","","","","","","","","","key","j","16.657943925233862","581.2120876189673","322.7272540741398","j","true","match","img/square.png","方形","方形","ALT1","formal_ALT1_1","","","","","","","","","","","",""
"null","<span style='color:GreenYellow; font-size: 70px;'>正确! </span>","null","html-keyboard-response","130","541692","0.0-7.0-0.0-4.0-0.0-1.11","3","3","4","3","4","3","3","2","3","3","3","4","2","4","3","4","2","2","4","4","4","4","4","4","4","4","4","4","4","1","0","0","1","0","0","1","1","0","1","1","0","0","0","1","5","5","4","2","5","3","4","4","4","3","1","678265376743620608","王","533","","","","","","","","","","","","","","","","","","","","","","","","","","","","","","feedback_test","","","","","","","","","","","",""
"995","","f","psychophysics","131","543689","0.0-7.0-0.0-4.0-0.0-0.12","3","3","4","3","4","3","3","2","3","3","3","4","2","4","3","4","2","2","4","4","4","4","4","4","4","4","4","4","4","1","0","0","1","0","0","1","1","0","1","1","0","0","0","1","5","5","4","2","5","3","4","4","4","3","1","678265376743620608","王","533","","","","nonmatch","","","","","","","","","","","","","","key","f","16.660504201680478","581.2120876189673","322.7272540741398","f","true","nonmatch","img/hexagon.png","梯形","六边","ALT1","formal_ALT1_1","","","","","","","","","","","",""
"null","<span style='color:GreenYellow; font-size: 70px;'>正确! </span>","null","html-keyboard-response","132","544191","0.0-7.0-0.0-4.0-0.0-1.12","3","3","4","3","4","3","3","2","3","3","3","4","2","4","3","4","2","2","4","4","4","4","4","4","4","4","4","4","4","1","0","0","1","0","0","1","1","0","1","1","0","0","0","1","5","5","4","2","5","3","4","4","4","3","1","678265376743620608","王","533","","","","","","","","","","","","","","","","","","","","","","","","","","","","","","feedback_test","","","","","","","","","","","",""
"759","","f","psychophysics","133","545954","0.0-7.0-0.0-4.0-0.0-0.13","3","3","4","3","4","3","3","2","3","3","3","4","2","4","3","4","2","2","4","4","4","4","4","4","4","4","4","4","4","1","0","0","1","0","0","1","1","0","1","1","0","0","0","1","5","5","4","2","5","3","4","4","4","3","1","678265376743620608","王","533","","","","nonmatch","","","","","","","","","","","","","","key","f","16.65714285714286","581.2120876189673","322.7272540741398","f","true","nonmatch","img/circle.png","六边","圆形","ALT1","formal_ALT1_1","","","","","","","","","","","",""
"null","<span style='color:GreenYellow; font-size: 70px;'>正确! </span>","null","html-keyboard-response","134","546457","0.0-7.0-0.0-4.0-0.0-1.13","3","3","4","3","4","3","3","2","3","3","3","4","2","4","3","4","2","2","4","4","4","4","4","4","4","4","4","4","4","1","0","0","1","0","0","1","1","0","1","1","0","0","0","1","5","5","4","2","5","3","4","4","4","3","1","678265376743620608","王","533","","","","","","","","","","","","","","","","","","","","","","","","","","","","","","feedback_test","","","","","","","","","","","",""
"895","","f","psychophysics","135","548355","0.0-7.0-0.0-4.0-0.0-0.14","3","3","4","3","4","3","3","2","3","3","3","4","2","4","3","4","2","2","4","4","4","4","4","4","4","4","4","4","4","1","0","0","1","0","0","1","1","0","1","1","0","0","0","1","5","5","4","2","5","3","4","4","4","3","1","678265376743620608","王","533","","","","nonmatch","","","","","","","","","","","","","","key","f","16.654867256637168","581.2120876189673","322.7272540741398","f","true","nonmatch","img/square.png","梯形","方形","ALT1","formal_ALT1_1","","","","","","","","","","","",""
"null","<span style='color:GreenYellow; font-size: 70px;'>正确! </span>","null","html-keyboard-response","136","548857","0.0-7.0-0.0-4.0-0.0-1.14","3","3","4","3","4","3","3","2","3","3","3","4","2","4","3","4","2","2","4","4","4","4","4","4","4","4","4","4","4","1","0","0","1","0","0","1","1","0","1","1","0","0","0","1","5","5","4","2","5","3","4","4","4","3","1","678265376743620608","王","533","","","","","","","","","","","","","","","","","","","","","","","","","","","","","","feedback_test","","","","","","","","","","","",""
"773","","j","psychophysics","137","550633","0.0-7.0-0.0-4.0-0.0-0.15","3","3","4","3","4","3","3","2","3","3","3","4","2","4","3","4","2","2","4","4","4","4","4","4","4","4","4","4","4","1","0","0","1","0","0","1","1","0","1","1","0","0","0","1","5","5","4","2","5","3","4","4","4","3","1","678265376743620608","王","533","","","","match","","","","","","","","","","","","","","key","j","16.659047619047175","581.2120876189673","322.7272540741398","f","false","nonmatch","img/trapezoid.png","圆形","梯形","ALT1","formal_ALT1_1","","","","","","","","","","","",""
"null","<span style='color:red; font-size: 70px;'>错误! </span>","null","html-keyboard-response","138","551136","0.0-7.0-0.0-4.0-0.0-1.15","3","3","4","3","4","3","3","2","3","3","3","4","2","4","3","4","2","2","4","4","4","4","4","4","4","4","4","4","4","1","0","0","1","0","0","1","1","0","1","1","0","0","0","1","5","5","4","2","5","3","4","4","4","3","1","678265376743620608","王","533","","","","","","","","","","","","","","","","","","","","","","","","","","","","","","feedback_test","","","","","","","","","","","",""
"961","","j","psychophysics","139","553100","0.0-7.0-0.0-4.0-0.0-0.16","3","3","4","3","4","3","3","2","3","3","3","4","2","4","3","4","2","2","4","4","4","4","4","4","4","4","4","4","4","1","0","0","1","0","0","1","1","0","1","1","0","0","0","1","5","5","4","2","5","3","4","4","4","3","1","678265376743620608","王","533","","","","match","","","","","","","","","","","","","","key","j","16.656896551723737","581.2120876189673","322.7272540741398","j","true","match","img/hexagon.png","六边","六边","ALT1","formal_ALT1_1","","","","","","","","","","","",""
"null","<span style='color:GreenYellow; font-size: 70px;'>正确! </span>","null","html-keyboard-response","140","553602","0.0-7.0-0.0-4.0-0.0-1.16","3","3","4","3","4","3","3","2","3","3","3","4","2","4","3","4","2","2","4","4","4","4","4","4","4","4","4","4","4","1","0","0","1","0","0","1","1","0","1","1","0","0","0","1","5","5","4","2","5","3","4","4","4","3","1","678265376743620608","王","533","","","","","","","","","","","","","","","","","","","","","","","","","","","","","","feedback_test","","","","","","","","","","","",""
"809","","f","psychophysics","141","555415","0.0-7.0-0.0-4.0-0.0-0.17","3","3","4","3","4","3","3","2","3","3","3","4","2","4","3","4","2","2","4","4","4","4","4","4","4","4","4","4","4","1","0","0","1","0","0","1","1","0","1","1","0","0","0","1","5","5","4","2","5","3","4","4","4","3","1","678265376743620608","王","533","","","","nonmatch","","","","","","","","","","","","","","key","f","16.6564814814817","581.2120876189673","322.7272540741398","f","true","nonmatch","img/hexagon.png","方形","六边","ALT1","formal_ALT1_1","","","","","","","","","","","",""
"null","<span style='color:GreenYellow; font-size: 70px;'>正确! </span>","null","html-keyboard-response","142","555918","0.0-7.0-0.0-4.0-0.0-1.17","3","3","4","3","4","3","3","2","3","3","3","4","2","4","3","4","2","2","4","4","4","4","4","4","4","4","4","4","4","1","0","0","1","0","0","1","1","0","1","1","0","0","0","1","5","5","4","2","5","3","4","4","4","3","1","678265376743620608","王","533","","","","","","","","","","","","","","","","","","","","","","","","","","","","","","feedback_test","","","","","","","","","","","",""
"953","","j","psychophysics","143","557875","0.0-7.0-0.0-4.0-0.0-0.18","3","3","4","3","4","3","3","2","3","3","3","4","2","4","3","4","2","2","4","4","4","4","4","4","4","4","4","4","4","1","0","0","1","0","0","1","1","0","1","1","0","0","0","1","5","5","4","2","5","3","4","4","4","3","1","678265376743620608","王","533","","","","match","","","","","","","","","","","","","","key","j","16.657264957265156","581.2120876189673","322.7272540741398","j","true","match","img/trapezoid.png","梯形","梯形","ALT1","formal_ALT1_1","","","","","","","","","","","",""
"null","<span style='color:GreenYellow; font-size: 70px;'>正确! </span>","null","html-keyboard-response","144","558377","0.0-7.0-0.0-4.0-0.0-1.18","3","3","4","3","4","3","3","2","3","3","3","4","2","4","3","4","2","2","4","4","4","4","4","4","4","4","4","4","4","1","0","0","1","0","0","1","1","0","1","1","0","0","0","1","5","5","4","2","5","3","4","4","4","3","1","678265376743620608","王","533","","","","","","","","","","","","","","","","","","","","","","","","","","","","","","feedback_test","","","","","","","","","","","",""
"691","","f","psychophysics","145","560072","0.0-7.0-0.0-4.0-0.0-0.19","3","3","4","3","4","3","3","2","3","3","3","4","2","4","3","4","2","2","4","4","4","4","4","4","4","4","4","4","4","1","0","0","1","0","0","1","1","0","1","1","0","0","0","1","5","5","4","2","5","3","4","4","4","3","1","678265376743620608","王","533","","","","nonmatch","","","","","","","","","","","","","","key","f","16.663366336633665","581.2120876189673","322.7272540741398","f","true","nonmatch","img/square.png","圆形","方形","ALT1","formal_ALT1_1","","","","","","","","","","","",""
"null","<span style='color:GreenYellow; font-size: 70px;'>正确! </span>","null","html-keyboard-response","146","560583","0.0-7.0-0.0-4.0-0.0-1.19","3","3","4","3","4","3","3","2","3","3","3","4","2","4","3","4","2","2","4","4","4","4","4","4","4","4","4","4","4","1","0","0","1","0","0","1","1","0","1","1","0","0","0","1","5","5","4","2","5","3","4","4","4","3","1","678265376743620608","王","533","","","","","","","","","","","","","","","","","","","","","","","","","","","","","","feedback_test","","","","","","","","","","","",""
"840","","f","psychophysics","147","562425","0.0-7.0-0.0-4.0-0.0-0.20","3","3","4","3","4","3","3","2","3","3","3","4","2","4","3","4","2","2","4","4","4","4","4","4","4","4","4","4","4","1","0","0","1","0","0","1","1","0","1","1","0","0","0","1","5","5","4","2","5","3","4","4","4","3","1","678265376743620608","王","533","","","","nonmatch","","","","","","","","","","","","","","key","f","16.814814814814813","581.2120876189673","322.7272540741398","f","true","nonmatch","img/square.png","六边","方形","ALT1","formal_ALT1_1","","","","","","","","","","","",""
"null","<span style='color:GreenYellow; font-size: 70px;'>正确! </span>","null","html-keyboard-response","148","562927","0.0-7.0-0.0-4.0-0.0-1.20","3","3","4","3","4","3","3","2","3","3","3","4","2","4","3","4","2","2","4","4","4","4","4","4","4","4","4","4","4","1","0","0","1","0","0","1","1","0","1","1","0","0","0","1","5","5","4","2","5","3","4","4","4","3","1","678265376743620608","王","533","","","","","","","","","","","","","","","","","","","","","","","","","","","","","","feedback_test","","","","","","","","","","","",""
"880","","j","psychophysics","149","564810","0.0-7.0-0.0-4.0-0.0-0.21","3","3","4","3","4","3","3","2","3","3","3","4","2","4","3","4","2","2","4","4","4","4","4","4","4","4","4","4","4","1","0","0","1","0","0","1","1","0","1","1","0","0","0","1","5","5","4","2","5","3","4","4","4","3","1","678265376743620608","王","533","","","","match","","","","","","","","","","","","","","key","j","16.66428571428592","581.2120876189673","322.7272540741398","j","true","match","img/trapezoid.png","梯形","梯形","ALT1","formal_ALT1_1","","","","","","","","","","","",""
"null","<span style='color:GreenYellow; font-size: 70px;'>正确! </span>","null","html-keyboard-response","150","565313","0.0-7.0-0.0-4.0-0.0-1.21","3","3","4","3","4","3","3","2","3","3","3","4","2","4","3","4","2","2","4","4","4","4","4","4","4","4","4","4","4","1","0","0","1","0","0","1","1","0","1","1","0","0","0","1","5","5","4","2","5","3","4","4","4","3","1","678265376743620608","王","533","","","","","","","","","","","","","","","","","","","","","","","","","","","","","","feedback_test","","","","","","","","","","","",""
"904","","f","psychophysics","151","567220","0.0-7.0-0.0-4.0-0.0-0.22","3","3","4","3","4","3","3","2","3","3","3","4","2","4","3","4","2","2","4","4","4","4","4","4","4","4","4","4","4","1","0","0","1","0","0","1","1","0","1","1","0","0","0","1","5","5","4","2","5","3","4","4","4","3","1","678265376743620608","王","533","","","","nonmatch","","","","","","","","","","","","","","key","f","16.657894736842106","581.2120876189673","322.7272540741398","j","false","match","img/hexagon.png","六边","六边","ALT1","formal_ALT1_1","","","","","","","","","","","",""
"null","<span style='color:red; font-size: 70px;'>错误! </span>","null","html-keyboard-response","152","567721","0.0-7.0-0.0-4.0-0.0-1.22","3","3","4","3","4","3","3","2","3","3","3","4","2","4","3","4","2","2","4","4","4","4","4","4","4","4","4","4","4","1","0","0","1","0","0","1","1","0","1","1","0","0","0","1","5","5","4","2","5","3","4","4","4","3","1","678265376743620608","王","533","","","","","","","","","","","","","","","","","","","","","","","","","","","","","","feedback_test","","","","","","","","","","","",""
"912","","j","psychophysics","153","569638","0.0-7.0-0.0-4.0-0.0-0.23","3","3","4","3","4","3","3","2","3","3","3","4","2","4","3","4","2","2","4","4","4","4","4","4","4","4","4","4","4","1","0","0","1","0","0","1","1","0","1","1","0","0","0","1","5","5","4","2","5","3","4","4","4","3","1","678265376743620608","王","533","","","","match","","","","","","","","","","","","","","key","j","16.666666666666668","581.2120876189673","322.7272540741398","f","false","nonmatch","img/trapezoid.png","六边","梯形","ALT1","formal_ALT1_1","","","","","","","","","","","",""
"null","<span style='color:red; font-size: 70px;'>错误! </span>","null","html-keyboard-response","154","570140","0.0-7.0-0.0-4.0-0.0-1.23","3","3","4","3","4","3","3","2","3","3","3","4","2","4","3","4","2","2","4","4","4","4","4","4","4","4","4","4","4","1","0","0","1","0","0","1","1","0","1","1","0","0","0","1","5","5","4","2","5","3","4","4","4","3","1","678265376743620608","王","533","","","","","","","","","","","","","","","","","","","","","","","","","","","","","","feedback_test","","","","","","","","","","","",""
"712","","j","psychophysics","155","571857","0.0-7.0-0.0-4.0-0.0-0.24","3","3","4","3","4","3","3","2","3","3","3","4","2","4","3","4","2","2","4","4","4","4","4","4","4","4","4","4","4","1","0","0","1","0","0","1","1","0","1","1","0","0","0","1","5","5","4","2","5","3","4","4","4","3","1","678265376743620608","王","533","","","","match","","","","","","","","","","","","","","key","j","16.657843137254673","581.2120876189673","322.7272540741398","j","true","match","img/square.png","方形","方形","ALT1","formal_ALT1_1","","","","","","","","","","","",""
"null","<span style='color:GreenYellow; font-size: 70px;'>正确! </span>","null","html-keyboard-response","156","572359","0.0-7.0-0.0-4.0-0.0-1.24","3","3","4","3","4","3","3","2","3","3","3","4","2","4","3","4","2","2","4","4","4","4","4","4","4","4","4","4","4","1","0","0","1","0","0","1","1","0","1","1","0","0","0","1","5","5","4","2","5","3","4","4","4","3","1","678265376743620608","王","533","","","","","","","","","","","","","","","","","","","","","","","","","","","","","","feedback_test","","","","","","","","","","","",""
"728","","j","psychophysics","157","574091","0.0-7.0-0.0-4.0-0.0-0.25","3","3","4","3","4","3","3","2","3","3","3","4","2","4","3","4","2","2","4","4","4","4","4","4","4","4","4","4","4","1","0","0","1","0","0","1","1","0","1","1","0","0","0","1","5","5","4","2","5","3","4","4","4","3","1","678265376743620608","王","533","","","","match","","","","","","","","","","","","","","key","j","16.648039215686047","581.2120876189673","322.7272540741398","j","true","match","img/square.png","方形","方形","ALT1","formal_ALT1_1","","","","","","","","","","","",""
"null","<span style='color:GreenYellow; font-size: 70px;'>正确! </span>","null","html-keyboard-response","158","574593","0.0-7.0-0.0-4.0-0.0-1.25","3","3","4","3","4","3","3","2","3","3","3","4","2","4","3","4","2","2","4","4","4","4","4","4","4","4","4","4","4","1","0","0","1","0","0","1","1","0","1","1","0","0","0","1","5","5","4","2","5","3","4","4","4","3","1","678265376743620608","王","533","","","","","","","","","","","","","","","","","","","","","","","","","","","","","","feedback_test","","","","","","","","","","","",""
"1005","","j","psychophysics","159","576601","0.0-7.0-0.0-4.0-0.0-0.26","3","3","4","3","4","3","3","2","3","3","3","4","2","4","3","4","2","2","4","4","4","4","4","4","4","4","4","4","4","1","0","0","1","0","0","1","1","0","1","1","0","0","0","1","5","5","4","2","5","3","4","4","4","3","1","678265376743620608","王","533","","","","match","","","","","","","","","","","","","","key","j","16.657500000000194","581.2120876189673","322.7272540741398","j","true","match","img/hexagon.png","六边","六边","ALT1","formal_ALT1_1","","","","","","","","","","","",""
"null","<span style='color:GreenYellow; font-size: 70px;'>正确! </span>","null","html-keyboard-response","160","577103","0.0-7.0-0.0-4.0-0.0-1.26","3","3","4","3","4","3","3","2","3","3","3","4","2","4","3","4","2","2","4","4","4","4","4","4","4","4","4","4","4","1","0","0","1","0","0","1","1","0","1","1","0","0","0","1","5","5","4","2","5","3","4","4","4","3","1","678265376743620608","王","533","","","","","","","","","","","","","","","","","","","","","","","","","","","","","","feedback_test","","","","","","","","","","","",""
"791","","f","psychophysics","161","578898","0.0-7.0-0.0-4.0-0.0-0.27","3","3","4","3","4","3","3","2","3","3","3","4","2","4","3","4","2","2","4","4","4","4","4","4","4","4","4","4","4","1","0","0","1","0","0","1","1","0","1","1","0","0","0","1","5","5","4","2","5","3","4","4","4","3","1","678265376743620608","王","533","","","","nonmatch","","","","","","","","","","","","","","key","f","16.660747663550968","581.2120876189673","322.7272540741398","f","true","nonmatch","img/circle.png","梯形","圆形","ALT1","formal_ALT1_1","","","","","","","","","","","",""
"null","<span style='color:GreenYellow; font-size: 70px;'>正确! </span>","null","html-keyboard-response","162","579401","0.0-7.0-0.0-4.0-0.0-1.27","3","3","4","3","4","3","3","2","3","3","3","4","2","4","3","4","2","2","4","4","4","4","4","4","4","4","4","4","4","1","0","0","1","0","0","1","1","0","1","1","0","0","0","1","5","5","4","2","5","3","4","4","4","3","1","678265376743620608","王","533","","","","","","","","","","","","","","","","","","","","","","","","","","","","","","feedback_test","","","","","","","","","","","",""
"800","","f","psychophysics","163","581204","0.0-7.0-0.0-4.0-0.0-0.28","3","3","4","3","4","3","3","2","3","3","3","4","2","4","3","4","2","2","4","4","4","4","4","4","4","4","4","4","4","1","0","0","1","0","0","1","1","0","1","1","0","0","0","1","5","5","4","2","5","3","4","4","4","3","1","678265376743620608","王","533","","","","nonmatch","","","","","","","","","","","","","","key","f","16.660747663550968","581.2120876189673","322.7272540741398","f","true","nonmatch","img/square.png","梯形","方形","ALT1","formal_ALT1_1","","","","","","","","","","","",""
"null","<span style='color:GreenYellow; font-size: 70px;'>正确! </span>","null","html-keyboard-response","164","581715","0.0-7.0-0.0-4.0-0.0-1.28","3","3","4","3","4","3","3","2","3","3","3","4","2","4","3","4","2","2","4","4","4","4","4","4","4","4","4","4","4","1","0","0","1","0","0","1","1","0","1","1","0","0","0","1","5","5","4","2","5","3","4","4","4","3","1","678265376743620608","王","533","","","","","","","","","","","","","","","","","","","","","","","","","","","","","","feedback_test","","","","","","","","","","","",""
"754","","f","psychophysics","165","583471","0.0-7.0-0.0-4.0-0.0-0.29","3","3","4","3","4","3","3","2","3","3","3","4","2","4","3","4","2","2","4","4","4","4","4","4","4","4","4","4","4","1","0","0","1","0","0","1","1","0","1","1","0","0","0","1","5","5","4","2","5","3","4","4","4","3","1","678265376743620608","王","533","","","","nonmatch","","","","","","","","","","","","","","key","f","16.66442307692285","581.2120876189673","322.7272540741398","f","true","nonmatch","img/trapezoid.png","六边","梯形","ALT1","formal_ALT1_1","","","","","","","","","","","",""
"null","<span style='color:GreenYellow; font-size: 70px;'>正确! </span>","null","html-keyboard-response","166","583973","0.0-7.0-0.0-4.0-0.0-1.29","3","3","4","3","4","3","3","2","3","3","3","4","2","4","3","4","2","2","4","4","4","4","4","4","4","4","4","4","4","1","0","0","1","0","0","1","1","0","1","1","0","0","0","1","5","5","4","2","5","3","4","4","4","3","1","678265376743620608","王","533","","","","","","","","","","","","","","","","","","","","","","","","","","","","","","feedback_test","","","","","","","","","","","",""
"826","","f","psychophysics","167","585802","0.0-7.0-0.0-4.0-0.0-0.30","3","3","4","3","4","3","3","2","3","3","3","4","2","4","3","4","2","2","4","4","4","4","4","4","4","4","4","4","4","1","0","0","1","0","0","1","1","0","1","1","0","0","0","1","5","5","4","2","5","3","4","4","4","3","1","678265376743620608","王","533","","","","nonmatch","","","","","","","","","","","","","","key","f","16.653211009174953","581.2120876189673","322.7272540741398","j","false","match","img/square.png","方形","方形","ALT1","formal_ALT1_1","","","","","","","","","","","",""
"null","<span style='color:red; font-size: 70px;'>错误! </span>","null","html-keyboard-response","168","586303","0.0-7.0-0.0-4.0-0.0-1.30","3","3","4","3","4","3","3","2","3","3","3","4","2","4","3","4","2","2","4","4","4","4","4","4","4","4","4","4","4","1","0","0","1","0","0","1","1","0","1","1","0","0","0","1","5","5","4","2","5","3","4","4","4","3","1","678265376743620608","王","533","","","","","","","","","","","","","","","","","","","","","","","","","","","","","","feedback_test","","","","","","","","","","","",""
"734","","j","psychophysics","169","588043","0.0-7.0-0.0-4.0-0.0-0.31","3","3","4","3","4","3","3","2","3","3","3","4","2","4","3","4","2","2","4","4","4","4","4","4","4","4","4","4","4","1","0","0","1","0","0","1","1","0","1","1","0","0","0","1","5","5","4","2","5","3","4","4","4","3","1","678265376743620608","王","533","","","","match","","","","","","","","","","","","","","key","j","16.657692307692532","581.2120876189673","322.7272540741398","j","true","match","img/circle.png","圆形","圆形","ALT1","formal_ALT1_1","","","","","","","","","","","",""
"null","<span style='color:GreenYellow; font-size: 70px;'>正确! </span>","null","html-keyboard-response","170","588544","0.0-7.0-0.0-4.0-0.0-1.31","3","3","4","3","4","3","3","2","3","3","3","4","2","4","3","4","2","2","4","4","4","4","4","4","4","4","4","4","4","1","0","0","1","0","0","1","1","0","1","1","0","0","0","1","5","5","4","2","5","3","4","4","4","3","1","678265376743620608","王","533","","","","","","","","","","","","","","","","","","","","","","","","","","","","","","feedback_test","","","","","","","","","","","",""
"647","","j","psychophysics","171","590195","0.0-7.0-0.0-4.0-0.0-0.32","3","3","4","3","4","3","3","2","3","3","3","4","2","4","3","4","2","2","4","4","4","4","4","4","4","4","4","4","4","1","0","0","1","0","0","1","1","0","1","1","0","0","0","1","5","5","4","2","5","3","4","4","4","3","1","678265376743620608","王","533","","","","match","","","","","","","","","","","","","","key","j","16.664285714285477","581.2120876189673","322.7272540741398","j","true","match","img/hexagon.png","六边","六边","ALT1","formal_ALT1_1","","","","","","","","","","","",""
"null","<span style='color:GreenYellow; font-size: 70px;'>正确! </span>","null","html-keyboard-response","172","590698","0.0-7.0-0.0-4.0-0.0-1.32","3","3","4","3","4","3","3","2","3","3","3","4","2","4","3","4","2","2","4","4","4","4","4","4","4","4","4","4","4","1","0","0","1","0","0","1","1","0","1","1","0","0","0","1","5","5","4","2","5","3","4","4","4","3","1","678265376743620608","王","533","","","","","","","","","","","","","","","","","","","","","","","","","","","","","","feedback_test","","","","","","","","","","","",""
"696","","j","psychophysics","173","592403","0.0-7.0-0.0-4.0-0.0-0.33","3","3","4","3","4","3","3","2","3","3","3","4","2","4","3","4","2","2","4","4","4","4","4","4","4","4","4","4","4","1","0","0","1","0","0","1","1","0","1","1","0","0","0","1","5","5","4","2","5","3","4","4","4","3","1","678265376743620608","王","533","","","","match","","","","","","","","","","","","","","key","j","16.664356435643334","581.2120876189673","322.7272540741398","j","true","match","img/trapezoid.png","梯形","梯形","ALT1","formal_ALT1_1","","","","","","","","","","","",""
"null","<span style='color:GreenYellow; font-size: 70px;'>正确! </span>","null","html-keyboard-response","174","592921","0.0-7.0-0.0-4.0-0.0-1.33","3","3","4","3","4","3","3","2","3","3","3","4","2","4","3","4","2","2","4","4","4","4","4","4","4","4","4","4","4","1","0","0","1","0","0","1","1","0","1","1","0","0","0","1","5","5","4","2","5","3","4","4","4","3","1","678265376743620608","王","533","","","","","","","","","","","","","","","","","","","","","","","","","","","","","","feedback_test","","","","","","","","","","","",""
"657","","j","psychophysics","175","594581","0.0-7.0-0.0-4.0-0.0-0.34","3","3","4","3","4","3","3","2","3","3","3","4","2","4","3","4","2","2","4","4","4","4","4","4","4","4","4","4","4","1","0","0","1","0","0","1","1","0","1","1","0","0","0","1","5","5","4","2","5","3","4","4","4","3","1","678265376743620608","王","533","","","","match","","","","","","","","","","","","","","key","j","16.665306122449692","581.2120876189673","322.7272540741398","j","true","match","img/circle.png","圆形","圆形","ALT1","formal_ALT1_1","","","","","","","","","","","",""
"null","<span style='color:GreenYellow; font-size: 70px;'>正确! </span>","null","html-keyboard-response","176","595088","0.0-7.0-0.0-4.0-0.0-1.34","3","3","4","3","4","3","3","2","3","3","3","4","2","4","3","4","2","2","4","4","4","4","4","4","4","4","4","4","4","1","0","0","1","0","0","1","1","0","1","1","0","0","0","1","5","5","4","2","5","3","4","4","4","3","1","678265376743620608","王","533","","","","","","","","","","","","","","","","","","","","","","","","","","","","","","feedback_test","","","","","","","","","","","",""
"924","","f","psychophysics","177","597015","0.0-7.0-0.0-4.0-0.0-0.35","3","3","4","3","4","3","3","2","3","3","3","4","2","4","3","4","2","2","4","4","4","4","4","4","4","4","4","4","4","1","0","0","1","0","0","1","1","0","1","1","0","0","0","1","5","5","4","2","5","3","4","4","4","3","1","678265376743620608","王","533","","","","nonmatch","","","","","","","","","","","","","","key","f","16.66052631578886","581.2120876189673","322.7272540741398","f","true","nonmatch","img/square.png","六边","方形","ALT1","formal_ALT1_1","","","","","","","","","","","",""
