"rt","stimulus","response","trial_type","trial_index","time_elapsed","internal_node_id","ses_1","ses_2","ses_3","ses_4","ses_5","ses_6","ses_7","ses_8","ses_9","ses_10","coreself_1","coreself_2","coreself_3","coreself_4","coreself_5","coreself_6","coreself_7","coreself_8","coreself_9","coreself_10","SGPS_1","SGPS_2","SGPS_3","SGPS_4","SGPS_5","SGPS_6","SGPS_7","SGPS_8","SGPS_9","NPI1","NPI2","NPI3","NPI4","NPI5","NPI6","NPI7","NPI8","NPI9","NPI10","NPI11","NPI12","NPI13","NPI14","NPI15","hsns_1","hsns_2","hsns_3","hsns_4","hsns_5","trap1","hsns_6","hsns_7","hsns_8","hsns_9","hsns_10","subj_idx","friend_name","ParticipantID","value","success","user_agent","responses","item_order","radio_event_ids","radio_event_times","key_event_times","mouse_event_times","straightlining","zigzagging","honeypot","timeout","failed_images","failed_audio","failed_video","view_history","response_type","key_press","avg_frame_time","center_x","center_y","correct_response","correct","identity","Image","word","condition","task_id","screen_id","time_stamp","version_attrib2","version_target2","IAT","RT","varname","summary","version_attrib","version_target","question_order","correct_answer","trap1_item"
"819","
   <p><div style = ""color: white;font-size:25px;"">您好，欢迎参加本次实验。</div> </p>
   <p><div style = ""color: white;font-size:25px;"">为充分保障您的权利，请确保您已经知晓并同意《参与实验同意书》以及《数据公开知情同意书》。</div></p>
   <p><div style = ""color: white;font-size:25px;"">如果您未见过上述内容，请咨询实验员。</div></p>
   <p><div style = ""color: white;font-size:25px;"">如果您选择继续实验，则表示您已经清楚两份知情同意书的内容并同意。</div></p>
   <p><div style = ""color: pink;font-size:30px;"">请确保您记得day0的实验编号，您将在本次实验输入该编号，若您忘记，请咨询实验员后作答。</div></p>
   <p><div style = ""color: lightblue;font-size:25px;"">请您尽可能认真地作答，我们将依据您在各问卷和按键任务中的作答质量发放报酬。</div></p>
   <p> <div style = ""color: green;font-size:25px;""><按空格键至下页></div> </p>
   "," ","html-keyboard-response","0","821","0.0-0.0","4","4","4","4","4","4","4","4","4","4","5","5","5","5","5","5","5","5","5","5","1","1","1","1","1","1","1","1","1","0","0","1","1","0","0","0","0","0","1","1","0","1","0","1","5","1","2","1","1","5","1","2","1","5","1","633774693194661888","周","345","","","","","","","","","","","","","","","","","","","","","","","","","","","","","","","","","","","","","","","","","",""
"","","","call-function","1","821","0.0-1.0-0.0","4","4","4","4","4","4","4","4","4","4","5","5","5","5","5","5","5","5","5","5","1","1","1","1","1","1","1","1","1","0","0","1","1","0","0","0","0","0","1","1","0","1","0","1","5","1","2","1","1","5","1","2","1","5","1","633774693194661888","周","345","","","","","","","","","","","","","","","","","","","","","","","","","","","","","","","","","","","","","","","","","",""
"23991","","{""friend_name"":""周"",""ParticipantID"":""345""}","survey-html-form","2","24813","0.0-1.0-1.0","4","4","4","4","4","4","4","4","4","4","5","5","5","5","5","5","5","5","5","5","1","1","1","1","1","1","1","1","1","0","0","1","1","0","0","0","0","0","1","1","0","1","0","1","5","1","2","1","1","5","1","2","1","5","1","633774693194661888","周","345","","","","","","","","","","","","","","","","","","","","","","","","","","","","","","","","","","","","","","","","","",""
"","","","fullscreen","3","25917","0.0-2.0","4","4","4","4","4","4","4","4","4","4","5","5","5","5","5","5","5","5","5","5","1","1","1","1","1","1","1","1","1","0","0","1","1","0","0","0","0","0","1","1","0","1","0","1","5","1","2","1","1","5","1","2","1","5","1","633774693194661888","周","345","","true","{}","","","","","","","","","","","","","","","","","","","","","","","","","","","","","","","","","","","","","","",""
"32094.5","","{""Q01"":""4"",""Q02"":""4"",""Q03"":""4"",""Q04"":""4"",""Q05"":""4"",""Q06"":""4"",""Q07"":""4"",""Q08"":""4"",""Q09"":""4"",""Q10"":""4""}","survey-template","4","58013","0.0-3.0","4","4","4","4","4","4","4","4","4","4","5","5","5","5","5","5","5","5","5","5","1","1","1","1","1","1","1","1","1","0","0","1","1","0","0","0","0","0","1","1","0","1","0","1","5","1","2","1","1","5","1","2","1","5","1","633774693194661888","周","345","","","","{""Q01"":""4"",""Q02"":""4"",""Q03"":""4"",""Q04"":""4"",""Q05"":""4"",""Q06"":""4"",""Q07"":""4"",""Q08"":""4"",""Q09"":""4"",""Q10"":""4""}","[0,1,2,3,4,5,6,7,8,9]","[""Q01"",""Q02"",""Q03"",""Q05"",""Q06"",""Q04"",""Q07"",""Q09"",""Q10"",""Q08""]","[12182,13502,15469.799999982119,16510.59999999404,19262.59999999404,19974.09999999404,22830.90000000596,25421.69999998808,26077.69999998808,31261.79999998212]","[]","[12182,12981.799999982119,13502,15469.799999982119,16510.59999999404,17621.69999998808,18438,19262.59999999404,19974.09999999404,22830.90000000596,23933.79999998212,24382.59999999404,24592,25421.69999998808,26077.69999998808,30781.69999998808,31261.79999998212,32093.59999999404]","0.5","0.5555555555555556","0","","","","","","","","","","","","","","","","","","","","","","","","","","","","","",""
"37716.40000000596","","{""Q01"":""5"",""Q02"":""5"",""Q03"":""5"",""Q04"":""5"",""Q05"":""5"",""Q06"":""5"",""Q07"":""5"",""Q08"":""5"",""Q09"":""5"",""Q10"":""5""}","survey-template","5","95734","0.0-4.0","4","4","4","4","4","4","4","4","4","4","5","5","5","5","5","5","5","5","5","5","1","1","1","1","1","1","1","1","1","0","0","1","1","0","0","0","0","0","1","1","0","1","0","1","5","1","2","1","1","5","1","2","1","5","1","633774693194661888","周","345","","","","{""Q01"":""5"",""Q02"":""5"",""Q03"":""5"",""Q04"":""5"",""Q05"":""5"",""Q06"":""5"",""Q07"":""5"",""Q08"":""5"",""Q09"":""5"",""Q10"":""5""}","[0,1,2,3,4,5,6,7,8,9]","[""Q01"",""Q02"",""Q03"",""Q04"",""Q05"",""Q06"",""Q07"",""Q08"",""Q09"",""Q10""]","[2083,5692,6562.9000000059605,7259.5,8491.200000017881,9555.100000023842,10851.5,11555.100000023842,12699,15355]","[]","[2083,4963.600000023842,5692,6283.100000023842,6562.9000000059605,7259.5,8491.200000017881,9555.100000023842,10851.5,11555.100000023842,12699,15021.5,15355,37715.30000001192]","0.6","0.7777777777777778","0","","","","","","","","","","","","","","","","","","","","","","","","","","","","","",""
"","","","preload","6","95813","0.0-5.0","4","4","4","4","4","4","4","4","4","4","5","5","5","5","5","5","5","5","5","5","1","1","1","1","1","1","1","1","1","0","0","1","1","0","0","0","0","0","1","1","0","1","0","1","5","1","2","1","1","5","1","2","1","5","1","633774693194661888","周","345","","true","","","","","","","","","","","false","[]","[]","[]","","","","","","","","","","","","","","","","","","","","","","","","","",""
"1023","","","instructions","7","96836","0.0-6.0","4","4","4","4","4","4","4","4","4","4","5","5","5","5","5","5","5","5","5","5","1","1","1","1","1","1","1","1","1","0","0","1","1","0","0","0","0","0","1","1","0","1","0","1","5","1","2","1","1","5","1","2","1","5","1","633774693194661888","周","345","","","","","","","","","","","","","","","","","[{""page_index"":0,""viewing_time"":1022}]","","","","","","","","","","","","","","","","","","","","","","","","",""
"63311","","","instructions","8","160148","0.0-7.0-1.0-0.0","4","4","4","4","4","4","4","4","4","4","5","5","5","5","5","5","5","5","5","5","1","1","1","1","1","1","1","1","1","0","0","1","1","0","0","0","0","0","1","1","0","1","0","1","5","1","2","1","1","5","1","2","1","5","1","633774693194661888","周","345","","","","","","","","","","","","","","","","","[{""page_index"":0,""viewing_time"":60615},{""page_index"":1,""viewing_time"":1080},{""page_index"":2,""viewing_time"":1616}]","","","","","","","","","","","","","","","","","","","","","","","","",""
"662","","j","psychophysics","9","161814","0.0-7.0-1.0-1.0-0.0-0.0","4","4","4","4","4","4","4","4","4","4","5","5","5","5","5","5","5","5","5","5","1","1","1","1","1","1","1","1","1","0","0","1","1","0","0","0","0","0","1","1","0","1","0","1","5","1","2","1","1","5","1","2","1","5","1","633774693194661888","周","345","","","","match","","","","","","","","","","","","","","key","j","16.666666666666668","768","428","j","true","match","img/trapezoid.png","梯形","梯形","ALT1_2","prac_ALT1_2","","","","","","","","","","","",""
"null","<span style='color:GreenYellow; font-size: 70px;'>正确! </span>","null","html-keyboard-response","10","162315","0.0-7.0-1.0-1.0-0.0-1.0","4","4","4","4","4","4","4","4","4","4","5","5","5","5","5","5","5","5","5","5","1","1","1","1","1","1","1","1","1","0","0","1","1","0","0","0","0","0","1","1","0","1","0","1","5","1","2","1","1","5","1","2","1","5","1","633774693194661888","周","345","","","","","","","","","","","","","","","","","","","","","","","","","","","","","","feedback_test","","","","","","","","","","","",""
"617","","f","psychophysics","11","163933","0.0-7.0-1.0-1.0-0.0-0.1","4","4","4","4","4","4","4","4","4","4","5","5","5","5","5","5","5","5","5","5","1","1","1","1","1","1","1","1","1","0","0","1","1","0","0","0","0","0","1","1","0","1","0","1","5","1","2","1","1","5","1","2","1","5","1","633774693194661888","周","345","","","","nonmatch","","","","","","","","","","","","","","key","f","16.667708333333394","768","428","f","true","nonmatch","img/trapezoid.png","方形","梯形","ALT1_2","prac_ALT1_2","","","","","","","","","","","",""
"null","<span style='color:GreenYellow; font-size: 70px;'>正确! </span>","null","html-keyboard-response","12","164434","0.0-7.0-1.0-1.0-0.0-1.1","4","4","4","4","4","4","4","4","4","4","5","5","5","5","5","5","5","5","5","5","1","1","1","1","1","1","1","1","1","0","0","1","1","0","0","0","0","0","1","1","0","1","0","1","5","1","2","1","1","5","1","2","1","5","1","633774693194661888","周","345","","","","","","","","","","","","","","","","","","","","","","","","","","","","","","feedback_test","","","","","","","","","","","",""
"600","","j","psychophysics","13","166037","0.0-7.0-1.0-1.0-0.0-0.2","4","4","4","4","4","4","4","4","4","4","5","5","5","5","5","5","5","5","5","5","1","1","1","1","1","1","1","1","1","0","0","1","1","0","0","0","0","0","1","1","0","1","0","1","5","1","2","1","1","5","1","2","1","5","1","633774693194661888","周","345","","","","match","","","","","","","","","","","","","","key","j","16.66526315789486","768","428","j","true","match","img/pentagon.png","五边","五边","ALT1_2","prac_ALT1_2","","","","","","","","","","","",""
"null","<span style='color:GreenYellow; font-size: 70px;'>正确! </span>","null","html-keyboard-response","14","166538","0.0-7.0-1.0-1.0-0.0-1.2","4","4","4","4","4","4","4","4","4","4","5","5","5","5","5","5","5","5","5","5","1","1","1","1","1","1","1","1","1","0","0","1","1","0","0","0","0","0","1","1","0","1","0","1","5","1","2","1","1","5","1","2","1","5","1","633774693194661888","周","345","","","","","","","","","","","","","","","","","","","","","","","","","","","","","","feedback_test","","","","","","","","","","","",""
"674","","j","psychophysics","15","168212","0.0-7.0-1.0-1.0-0.0-0.3","4","4","4","4","4","4","4","4","4","4","5","5","5","5","5","5","5","5","5","5","1","1","1","1","1","1","1","1","1","0","0","1","1","0","0","0","0","0","1","1","0","1","0","1","5","1","2","1","1","5","1","2","1","5","1","633774693194661888","周","345","","","","match","","","","","","","","","","","","","","key","j","16.65353535353547","768","428","j","true","match","img/trapezoid.png","梯形","梯形","ALT1_2","prac_ALT1_2","","","","","","","","","","","",""
"null","<span style='color:GreenYellow; font-size: 70px;'>正确! </span>","null","html-keyboard-response","16","168714","0.0-7.0-1.0-1.0-0.0-1.3","4","4","4","4","4","4","4","4","4","4","5","5","5","5","5","5","5","5","5","5","1","1","1","1","1","1","1","1","1","0","0","1","1","0","0","0","0","0","1","1","0","1","0","1","5","1","2","1","1","5","1","2","1","5","1","633774693194661888","周","345","","","","","","","","","","","","","","","","","","","","","","","","","","","","","","feedback_test","","","","","","","","","","","",""
"598","","j","psychophysics","17","170313","0.0-7.0-1.0-1.0-0.0-0.4","4","4","4","4","4","4","4","4","4","4","5","5","5","5","5","5","5","5","5","5","1","1","1","1","1","1","1","1","1","0","0","1","1","0","0","0","0","0","1","1","0","1","0","1","5","1","2","1","1","5","1","2","1","5","1","633774693194661888","周","345","","","","match","","","","","","","","","","","","","","key","j","16.66631578947356","768","428","j","true","match","img/ellipse.png","椭圆","椭圆","ALT1_2","prac_ALT1_2","","","","","","","","","","","",""
"null","<span style='color:GreenYellow; font-size: 70px;'>正确! </span>","null","html-keyboard-response","18","170814","0.0-7.0-1.0-1.0-0.0-1.4","4","4","4","4","4","4","4","4","4","4","5","5","5","5","5","5","5","5","5","5","1","1","1","1","1","1","1","1","1","0","0","1","1","0","0","0","0","0","1","1","0","1","0","1","5","1","2","1","1","5","1","2","1","5","1","633774693194661888","周","345","","","","","","","","","","","","","","","","","","","","","","","","","","","","","","feedback_test","","","","","","","","","","","",""
"566","","f","psychophysics","19","172380","0.0-7.0-1.0-1.0-0.0-0.5","4","4","4","4","4","4","4","4","4","4","5","5","5","5","5","5","5","5","5","5","1","1","1","1","1","1","1","1","1","0","0","1","1","0","0","0","0","0","1","1","0","1","0","1","5","1","2","1","1","5","1","2","1","5","1","633774693194661888","周","345","","","","nonmatch","","","","","","","","","","","","","","key","f","16.6655913978494","768","428","f","true","nonmatch","img/square.png","五边","方形","ALT1_2","prac_ALT1_2","","","","","","","","","","","",""
"null","<span style='color:GreenYellow; font-size: 70px;'>正确! </span>","null","html-keyboard-response","20","172881","0.0-7.0-1.0-1.0-0.0-1.5","4","4","4","4","4","4","4","4","4","4","5","5","5","5","5","5","5","5","5","5","1","1","1","1","1","1","1","1","1","0","0","1","1","0","0","0","0","0","1","1","0","1","0","1","5","1","2","1","1","5","1","2","1","5","1","633774693194661888","周","345","","","","","","","","","","","","","","","","","","","","","","","","","","","","","","feedback_test","","","","","","","","","","","",""
"535","","j","psychophysics","21","174418","0.0-7.0-1.0-1.0-0.0-0.6","4","4","4","4","4","4","4","4","4","4","5","5","5","5","5","5","5","5","5","5","1","1","1","1","1","1","1","1","1","0","0","1","1","0","0","0","0","0","1","1","0","1","0","1","5","1","2","1","1","5","1","2","1","5","1","633774693194661888","周","345","","","","match","","","","","","","","","","","","","","key","j","16.669230769231024","768","428","j","true","match","img/square.png","方形","方形","ALT1_2","prac_ALT1_2","","","","","","","","","","","",""
"null","<span style='color:GreenYellow; font-size: 70px;'>正确! </span>","null","html-keyboard-response","22","174920","0.0-7.0-1.0-1.0-0.0-1.6","4","4","4","4","4","4","4","4","4","4","5","5","5","5","5","5","5","5","5","5","1","1","1","1","1","1","1","1","1","0","0","1","1","0","0","0","0","0","1","1","0","1","0","1","5","1","2","1","1","5","1","2","1","5","1","633774693194661888","周","345","","","","","","","","","","","","","","","","","","","","","","","","","","","","","","feedback_test","","","","","","","","","","","",""
"651","","f","psychophysics","23","176573","0.0-7.0-1.0-1.0-0.0-0.7","4","4","4","4","4","4","4","4","4","4","5","5","5","5","5","5","5","5","5","5","1","1","1","1","1","1","1","1","1","0","0","1","1","0","0","0","0","0","1","1","0","1","0","1","5","1","2","1","1","5","1","2","1","5","1","633774693194661888","周","345","","","","nonmatch","","","","","","","","","","","","","","key","f","16.664285714285477","768","428","f","true","nonmatch","img/pentagon.png","椭圆","五边","ALT1_2","prac_ALT1_2","","","","","","","","","","","",""
"null","<span style='color:GreenYellow; font-size: 70px;'>正确! </span>","null","html-keyboard-response","24","177074","0.0-7.0-1.0-1.0-0.0-1.7","4","4","4","4","4","4","4","4","4","4","5","5","5","5","5","5","5","5","5","5","1","1","1","1","1","1","1","1","1","0","0","1","1","0","0","0","0","0","1","1","0","1","0","1","5","1","2","1","1","5","1","2","1","5","1","633774693194661888","周","345","","","","","","","","","","","","","","","","","","","","","","","","","","","","","","feedback_test","","","","","","","","","","","",""
"737","","j","psychophysics","25","178813","0.0-7.0-1.0-1.0-0.0-0.8","4","4","4","4","4","4","4","4","4","4","5","5","5","5","5","5","5","5","5","5","1","1","1","1","1","1","1","1","1","0","0","1","1","0","0","0","0","0","1","1","0","1","0","1","5","1","2","1","1","5","1","2","1","5","1","633774693194661888","周","345","","","","match","","","","","","","","","","","","","","key","j","16.66504854368932","768","428","f","false","nonmatch","img/ellipse.png","梯形","椭圆","ALT1_2","prac_ALT1_2","","","","","","","","","","","",""
"null","<span style='color:red; font-size: 70px;'>错误! </span>","null","html-keyboard-response","26","179314","0.0-7.0-1.0-1.0-0.0-1.8","4","4","4","4","4","4","4","4","4","4","5","5","5","5","5","5","5","5","5","5","1","1","1","1","1","1","1","1","1","0","0","1","1","0","0","0","0","0","1","1","0","1","0","1","5","1","2","1","1","5","1","2","1","5","1","633774693194661888","周","345","","","","","","","","","","","","","","","","","","","","","","","","","","","","","","feedback_test","","","","","","","","","","","",""
"553","","j","psychophysics","27","180869","0.0-7.0-1.0-1.0-0.0-0.9","4","4","4","4","4","4","4","4","4","4","5","5","5","5","5","5","5","5","5","5","1","1","1","1","1","1","1","1","1","0","0","1","1","0","0","0","0","0","1","1","0","1","0","1","5","1","2","1","1","5","1","2","1","5","1","633774693194661888","周","345","","","","match","","","","","","","","","","","","","","key","j","16.665217391304473","768","428","j","true","match","img/square.png","方形","方形","ALT1_2","prac_ALT1_2","","","","","","","","","","","",""
"null","<span style='color:GreenYellow; font-size: 70px;'>正确! </span>","null","html-keyboard-response","28","181370","0.0-7.0-1.0-1.0-0.0-1.9","4","4","4","4","4","4","4","4","4","4","5","5","5","5","5","5","5","5","5","5","1","1","1","1","1","1","1","1","1","0","0","1","1","0","0","0","0","0","1","1","0","1","0","1","5","1","2","1","1","5","1","2","1","5","1","633774693194661888","周","345","","","","","","","","","","","","","","","","","","","","","","","","","","","","","","feedback_test","","","","","","","","","","","",""
"648","","j","psychophysics","29","183020","0.0-7.0-1.0-1.0-0.0-0.10","4","4","4","4","4","4","4","4","4","4","5","5","5","5","5","5","5","5","5","5","1","1","1","1","1","1","1","1","1","0","0","1","1","0","0","0","0","0","1","1","0","1","0","1","5","1","2","1","1","5","1","2","1","5","1","633774693194661888","周","345","","","","match","","","","","","","","","","","","","","key","j","16.662886597938023","768","428","j","true","match","img/square.png","方形","方形","ALT1_2","prac_ALT1_2","","","","","","","","","","","",""
"null","<span style='color:GreenYellow; font-size: 70px;'>正确! </span>","null","html-keyboard-response","30","183523","0.0-7.0-1.0-1.0-0.0-1.10","4","4","4","4","4","4","4","4","4","4","5","5","5","5","5","5","5","5","5","5","1","1","1","1","1","1","1","1","1","0","0","1","1","0","0","0","0","0","1","1","0","1","0","1","5","1","2","1","1","5","1","2","1","5","1","633774693194661888","周","345","","","","","","","","","","","","","","","","","","","","","","","","","","","","","","feedback_test","","","","","","","","","","","",""
"612","","f","psychophysics","31","185137","0.0-7.0-1.0-1.0-0.0-0.11","4","4","4","4","4","4","4","4","4","4","5","5","5","5","5","5","5","5","5","5","1","1","1","1","1","1","1","1","1","0","0","1","1","0","0","0","0","0","1","1","0","1","0","1","5","1","2","1","1","5","1","2","1","5","1","633774693194661888","周","345","","","","nonmatch","","","","","","","","","","","","","","key","f","16.66842105263158","768","428","f","true","nonmatch","img/square.png","椭圆","方形","ALT1_2","prac_ALT1_2","","","","","","","","","","","",""
"null","<span style='color:GreenYellow; font-size: 70px;'>正确! </span>","null","html-keyboard-response","32","185638","0.0-7.0-1.0-1.0-0.0-1.11","4","4","4","4","4","4","4","4","4","4","5","5","5","5","5","5","5","5","5","5","1","1","1","1","1","1","1","1","1","0","0","1","1","0","0","0","0","0","1","1","0","1","0","1","5","1","2","1","1","5","1","2","1","5","1","633774693194661888","周","345","","","","","","","","","","","","","","","","","","","","","","","","","","","","","","feedback_test","","","","","","","","","","","",""
"638","","f","psychophysics","33","187276","0.0-7.0-1.0-1.0-0.0-0.12","4","4","4","4","4","4","4","4","4","4","5","5","5","5","5","5","5","5","5","5","1","1","1","1","1","1","1","1","1","0","0","1","1","0","0","0","0","0","1","1","0","1","0","1","5","1","2","1","1","5","1","2","1","5","1","633774693194661888","周","345","","","","nonmatch","","","","","","","","","","","","","","key","f","16.664948453608247","768","428","f","true","nonmatch","img/pentagon.png","方形","五边","ALT1_2","prac_ALT1_2","","","","","","","","","","","",""
"null","<span style='color:GreenYellow; font-size: 70px;'>正确! </span>","null","html-keyboard-response","34","187778","0.0-7.0-1.0-1.0-0.0-1.12","4","4","4","4","4","4","4","4","4","4","5","5","5","5","5","5","5","5","5","5","1","1","1","1","1","1","1","1","1","0","0","1","1","0","0","0","0","0","1","1","0","1","0","1","5","1","2","1","1","5","1","2","1","5","1","633774693194661888","周","345","","","","","","","","","","","","","","","","","","","","","","","","","","","","","","feedback_test","","","","","","","","","","","",""
"619","","j","psychophysics","35","189397","0.0-7.0-1.0-1.0-0.0-0.13","4","4","4","4","4","4","4","4","4","4","5","5","5","5","5","5","5","5","5","5","1","1","1","1","1","1","1","1","1","0","0","1","1","0","0","0","0","0","1","1","0","1","0","1","5","1","2","1","1","5","1","2","1","5","1","633774693194661888","周","345","","","","match","","","","","","","","","","","","","","key","j","16.667708333333394","768","428","j","true","match","img/trapezoid.png","梯形","梯形","ALT1_2","prac_ALT1_2","","","","","","","","","","","",""
"null","<span style='color:GreenYellow; font-size: 70px;'>正确! </span>","null","html-keyboard-response","36","189899","0.0-7.0-1.0-1.0-0.0-1.13","4","4","4","4","4","4","4","4","4","4","5","5","5","5","5","5","5","5","5","5","1","1","1","1","1","1","1","1","1","0","0","1","1","0","0","0","0","0","1","1","0","1","0","1","5","1","2","1","1","5","1","2","1","5","1","633774693194661888","周","345","","","","","","","","","","","","","","","","","","","","","","","","","","","","","","feedback_test","","","","","","","","","","","",""
"506","","j","psychophysics","37","191406","0.0-7.0-1.0-1.0-0.0-0.14","4","4","4","4","4","4","4","4","4","4","5","5","5","5","5","5","5","5","5","5","1","1","1","1","1","1","1","1","1","0","0","1","1","0","0","0","0","0","1","1","0","1","0","1","5","1","2","1","1","5","1","2","1","5","1","633774693194661888","周","345","","","","match","","","","","","","","","","","","","","key","j","16.666666666666668","768","428","j","true","match","img/ellipse.png","椭圆","椭圆","ALT1_2","prac_ALT1_2","","","","","","","","","","","",""
"null","<span style='color:GreenYellow; font-size: 70px;'>正确! </span>","null","html-keyboard-response","38","191907","0.0-7.0-1.0-1.0-0.0-1.14","4","4","4","4","4","4","4","4","4","4","5","5","5","5","5","5","5","5","5","5","1","1","1","1","1","1","1","1","1","0","0","1","1","0","0","0","0","0","1","1","0","1","0","1","5","1","2","1","1","5","1","2","1","5","1","633774693194661888","周","345","","","","","","","","","","","","","","","","","","","","","","","","","","","","","","feedback_test","","","","","","","","","","","",""
"592","","j","psychophysics","39","193501","0.0-7.0-1.0-1.0-0.0-0.15","4","4","4","4","4","4","4","4","4","4","5","5","5","5","5","5","5","5","5","5","1","1","1","1","1","1","1","1","1","0","0","1","1","0","0","0","0","0","1","1","0","1","0","1","5","1","2","1","1","5","1","2","1","5","1","633774693194661888","周","345","","","","match","","","","","","","","","","","","","","key","j","16.662765957446684","768","428","j","true","match","img/pentagon.png","五边","五边","ALT1_2","prac_ALT1_2","","","","","","","","","","","",""
"null","<span style='color:GreenYellow; font-size: 70px;'>正确! </span>","null","html-keyboard-response","40","194001","0.0-7.0-1.0-1.0-0.0-1.15","4","4","4","4","4","4","4","4","4","4","5","5","5","5","5","5","5","5","5","5","1","1","1","1","1","1","1","1","1","0","0","1","1","0","0","0","0","0","1","1","0","1","0","1","5","1","2","1","1","5","1","2","1","5","1","633774693194661888","周","345","","","","","","","","","","","","","","","","","","","","","","","","","","","","","","feedback_test","","","","","","","","","","","",""
"602","","f","psychophysics","41","195605","0.0-7.0-1.0-1.0-0.0-0.16","4","4","4","4","4","4","4","4","4","4","5","5","5","5","5","5","5","5","5","5","1","1","1","1","1","1","1","1","1","0","0","1","1","0","0","0","0","0","1","1","0","1","0","1","5","1","2","1","1","5","1","2","1","5","1","633774693194661888","周","345","","","","nonmatch","","","","","","","","","","","","","","key","f","16.656842105263095","768","428","f","true","nonmatch","img/ellipse.png","五边","椭圆","ALT1_2","prac_ALT1_2","","","","","","","","","","","",""
"null","<span style='color:GreenYellow; font-size: 70px;'>正确! </span>","null","html-keyboard-response","42","196106","0.0-7.0-1.0-1.0-0.0-1.16","4","4","4","4","4","4","4","4","4","4","5","5","5","5","5","5","5","5","5","5","1","1","1","1","1","1","1","1","1","0","0","1","1","0","0","0","0","0","1","1","0","1","0","1","5","1","2","1","1","5","1","2","1","5","1","633774693194661888","周","345","","","","","","","","","","","","","","","","","","","","","","","","","","","","","","feedback_test","","","","","","","","","","","",""
"569","","f","psychophysics","43","197676","0.0-7.0-1.0-1.0-0.0-0.17","4","4","4","4","4","4","4","4","4","4","5","5","5","5","5","5","5","5","5","5","1","1","1","1","1","1","1","1","1","0","0","1","1","0","0","0","0","0","1","1","0","1","0","1","5","1","2","1","1","5","1","2","1","5","1","633774693194661888","周","345","","","","nonmatch","","","","","","","","","","","","","","key","f","16.664516129032133","768","428","f","true","nonmatch","img/square.png","梯形","方形","ALT1_2","prac_ALT1_2","","","","","","","","","","","",""
"null","<span style='color:GreenYellow; font-size: 70px;'>正确! </span>","null","html-keyboard-response","44","198177","0.0-7.0-1.0-1.0-0.0-1.17","4","4","4","4","4","4","4","4","4","4","5","5","5","5","5","5","5","5","5","5","1","1","1","1","1","1","1","1","1","0","0","1","1","0","0","0","0","0","1","1","0","1","0","1","5","1","2","1","1","5","1","2","1","5","1","633774693194661888","周","345","","","","","","","","","","","","","","","","","","","","","","","","","","","","","","feedback_test","","","","","","","","","","","",""
"576","","j","psychophysics","45","199757","0.0-7.0-1.0-1.0-0.0-0.18","4","4","4","4","4","4","4","4","4","4","5","5","5","5","5","5","5","5","5","5","1","1","1","1","1","1","1","1","1","0","0","1","1","0","0","0","0","0","1","1","0","1","0","1","5","1","2","1","1","5","1","2","1","5","1","633774693194661888","周","345","","","","match","","","","","","","","","","","","","","key","j","16.662765957446684","768","428","j","true","match","img/pentagon.png","五边","五边","ALT1_2","prac_ALT1_2","","","","","","","","","","","",""
"null","<span style='color:GreenYellow; font-size: 70px;'>正确! </span>","null","html-keyboard-response","46","200258","0.0-7.0-1.0-1.0-0.0-1.18","4","4","4","4","4","4","4","4","4","4","5","5","5","5","5","5","5","5","5","5","1","1","1","1","1","1","1","1","1","0","0","1","1","0","0","0","0","0","1","1","0","1","0","1","5","1","2","1","1","5","1","2","1","5","1","633774693194661888","周","345","","","","","","","","","","","","","","","","","","","","","","","","","","","","","","feedback_test","","","","","","","","","","","",""
"658","","f","psychophysics","47","201919","0.0-7.0-1.0-1.0-0.0-0.19","4","4","4","4","4","4","4","4","4","4","5","5","5","5","5","5","5","5","5","5","1","1","1","1","1","1","1","1","1","0","0","1","1","0","0","0","0","0","1","1","0","1","0","1","5","1","2","1","1","5","1","2","1","5","1","633774693194661888","周","345","","","","nonmatch","","","","","","","","","","","","","","key","f","16.666326530612125","768","428","f","true","nonmatch","img/trapezoid.png","椭圆","梯形","ALT1_2","prac_ALT1_2","","","","","","","","","","","",""
"null","<span style='color:GreenYellow; font-size: 70px;'>正确! </span>","null","html-keyboard-response","48","202433","0.0-7.0-1.0-1.0-0.0-1.19","4","4","4","4","4","4","4","4","4","4","5","5","5","5","5","5","5","5","5","5","1","1","1","1","1","1","1","1","1","0","0","1","1","0","0","0","0","0","1","1","0","1","0","1","5","1","2","1","1","5","1","2","1","5","1","633774693194661888","周","345","","","","","","","","","","","","","","","","","","","","","","","","","","","","","","feedback_test","","","","","","","","","","","",""
"539","","j","psychophysics","49","203972","0.0-7.0-1.0-1.0-0.0-0.20","4","4","4","4","4","4","4","4","4","4","5","5","5","5","5","5","5","5","5","5","1","1","1","1","1","1","1","1","1","0","0","1","1","0","0","0","0","0","1","1","0","1","0","1","5","1","2","1","1","5","1","2","1","5","1","633774693194661888","周","345","","","","match","","","","","","","","","","","","","","key","j","16.666304347826276","768","428","j","true","match","img/ellipse.png","椭圆","椭圆","ALT1_2","prac_ALT1_2","","","","","","","","","","","",""
"null","<span style='color:GreenYellow; font-size: 70px;'>正确! </span>","null","html-keyboard-response","50","204473","0.0-7.0-1.0-1.0-0.0-1.20","4","4","4","4","4","4","4","4","4","4","5","5","5","5","5","5","5","5","5","5","1","1","1","1","1","1","1","1","1","0","0","1","1","0","0","0","0","0","1","1","0","1","0","1","5","1","2","1","1","5","1","2","1","5","1","633774693194661888","周","345","","","","","","","","","","","","","","","","","","","","","","","","","","","","","","feedback_test","","","","","","","","","","","",""
"618","","f","psychophysics","51","206093","0.0-7.0-1.0-1.0-0.0-0.21","4","4","4","4","4","4","4","4","4","4","5","5","5","5","5","5","5","5","5","5","1","1","1","1","1","1","1","1","1","0","0","1","1","0","0","0","0","0","1","1","0","1","0","1","5","1","2","1","1","5","1","2","1","5","1","633774693194661888","周","345","","","","nonmatch","","","","","","","","","","","","","","key","f","16.665624999999938","768","428","f","true","nonmatch","img/pentagon.png","梯形","五边","ALT1_2","prac_ALT1_2","","","","","","","","","","","",""
"null","<span style='color:GreenYellow; font-size: 70px;'>正确! </span>","null","html-keyboard-response","52","206594","0.0-7.0-1.0-1.0-0.0-1.21","4","4","4","4","4","4","4","4","4","4","5","5","5","5","5","5","5","5","5","5","1","1","1","1","1","1","1","1","1","0","0","1","1","0","0","0","0","0","1","1","0","1","0","1","5","1","2","1","1","5","1","2","1","5","1","633774693194661888","周","345","","","","","","","","","","","","","","","","","","","","","","","","","","","","","","feedback_test","","","","","","","","","","","",""
"585","","f","psychophysics","53","208181","0.0-7.0-1.0-1.0-0.0-0.22","4","4","4","4","4","4","4","4","4","4","5","5","5","5","5","5","5","5","5","5","1","1","1","1","1","1","1","1","1","0","0","1","1","0","0","0","0","0","1","1","0","1","0","1","5","1","2","1","1","5","1","2","1","5","1","633774693194661888","周","345","","","","nonmatch","","","","","","","","","","","","","","key","f","16.665957446808573","768","428","f","true","nonmatch","img/trapezoid.png","五边","梯形","ALT1_2","prac_ALT1_2","","","","","","","","","","","",""
"null","<span style='color:GreenYellow; font-size: 70px;'>正确! </span>","null","html-keyboard-response","54","208682","0.0-7.0-1.0-1.0-0.0-1.22","4","4","4","4","4","4","4","4","4","4","5","5","5","5","5","5","5","5","5","5","1","1","1","1","1","1","1","1","1","0","0","1","1","0","0","0","0","0","1","1","0","1","0","1","5","1","2","1","1","5","1","2","1","5","1","633774693194661888","周","345","","","","","","","","","","","","","","","","","","","","","","","","","","","","","","feedback_test","","","","","","","","","","","",""
"522","","f","psychophysics","55","210205","0.0-7.0-1.0-1.0-0.0-0.23","4","4","4","4","4","4","4","4","4","4","5","5","5","5","5","5","5","5","5","5","1","1","1","1","1","1","1","1","1","0","0","1","1","0","0","0","0","0","1","1","0","1","0","1","5","1","2","1","1","5","1","2","1","5","1","633774693194661888","周","345","","","","nonmatch","","","","","","","","","","","","","","key","f","16.66593406593381","768","428","f","true","nonmatch","img/ellipse.png","方形","椭圆","ALT1_2","prac_ALT1_2","","","","","","","","","","","",""
"null","<span style='color:GreenYellow; font-size: 70px;'>正确! </span>","null","html-keyboard-response","56","210706","0.0-7.0-1.0-1.0-0.0-1.23","4","4","4","4","4","4","4","4","4","4","5","5","5","5","5","5","5","5","5","5","1","1","1","1","1","1","1","1","1","0","0","1","1","0","0","0","0","0","1","1","0","1","0","1","5","1","2","1","1","5","1","2","1","5","1","633774693194661888","周","345","","","","","","","","","","","","","","","","","","","","","","","","","","","","","","feedback_test","","","","","","","","","","","",""
"552","","f","psychophysics","57","212260","0.0-7.0-1.0-1.0-0.0-0.24","4","4","4","4","4","4","4","4","4","4","5","5","5","5","5","5","5","5","5","5","1","1","1","1","1","1","1","1","1","0","0","1","1","0","0","0","0","0","1","1","0","1","0","1","5","1","2","1","1","5","1","2","1","5","1","633774693194661888","周","345","","","","nonmatch","","","","","","","","","","","","","","key","f","16.665217391304473","768","428","f","true","nonmatch","img/square.png","椭圆","方形","ALT1_2","prac_ALT1_2","","","","","","","","","","","",""
"null","<span style='color:GreenYellow; font-size: 70px;'>正确! </span>","null","html-keyboard-response","58","212762","0.0-7.0-1.0-1.0-0.0-1.24","4","4","4","4","4","4","4","4","4","4","5","5","5","5","5","5","5","5","5","5","1","1","1","1","1","1","1","1","1","0","0","1","1","0","0","0","0","0","1","1","0","1","0","1","5","1","2","1","1","5","1","2","1","5","1","633774693194661888","周","345","","","","","","","","","","","","","","","","","","","","","","","","","","","","","","feedback_test","","","","","","","","","","","",""
"633","","f","psychophysics","59","214397","0.0-7.0-1.0-1.0-0.0-0.25","4","4","4","4","4","4","4","4","4","4","5","5","5","5","5","5","5","5","5","5","1","1","1","1","1","1","1","1","1","0","0","1","1","0","0","0","0","0","1","1","0","1","0","1","5","1","2","1","1","5","1","2","1","5","1","633774693194661888","周","345","","","","nonmatch","","","","","","","","","","","","","","key","f","16.66701030927847","768","428","f","true","nonmatch","img/ellipse.png","五边","椭圆","ALT1_2","prac_ALT1_2","","","","","","","","","","","",""
"null","<span style='color:GreenYellow; font-size: 70px;'>正确! </span>","null","html-keyboard-response","60","214897","0.0-7.0-1.0-1.0-0.0-1.25","4","4","4","4","4","4","4","4","4","4","5","5","5","5","5","5","5","5","5","5","1","1","1","1","1","1","1","1","1","0","0","1","1","0","0","0","0","0","1","1","0","1","0","1","5","1","2","1","1","5","1","2","1","5","1","633774693194661888","周","345","","","","","","","","","","","","","","","","","","","","","","","","","","","","","","feedback_test","","","","","","","","","","","",""
"842","","j","psychophysics","61","216740","0.0-7.0-1.0-1.0-0.0-0.26","4","4","4","4","4","4","4","4","4","4","5","5","5","5","5","5","5","5","5","5","1","1","1","1","1","1","1","1","1","0","0","1","1","0","0","0","0","0","1","1","0","1","0","1","5","1","2","1","1","5","1","2","1","5","1","633774693194661888","周","345","","","","match","","","","","","","","","","","","","","key","j","16.665454545454388","768","428","j","true","match","img/square.png","方形","方形","ALT1_2","prac_ALT1_2","","","","","","","","","","","",""
"null","<span style='color:GreenYellow; font-size: 70px;'>正确! </span>","null","html-keyboard-response","62","217241","0.0-7.0-1.0-1.0-0.0-1.26","4","4","4","4","4","4","4","4","4","4","5","5","5","5","5","5","5","5","5","5","1","1","1","1","1","1","1","1","1","0","0","1","1","0","0","0","0","0","1","1","0","1","0","1","5","1","2","1","1","5","1","2","1","5","1","633774693194661888","周","345","","","","","","","","","","","","","","","","","","","","","","","","","","","","","","feedback_test","","","","","","","","","","","",""
"716","","j","psychophysics","63","218957","0.0-7.0-1.0-1.0-0.0-0.27","4","4","4","4","4","4","4","4","4","4","5","5","5","5","5","5","5","5","5","5","1","1","1","1","1","1","1","1","1","0","0","1","1","0","0","0","0","0","1","1","0","1","0","1","5","1","2","1","1","5","1","2","1","5","1","633774693194661888","周","345","","","","match","","","","","","","","","","","","","","key","j","16.665686274509746","768","428","j","true","match","img/square.png","方形","方形","ALT1_2","prac_ALT1_2","","","","","","","","","","","",""
"null","<span style='color:GreenYellow; font-size: 70px;'>正确! </span>","null","html-keyboard-response","64","219458","0.0-7.0-1.0-1.0-0.0-1.27","4","4","4","4","4","4","4","4","4","4","5","5","5","5","5","5","5","5","5","5","1","1","1","1","1","1","1","1","1","0","0","1","1","0","0","0","0","0","1","1","0","1","0","1","5","1","2","1","1","5","1","2","1","5","1","633774693194661888","周","345","","","","","","","","","","","","","","","","","","","","","","","","","","","","","","feedback_test","","","","","","","","","","","",""
"827","","f","psychophysics","65","221286","0.0-7.0-1.0-1.0-0.0-0.28","4","4","4","4","4","4","4","4","4","4","5","5","5","5","5","5","5","5","5","5","1","1","1","1","1","1","1","1","1","0","0","1","1","0","0","0","0","0","1","1","0","1","0","1","5","1","2","1","1","5","1","2","1","5","1","633774693194661888","周","345","","","","nonmatch","","","","","","","","","","","","","","key","f","16.666055045871612","768","428","j","false","match","img/trapezoid.png","梯形","梯形","ALT1_2","prac_ALT1_2","","","","","","","","","","","",""
"null","<span style='color:red; font-size: 70px;'>错误! </span>","null","html-keyboard-response","66","221788","0.0-7.0-1.0-1.0-0.0-1.28","4","4","4","4","4","4","4","4","4","4","5","5","5","5","5","5","5","5","5","5","1","1","1","1","1","1","1","1","1","0","0","1","1","0","0","0","0","0","1","1","0","1","0","1","5","1","2","1","1","5","1","2","1","5","1","633774693194661888","周","345","","","","","","","","","","","","","","","","","","","","","","","","","","","","","","feedback_test","","","","","","","","","","","",""
"609","","f","psychophysics","67","223398","0.0-7.0-1.0-1.0-0.0-0.29","4","4","4","4","4","4","4","4","4","4","5","5","5","5","5","5","5","5","5","5","1","1","1","1","1","1","1","1","1","0","0","1","1","0","0","0","0","0","1","1","0","1","0","1","5","1","2","1","1","5","1","2","1","5","1","633774693194661888","周","345","","","","nonmatch","","","","","","","","","","","","","","key","f","16.664210526315852","768","428","f","true","nonmatch","img/trapezoid.png","椭圆","梯形","ALT1_2","prac_ALT1_2","","","","","","","","","","","",""
"null","<span style='color:GreenYellow; font-size: 70px;'>正确! </span>","null","html-keyboard-response","68","223899","0.0-7.0-1.0-1.0-0.0-1.29","4","4","4","4","4","4","4","4","4","4","5","5","5","5","5","5","5","5","5","5","1","1","1","1","1","1","1","1","1","0","0","1","1","0","0","0","0","0","1","1","0","1","0","1","5","1","2","1","1","5","1","2","1","5","1","633774693194661888","周","345","","","","","","","","","","","","","","","","","","","","","","","","","","","","","","feedback_test","","","","","","","","","","","",""
"734","","f","psychophysics","69","225634","0.0-7.0-1.0-1.0-0.0-0.30","4","4","4","4","4","4","4","4","4","4","5","5","5","5","5","5","5","5","5","5","1","1","1","1","1","1","1","1","1","0","0","1","1","0","0","0","0","0","1","1","0","1","0","1","5","1","2","1","1","5","1","2","1","5","1","633774693194661888","周","345","","","","nonmatch","","","","","","","","","","","","","","key","f","16.664077669902856","768","428","f","true","nonmatch","img/trapezoid.png","方形","梯形","ALT1_2","prac_ALT1_2","","","","","","","","","","","",""
"null","<span style='color:GreenYellow; font-size: 70px;'>正确! </span>","null","html-keyboard-response","70","226134","0.0-7.0-1.0-1.0-0.0-1.30","4","4","4","4","4","4","4","4","4","4","5","5","5","5","5","5","5","5","5","5","1","1","1","1","1","1","1","1","1","0","0","1","1","0","0","0","0","0","1","1","0","1","0","1","5","1","2","1","1","5","1","2","1","5","1","633774693194661888","周","345","","","","","","","","","","","","","","","","","","","","","","","","","","","","","","feedback_test","","","","","","","","","","","",""
"634","","j","psychophysics","71","227769","0.0-7.0-1.0-1.0-0.0-0.31","4","4","4","4","4","4","4","4","4","4","5","5","5","5","5","5","5","5","5","5","1","1","1","1","1","1","1","1","1","0","0","1","1","0","0","0","0","0","1","1","0","1","0","1","5","1","2","1","1","5","1","2","1","5","1","633774693194661888","周","345","","","","match","","","","","","","","","","","","","","key","j","16.66597938144336","768","428","j","true","match","img/square.png","方形","方形","ALT1_2","prac_ALT1_2","","","","","","","","","","","",""
"null","<span style='color:GreenYellow; font-size: 70px;'>正确! </span>","null","html-keyboard-response","72","228271","0.0-7.0-1.0-1.0-0.0-1.31","4","4","4","4","4","4","4","4","4","4","5","5","5","5","5","5","5","5","5","5","1","1","1","1","1","1","1","1","1","0","0","1","1","0","0","0","0","0","1","1","0","1","0","1","5","1","2","1","1","5","1","2","1","5","1","633774693194661888","周","345","","","","","","","","","","","","","","","","","","","","","","","","","","","","","","feedback_test","","","","","","","","","","","",""
"556","","j","psychophysics","73","229829","0.0-7.0-1.0-1.0-0.0-0.32","4","4","4","4","4","4","4","4","4","4","5","5","5","5","5","5","5","5","5","5","1","1","1","1","1","1","1","1","1","0","0","1","1","0","0","0","0","0","1","1","0","1","0","1","5","1","2","1","1","5","1","2","1","5","1","633774693194661888","周","345","","","","match","","","","","","","","","","","","","","key","j","16.667391304347763","768","428","j","true","match","img/ellipse.png","椭圆","椭圆","ALT1_2","prac_ALT1_2","","","","","","","","","","","",""
"null","<span style='color:GreenYellow; font-size: 70px;'>正确! </span>","null","html-keyboard-response","74","230330","0.0-7.0-1.0-1.0-0.0-1.32","4","4","4","4","4","4","4","4","4","4","5","5","5","5","5","5","5","5","5","5","1","1","1","1","1","1","1","1","1","0","0","1","1","0","0","0","0","0","1","1","0","1","0","1","5","1","2","1","1","5","1","2","1","5","1","633774693194661888","周","345","","","","","","","","","","","","","","","","","","","","","","","","","","","","","","feedback_test","","","","","","","","","","","",""
"637","","j","psychophysics","75","231968","0.0-7.0-1.0-1.0-0.0-0.33","4","4","4","4","4","4","4","4","4","4","5","5","5","5","5","5","5","5","5","5","1","1","1","1","1","1","1","1","1","0","0","1","1","0","0","0","0","0","1","1","0","1","0","1","5","1","2","1","1","5","1","2","1","5","1","633774693194661888","周","345","","","","match","","","","","","","","","","","","","","key","j","16.664285714285775","768","428","j","true","match","img/ellipse.png","椭圆","椭圆","ALT1_2","prac_ALT1_2","","","","","","","","","","","",""
"null","<span style='color:GreenYellow; font-size: 70px;'>正确! </span>","null","html-keyboard-response","76","232469","0.0-7.0-1.0-1.0-0.0-1.33","4","4","4","4","4","4","4","4","4","4","5","5","5","5","5","5","5","5","5","5","1","1","1","1","1","1","1","1","1","0","0","1","1","0","0","0","0","0","1","1","0","1","0","1","5","1","2","1","1","5","1","2","1","5","1","633774693194661888","周","345","","","","","","","","","","","","","","","","","","","","","","","","","","","","","","feedback_test","","","","","","","","","","","",""
"806","","j","psychophysics","77","234277","0.0-7.0-1.0-1.0-0.0-0.34","4","4","4","4","4","4","4","4","4","4","5","5","5","5","5","5","5","5","5","5","1","1","1","1","1","1","1","1","1","0","0","1","1","0","0","0","0","0","1","1","0","1","0","1","5","1","2","1","1","5","1","2","1","5","1","633774693194661888","周","345","","","","match","","","","","","","","","","","","","","key","j","16.66355140186916","768","428","j","true","match","img/trapezoid.png","梯形","梯形","ALT1_2","prac_ALT1_2","","","","","","","","","","","",""
"null","<span style='color:GreenYellow; font-size: 70px;'>正确! </span>","null","html-keyboard-response","78","234778","0.0-7.0-1.0-1.0-0.0-1.34","4","4","4","4","4","4","4","4","4","4","5","5","5","5","5","5","5","5","5","5","1","1","1","1","1","1","1","1","1","0","0","1","1","0","0","0","0","0","1","1","0","1","0","1","5","1","2","1","1","5","1","2","1","5","1","633774693194661888","周","345","","","","","","","","","","","","","","","","","","","","","","","","","","","","","","feedback_test","","","","","","","","","","","",""
"593","","f","psychophysics","79","236373","0.0-7.0-1.0-1.0-0.0-0.35","4","4","4","4","4","4","4","4","4","4","5","5","5","5","5","5","5","5","5","5","1","1","1","1","1","1","1","1","1","0","0","1","1","0","0","0","0","0","1","1","0","1","0","1","5","1","2","1","1","5","1","2","1","5","1","633774693194661888","周","345","","","","nonmatch","","","","","","","","","","","","","","key","f","16.664210526315852","768","428","f","true","nonmatch","img/trapezoid.png","五边","梯形","ALT1_2","prac_ALT1_2","","","","","","","","","","","",""
"null","<span style='color:GreenYellow; font-size: 70px;'>正确! </span>","null","html-keyboard-response","80","236874","0.0-7.0-1.0-1.0-0.0-1.35","4","4","4","4","4","4","4","4","4","4","5","5","5","5","5","5","5","5","5","5","1","1","1","1","1","1","1","1","1","0","0","1","1","0","0","0","0","0","1","1","0","1","0","1","5","1","2","1","1","5","1","2","1","5","1","633774693194661888","周","345","","","","","","","","","","","","","","","","","","","","","","","","","","","","","","feedback_test","","","","","","","","","","","",""
"635","","j","psychophysics","81","238511","0.0-7.0-1.0-1.0-0.0-0.36","4","4","4","4","4","4","4","4","4","4","5","5","5","5","5","5","5","5","5","5","1","1","1","1","1","1","1","1","1","0","0","1","1","0","0","0","0","0","1","1","0","1","0","1","5","1","2","1","1","5","1","2","1","5","1","633774693194661888","周","345","","","","match","","","","","","","","","","","","","","key","j","16.669072164948393","768","428","j","true","match","img/trapezoid.png","梯形","梯形","ALT1_2","prac_ALT1_2","","","","","","","","","","","",""
"null","<span style='color:GreenYellow; font-size: 70px;'>正确! </span>","null","html-keyboard-response","82","239012","0.0-7.0-1.0-1.0-0.0-1.36","4","4","4","4","4","4","4","4","4","4","5","5","5","5","5","5","5","5","5","5","1","1","1","1","1","1","1","1","1","0","0","1","1","0","0","0","0","0","1","1","0","1","0","1","5","1","2","1","1","5","1","2","1","5","1","633774693194661888","周","345","","","","","","","","","","","","","","","","","","","","","","","","","","","","","","feedback_test","","","","","","","","","","","",""
"719","","f","psychophysics","83","240733","0.0-7.0-1.0-1.0-0.0-0.37","4","4","4","4","4","4","4","4","4","4","5","5","5","5","5","5","5","5","5","5","1","1","1","1","1","1","1","1","1","0","0","1","1","0","0","0","0","0","1","1","0","1","0","1","5","1","2","1","1","5","1","2","1","5","1","633774693194661888","周","345","","","","nonmatch","","","","","","","","","","","","","","key","f","16.66504854368932","768","428","f","true","nonmatch","img/ellipse.png","梯形","椭圆","ALT1_2","prac_ALT1_2","","","","","","","","","","","",""
"null","<span style='color:GreenYellow; font-size: 70px;'>正确! </span>","null","html-keyboard-response","84","241235","0.0-7.0-1.0-1.0-0.0-1.37","4","4","4","4","4","4","4","4","4","4","5","5","5","5","5","5","5","5","5","5","1","1","1","1","1","1","1","1","1","0","0","1","1","0","0","0","0","0","1","1","0","1","0","1","5","1","2","1","1","5","1","2","1","5","1","633774693194661888","周","345","","","","","","","","","","","","","","","","","","","","","","","","","","","","","","feedback_test","","","","","","","","","","","",""
"604","","f","psychophysics","85","242840","0.0-7.0-1.0-1.0-0.0-0.38","4","4","4","4","4","4","4","4","4","4","5","5","5","5","5","5","5","5","5","5","1","1","1","1","1","1","1","1","1","0","0","1","1","0","0","0","0","0","1","1","0","1","0","1","5","1","2","1","1","5","1","2","1","5","1","633774693194661888","周","345","","","","nonmatch","","","","","","","","","","","","","","key","f","16.665624999999938","768","428","f","true","nonmatch","img/square.png","梯形","方形","ALT1_2","prac_ALT1_2","","","","","","","","","","","",""
"null","<span style='color:GreenYellow; font-size: 70px;'>正确! </span>","null","html-keyboard-response","86","243342","0.0-7.0-1.0-1.0-0.0-1.38","4","4","4","4","4","4","4","4","4","4","5","5","5","5","5","5","5","5","5","5","1","1","1","1","1","1","1","1","1","0","0","1","1","0","0","0","0","0","1","1","0","1","0","1","5","1","2","1","1","5","1","2","1","5","1","633774693194661888","周","345","","","","","","","","","","","","","","","","","","","","","","","","","","","","","","feedback_test","","","","","","","","","","","",""
"629","","f","psychophysics","87","244974","0.0-7.0-1.0-1.0-0.0-0.39","4","4","4","4","4","4","4","4","4","4","5","5","5","5","5","5","5","5","5","5","1","1","1","1","1","1","1","1","1","0","0","1","1","0","0","0","0","0","1","1","0","1","0","1","5","1","2","1","1","5","1","2","1","5","1","633774693194661888","周","345","","","","nonmatch","","","","","","","","","","","","","","key","f","16.663917525773137","768","428","f","true","nonmatch","img/pentagon.png","椭圆","五边","ALT1_2","prac_ALT1_2","","","","","","","","","","","",""
"null","<span style='color:GreenYellow; font-size: 70px;'>正确! </span>","null","html-keyboard-response","88","245475","0.0-7.0-1.0-1.0-0.0-1.39","4","4","4","4","4","4","4","4","4","4","5","5","5","5","5","5","5","5","5","5","1","1","1","1","1","1","1","1","1","0","0","1","1","0","0","0","0","0","1","1","0","1","0","1","5","1","2","1","1","5","1","2","1","5","1","633774693194661888","周","345","","","","","","","","","","","","","","","","","","","","","","","","","","","","","","feedback_test","","","","","","","","","","","",""
"625","","j","psychophysics","89","247102","0.0-7.0-1.0-1.0-0.0-0.40","4","4","4","4","4","4","4","4","4","4","5","5","5","5","5","5","5","5","5","5","1","1","1","1","1","1","1","1","1","0","0","1","1","0","0","0","0","0","1","1","0","1","0","1","5","1","2","1","1","5","1","2","1","5","1","633774693194661888","周","345","","","","match","","","","","","","","","","","","","","key","j","16.66804123711358","768","428","j","true","match","img/ellipse.png","椭圆","椭圆","ALT1_2","prac_ALT1_2","","","","","","","","","","","",""
"null","<span style='color:GreenYellow; font-size: 70px;'>正确! </span>","null","html-keyboard-response","90","247604","0.0-7.0-1.0-1.0-0.0-1.40","4","4","4","4","4","4","4","4","4","4","5","5","5","5","5","5","5","5","5","5","1","1","1","1","1","1","1","1","1","0","0","1","1","0","0","0","0","0","1","1","0","1","0","1","5","1","2","1","1","5","1","2","1","5","1","633774693194661888","周","345","","","","","","","","","","","","","","","","","","","","","","","","","","","","","","feedback_test","","","","","","","","","","","",""
"671","","j","psychophysics","91","249276","0.0-7.0-1.0-1.0-0.0-0.41","4","4","4","4","4","4","4","4","4","4","5","5","5","5","5","5","5","5","5","5","1","1","1","1","1","1","1","1","1","0","0","1","1","0","0","0","0","0","1","1","0","1","0","1","5","1","2","1","1","5","1","2","1","5","1","633774693194661888","周","345","","","","match","","","","","","","","","","","","","","key","j","16.66565656565651","768","428","j","true","match","img/pentagon.png","五边","五边","ALT1_2","prac_ALT1_2","","","","","","","","","","","",""
"null","<span style='color:GreenYellow; font-size: 70px;'>正确! </span>","null","html-keyboard-response","92","249777","0.0-7.0-1.0-1.0-0.0-1.41","4","4","4","4","4","4","4","4","4","4","5","5","5","5","5","5","5","5","5","5","1","1","1","1","1","1","1","1","1","0","0","1","1","0","0","0","0","0","1","1","0","1","0","1","5","1","2","1","1","5","1","2","1","5","1","633774693194661888","周","345","","","","","","","","","","","","","","","","","","","","","","","","","","","","","","feedback_test","","","","","","","","","","","",""
"660","","j","psychophysics","93","251437","0.0-7.0-1.0-1.0-0.0-0.42","4","4","4","4","4","4","4","4","4","4","5","5","5","5","5","5","5","5","5","5","1","1","1","1","1","1","1","1","1","0","0","1","1","0","0","0","0","0","1","1","0","1","0","1","5","1","2","1","1","5","1","2","1","5","1","633774693194661888","周","345","","","","match","","","","","","","","","","","","","","key","j","16.666666666666668","768","428","j","true","match","img/pentagon.png","五边","五边","ALT1_2","prac_ALT1_2","","","","","","","","","","","",""
"null","<span style='color:GreenYellow; font-size: 70px;'>正确! </span>","null","html-keyboard-response","94","251939","0.0-7.0-1.0-1.0-0.0-1.42","4","4","4","4","4","4","4","4","4","4","5","5","5","5","5","5","5","5","5","5","1","1","1","1","1","1","1","1","1","0","0","1","1","0","0","0","0","0","1","1","0","1","0","1","5","1","2","1","1","5","1","2","1","5","1","633774693194661888","周","345","","","","","","","","","","","","","","","","","","","","","","","","","","","","","","feedback_test","","","","","","","","","","","",""
"540","","f","psychophysics","95","253480","0.0-7.0-1.0-1.0-0.0-0.43","4","4","4","4","4","4","4","4","4","4","5","5","5","5","5","5","5","5","5","5","1","1","1","1","1","1","1","1","1","0","0","1","1","0","0","0","0","0","1","1","0","1","0","1","5","1","2","1","1","5","1","2","1","5","1","633774693194661888","周","345","","","","nonmatch","","","","","","","","","","","","","","key","f","16.667032967033094","768","428","f","true","nonmatch","img/pentagon.png","方形","五边","ALT1_2","prac_ALT1_2","","","","","","","","","","","",""
"null","<span style='color:GreenYellow; font-size: 70px;'>正确! </span>","null","html-keyboard-response","96","253983","0.0-7.0-1.0-1.0-0.0-1.43","4","4","4","4","4","4","4","4","4","4","5","5","5","5","5","5","5","5","5","5","1","1","1","1","1","1","1","1","1","0","0","1","1","0","0","0","0","0","1","1","0","1","0","1","5","1","2","1","1","5","1","2","1","5","1","633774693194661888","周","345","","","","","","","","","","","","","","","","","","","","","","","","","","","","","","feedback_test","","","","","","","","","","","",""
"589","","f","psychophysics","97","255573","0.0-7.0-1.0-1.0-0.0-0.44","4","4","4","4","4","4","4","4","4","4","5","5","5","5","5","5","5","5","5","5","1","1","1","1","1","1","1","1","1","0","0","1","1","0","0","0","0","0","1","1","0","1","0","1","5","1","2","1","1","5","1","2","1","5","1","633774693194661888","周","345","","","","nonmatch","","","","","","","","","","","","","","key","f","16.66382978723398","768","428","f","true","nonmatch","img/square.png","五边","方形","ALT1_2","prac_ALT1_2","","","","","","","","","","","",""
"null","<span style='color:GreenYellow; font-size: 70px;'>正确! </span>","null","html-keyboard-response","98","256074","0.0-7.0-1.0-1.0-0.0-1.44","4","4","4","4","4","4","4","4","4","4","5","5","5","5","5","5","5","5","5","5","1","1","1","1","1","1","1","1","1","0","0","1","1","0","0","0","0","0","1","1","0","1","0","1","5","1","2","1","1","5","1","2","1","5","1","633774693194661888","周","345","","","","","","","","","","","","","","","","","","","","","","","","","","","","","","feedback_test","","","","","","","","","","","",""
"593","","f","psychophysics","99","257668","0.0-7.0-1.0-1.0-0.0-0.45","4","4","4","4","4","4","4","4","4","4","5","5","5","5","5","5","5","5","5","5","1","1","1","1","1","1","1","1","1","0","0","1","1","0","0","0","0","0","1","1","0","1","0","1","5","1","2","1","1","5","1","2","1","5","1","633774693194661888","周","345","","","","nonmatch","","","","","","","","","","","","","","key","f","16.666315789473867","768","428","f","true","nonmatch","img/pentagon.png","梯形","五边","ALT1_2","prac_ALT1_2","","","","","","","","","","","",""
"null","<span style='color:GreenYellow; font-size: 70px;'>正确! </span>","null","html-keyboard-response","100","258170","0.0-7.0-1.0-1.0-0.0-1.45","4","4","4","4","4","4","4","4","4","4","5","5","5","5","5","5","5","5","5","5","1","1","1","1","1","1","1","1","1","0","0","1","1","0","0","0","0","0","1","1","0","1","0","1","5","1","2","1","1","5","1","2","1","5","1","633774693194661888","周","345","","","","","","","","","","","","","","","","","","","","","","","","","","","","","","feedback_test","","","","","","","","","","","",""
"578","","j","psychophysics","101","259748","0.0-7.0-1.0-1.0-0.0-0.46","4","4","4","4","4","4","4","4","4","4","5","5","5","5","5","5","5","5","5","5","1","1","1","1","1","1","1","1","1","0","0","1","1","0","0","0","0","0","1","1","0","1","0","1","5","1","2","1","1","5","1","2","1","5","1","633774693194661888","周","345","","","","match","","","","","","","","","","","","","","key","j","16.664210526315543","768","428","j","true","match","img/pentagon.png","五边","五边","ALT1_2","prac_ALT1_2","","","","","","","","","","","",""
"null","<span style='color:GreenYellow; font-size: 70px;'>正确! </span>","null","html-keyboard-response","102","260251","0.0-7.0-1.0-1.0-0.0-1.46","4","4","4","4","4","4","4","4","4","4","5","5","5","5","5","5","5","5","5","5","1","1","1","1","1","1","1","1","1","0","0","1","1","0","0","0","0","0","1","1","0","1","0","1","5","1","2","1","1","5","1","2","1","5","1","633774693194661888","周","345","","","","","","","","","","","","","","","","","","","","","","","","","","","","","","feedback_test","","","","","","","","","","","",""
"498","","f","psychophysics","103","261752","0.0-7.0-1.0-1.0-0.0-0.47","4","4","4","4","4","4","4","4","4","4","5","5","5","5","5","5","5","5","5","5","1","1","1","1","1","1","1","1","1","0","0","1","1","0","0","0","0","0","1","1","0","1","0","1","5","1","2","1","1","5","1","2","1","5","1","633774693194661888","周","345","","","","nonmatch","","","","","","","","","","","","","","key","f","16.668539325842698","768","428","f","true","nonmatch","img/ellipse.png","方形","椭圆","ALT1_2","prac_ALT1_2","","","","","","","","","","","",""
"null","<span style='color:GreenYellow; font-size: 70px;'>正确! </span>","null","html-keyboard-response","104","262260","0.0-7.0-1.0-1.0-0.0-1.47","4","4","4","4","4","4","4","4","4","4","5","5","5","5","5","5","5","5","5","5","1","1","1","1","1","1","1","1","1","0","0","1","1","0","0","0","0","0","1","1","0","1","0","1","5","1","2","1","1","5","1","2","1","5","1","633774693194661888","周","345","","","","","","","","","","","","","","","","","","","","","","","","","","","","","","feedback_test","","","","","","","","","","","",""
"1384","<style>.context{color:white; font-size: 35px; line-height:40px}</style>                          <div><p class='context'>您正确回答了96% 的试次。</p><p class='context'>您的平均反应时为617毫秒。</p><p class='context'>恭喜您完成练习。按空格键进入正式实验。</p><p class='footer' style='font-size: 35px; line-height:40px;'>请在进入正式实验实验之前将您的<span style='color: lightgreen;'>食指</span>放在电脑键盘的相应键位上进行按键。</p>"," ","html-keyboard-response","105","263645","0.0-7.0-1.0-2.0","4","4","4","4","4","4","4","4","4","4","5","5","5","5","5","5","5","5","5","5","1","1","1","1","1","1","1","1","1","0","0","1","1","0","0","0","0","0","1","1","0","1","0","1","5","1","2","1","1","5","1","2","1","5","1","633774693194661888","周","345","","","","","","","","","","","","","","","","","","","","","","","","","","","","","","","","","","","","","","","","","",""
"4565","
  <p style='color: white; font-size: 22px'>请您将手指放在按键上，准备进入正式的匹配任务。</p>
  <p> <div style = ""color: green""><按空格键进入下一阶段的匹配任务></div></p>
  "," ","html-keyboard-response","106","268213","0.0-7.0-1.0-3.0","4","4","4","4","4","4","4","4","4","4","5","5","5","5","5","5","5","5","5","5","1","1","1","1","1","1","1","1","1","0","0","1","1","0","0","0","0","0","1","1","0","1","0","1","5","1","2","1","1","5","1","2","1","5","1","633774693194661888","周","345","","","","","","","","","","","","","","","","","","","","","","","","","","","","","","","","","","","","","","","","","",""
"574","","f","psychophysics","107","269788","0.0-7.0-1.0-4.0-0.0-0.0","4","4","4","4","4","4","4","4","4","4","5","5","5","5","5","5","5","5","5","5","1","1","1","1","1","1","1","1","1","0","0","1","1","0","0","0","0","0","1","1","0","1","0","1","5","1","2","1","1","5","1","2","1","5","1","633774693194661888","周","345","","","","nonmatch","","","","","","","","","","","","","","key","f","16.664516129032133","768","428","f","true","nonmatch","img/square.png","梯形","方形","ALT1","formal_ALT1_2","","","","","","","","","","","",""
"null","<span style='color:GreenYellow; font-size: 70px;'>正确! </span>","null","html-keyboard-response","108","270289","0.0-7.0-1.0-4.0-0.0-1.0","4","4","4","4","4","4","4","4","4","4","5","5","5","5","5","5","5","5","5","5","1","1","1","1","1","1","1","1","1","0","0","1","1","0","0","0","0","0","1","1","0","1","0","1","5","1","2","1","1","5","1","2","1","5","1","633774693194661888","周","345","","","","","","","","","","","","","","","","","","","","","","","","","","","","","","feedback_test","","","","","","","","","","","",""
"602","","f","psychophysics","109","271892","0.0-7.0-1.0-4.0-0.0-0.1","4","4","4","4","4","4","4","4","4","4","5","5","5","5","5","5","5","5","5","5","1","1","1","1","1","1","1","1","1","0","0","1","1","0","0","0","0","0","1","1","0","1","0","1","5","1","2","1","1","5","1","2","1","5","1","633774693194661888","周","345","","","","nonmatch","","","","","","","","","","","","","","key","f","16.66315789473684","768","428","f","true","nonmatch","img/trapezoid.png","方形","梯形","ALT1","formal_ALT1_2","","","","","","","","","","","",""
"null","<span style='color:GreenYellow; font-size: 70px;'>正确! </span>","null","html-keyboard-response","110","272393","0.0-7.0-1.0-4.0-0.0-1.1","4","4","4","4","4","4","4","4","4","4","5","5","5","5","5","5","5","5","5","5","1","1","1","1","1","1","1","1","1","0","0","1","1","0","0","0","0","0","1","1","0","1","0","1","5","1","2","1","1","5","1","2","1","5","1","633774693194661888","周","345","","","","","","","","","","","","","","","","","","","","","","","","","","","","","","feedback_test","","","","","","","","","","","",""
"768","","j","psychophysics","111","274162","0.0-7.0-1.0-4.0-0.0-0.2","4","4","4","4","4","4","4","4","4","4","5","5","5","5","5","5","5","5","5","5","1","1","1","1","1","1","1","1","1","0","0","1","1","0","0","0","0","0","1","1","0","1","0","1","5","1","2","1","1","5","1","2","1","5","1","633774693194661888","周","345","","","","match","","","","","","","","","","","","","","key","j","16.652380952380952","768","428","j","true","match","img/trapezoid.png","梯形","梯形","ALT1","formal_ALT1_2","","","","","","","","","","","",""
"null","<span style='color:GreenYellow; font-size: 70px;'>正确! </span>","null","html-keyboard-response","112","274663","0.0-7.0-1.0-4.0-0.0-1.2","4","4","4","4","4","4","4","4","4","4","5","5","5","5","5","5","5","5","5","5","1","1","1","1","1","1","1","1","1","0","0","1","1","0","0","0","0","0","1","1","0","1","0","1","5","1","2","1","1","5","1","2","1","5","1","633774693194661888","周","345","","","","","","","","","","","","","","","","","","","","","","","","","","","","","","feedback_test","","","","","","","","","","","",""
"598","","f","psychophysics","113","276262","0.0-7.0-1.0-4.0-0.0-0.3","4","4","4","4","4","4","4","4","4","4","5","5","5","5","5","5","5","5","5","5","1","1","1","1","1","1","1","1","1","0","0","1","1","0","0","0","0","0","1","1","0","1","0","1","5","1","2","1","1","5","1","2","1","5","1","633774693194661888","周","345","","","","nonmatch","","","","","","","","","","","","","","key","f","16.664210526315543","768","428","f","true","nonmatch","img/ellipse.png","梯形","椭圆","ALT1","formal_ALT1_2","","","","","","","","","","","",""
"null","<span style='color:GreenYellow; font-size: 70px;'>正确! </span>","null","html-keyboard-response","114","276762","0.0-7.0-1.0-4.0-0.0-1.3","4","4","4","4","4","4","4","4","4","4","5","5","5","5","5","5","5","5","5","5","1","1","1","1","1","1","1","1","1","0","0","1","1","0","0","0","0","0","1","1","0","1","0","1","5","1","2","1","1","5","1","2","1","5","1","633774693194661888","周","345","","","","","","","","","","","","","","","","","","","","","","","","","","","","","","feedback_test","","","","","","","","","","","",""
"604","","j","psychophysics","115","278368","0.0-7.0-1.0-4.0-0.0-0.4","4","4","4","4","4","4","4","4","4","4","5","5","5","5","5","5","5","5","5","5","1","1","1","1","1","1","1","1","1","0","0","1","1","0","0","0","0","0","1","1","0","1","0","1","5","1","2","1","1","5","1","2","1","5","1","633774693194661888","周","345","","","","match","","","","","","","","","","","","","","key","j","16.66526315789486","768","428","j","true","match","img/ellipse.png","椭圆","椭圆","ALT1","formal_ALT1_2","","","","","","","","","","","",""
"null","<span style='color:GreenYellow; font-size: 70px;'>正确! </span>","null","html-keyboard-response","116","278869","0.0-7.0-1.0-4.0-0.0-1.4","4","4","4","4","4","4","4","4","4","4","5","5","5","5","5","5","5","5","5","5","1","1","1","1","1","1","1","1","1","0","0","1","1","0","0","0","0","0","1","1","0","1","0","1","5","1","2","1","1","5","1","2","1","5","1","633774693194661888","周","345","","","","","","","","","","","","","","","","","","","","","","","","","","","","","","feedback_test","","","","","","","","","","","",""
"525","","j","psychophysics","117","280396","0.0-7.0-1.0-4.0-0.0-0.5","4","4","4","4","4","4","4","4","4","4","5","5","5","5","5","5","5","5","5","5","1","1","1","1","1","1","1","1","1","0","0","1","1","0","0","0","0","0","1","1","0","1","0","1","5","1","2","1","1","5","1","2","1","5","1","633774693194661888","周","345","","","","match","","","","","","","","","","","","","","key","j","16.667032967033094","768","428","j","true","match","img/ellipse.png","椭圆","椭圆","ALT1","formal_ALT1_2","","","","","","","","","","","",""
"null","<span style='color:GreenYellow; font-size: 70px;'>正确! </span>","null","html-keyboard-response","118","280903","0.0-7.0-1.0-4.0-0.0-1.5","4","4","4","4","4","4","4","4","4","4","5","5","5","5","5","5","5","5","5","5","1","1","1","1","1","1","1","1","1","0","0","1","1","0","0","0","0","0","1","1","0","1","0","1","5","1","2","1","1","5","1","2","1","5","1","633774693194661888","周","345","","","","","","","","","","","","","","","","","","","","","","","","","","","","","","feedback_test","","","","","","","","","","","",""
"520","","f","psychophysics","119","282424","0.0-7.0-1.0-4.0-0.0-0.6","4","4","4","4","4","4","4","4","4","4","5","5","5","5","5","5","5","5","5","5","1","1","1","1","1","1","1","1","1","0","0","1","1","0","0","0","0","0","1","1","0","1","0","1","5","1","2","1","1","5","1","2","1","5","1","633774693194661888","周","345","","","","nonmatch","","","","","","","","","","","","","","key","f","16.66888888888902","768","428","f","true","nonmatch","img/pentagon.png","方形","五边","ALT1","formal_ALT1_2","","","","","","","","","","","",""
"null","<span style='color:GreenYellow; font-size: 70px;'>正确! </span>","null","html-keyboard-response","120","282924","0.0-7.0-1.0-4.0-0.0-1.6","4","4","4","4","4","4","4","4","4","4","5","5","5","5","5","5","5","5","5","5","1","1","1","1","1","1","1","1","1","0","0","1","1","0","0","0","0","0","1","1","0","1","0","1","5","1","2","1","1","5","1","2","1","5","1","633774693194661888","周","345","","","","","","","","","","","","","","","","","","","","","","","","","","","","","","feedback_test","","","","","","","","","","","",""
"648","","f","psychophysics","121","284573","0.0-7.0-1.0-4.0-0.0-0.7","4","4","4","4","4","4","4","4","4","4","5","5","5","5","5","5","5","5","5","5","1","1","1","1","1","1","1","1","1","0","0","1","1","0","0","0","0","0","1","1","0","1","0","1","5","1","2","1","1","5","1","2","1","5","1","633774693194661888","周","345","","","","nonmatch","","","","","","","","","","","","","","key","f","16.664285714285477","768","428","f","true","nonmatch","img/square.png","五边","方形","ALT1","formal_ALT1_2","","","","","","","","","","","",""
"null","<span style='color:GreenYellow; font-size: 70px;'>正确! </span>","null","html-keyboard-response","122","285074","0.0-7.0-1.0-4.0-0.0-1.7","4","4","4","4","4","4","4","4","4","4","5","5","5","5","5","5","5","5","5","5","1","1","1","1","1","1","1","1","1","0","0","1","1","0","0","0","0","0","1","1","0","1","0","1","5","1","2","1","1","5","1","2","1","5","1","633774693194661888","周","345","","","","","","","","","","","","","","","","","","","","","","","","","","","","","","feedback_test","","","","","","","","","","","",""
"624","","j","psychophysics","123","286701","0.0-7.0-1.0-4.0-0.0-0.8","4","4","4","4","4","4","4","4","4","4","5","5","5","5","5","5","5","5","5","5","1","1","1","1","1","1","1","1","1","0","0","1","1","0","0","0","0","0","1","1","0","1","0","1","5","1","2","1","1","5","1","2","1","5","1","633774693194661888","周","345","","","","match","","","","","","","","","","","","","","key","j","16.663541666666788","768","428","j","true","match","img/ellipse.png","椭圆","椭圆","ALT1","formal_ALT1_2","","","","","","","","","","","",""
"null","<span style='color:GreenYellow; font-size: 70px;'>正确! </span>","null","html-keyboard-response","124","287203","0.0-7.0-1.0-4.0-0.0-1.8","4","4","4","4","4","4","4","4","4","4","5","5","5","5","5","5","5","5","5","5","1","1","1","1","1","1","1","1","1","0","0","1","1","0","0","0","0","0","1","1","0","1","0","1","5","1","2","1","1","5","1","2","1","5","1","633774693194661888","周","345","","","","","","","","","","","","","","","","","","","","","","","","","","","","","","feedback_test","","","","","","","","","","","",""
"560","","f","psychophysics","125","288765","0.0-7.0-1.0-4.0-0.0-0.9","4","4","4","4","4","4","4","4","4","4","5","5","5","5","5","5","5","5","5","5","1","1","1","1","1","1","1","1","1","0","0","1","1","0","0","0","0","0","1","1","0","1","0","1","5","1","2","1","1","5","1","2","1","5","1","633774693194661888","周","345","","","","nonmatch","","","","","","","","","","","","","","key","f","16.665591397849713","768","428","f","true","nonmatch","img/ellipse.png","五边","椭圆","ALT1","formal_ALT1_2","","","","","","","","","","","",""
"null","<span style='color:GreenYellow; font-size: 70px;'>正确! </span>","null","html-keyboard-response","126","289266","0.0-7.0-1.0-4.0-0.0-1.9","4","4","4","4","4","4","4","4","4","4","5","5","5","5","5","5","5","5","5","5","1","1","1","1","1","1","1","1","1","0","0","1","1","0","0","0","0","0","1","1","0","1","0","1","5","1","2","1","1","5","1","2","1","5","1","633774693194661888","周","345","","","","","","","","","","","","","","","","","","","","","","","","","","","","","","feedback_test","","","","","","","","","","","",""
"643","","j","psychophysics","127","290911","0.0-7.0-1.0-4.0-0.0-0.10","4","4","4","4","4","4","4","4","4","4","5","5","5","5","5","5","5","5","5","5","1","1","1","1","1","1","1","1","1","0","0","1","1","0","0","0","0","0","1","1","0","1","0","1","5","1","2","1","1","5","1","2","1","5","1","633774693194661888","周","345","","","","match","","","","","","","","","","","","","","key","j","16.6653061224491","768","428","j","true","match","img/trapezoid.png","梯形","梯形","ALT1","formal_ALT1_2","","","","","","","","","","","",""
"null","<span style='color:GreenYellow; font-size: 70px;'>正确! </span>","null","html-keyboard-response","128","291412","0.0-7.0-1.0-4.0-0.0-1.10","4","4","4","4","4","4","4","4","4","4","5","5","5","5","5","5","5","5","5","5","1","1","1","1","1","1","1","1","1","0","0","1","1","0","0","0","0","0","1","1","0","1","0","1","5","1","2","1","1","5","1","2","1","5","1","633774693194661888","周","345","","","","","","","","","","","","","","","","","","","","","","","","","","","","","","feedback_test","","","","","","","","","","","",""
"623","","j","psychophysics","129","293036","0.0-7.0-1.0-4.0-0.0-0.11","4","4","4","4","4","4","4","4","4","4","5","5","5","5","5","5","5","5","5","5","1","1","1","1","1","1","1","1","1","0","0","1","1","0","0","0","0","0","1","1","0","1","0","1","5","1","2","1","1","5","1","2","1","5","1","633774693194661888","周","345","","","","match","","","","","","","","","","","","","","key","j","16.665624999999636","768","428","f","false","nonmatch","img/pentagon.png","梯形","五边","ALT1","formal_ALT1_2","","","","","","","","","","","",""
"null","<span style='color:red; font-size: 70px;'>错误! </span>","null","html-keyboard-response","130","293537","0.0-7.0-1.0-4.0-0.0-1.11","4","4","4","4","4","4","4","4","4","4","5","5","5","5","5","5","5","5","5","5","1","1","1","1","1","1","1","1","1","0","0","1","1","0","0","0","0","0","1","1","0","1","0","1","5","1","2","1","1","5","1","2","1","5","1","633774693194661888","周","345","","","","","","","","","","","","","","","","","","","","","","","","","","","","","","feedback_test","","","","","","","","","","","",""
"562","","j","psychophysics","131","295101","0.0-7.0-1.0-4.0-0.0-0.12","4","4","4","4","4","4","4","4","4","4","5","5","5","5","5","5","5","5","5","5","1","1","1","1","1","1","1","1","1","0","0","1","1","0","0","0","0","0","1","1","0","1","0","1","5","1","2","1","1","5","1","2","1","5","1","633774693194661888","周","345","","","","match","","","","","","","","","","","","","","key","j","16.665591397849088","768","428","j","true","match","img/square.png","方形","方形","ALT1","formal_ALT1_2","","","","","","","","","","","",""
"null","<span style='color:GreenYellow; font-size: 70px;'>正确! </span>","null","html-keyboard-response","132","295602","0.0-7.0-1.0-4.0-0.0-1.12","4","4","4","4","4","4","4","4","4","4","5","5","5","5","5","5","5","5","5","5","1","1","1","1","1","1","1","1","1","0","0","1","1","0","0","0","0","0","1","1","0","1","0","1","5","1","2","1","1","5","1","2","1","5","1","633774693194661888","周","345","","","","","","","","","","","","","","","","","","","","","","","","","","","","","","feedback_test","","","","","","","","","","","",""
"545","","j","psychophysics","133","297148","0.0-7.0-1.0-4.0-0.0-0.13","4","4","4","4","4","4","4","4","4","4","5","5","5","5","5","5","5","5","5","5","1","1","1","1","1","1","1","1","1","0","0","1","1","0","0","0","0","0","1","1","0","1","0","1","5","1","2","1","1","5","1","2","1","5","1","633774693194661888","周","345","","","","match","","","","","","","","","","","","","","key","j","16.665217391304473","768","428","j","true","match","img/pentagon.png","五边","五边","ALT1","formal_ALT1_2","","","","","","","","","","","",""
"null","<span style='color:GreenYellow; font-size: 70px;'>正确! </span>","null","html-keyboard-response","134","297649","0.0-7.0-1.0-4.0-0.0-1.13","4","4","4","4","4","4","4","4","4","4","5","5","5","5","5","5","5","5","5","5","1","1","1","1","1","1","1","1","1","0","0","1","1","0","0","0","0","0","1","1","0","1","0","1","5","1","2","1","1","5","1","2","1","5","1","633774693194661888","周","345","","","","","","","","","","","","","","","","","","","","","","","","","","","","","","feedback_test","","","","","","","","","","","",""
"762","","j","psychophysics","135","299415","0.0-7.0-1.0-4.0-0.0-0.14","4","4","4","4","4","4","4","4","4","4","5","5","5","5","5","5","5","5","5","5","1","1","1","1","1","1","1","1","1","0","0","1","1","0","0","0","0","0","1","1","0","1","0","1","5","1","2","1","1","5","1","2","1","5","1","633774693194661888","周","345","","","","match","","","","","","","","","","","","","","key","j","16.666666666666668","768","428","j","true","match","img/square.png","方形","方形","ALT1","formal_ALT1_2","","","","","","","","","","","",""
"null","<span style='color:GreenYellow; font-size: 70px;'>正确! </span>","null","html-keyboard-response","136","299917","0.0-7.0-1.0-4.0-0.0-1.14","4","4","4","4","4","4","4","4","4","4","5","5","5","5","5","5","5","5","5","5","1","1","1","1","1","1","1","1","1","0","0","1","1","0","0","0","0","0","1","1","0","1","0","1","5","1","2","1","1","5","1","2","1","5","1","633774693194661888","周","345","","","","","","","","","","","","","","","","","","","","","","","","","","","","","","feedback_test","","","","","","","","","","","",""
"638","","f","psychophysics","137","301557","0.0-7.0-1.0-4.0-0.0-0.15","4","4","4","4","4","4","4","4","4","4","5","5","5","5","5","5","5","5","5","5","1","1","1","1","1","1","1","1","1","0","0","1","1","0","0","0","0","0","1","1","0","1","0","1","5","1","2","1","1","5","1","2","1","5","1","633774693194661888","周","345","","","","nonmatch","","","","","","","","","","","","","","key","f","16.669072164948094","768","428","f","true","nonmatch","img/trapezoid.png","椭圆","梯形","ALT1","formal_ALT1_2","","","","","","","","","","","",""
"null","<span style='color:GreenYellow; font-size: 70px;'>正确! </span>","null","html-keyboard-response","138","302057","0.0-7.0-1.0-4.0-0.0-1.15","4","4","4","4","4","4","4","4","4","4","5","5","5","5","5","5","5","5","5","5","1","1","1","1","1","1","1","1","1","0","0","1","1","0","0","0","0","0","1","1","0","1","0","1","5","1","2","1","1","5","1","2","1","5","1","633774693194661888","周","345","","","","","","","","","","","","","","","","","","","","","","","","","","","","","","feedback_test","","","","","","","","","","","",""
"553","","j","psychophysics","139","303612","0.0-7.0-1.0-4.0-0.0-0.16","4","4","4","4","4","4","4","4","4","4","5","5","5","5","5","5","5","5","5","5","1","1","1","1","1","1","1","1","1","0","0","1","1","0","0","0","0","0","1","1","0","1","0","1","5","1","2","1","1","5","1","2","1","5","1","633774693194661888","周","345","","","","match","","","","","","","","","","","","","","key","j","16.666304347826593","768","428","j","true","match","img/pentagon.png","五边","五边","ALT1","formal_ALT1_2","","","","","","","","","","","",""
"null","<span style='color:GreenYellow; font-size: 70px;'>正确! </span>","null","html-keyboard-response","140","304113","0.0-7.0-1.0-4.0-0.0-1.16","4","4","4","4","4","4","4","4","4","4","5","5","5","5","5","5","5","5","5","5","1","1","1","1","1","1","1","1","1","0","0","1","1","0","0","0","0","0","1","1","0","1","0","1","5","1","2","1","1","5","1","2","1","5","1","633774693194661888","周","345","","","","","","","","","","","","","","","","","","","","","","","","","","","","","","feedback_test","","","","","","","","","","","",""
"635","","f","psychophysics","141","305749","0.0-7.0-1.0-4.0-0.0-0.17","4","4","4","4","4","4","4","4","4","4","5","5","5","5","5","5","5","5","5","5","1","1","1","1","1","1","1","1","1","0","0","1","1","0","0","0","0","0","1","1","0","1","0","1","5","1","2","1","1","5","1","2","1","5","1","633774693194661888","周","345","","","","nonmatch","","","","","","","","","","","","","","key","f","16.663917525773435","768","428","f","true","nonmatch","img/ellipse.png","方形","椭圆","ALT1","formal_ALT1_2","","","","","","","","","","","",""
"null","<span style='color:GreenYellow; font-size: 70px;'>正确! </span>","null","html-keyboard-response","142","306262","0.0-7.0-1.0-4.0-0.0-1.17","4","4","4","4","4","4","4","4","4","4","5","5","5","5","5","5","5","5","5","5","1","1","1","1","1","1","1","1","1","0","0","1","1","0","0","0","0","0","1","1","0","1","0","1","5","1","2","1","1","5","1","2","1","5","1","633774693194661888","周","345","","","","","","","","","","","","","","","","","","","","","","","","","","","","","","feedback_test","","","","","","","","","","","",""
"804","","f","psychophysics","143","308069","0.0-7.0-1.0-4.0-0.0-0.18","4","4","4","4","4","4","4","4","4","4","5","5","5","5","5","5","5","5","5","5","1","1","1","1","1","1","1","1","1","0","0","1","1","0","0","0","0","0","1","1","0","1","0","1","5","1","2","1","1","5","1","2","1","5","1","633774693194661888","周","345","","","","nonmatch","","","","","","","","","","","","","","key","f","16.666355140187353","768","428","f","true","nonmatch","img/pentagon.png","椭圆","五边","ALT1","formal_ALT1_2","","","","","","","","","","","",""
"null","<span style='color:GreenYellow; font-size: 70px;'>正确! </span>","null","html-keyboard-response","144","308569","0.0-7.0-1.0-4.0-0.0-1.18","4","4","4","4","4","4","4","4","4","4","5","5","5","5","5","5","5","5","5","5","1","1","1","1","1","1","1","1","1","0","0","1","1","0","0","0","0","0","1","1","0","1","0","1","5","1","2","1","1","5","1","2","1","5","1","633774693194661888","周","345","","","","","","","","","","","","","","","","","","","","","","","","","","","","","","feedback_test","","","","","","","","","","","",""
"859","","f","psychophysics","145","310430","0.0-7.0-1.0-4.0-0.0-0.19","4","4","4","4","4","4","4","4","4","4","5","5","5","5","5","5","5","5","5","5","1","1","1","1","1","1","1","1","1","0","0","1","1","0","0","0","0","0","1","1","0","1","0","1","5","1","2","1","1","5","1","2","1","5","1","633774693194661888","周","345","","","","nonmatch","","","","","","","","","","","","","","key","f","16.666666666666668","768","428","f","true","nonmatch","img/square.png","椭圆","方形","ALT1","formal_ALT1_2","","","","","","","","","","","",""
"null","<span style='color:GreenYellow; font-size: 70px;'>正确! </span>","null","html-keyboard-response","146","310933","0.0-7.0-1.0-4.0-0.0-1.19","4","4","4","4","4","4","4","4","4","4","5","5","5","5","5","5","5","5","5","5","1","1","1","1","1","1","1","1","1","0","0","1","1","0","0","0","0","0","1","1","0","1","0","1","5","1","2","1","1","5","1","2","1","5","1","633774693194661888","周","345","","","","","","","","","","","","","","","","","","","","","","","","","","","","","","feedback_test","","","","","","","","","","","",""
"789","","j","psychophysics","147","312724","0.0-7.0-1.0-4.0-0.0-0.20","4","4","4","4","4","4","4","4","4","4","5","5","5","5","5","5","5","5","5","5","1","1","1","1","1","1","1","1","1","0","0","1","1","0","0","0","0","0","1","1","0","1","0","1","5","1","2","1","1","5","1","2","1","5","1","633774693194661888","周","345","","","","match","","","","","","","","","","","","","","key","j","16.66355140186916","768","428","f","false","nonmatch","img/trapezoid.png","五边","梯形","ALT1","formal_ALT1_2","","","","","","","","","","","",""
"null","<span style='color:red; font-size: 70px;'>错误! </span>","null","html-keyboard-response","148","313226","0.0-7.0-1.0-4.0-0.0-1.20","4","4","4","4","4","4","4","4","4","4","5","5","5","5","5","5","5","5","5","5","1","1","1","1","1","1","1","1","1","0","0","1","1","0","0","0","0","0","1","1","0","1","0","1","5","1","2","1","1","5","1","2","1","5","1","633774693194661888","周","345","","","","","","","","","","","","","","","","","","","","","","","","","","","","","","feedback_test","","","","","","","","","","","",""
"538","","j","psychophysics","149","314766","0.0-7.0-1.0-4.0-0.0-0.21","4","4","4","4","4","4","4","4","4","4","5","5","5","5","5","5","5","5","5","5","1","1","1","1","1","1","1","1","1","0","0","1","1","0","0","0","0","0","1","1","0","1","0","1","5","1","2","1","1","5","1","2","1","5","1","633774693194661888","周","345","","","","match","","","","","","","","","","","","","","key","j","16.66813186813174","768","428","j","true","match","img/square.png","方形","方形","ALT1","formal_ALT1_2","","","","","","","","","","","",""
"null","<span style='color:GreenYellow; font-size: 70px;'>正确! </span>","null","html-keyboard-response","150","315267","0.0-7.0-1.0-4.0-0.0-1.21","4","4","4","4","4","4","4","4","4","4","5","5","5","5","5","5","5","5","5","5","1","1","1","1","1","1","1","1","1","0","0","1","1","0","0","0","0","0","1","1","0","1","0","1","5","1","2","1","1","5","1","2","1","5","1","633774693194661888","周","345","","","","","","","","","","","","","","","","","","","","","","","","","","","","","","feedback_test","","","","","","","","","","","",""
"623","","j","psychophysics","151","316893","0.0-7.0-1.0-4.0-0.0-0.22","4","4","4","4","4","4","4","4","4","4","5","5","5","5","5","5","5","5","5","5","1","1","1","1","1","1","1","1","1","0","0","1","1","0","0","0","0","0","1","1","0","1","0","1","5","1","2","1","1","5","1","2","1","5","1","633774693194661888","周","345","","","","match","","","","","","","","","","","","","","key","j","16.664948453608247","768","428","j","true","match","img/trapezoid.png","梯形","梯形","ALT1","formal_ALT1_2","","","","","","","","","","","",""
"null","<span style='color:GreenYellow; font-size: 70px;'>正确! </span>","null","html-keyboard-response","152","317395","0.0-7.0-1.0-4.0-0.0-1.22","4","4","4","4","4","4","4","4","4","4","5","5","5","5","5","5","5","5","5","5","1","1","1","1","1","1","1","1","1","0","0","1","1","0","0","0","0","0","1","1","0","1","0","1","5","1","2","1","1","5","1","2","1","5","1","633774693194661888","周","345","","","","","","","","","","","","","","","","","","","","","","","","","","","","","","feedback_test","","","","","","","","","","","",""
"713","","j","psychophysics","153","319109","0.0-7.0-1.0-4.0-0.0-0.23","4","4","4","4","4","4","4","4","4","4","5","5","5","5","5","5","5","5","5","5","1","1","1","1","1","1","1","1","1","0","0","1","1","0","0","0","0","0","1","1","0","1","0","1","5","1","2","1","1","5","1","2","1","5","1","633774693194661888","周","345","","","","match","","","","","","","","","","","","","","key","j","16.66568627450946","768","428","j","true","match","img/pentagon.png","五边","五边","ALT1","formal_ALT1_2","","","","","","","","","","","",""
"null","<span style='color:GreenYellow; font-size: 70px;'>正确! </span>","null","html-keyboard-response","154","319611","0.0-7.0-1.0-4.0-0.0-1.23","4","4","4","4","4","4","4","4","4","4","5","5","5","5","5","5","5","5","5","5","1","1","1","1","1","1","1","1","1","0","0","1","1","0","0","0","0","0","1","1","0","1","0","1","5","1","2","1","1","5","1","2","1","5","1","633774693194661888","周","345","","","","","","","","","","","","","","","","","","","","","","","","","","","","","","feedback_test","","","","","","","","","","","",""
"640","","f","psychophysics","155","321253","0.0-7.0-1.0-4.0-0.0-0.24","4","4","4","4","4","4","4","4","4","4","5","5","5","5","5","5","5","5","5","5","1","1","1","1","1","1","1","1","1","0","0","1","1","0","0","0","0","0","1","1","0","1","0","1","5","1","2","1","1","5","1","2","1","5","1","633774693194661888","周","345","","","","nonmatch","","","","","","","","","","","","","","key","f","16.663265306122447","768","428","f","true","nonmatch","img/pentagon.png","方形","五边","ALT1","formal_ALT1_2","","","","","","","","","","","",""
"null","<span style='color:GreenYellow; font-size: 70px;'>正确! </span>","null","html-keyboard-response","156","321754","0.0-7.0-1.0-4.0-0.0-1.24","4","4","4","4","4","4","4","4","4","4","5","5","5","5","5","5","5","5","5","5","1","1","1","1","1","1","1","1","1","0","0","1","1","0","0","0","0","0","1","1","0","1","0","1","5","1","2","1","1","5","1","2","1","5","1","633774693194661888","周","345","","","","","","","","","","","","","","","","","","","","","","","","","","","","","","feedback_test","","","","","","","","","","","",""
"769","","f","psychophysics","157","323524","0.0-7.0-1.0-4.0-0.0-0.25","4","4","4","4","4","4","4","4","4","4","5","5","5","5","5","5","5","5","5","5","1","1","1","1","1","1","1","1","1","0","0","1","1","0","0","0","0","0","1","1","0","1","0","1","5","1","2","1","1","5","1","2","1","5","1","633774693194661888","周","345","","","","nonmatch","","","","","","","","","","","","","","key","f","16.664150943395896","768","428","f","true","nonmatch","img/pentagon.png","椭圆","五边","ALT1","formal_ALT1_2","","","","","","","","","","","",""
"null","<span style='color:GreenYellow; font-size: 70px;'>正确! </span>","null","html-keyboard-response","158","324026","0.0-7.0-1.0-4.0-0.0-1.25","4","4","4","4","4","4","4","4","4","4","5","5","5","5","5","5","5","5","5","5","1","1","1","1","1","1","1","1","1","0","0","1","1","0","0","0","0","0","1","1","0","1","0","1","5","1","2","1","1","5","1","2","1","5","1","633774693194661888","周","345","","","","","","","","","","","","","","","","","","","","","","","","","","","","","","feedback_test","","","","","","","","","","","",""
"690","","f","psychophysics","159","325717","0.0-7.0-1.0-4.0-0.0-0.26","4","4","4","4","4","4","4","4","4","4","5","5","5","5","5","5","5","5","5","5","1","1","1","1","1","1","1","1","1","0","0","1","1","0","0","0","0","0","1","1","0","1","0","1","5","1","2","1","1","5","1","2","1","5","1","633774693194661888","周","345","","","","nonmatch","","","","","","","","","","","","","","key","f","16.665999999999766","768","428","f","true","nonmatch","img/ellipse.png","方形","椭圆","ALT1","formal_ALT1_2","","","","","","","","","","","",""
"null","<span style='color:GreenYellow; font-size: 70px;'>正确! </span>","null","html-keyboard-response","160","326218","0.0-7.0-1.0-4.0-0.0-1.26","4","4","4","4","4","4","4","4","4","4","5","5","5","5","5","5","5","5","5","5","1","1","1","1","1","1","1","1","1","0","0","1","1","0","0","0","0","0","1","1","0","1","0","1","5","1","2","1","1","5","1","2","1","5","1","633774693194661888","周","345","","","","","","","","","","","","","","","","","","","","","","","","","","","","","","feedback_test","","","","","","","","","","","",""
"610","","f","psychophysics","161","327829","0.0-7.0-1.0-4.0-0.0-0.27","4","4","4","4","4","4","4","4","4","4","5","5","5","5","5","5","5","5","5","5","1","1","1","1","1","1","1","1","1","0","0","1","1","0","0","0","0","0","1","1","0","1","0","1","5","1","2","1","1","5","1","2","1","5","1","633774693194661888","周","345","","","","nonmatch","","","","","","","","","","","","","","key","f","16.663541666666788","768","428","f","true","nonmatch","img/square.png","五边","方形","ALT1","formal_ALT1_2","","","","","","","","","","","",""
"null","<span style='color:GreenYellow; font-size: 70px;'>正确! </span>","null","html-keyboard-response","162","328330","0.0-7.0-1.0-4.0-0.0-1.27","4","4","4","4","4","4","4","4","4","4","5","5","5","5","5","5","5","5","5","5","1","1","1","1","1","1","1","1","1","0","0","1","1","0","0","0","0","0","1","1","0","1","0","1","5","1","2","1","1","5","1","2","1","5","1","633774693194661888","周","345","","","","","","","","","","","","","","","","","","","","","","","","","","","","","","feedback_test","","","","","","","","","","","",""
"554","","j","psychophysics","163","329887","0.0-7.0-1.0-4.0-0.0-0.28","4","4","4","4","4","4","4","4","4","4","5","5","5","5","5","5","5","5","5","5","1","1","1","1","1","1","1","1","1","0","0","1","1","0","0","0","0","0","1","1","0","1","0","1","5","1","2","1","1","5","1","2","1","5","1","633774693194661888","周","345","","","","match","","","","","","","","","","","","","","key","j","16.668478260869566","768","428","j","true","match","img/pentagon.png","五边","五边","ALT1","formal_ALT1_2","","","","","","","","","","","",""
"null","<span style='color:GreenYellow; font-size: 70px;'>正确! </span>","null","html-keyboard-response","164","330388","0.0-7.0-1.0-4.0-0.0-1.28","4","4","4","4","4","4","4","4","4","4","5","5","5","5","5","5","5","5","5","5","1","1","1","1","1","1","1","1","1","0","0","1","1","0","0","0","0","0","1","1","0","1","0","1","5","1","2","1","1","5","1","2","1","5","1","633774693194661888","周","345","","","","","","","","","","","","","","","","","","","","","","","","","","","","","","feedback_test","","","","","","","","","","","",""
"640","","j","psychophysics","165","332029","0.0-7.0-1.0-4.0-0.0-0.29","4","4","4","4","4","4","4","4","4","4","5","5","5","5","5","5","5","5","5","5","1","1","1","1","1","1","1","1","1","0","0","1","1","0","0","0","0","0","1","1","0","1","0","1","5","1","2","1","1","5","1","2","1","5","1","633774693194661888","周","345","","","","match","","","","","","","","","","","","","","key","j","16.66597938144306","768","428","j","true","match","img/square.png","方形","方形","ALT1","formal_ALT1_2","","","","","","","","","","","",""
"null","<span style='color:GreenYellow; font-size: 70px;'>正确! </span>","null","html-keyboard-response","166","332530","0.0-7.0-1.0-4.0-0.0-1.29","4","4","4","4","4","4","4","4","4","4","5","5","5","5","5","5","5","5","5","5","1","1","1","1","1","1","1","1","1","0","0","1","1","0","0","0","0","0","1","1","0","1","0","1","5","1","2","1","1","5","1","2","1","5","1","633774693194661888","周","345","","","","","","","","","","","","","","","","","","","","","","","","","","","","","","feedback_test","","","","","","","","","","","",""
"701","","j","psychophysics","167","334233","0.0-7.0-1.0-4.0-0.0-0.30","4","4","4","4","4","4","4","4","4","4","5","5","5","5","5","5","5","5","5","5","1","1","1","1","1","1","1","1","1","0","0","1","1","0","0","0","0","0","1","1","0","1","0","1","5","1","2","1","1","5","1","2","1","5","1","633774693194661888","周","345","","","","match","","","","","","","","","","","","","","key","j","16.667326732673498","768","428","j","true","match","img/pentagon.png","五边","五边","ALT1","formal_ALT1_2","","","","","","","","","","","",""
"null","<span style='color:GreenYellow; font-size: 70px;'>正确! </span>","null","html-keyboard-response","168","334734","0.0-7.0-1.0-4.0-0.0-1.30","4","4","4","4","4","4","4","4","4","4","5","5","5","5","5","5","5","5","5","5","1","1","1","1","1","1","1","1","1","0","0","1","1","0","0","0","0","0","1","1","0","1","0","1","5","1","2","1","1","5","1","2","1","5","1","633774693194661888","周","345","","","","","","","","","","","","","","","","","","","","","","","","","","","","","","feedback_test","","","","","","","","","","","",""
"740","","f","psychophysics","169","336476","0.0-7.0-1.0-4.0-0.0-0.31","4","4","4","4","4","4","4","4","4","4","5","5","5","5","5","5","5","5","5","5","1","1","1","1","1","1","1","1","1","0","0","1","1","0","0","0","0","0","1","1","0","1","0","1","5","1","2","1","1","5","1","2","1","5","1","633774693194661888","周","345","","","","nonmatch","","","","","","","","","","","","","","key","f","16.66699029126225","768","428","j","false","match","img/trapezoid.png","梯形","梯形","ALT1","formal_ALT1_2","","","","","","","","","","","",""
"null","<span style='color:red; font-size: 70px;'>错误! </span>","null","html-keyboard-response","170","336977","0.0-7.0-1.0-4.0-0.0-1.31","4","4","4","4","4","4","4","4","4","4","5","5","5","5","5","5","5","5","5","5","1","1","1","1","1","1","1","1","1","0","0","1","1","0","0","0","0","0","1","1","0","1","0","1","5","1","2","1","1","5","1","2","1","5","1","633774693194661888","周","345","","","","","","","","","","","","","","","","","","","","","","","","","","","","","","feedback_test","","","","","","","","","","","",""
"794","","j","psychophysics","171","338773","0.0-7.0-1.0-4.0-0.0-0.32","4","4","4","4","4","4","4","4","4","4","5","5","5","5","5","5","5","5","5","5","1","1","1","1","1","1","1","1","1","0","0","1","1","0","0","0","0","0","1","1","0","1","0","1","5","1","2","1","1","5","1","2","1","5","1","633774693194661888","周","345","","","","match","","","","","","","","","","","","","","key","j","16.666355140186806","768","428","f","false","nonmatch","img/trapezoid.png","五边","梯形","ALT1","formal_ALT1_2","","","","","","","","","","","",""
"null","<span style='color:red; font-size: 70px;'>错误! </span>","null","html-keyboard-response","172","339278","0.0-7.0-1.0-4.0-0.0-1.32","4","4","4","4","4","4","4","4","4","4","5","5","5","5","5","5","5","5","5","5","1","1","1","1","1","1","1","1","1","0","0","1","1","0","0","0","0","0","1","1","0","1","0","1","5","1","2","1","1","5","1","2","1","5","1","633774693194661888","周","345","","","","","","","","","","","","","","","","","","","","","","","","","","","","","","feedback_test","","","","","","","","","","","",""
"639","","f","psychophysics","173","340919","0.0-7.0-1.0-4.0-0.0-0.33","4","4","4","4","4","4","4","4","4","4","5","5","5","5","5","5","5","5","5","5","1","1","1","1","1","1","1","1","1","0","0","1","1","0","0","0","0","0","1","1","0","1","0","1","5","1","2","1","1","5","1","2","1","5","1","633774693194661888","周","345","","","","nonmatch","","","","","","","","","","","","","","key","f","16.669072164948695","768","428","f","true","nonmatch","img/ellipse.png","梯形","椭圆","ALT1","formal_ALT1_2","","","","","","","","","","","",""
"null","<span style='color:GreenYellow; font-size: 70px;'>正确! </span>","null","html-keyboard-response","174","341421","0.0-7.0-1.0-4.0-0.0-1.33","4","4","4","4","4","4","4","4","4","4","5","5","5","5","5","5","5","5","5","5","1","1","1","1","1","1","1","1","1","0","0","1","1","0","0","0","0","0","1","1","0","1","0","1","5","1","2","1","1","5","1","2","1","5","1","633774693194661888","周","345","","","","","","","","","","","","","","","","","","","","","","","","","","","","","","feedback_test","","","","","","","","","","","",""
"566","","j","psychophysics","175","342990","0.0-7.0-1.0-4.0-0.0-0.34","4","4","4","4","4","4","4","4","4","4","5","5","5","5","5","5","5","5","5","5","1","1","1","1","1","1","1","1","1","0","0","1","1","0","0","0","0","0","1","1","0","1","0","1","5","1","2","1","1","5","1","2","1","5","1","633774693194661888","周","345","","","","match","","","","","","","","","","","","","","key","j","16.664516129032133","768","428","j","true","match","img/ellipse.png","椭圆","椭圆","ALT1","formal_ALT1_2","","","","","","","","","","","",""
"null","<span style='color:GreenYellow; font-size: 70px;'>正确! </span>","null","html-keyboard-response","176","343490","0.0-7.0-1.0-4.0-0.0-1.34","4","4","4","4","4","4","4","4","4","4","5","5","5","5","5","5","5","5","5","5","1","1","1","1","1","1","1","1","1","0","0","1","1","0","0","0","0","0","1","1","0","1","0","1","5","1","2","1","1","5","1","2","1","5","1","633774693194661888","周","345","","","","","","","","","","","","","","","","","","","","","","","","","","","","","","feedback_test","","","","","","","","","","","",""
"811","","f","psychophysics","177","345303","0.0-7.0-1.0-4.0-0.0-0.35","4","4","4","4","4","4","4","4","4","4","5","5","5","5","5","5","5","5","5","5","1","1","1","1","1","1","1","1","1","0","0","1","1","0","0","0","0","0","1","1","0","1","0","1","5","1","2","1","1","5","1","2","1","5","1","633774693194661888","周","345","","","","nonmatch","","","","","","","","","","","","","","key","f","16.666355140186806","768","428","f","true","nonmatch","img/pentagon.png","梯形","五边","ALT1","formal_ALT1_2","","","","","","","","","","","",""
"null","<span style='color:GreenYellow; font-size: 70px;'>正确! </span>","null","html-keyboard-response","178","345806","0.0-7.0-1.0-4.0-0.0-1.35","4","4","4","4","4","4","4","4","4","4","5","5","5","5","5","5","5","5","5","5","1","1","1","1","1","1","1","1","1","0","0","1","1","0","0","0","0","0","1","1","0","1","0","1","5","1","2","1","1","5","1","2","1","5","1","633774693194661888","周","345","","","","","","","","","","","","","","","","","","","","","","","","","","","","","","feedback_test","","","","","","","","","","","",""
"555","","j","psychophysics","179","347364","0.0-7.0-1.0-4.0-0.0-0.36","4","4","4","4","4","4","4","4","4","4","5","5","5","5","5","5","5","5","5","5","1","1","1","1","1","1","1","1","1","0","0","1","1","0","0","0","0","0","1","1","0","1","0","1","5","1","2","1","1","5","1","2","1","5","1","633774693194661888","周","345","","","","match","","","","","","","","","","","","","","key","j","16.660869565217265","768","428","j","true","match","img/ellipse.png","椭圆","椭圆","ALT1","formal_ALT1_2","","","","","","","","","","","",""
"null","<span style='color:GreenYellow; font-size: 70px;'>正确! </span>","null","html-keyboard-response","180","347865","0.0-7.0-1.0-4.0-0.0-1.36","4","4","4","4","4","4","4","4","4","4","5","5","5","5","5","5","5","5","5","5","1","1","1","1","1","1","1","1","1","0","0","1","1","0","0","0","0","0","1","1","0","1","0","1","5","1","2","1","1","5","1","2","1","5","1","633774693194661888","周","345","","","","","","","","","","","","","","","","","","","","","","","","","","","","","","feedback_test","","","","","","","","","","","",""
"559","","j","psychophysics","181","349425","0.0-7.0-1.0-4.0-0.0-0.37","4","4","4","4","4","4","4","4","4","4","5","5","5","5","5","5","5","5","5","5","1","1","1","1","1","1","1","1","1","0","0","1","1","0","0","0","0","0","1","1","0","1","0","1","5","1","2","1","1","5","1","2","1","5","1","633774693194661888","周","345","","","","match","","","","","","","","","","","","","","key","j","16.6688172043012","768","428","j","true","match","img/trapezoid.png","梯形","梯形","ALT1","formal_ALT1_2","","","","","","","","","","","",""
