"rt","stimulus","response","trial_type","trial_index","time_elapsed","internal_node_id","ses_1","ses_2","ses_3","ses_4","ses_5","ses_6","ses_7","ses_8","ses_9","ses_10","coreself_1","coreself_2","coreself_3","coreself_4","coreself_5","coreself_6","coreself_7","coreself_8","coreself_9","coreself_10","SGPS_1","SGPS_2","SGPS_3","SGPS_4","SGPS_5","SGPS_6","SGPS_7","SGPS_8","SGPS_9","NPI1","NPI2","NPI3","NPI4","NPI5","NPI6","NPI7","NPI8","NPI9","NPI10","NPI11","NPI12","NPI13","NPI14","NPI15","hsns_1","hsns_2","hsns_3","hsns_4","hsns_5","trap1","hsns_6","hsns_7","hsns_8","hsns_9","hsns_10","subj_idx","friend_name","ParticipantID","value","success","user_agent","responses","item_order","radio_event_ids","radio_event_times","key_event_times","mouse_event_times","straightlining","zigzagging","honeypot","timeout","failed_images","failed_audio","failed_video","view_history","response_type","key_press","avg_frame_time","center_x","center_y","correct_response","correct","identity","Image","word","condition","task_id","screen_id","time_stamp","version_attrib2","version_target2","IAT","RT","varname","summary","version_attrib","version_target","question_order","correct_answer","trap1_item"
"2317","
   <p><div style = ""color: white;font-size:25px;"">您好，欢迎参加本次实验。</div> </p>
   <p><div style = ""color: white;font-size:25px;"">为充分保障您的权利，请确保您已经知晓并同意《参与实验同意书》以及《数据公开知情同意书》。</div></p>
   <p><div style = ""color: white;font-size:25px;"">如果您未见过上述内容，请咨询实验员。</div></p>
   <p><div style = ""color: white;font-size:25px;"">如果您选择继续实验，则表示您已经清楚两份知情同意书的内容并同意。</div></p>
   <p><div style = ""color: pink;font-size:30px;"">请确保您记得day0的实验编号，您将在本次实验输入该编号，若您忘记，请咨询实验员后作答。</div></p>
   <p><div style = ""color: lightblue;font-size:25px;"">请您尽可能认真地作答，我们将依据您在各问卷和按键任务中的作答质量发放报酬。</div></p>
   <p> <div style = ""color: green;font-size:25px;""><按空格键至下页></div> </p>
   "," ","html-keyboard-response","0","2318","0.0-0.0","3","3","3","3","3","3","3","1","3","3","4","3","2","4","4","4","4","4","4","4","2","2","2","2","2","1","2","2","1","1","0","0","1","0","0","1","1","0","1","1","0","1","0","1","4","3","4","4","5","3","2","2","3","4","2","763061574482268161","许","551","","","","","","","","","","","","","","","","","","","","","","","","","","","","","","","","","","","","","","","","","",""
"","","","call-function","1","2318","0.0-1.0-0.0","3","3","3","3","3","3","3","1","3","3","4","3","2","4","4","4","4","4","4","4","2","2","2","2","2","1","2","2","1","1","0","0","1","0","0","1","1","0","1","1","0","1","0","1","4","3","4","4","5","3","2","2","3","4","2","763061574482268161","许","551","","","","","","","","","","","","","","","","","","","","","","","","","","","","","","","","","","","","","","","","","",""
"11328","","{""friend_name"":""许"",""ParticipantID"":""551""}","survey-html-form","2","13646","0.0-1.0-1.0","3","3","3","3","3","3","3","1","3","3","4","3","2","4","4","4","4","4","4","4","2","2","2","2","2","1","2","2","1","1","0","0","1","0","0","1","1","0","1","1","0","1","0","1","4","3","4","4","5","3","2","2","3","4","2","763061574482268161","许","551","","","","","","","","","","","","","","","","","","","","","","","","","","","","","","","","","","","","","","","","","",""
"","","","fullscreen","3","54675","0.0-2.0","3","3","3","3","3","3","3","1","3","3","4","3","2","4","4","4","4","4","4","4","2","2","2","2","2","1","2","2","1","1","0","0","1","0","0","1","1","0","1","1","0","1","0","1","4","3","4","4","5","3","2","2","3","4","2","763061574482268161","许","551","","true","{}","","","","","","","","","","","","","","","","","","","","","","","","","","","","","","","","","","","","","","",""
"39248.40000000596","","{""Q01"":""3"",""Q02"":""3"",""Q03"":""3"",""Q04"":""3"",""Q05"":""3"",""Q06"":""3"",""Q07"":""3"",""Q08"":""1"",""Q09"":""3"",""Q10"":""3""}","survey-template","4","93927","0.0-3.0","3","3","3","3","3","3","3","1","3","3","4","3","2","4","4","4","4","4","4","4","2","2","2","2","2","1","2","2","1","1","0","0","1","0","0","1","1","0","1","1","0","1","0","1","4","3","4","4","5","3","2","2","3","4","2","763061574482268161","许","551","","","","{""Q01"":""3"",""Q02"":""3"",""Q03"":""3"",""Q04"":""3"",""Q05"":""3"",""Q06"":""3"",""Q07"":""3"",""Q08"":""1"",""Q09"":""3"",""Q10"":""3""}","[0,1,2,3,4,5,6,7,8,9]","[""Q01"",""Q02"",""Q03"",""Q04"",""Q05"",""Q06"",""Q05"",""Q07"",""Q08"",""Q09"",""Q10""]","[6368.5999999940395,8271.29999999702,10262.90000000596,12023.09999999404,16822.5,18455.90000000596,20839.20000000298,24079.20000000298,28559.29999999702,34639,37926.5]","[]","[6368.5999999940395,8271.29999999702,10262.90000000596,12023.09999999404,16822.5,18455.90000000596,20839.20000000298,24079.20000000298,28559.29999999702,34639,37926.5,39247.20000000298]","0.5","0.5555555555555556","0","","","","","","","","","","","","","","","","","","","","","","","","","","","","","",""
"31460.60000000894","","{""Q01"":""4"",""Q02"":""3"",""Q03"":""2"",""Q04"":""4"",""Q05"":""4"",""Q06"":""4"",""Q07"":""4"",""Q08"":""4"",""Q09"":""4"",""Q10"":""4""}","survey-template","5","125392","0.0-4.0","3","3","3","3","3","3","3","1","3","3","4","3","2","4","4","4","4","4","4","4","2","2","2","2","2","1","2","2","1","1","0","0","1","0","0","1","1","0","1","1","0","1","0","1","4","3","4","4","5","3","2","2","3","4","2","763061574482268161","许","551","","","","{""Q01"":""4"",""Q02"":""3"",""Q03"":""2"",""Q04"":""4"",""Q05"":""4"",""Q06"":""4"",""Q07"":""4"",""Q08"":""4"",""Q09"":""4"",""Q10"":""4""}","[0,1,2,3,4,5,6,7,8,9]","[""Q01"",""Q02"",""Q02"",""Q03"",""Q04"",""Q05"",""Q06"",""Q07"",""Q08"",""Q09"",""Q10""]","[3522.2999999970198,8682,11337.90000000596,13970.90000000596,16874,18426.20000000298,19812.29999999702,21818,25866.60000000894,27434.20000000298,29601.90000000596]","[]","[3522.2999999970198,8682,11337.90000000596,13970.90000000596,16874,18426.20000000298,19812.29999999702,21818,25866.60000000894,27434.20000000298,29601.90000000596,31459.5]","0.5","0.2222222222222222","0","","","","","","","","","","","","","","","","","","","","","","","","","","","","","",""
"","","","preload","6","125880","0.0-5.0","3","3","3","3","3","3","3","1","3","3","4","3","2","4","4","4","4","4","4","4","2","2","2","2","2","1","2","2","1","1","0","0","1","0","0","1","1","0","1","1","0","1","0","1","4","3","4","4","5","3","2","2","3","4","2","763061574482268161","许","551","","true","","","","","","","","","","","false","[]","[]","[]","","","","","","","","","","","","","","","","","","","","","","","","","",""
"24909","","","instructions","7","150789","0.0-6.0","3","3","3","3","3","3","3","1","3","3","4","3","2","4","4","4","4","4","4","4","2","2","2","2","2","1","2","2","1","1","0","0","1","0","0","1","1","0","1","1","0","1","0","1","4","3","4","4","5","3","2","2","3","4","2","763061574482268161","许","551","","","","","","","","","","","","","","","","","[{""page_index"":0,""viewing_time"":24909}]","","","","","","","","","","","","","","","","","","","","","","","","",""
"51366","","","instructions","8","202157","0.0-7.0-1.0-0.0","3","3","3","3","3","3","3","1","3","3","4","3","2","4","4","4","4","4","4","4","2","2","2","2","2","1","2","2","1","1","0","0","1","0","0","1","1","0","1","1","0","1","0","1","4","3","4","4","5","3","2","2","3","4","2","763061574482268161","许","551","","","","","","","","","","","","","","","","","[{""page_index"":0,""viewing_time"":40990},{""page_index"":1,""viewing_time"":7385},{""page_index"":2,""viewing_time"":2991}]","","","","","","","","","","","","","","","","","","","","","","","","",""
"null","","null","psychophysics","9","204369","0.0-7.0-1.0-1.0-0.0-0.0","3","3","3","3","3","3","3","1","3","3","4","3","2","4","4","4","4","4","4","4","2","2","2","2","2","1","2","2","1","1","0","0","1","0","0","1","1","0","1","1","0","1","0","1","4","3","4","4","5","3","2","2","3","4","2","763061574482268161","许","551","","","","null","","","","","","","","","","","","","","key","null","16.666666666666668","720","401","f","false","nonmatch","img/pentagon.png","圆形","五边","ALT1_2","prac_ALT1_2","","","","","","","","","","","",""
"null","<span class='add_' style='color:yellow; font-size: 70px;'> 太慢! </span>","null","html-keyboard-response","10","204872","0.0-7.0-1.0-1.0-0.0-1.0","3","3","3","3","3","3","3","1","3","3","4","3","2","4","4","4","4","4","4","4","2","2","2","2","2","1","2","2","1","1","0","0","1","0","0","1","1","0","1","1","0","1","0","1","4","3","4","4","5","3","2","2","3","4","2","763061574482268161","许","551","","","","","","","","","","","","","","","","","","","","","","","","","","","","","","feedback_test","","","","","","","","","","","",""
"null","","null","psychophysics","11","207075","0.0-7.0-1.0-1.0-0.0-0.1","3","3","3","3","3","3","3","1","3","3","4","3","2","4","4","4","4","4","4","4","2","2","2","2","2","1","2","2","1","1","0","0","1","0","0","1","1","0","1","1","0","1","0","1","4","3","4","4","5","3","2","2","3","4","2","763061574482268161","许","551","","","","null","","","","","","","","","","","","","","key","null","16.66793893129771","720","401","j","false","match","img/trapezoid.png","梯形","梯形","ALT1_2","prac_ALT1_2","","","","","","","","","","","",""
"null","<span class='add_' style='color:yellow; font-size: 70px;'> 太慢! </span>","null","html-keyboard-response","12","207578","0.0-7.0-1.0-1.0-0.0-1.1","3","3","3","3","3","3","3","1","3","3","4","3","2","4","4","4","4","4","4","4","2","2","2","2","2","1","2","2","1","1","0","0","1","0","0","1","1","0","1","1","0","1","0","1","4","3","4","4","5","3","2","2","3","4","2","763061574482268161","许","551","","","","","","","","","","","","","","","","","","","","","","","","","","","","","","feedback_test","","","","","","","","","","","",""
"846","","f","psychophysics","13","209426","0.0-7.0-1.0-1.0-0.0-0.2","3","3","3","3","3","3","3","1","3","3","4","3","2","4","4","4","4","4","4","4","2","2","2","2","2","1","2","2","1","1","0","0","1","0","0","1","1","0","1","1","0","1","0","1","4","3","4","4","5","3","2","2","3","4","2","763061574482268161","许","551","","","","nonmatch","","","","","","","","","","","","","","key","f","16.66788990825704","720","401","f","true","nonmatch","img/square.png","梯形","方形","ALT1_2","prac_ALT1_2","","","","","","","","","","","",""
"null","<span style='color:GreenYellow; font-size: 70px;'>正确! </span>","null","html-keyboard-response","14","209928","0.0-7.0-1.0-1.0-0.0-1.2","3","3","3","3","3","3","3","1","3","3","4","3","2","4","4","4","4","4","4","4","2","2","2","2","2","1","2","2","1","1","0","0","1","0","0","1","1","0","1","1","0","1","0","1","4","3","4","4","5","3","2","2","3","4","2","763061574482268161","许","551","","","","","","","","","","","","","","","","","","","","","","","","","","","","","","feedback_test","","","","","","","","","","","",""
"672","","f","psychophysics","15","211601","0.0-7.0-1.0-1.0-0.0-0.3","3","3","3","3","3","3","3","1","3","3","4","3","2","4","4","4","4","4","4","4","2","2","2","2","2","1","2","2","1","1","0","0","1","0","0","1","1","0","1","1","0","1","0","1","4","3","4","4","5","3","2","2","3","4","2","763061574482268161","许","551","","","","nonmatch","","","","","","","","","","","","","","key","f","16.667676767676827","720","401","j","false","match","img/circle.png","圆形","圆形","ALT1_2","prac_ALT1_2","","","","","","","","","","","",""
"null","<span style='color:red; font-size: 70px;'>错误! </span>","null","html-keyboard-response","16","212104","0.0-7.0-1.0-1.0-0.0-1.3","3","3","3","3","3","3","3","1","3","3","4","3","2","4","4","4","4","4","4","4","2","2","2","2","2","1","2","2","1","1","0","0","1","0","0","1","1","0","1","1","0","1","0","1","4","3","4","4","5","3","2","2","3","4","2","763061574482268161","许","551","","","","","","","","","","","","","","","","","","","","","","","","","","","","","","feedback_test","","","","","","","","","","","",""
"1169","","f","psychophysics","17","214275","0.0-7.0-1.0-1.0-0.0-0.4","3","3","3","3","3","3","3","1","3","3","4","3","2","4","4","4","4","4","4","4","2","2","2","2","2","1","2","2","1","1","0","0","1","0","0","1","1","0","1","1","0","1","0","1","4","3","4","4","5","3","2","2","3","4","2","763061574482268161","许","551","","","","nonmatch","","","","","","","","","","","","","","key","f","16.66744186046516","720","401","j","false","match","img/pentagon.png","五边","五边","ALT1_2","prac_ALT1_2","","","","","","","","","","","",""
"null","<span style='color:red; font-size: 70px;'>错误! </span>","null","html-keyboard-response","18","214777","0.0-7.0-1.0-1.0-0.0-1.4","3","3","3","3","3","3","3","1","3","3","4","3","2","4","4","4","4","4","4","4","2","2","2","2","2","1","2","2","1","1","0","0","1","0","0","1","1","0","1","1","0","1","0","1","4","3","4","4","5","3","2","2","3","4","2","763061574482268161","许","551","","","","","","","","","","","","","","","","","","","","","","","","","","","","","","feedback_test","","","","","","","","","","","",""
"948","","j","psychophysics","19","216728","0.0-7.0-1.0-1.0-0.0-0.5","3","3","3","3","3","3","3","1","3","3","4","3","2","4","4","4","4","4","4","4","2","2","2","2","2","1","2","2","1","1","0","0","1","0","0","1","1","0","1","1","0","1","0","1","4","3","4","4","5","3","2","2","3","4","2","763061574482268161","许","551","","","","match","","","","","","","","","","","","","","key","j","16.667826086956673","720","401","f","false","nonmatch","img/circle.png","梯形","圆形","ALT1_2","prac_ALT1_2","","","","","","","","","","","",""
"null","<span style='color:red; font-size: 70px;'>错误! </span>","null","html-keyboard-response","20","217230","0.0-7.0-1.0-1.0-0.0-1.5","3","3","3","3","3","3","3","1","3","3","4","3","2","4","4","4","4","4","4","4","2","2","2","2","2","1","2","2","1","1","0","0","1","0","0","1","1","0","1","1","0","1","0","1","4","3","4","4","5","3","2","2","3","4","2","763061574482268161","许","551","","","","","","","","","","","","","","","","","","","","","","","","","","","","","","feedback_test","","","","","","","","","","","",""
"1007","","f","psychophysics","21","219239","0.0-7.0-1.0-1.0-0.0-0.6","3","3","3","3","3","3","3","1","3","3","4","3","2","4","4","4","4","4","4","4","2","2","2","2","2","1","2","2","1","1","0","0","1","0","0","1","1","0","1","1","0","1","0","1","4","3","4","4","5","3","2","2","3","4","2","763061574482268161","许","551","","","","nonmatch","","","","","","","","","","","","","","key","f","16.666386554621994","720","401","f","true","nonmatch","img/square.png","圆形","方形","ALT1_2","prac_ALT1_2","","","","","","","","","","","",""
"null","<span style='color:GreenYellow; font-size: 70px;'>正确! </span>","null","html-keyboard-response","22","219742","0.0-7.0-1.0-1.0-0.0-1.6","3","3","3","3","3","3","3","1","3","3","4","3","2","4","4","4","4","4","4","4","2","2","2","2","2","1","2","2","1","1","0","0","1","0","0","1","1","0","1","1","0","1","0","1","4","3","4","4","5","3","2","2","3","4","2","763061574482268161","许","551","","","","","","","","","","","","","","","","","","","","","","","","","","","","","","feedback_test","","","","","","","","","","","",""
"1206","","f","psychophysics","23","221950","0.0-7.0-1.0-1.0-0.0-0.7","3","3","3","3","3","3","3","1","3","3","4","3","2","4","4","4","4","4","4","4","2","2","2","2","2","1","2","2","1","1","0","0","1","0","0","1","1","0","1","1","0","1","0","1","4","3","4","4","5","3","2","2","3","4","2","763061574482268161","许","551","","","","nonmatch","","","","","","","","","","","","","","key","f","16.667424242424286","720","401","f","true","nonmatch","img/trapezoid.png","方形","梯形","ALT1_2","prac_ALT1_2","","","","","","","","","","","",""
"null","<span class='add_' style='color:yellow; font-size: 70px;'> 太慢! </span>","null","html-keyboard-response","24","222453","0.0-7.0-1.0-1.0-0.0-1.7","3","3","3","3","3","3","3","1","3","3","4","3","2","4","4","4","4","4","4","4","2","2","2","2","2","1","2","2","1","1","0","0","1","0","0","1","1","0","1","1","0","1","0","1","4","3","4","4","5","3","2","2","3","4","2","763061574482268161","许","551","","","","","","","","","","","","","","","","","","","","","","","","","","","","","","feedback_test","","","","","","","","","","","",""
"1143","","j","psychophysics","25","224600","0.0-7.0-1.0-1.0-0.0-0.8","3","3","3","3","3","3","3","1","3","3","4","3","2","4","4","4","4","4","4","4","2","2","2","2","2","1","2","2","1","1","0","0","1","0","0","1","1","0","1","1","0","1","0","1","4","3","4","4","5","3","2","2","3","4","2","763061574482268161","许","551","","","","match","","","","","","","","","","","","","","key","j","16.66562500000009","720","401","j","true","match","img/trapezoid.png","梯形","梯形","ALT1_2","prac_ALT1_2","","","","","","","","","","","",""
"null","<span style='color:GreenYellow; font-size: 70px;'>正确! </span>","null","html-keyboard-response","26","225103","0.0-7.0-1.0-1.0-0.0-1.8","3","3","3","3","3","3","3","1","3","3","4","3","2","4","4","4","4","4","4","4","2","2","2","2","2","1","2","2","1","1","0","0","1","0","0","1","1","0","1","1","0","1","0","1","4","3","4","4","5","3","2","2","3","4","2","763061574482268161","许","551","","","","","","","","","","","","","","","","","","","","","","","","","","","","","","feedback_test","","","","","","","","","","","",""
"931","","j","psychophysics","27","227037","0.0-7.0-1.0-1.0-0.0-0.9","3","3","3","3","3","3","3","1","3","3","4","3","2","4","4","4","4","4","4","4","2","2","2","2","2","1","2","2","1","1","0","0","1","0","0","1","1","0","1","1","0","1","0","1","4","3","4","4","5","3","2","2","3","4","2","763061574482268161","许","551","","","","match","","","","","","","","","","","","","","key","j","16.66695652173923","720","401","j","true","match","img/square.png","方形","方形","ALT1_2","prac_ALT1_2","","","","","","","","","","","",""
"null","<span style='color:GreenYellow; font-size: 70px;'>正确! </span>","null","html-keyboard-response","28","227540","0.0-7.0-1.0-1.0-0.0-1.9","3","3","3","3","3","3","3","1","3","3","4","3","2","4","4","4","4","4","4","4","2","2","2","2","2","1","2","2","1","1","0","0","1","0","0","1","1","0","1","1","0","1","0","1","4","3","4","4","5","3","2","2","3","4","2","763061574482268161","许","551","","","","","","","","","","","","","","","","","","","","","","","","","","","","","","feedback_test","","","","","","","","","","","",""
"811","","j","psychophysics","29","229352","0.0-7.0-1.0-1.0-0.0-0.10","3","3","3","3","3","3","3","1","3","3","4","3","2","4","4","4","4","4","4","4","2","2","2","2","2","1","2","2","1","1","0","0","1","0","0","1","1","0","1","1","0","1","0","1","4","3","4","4","5","3","2","2","3","4","2","763061574482268161","许","551","","","","match","","","","","","","","","","","","","","key","j","16.667592592592648","720","401","j","true","match","img/trapezoid.png","梯形","梯形","ALT1_2","prac_ALT1_2","","","","","","","","","","","",""
"null","<span style='color:GreenYellow; font-size: 70px;'>正确! </span>","null","html-keyboard-response","30","229854","0.0-7.0-1.0-1.0-0.0-1.10","3","3","3","3","3","3","3","1","3","3","4","3","2","4","4","4","4","4","4","4","2","2","2","2","2","1","2","2","1","1","0","0","1","0","0","1","1","0","1","1","0","1","0","1","4","3","4","4","5","3","2","2","3","4","2","763061574482268161","许","551","","","","","","","","","","","","","","","","","","","","","","","","","","","","","","feedback_test","","","","","","","","","","","",""
"815","","f","psychophysics","31","231671","0.0-7.0-1.0-1.0-0.0-0.11","3","3","3","3","3","3","3","1","3","3","4","3","2","4","4","4","4","4","4","4","2","2","2","2","2","1","2","2","1","1","0","0","1","0","0","1","1","0","1","1","0","1","0","1","4","3","4","4","5","3","2","2","3","4","2","763061574482268161","许","551","","","","nonmatch","","","","","","","","","","","","","","key","f","16.667592592592378","720","401","j","false","match","img/circle.png","圆形","圆形","ALT1_2","prac_ALT1_2","","","","","","","","","","","",""
"null","<span style='color:red; font-size: 70px;'>错误! </span>","null","html-keyboard-response","32","232174","0.0-7.0-1.0-1.0-0.0-1.11","3","3","3","3","3","3","3","1","3","3","4","3","2","4","4","4","4","4","4","4","2","2","2","2","2","1","2","2","1","1","0","0","1","0","0","1","1","0","1","1","0","1","0","1","4","3","4","4","5","3","2","2","3","4","2","763061574482268161","许","551","","","","","","","","","","","","","","","","","","","","","","","","","","","","","","feedback_test","","","","","","","","","","","",""
"851","","j","psychophysics","33","234027","0.0-7.0-1.0-1.0-0.0-0.12","3","3","3","3","3","3","3","1","3","3","4","3","2","4","4","4","4","4","4","4","2","2","2","2","2","1","2","2","1","1","0","0","1","0","0","1","1","0","1","1","0","1","0","1","4","3","4","4","5","3","2","2","3","4","2","763061574482268161","许","551","","","","match","","","","","","","","","","","","","","key","j","16.664545454545507","720","401","f","false","nonmatch","img/circle.png","方形","圆形","ALT1_2","prac_ALT1_2","","","","","","","","","","","",""
"null","<span style='color:red; font-size: 70px;'>错误! </span>","null","html-keyboard-response","34","234540","0.0-7.0-1.0-1.0-0.0-1.12","3","3","3","3","3","3","3","1","3","3","4","3","2","4","4","4","4","4","4","4","2","2","2","2","2","1","2","2","1","1","0","0","1","0","0","1","1","0","1","1","0","1","0","1","4","3","4","4","5","3","2","2","3","4","2","763061574482268161","许","551","","","","","","","","","","","","","","","","","","","","","","","","","","","","","","feedback_test","","","","","","","","","","","",""
"983","","j","psychophysics","35","236525","0.0-7.0-1.0-1.0-0.0-0.13","3","3","3","3","3","3","3","1","3","3","4","3","2","4","4","4","4","4","4","4","2","2","2","2","2","1","2","2","1","1","0","0","1","0","0","1","1","0","1","1","0","1","0","1","4","3","4","4","5","3","2","2","3","4","2","763061574482268161","许","551","","","","match","","","","","","","","","","","","","","key","j","16.667796610169393","720","401","f","false","nonmatch","img/circle.png","五边","圆形","ALT1_2","prac_ALT1_2","","","","","","","","","","","",""
"null","<span style='color:red; font-size: 70px;'>错误! </span>","null","html-keyboard-response","36","237028","0.0-7.0-1.0-1.0-0.0-1.13","3","3","3","3","3","3","3","1","3","3","4","3","2","4","4","4","4","4","4","4","2","2","2","2","2","1","2","2","1","1","0","0","1","0","0","1","1","0","1","1","0","1","0","1","4","3","4","4","5","3","2","2","3","4","2","763061574482268161","许","551","","","","","","","","","","","","","","","","","","","","","","","","","","","","","","feedback_test","","","","","","","","","","","",""
"1150","","j","psychophysics","37","239180","0.0-7.0-1.0-1.0-0.0-0.14","3","3","3","3","3","3","3","1","3","3","4","3","2","4","4","4","4","4","4","4","2","2","2","2","2","1","2","2","1","1","0","0","1","0","0","1","1","0","1","1","0","1","0","1","4","3","4","4","5","3","2","2","3","4","2","763061574482268161","许","551","","","","match","","","","","","","","","","","","","","key","j","16.66640624999991","720","401","j","true","match","img/square.png","方形","方形","ALT1_2","prac_ALT1_2","","","","","","","","","","","",""
"null","<span style='color:GreenYellow; font-size: 70px;'>正确! </span>","null","html-keyboard-response","38","239683","0.0-7.0-1.0-1.0-0.0-1.14","3","3","3","3","3","3","3","1","3","3","4","3","2","4","4","4","4","4","4","4","2","2","2","2","2","1","2","2","1","1","0","0","1","0","0","1","1","0","1","1","0","1","0","1","4","3","4","4","5","3","2","2","3","4","2","763061574482268161","许","551","","","","","","","","","","","","","","","","","","","","","","","","","","","","","","feedback_test","","","","","","","","","","","",""
"885","","j","psychophysics","39","241568","0.0-7.0-1.0-1.0-0.0-0.15","3","3","3","3","3","3","3","1","3","3","4","3","2","4","4","4","4","4","4","4","2","2","2","2","2","1","2","2","1","1","0","0","1","0","0","1","1","0","1","1","0","1","0","1","4","3","4","4","5","3","2","2","3","4","2","763061574482268161","许","551","","","","match","","","","","","","","","","","","","","key","j","16.665178571428573","720","401","j","true","match","img/pentagon.png","五边","五边","ALT1_2","prac_ALT1_2","","","","","","","","","","","",""
"null","<span style='color:GreenYellow; font-size: 70px;'>正确! </span>","null","html-keyboard-response","40","242071","0.0-7.0-1.0-1.0-0.0-1.15","3","3","3","3","3","3","3","1","3","3","4","3","2","4","4","4","4","4","4","4","2","2","2","2","2","1","2","2","1","1","0","0","1","0","0","1","1","0","1","1","0","1","0","1","4","3","4","4","5","3","2","2","3","4","2","763061574482268161","许","551","","","","","","","","","","","","","","","","","","","","","","","","","","","","","","feedback_test","","","","","","","","","","","",""
"null","","null","psychophysics","41","244282","0.0-7.0-1.0-1.0-0.0-0.16","3","3","3","3","3","3","3","1","3","3","4","3","2","4","4","4","4","4","4","4","2","2","2","2","2","1","2","2","1","1","0","0","1","0","0","1","1","0","1","1","0","1","0","1","4","3","4","4","5","3","2","2","3","4","2","763061574482268161","许","551","","","","null","","","","","","","","","","","","","","key","null","16.667424242424065","720","401","f","false","nonmatch","img/trapezoid.png","圆形","梯形","ALT1_2","prac_ALT1_2","","","","","","","","","","","",""
"null","<span class='add_' style='color:yellow; font-size: 70px;'> 太慢! </span>","null","html-keyboard-response","42","244789","0.0-7.0-1.0-1.0-0.0-1.16","3","3","3","3","3","3","3","1","3","3","4","3","2","4","4","4","4","4","4","4","2","2","2","2","2","1","2","2","1","1","0","0","1","0","0","1","1","0","1","1","0","1","0","1","4","3","4","4","5","3","2","2","3","4","2","763061574482268161","许","551","","","","","","","","","","","","","","","","","","","","","","","","","","","","","","feedback_test","","","","","","","","","","","",""
"955","","j","psychophysics","43","246746","0.0-7.0-1.0-1.0-0.0-0.17","3","3","3","3","3","3","3","1","3","3","4","3","2","4","4","4","4","4","4","4","2","2","2","2","2","1","2","2","1","1","0","0","1","0","0","1","1","0","1","1","0","1","0","1","4","3","4","4","5","3","2","2","3","4","2","763061574482268161","许","551","","","","match","","","","","","","","","","","","","","key","j","16.666666666666668","720","401","f","false","nonmatch","img/pentagon.png","梯形","五边","ALT1_2","prac_ALT1_2","","","","","","","","","","","",""
"null","<span style='color:red; font-size: 70px;'>错误! </span>","null","html-keyboard-response","44","247248","0.0-7.0-1.0-1.0-0.0-1.17","3","3","3","3","3","3","3","1","3","3","4","3","2","4","4","4","4","4","4","4","2","2","2","2","2","1","2","2","1","1","0","0","1","0","0","1","1","0","1","1","0","1","0","1","4","3","4","4","5","3","2","2","3","4","2","763061574482268161","许","551","","","","","","","","","","","","","","","","","","","","","","","","","","","","","","feedback_test","","","","","","","","","","","",""
"null","","null","psychophysics","45","249458","0.0-7.0-1.0-1.0-0.0-0.18","3","3","3","3","3","3","3","1","3","3","4","3","2","4","4","4","4","4","4","4","2","2","2","2","2","1","2","2","1","1","0","0","1","0","0","1","1","0","1","1","0","1","0","1","4","3","4","4","5","3","2","2","3","4","2","763061574482268161","许","551","","","","null","","","","","","","","","","","","","","key","null","16.66641221374037","720","401","f","false","nonmatch","img/pentagon.png","方形","五边","ALT1_2","prac_ALT1_2","","","","","","","","","","","",""
"null","<span class='add_' style='color:yellow; font-size: 70px;'> 太慢! </span>","null","html-keyboard-response","46","249959","0.0-7.0-1.0-1.0-0.0-1.18","3","3","3","3","3","3","3","1","3","3","4","3","2","4","4","4","4","4","4","4","2","2","2","2","2","1","2","2","1","1","0","0","1","0","0","1","1","0","1","1","0","1","0","1","4","3","4","4","5","3","2","2","3","4","2","763061574482268161","许","551","","","","","","","","","","","","","","","","","","","","","","","","","","","","","","feedback_test","","","","","","","","","","","",""
"839","","j","psychophysics","47","251800","0.0-7.0-1.0-1.0-0.0-0.19","3","3","3","3","3","3","3","1","3","3","4","3","2","4","4","4","4","4","4","4","2","2","2","2","2","1","2","2","1","1","0","0","1","0","0","1","1","0","1","1","0","1","0","1","4","3","4","4","5","3","2","2","3","4","2","763061574482268161","许","551","","","","match","","","","","","","","","","","","","","key","j","16.662385321100757","720","401","f","false","nonmatch","img/square.png","五边","方形","ALT1_2","prac_ALT1_2","","","","","","","","","","","",""
"null","<span style='color:red; font-size: 70px;'>错误! </span>","null","html-keyboard-response","48","252302","0.0-7.0-1.0-1.0-0.0-1.19","3","3","3","3","3","3","3","1","3","3","4","3","2","4","4","4","4","4","4","4","2","2","2","2","2","1","2","2","1","1","0","0","1","0","0","1","1","0","1","1","0","1","0","1","4","3","4","4","5","3","2","2","3","4","2","763061574482268161","许","551","","","","","","","","","","","","","","","","","","","","","","","","","","","","","","feedback_test","","","","","","","","","","","",""
"969","","j","psychophysics","49","254274","0.0-7.0-1.0-1.0-0.0-0.20","3","3","3","3","3","3","3","1","3","3","4","3","2","4","4","4","4","4","4","4","2","2","2","2","2","1","2","2","1","1","0","0","1","0","0","1","1","0","1","1","0","1","0","1","4","3","4","4","5","3","2","2","3","4","2","763061574482268161","许","551","","","","match","","","","","","","","","","","","","","key","j","16.666666666666668","720","401","j","true","match","img/circle.png","圆形","圆形","ALT1_2","prac_ALT1_2","","","","","","","","","","","",""
"null","<span style='color:GreenYellow; font-size: 70px;'>正确! </span>","null","html-keyboard-response","50","254776","0.0-7.0-1.0-1.0-0.0-1.20","3","3","3","3","3","3","3","1","3","3","4","3","2","4","4","4","4","4","4","4","2","2","2","2","2","1","2","2","1","1","0","0","1","0","0","1","1","0","1","1","0","1","0","1","4","3","4","4","5","3","2","2","3","4","2","763061574482268161","许","551","","","","","","","","","","","","","","","","","","","","","","","","","","","","","","feedback_test","","","","","","","","","","","",""
"1084","","j","psychophysics","51","256862","0.0-7.0-1.0-1.0-0.0-0.21","3","3","3","3","3","3","3","1","3","3","4","3","2","4","4","4","4","4","4","4","2","2","2","2","2","1","2","2","1","1","0","0","1","0","0","1","1","0","1","1","0","1","0","1","4","3","4","4","5","3","2","2","3","4","2","763061574482268161","许","551","","","","match","","","","","","","","","","","","","","key","j","16.655645161290227","720","401","f","false","nonmatch","img/trapezoid.png","五边","梯形","ALT1_2","prac_ALT1_2","","","","","","","","","","","",""
"null","<span style='color:red; font-size: 70px;'>错误! </span>","null","html-keyboard-response","52","257364","0.0-7.0-1.0-1.0-0.0-1.21","3","3","3","3","3","3","3","1","3","3","4","3","2","4","4","4","4","4","4","4","2","2","2","2","2","1","2","2","1","1","0","0","1","0","0","1","1","0","1","1","0","1","0","1","4","3","4","4","5","3","2","2","3","4","2","763061574482268161","许","551","","","","","","","","","","","","","","","","","","","","","","","","","","","","","","feedback_test","","","","","","","","","","","",""
"875","","j","psychophysics","53","259242","0.0-7.0-1.0-1.0-0.0-0.22","3","3","3","3","3","3","3","1","3","3","4","3","2","4","4","4","4","4","4","4","2","2","2","2","2","1","2","2","1","1","0","0","1","0","0","1","1","0","1","1","0","1","0","1","4","3","4","4","5","3","2","2","3","4","2","763061574482268161","许","551","","","","match","","","","","","","","","","","","","","key","j","16.669369369369264","720","401","j","true","match","img/pentagon.png","五边","五边","ALT1_2","prac_ALT1_2","","","","","","","","","","","",""
"null","<span style='color:GreenYellow; font-size: 70px;'>正确! </span>","null","html-keyboard-response","54","259744","0.0-7.0-1.0-1.0-0.0-1.22","3","3","3","3","3","3","3","1","3","3","4","3","2","4","4","4","4","4","4","4","2","2","2","2","2","1","2","2","1","1","0","0","1","0","0","1","1","0","1","1","0","1","0","1","4","3","4","4","5","3","2","2","3","4","2","763061574482268161","许","551","","","","","","","","","","","","","","","","","","","","","","","","","","","","","","feedback_test","","","","","","","","","","","",""
"1141","","j","psychophysics","55","261887","0.0-7.0-1.0-1.0-0.0-0.23","3","3","3","3","3","3","3","1","3","3","4","3","2","4","4","4","4","4","4","4","2","2","2","2","2","1","2","2","1","1","0","0","1","0","0","1","1","0","1","1","0","1","0","1","4","3","4","4","5","3","2","2","3","4","2","763061574482268161","许","551","","","","match","","","","","","","","","","","","","","key","j","16.66614173228351","720","401","j","true","match","img/square.png","方形","方形","ALT1_2","prac_ALT1_2","","","","","","","","","","","",""
"null","<span style='color:GreenYellow; font-size: 70px;'>正确! </span>","null","html-keyboard-response","56","262400","0.0-7.0-1.0-1.0-0.0-1.23","3","3","3","3","3","3","3","1","3","3","4","3","2","4","4","4","4","4","4","4","2","2","2","2","2","1","2","2","1","1","0","0","1","0","0","1","1","0","1","1","0","1","0","1","4","3","4","4","5","3","2","2","3","4","2","763061574482268161","许","551","","","","","","","","","","","","","","","","","","","","","","","","","","","","","","feedback_test","","","","","","","","","","","",""
"1020","","f","psychophysics","57","264424","0.0-7.0-1.0-1.0-0.0-0.24","3","3","3","3","3","3","3","1","3","3","4","3","2","4","4","4","4","4","4","4","2","2","2","2","2","1","2","2","1","1","0","0","1","0","0","1","1","0","1","1","0","1","0","1","4","3","4","4","5","3","2","2","3","4","2","763061574482268161","许","551","","","","nonmatch","","","","","","","","","","","","","","key","f","16.665833333333527","720","401","f","true","nonmatch","img/square.png","梯形","方形","ALT1_2","prac_ALT1_2","","","","","","","","","","","",""
"null","<span style='color:GreenYellow; font-size: 70px;'>正确! </span>","null","html-keyboard-response","58","264924","0.0-7.0-1.0-1.0-0.0-1.24","3","3","3","3","3","3","3","1","3","3","4","3","2","4","4","4","4","4","4","4","2","2","2","2","2","1","2","2","1","1","0","0","1","0","0","1","1","0","1","1","0","1","0","1","4","3","4","4","5","3","2","2","3","4","2","763061574482268161","许","551","","","","","","","","","","","","","","","","","","","","","","","","","","","","","","feedback_test","","","","","","","","","","","",""
"819","","f","psychophysics","59","266746","0.0-7.0-1.0-1.0-0.0-0.25","3","3","3","3","3","3","3","1","3","3","4","3","2","4","4","4","4","4","4","4","2","2","2","2","2","1","2","2","1","1","0","0","1","0","0","1","1","0","1","1","0","1","0","1","4","3","4","4","5","3","2","2","3","4","2","763061574482268161","许","551","","","","nonmatch","","","","","","","","","","","","","","key","f","16.666972477064327","720","401","f","true","nonmatch","img/circle.png","五边","圆形","ALT1_2","prac_ALT1_2","","","","","","","","","","","",""
"null","<span style='color:GreenYellow; font-size: 70px;'>正确! </span>","null","html-keyboard-response","60","267248","0.0-7.0-1.0-1.0-0.0-1.25","3","3","3","3","3","3","3","1","3","3","4","3","2","4","4","4","4","4","4","4","2","2","2","2","2","1","2","2","1","1","0","0","1","0","0","1","1","0","1","1","0","1","0","1","4","3","4","4","5","3","2","2","3","4","2","763061574482268161","许","551","","","","","","","","","","","","","","","","","","","","","","","","","","","","","","feedback_test","","","","","","","","","","","",""
"876","","j","psychophysics","61","269126","0.0-7.0-1.0-1.0-0.0-0.26","3","3","3","3","3","3","3","1","3","3","4","3","2","4","4","4","4","4","4","4","2","2","2","2","2","1","2","2","1","1","0","0","1","0","0","1","1","0","1","1","0","1","0","1","4","3","4","4","5","3","2","2","3","4","2","763061574482268161","许","551","","","","match","","","","","","","","","","","","","","key","j","16.667567567567357","720","401","f","false","nonmatch","img/square.png","五边","方形","ALT1_2","prac_ALT1_2","","","","","","","","","","","",""
"null","<span style='color:red; font-size: 70px;'>错误! </span>","null","html-keyboard-response","62","269628","0.0-7.0-1.0-1.0-0.0-1.26","3","3","3","3","3","3","3","1","3","3","4","3","2","4","4","4","4","4","4","4","2","2","2","2","2","1","2","2","1","1","0","0","1","0","0","1","1","0","1","1","0","1","0","1","4","3","4","4","5","3","2","2","3","4","2","763061574482268161","许","551","","","","","","","","","","","","","","","","","","","","","","","","","","","","","","feedback_test","","","","","","","","","","","",""
"808","","j","psychophysics","63","271439","0.0-7.0-1.0-1.0-0.0-0.27","3","3","3","3","3","3","3","1","3","3","4","3","2","4","4","4","4","4","4","4","2","2","2","2","2","1","2","2","1","1","0","0","1","0","0","1","1","0","1","1","0","1","0","1","4","3","4","4","5","3","2","2","3","4","2","763061574482268161","许","551","","","","match","","","","","","","","","","","","","","key","j","16.666355140186806","720","401","j","true","match","img/pentagon.png","五边","五边","ALT1_2","prac_ALT1_2","","","","","","","","","","","",""
"null","<span style='color:GreenYellow; font-size: 70px;'>正确! </span>","null","html-keyboard-response","64","271940","0.0-7.0-1.0-1.0-0.0-1.27","3","3","3","3","3","3","3","1","3","3","4","3","2","4","4","4","4","4","4","4","2","2","2","2","2","1","2","2","1","1","0","0","1","0","0","1","1","0","1","1","0","1","0","1","4","3","4","4","5","3","2","2","3","4","2","763061574482268161","许","551","","","","","","","","","","","","","","","","","","","","","","","","","","","","","","feedback_test","","","","","","","","","","","",""
"null","","null","psychophysics","65","274144","0.0-7.0-1.0-1.0-0.0-0.28","3","3","3","3","3","3","3","1","3","3","4","3","2","4","4","4","4","4","4","4","2","2","2","2","2","1","2","2","1","1","0","0","1","0","0","1","1","0","1","1","0","1","0","1","4","3","4","4","5","3","2","2","3","4","2","763061574482268161","许","551","","","","null","","","","","","","","","","","","","","key","null","16.667175572519263","720","401","f","false","nonmatch","img/circle.png","方形","圆形","ALT1_2","prac_ALT1_2","","","","","","","","","","","",""
"null","<span class='add_' style='color:yellow; font-size: 70px;'> 太慢! </span>","null","html-keyboard-response","66","274646","0.0-7.0-1.0-1.0-0.0-1.28","3","3","3","3","3","3","3","1","3","3","4","3","2","4","4","4","4","4","4","4","2","2","2","2","2","1","2","2","1","1","0","0","1","0","0","1","1","0","1","1","0","1","0","1","4","3","4","4","5","3","2","2","3","4","2","763061574482268161","许","551","","","","","","","","","","","","","","","","","","","","","","","","","","","","","","feedback_test","","","","","","","","","","","",""
"null","","null","psychophysics","67","276857","0.0-7.0-1.0-1.0-0.0-0.29","3","3","3","3","3","3","3","1","3","3","4","3","2","4","4","4","4","4","4","4","2","2","2","2","2","1","2","2","1","1","0","0","1","0","0","1","1","0","1","1","0","1","0","1","4","3","4","4","5","3","2","2","3","4","2","763061574482268161","许","551","","","","null","","","","","","","","","","","","","","key","null","16.66641221374037","720","401","f","false","nonmatch","img/square.png","圆形","方形","ALT1_2","prac_ALT1_2","","","","","","","","","","","",""
"null","<span class='add_' style='color:yellow; font-size: 70px;'> 太慢! </span>","null","html-keyboard-response","68","277359","0.0-7.0-1.0-1.0-0.0-1.29","3","3","3","3","3","3","3","1","3","3","4","3","2","4","4","4","4","4","4","4","2","2","2","2","2","1","2","2","1","1","0","0","1","0","0","1","1","0","1","1","0","1","0","1","4","3","4","4","5","3","2","2","3","4","2","763061574482268161","许","551","","","","","","","","","","","","","","","","","","","","","","","","","","","","","","feedback_test","","","","","","","","","","","",""
"1003","","j","psychophysics","69","279364","0.0-7.0-1.0-1.0-0.0-0.30","3","3","3","3","3","3","3","1","3","3","4","3","2","4","4","4","4","4","4","4","2","2","2","2","2","1","2","2","1","1","0","0","1","0","0","1","1","0","1","1","0","1","0","1","4","3","4","4","5","3","2","2","3","4","2","763061574482268161","许","551","","","","match","","","","","","","","","","","","","","key","j","16.668067226890756","720","401","j","true","match","img/pentagon.png","五边","五边","ALT1_2","prac_ALT1_2","","","","","","","","","","","",""
"null","<span style='color:GreenYellow; font-size: 70px;'>正确! </span>","null","html-keyboard-response","70","279867","0.0-7.0-1.0-1.0-0.0-1.30","3","3","3","3","3","3","3","1","3","3","4","3","2","4","4","4","4","4","4","4","2","2","2","2","2","1","2","2","1","1","0","0","1","0","0","1","1","0","1","1","0","1","0","1","4","3","4","4","5","3","2","2","3","4","2","763061574482268161","许","551","","","","","","","","","","","","","","","","","","","","","","","","","","","","","","feedback_test","","","","","","","","","","","",""
"1006","","f","psychophysics","71","281875","0.0-7.0-1.0-1.0-0.0-0.31","3","3","3","3","3","3","3","1","3","3","4","3","2","4","4","4","4","4","4","4","2","2","2","2","2","1","2","2","1","1","0","0","1","0","0","1","1","0","1","1","0","1","0","1","4","3","4","4","5","3","2","2","3","4","2","763061574482268161","许","551","","","","nonmatch","","","","","","","","","","","","","","key","f","16.666386554621752","720","401","f","true","nonmatch","img/pentagon.png","梯形","五边","ALT1_2","prac_ALT1_2","","","","","","","","","","","",""
"null","<span style='color:GreenYellow; font-size: 70px;'>正确! </span>","null","html-keyboard-response","72","282377","0.0-7.0-1.0-1.0-0.0-1.31","3","3","3","3","3","3","3","1","3","3","4","3","2","4","4","4","4","4","4","4","2","2","2","2","2","1","2","2","1","1","0","0","1","0","0","1","1","0","1","1","0","1","0","1","4","3","4","4","5","3","2","2","3","4","2","763061574482268161","许","551","","","","","","","","","","","","","","","","","","","","","","","","","","","","","","feedback_test","","","","","","","","","","","",""
"null","","null","psychophysics","73","284586","0.0-7.0-1.0-1.0-0.0-0.32","3","3","3","3","3","3","3","1","3","3","4","3","2","4","4","4","4","4","4","4","2","2","2","2","2","1","2","2","1","1","0","0","1","0","0","1","1","0","1","1","0","1","0","1","4","3","4","4","5","3","2","2","3","4","2","763061574482268161","许","551","","","","null","","","","","","","","","","","","","","key","null","16.665648854961475","720","401","f","false","nonmatch","img/trapezoid.png","五边","梯形","ALT1_2","prac_ALT1_2","","","","","","","","","","","",""
"null","<span class='add_' style='color:yellow; font-size: 70px;'> 太慢! </span>","null","html-keyboard-response","74","285088","0.0-7.0-1.0-1.0-0.0-1.32","3","3","3","3","3","3","3","1","3","3","4","3","2","4","4","4","4","4","4","4","2","2","2","2","2","1","2","2","1","1","0","0","1","0","0","1","1","0","1","1","0","1","0","1","4","3","4","4","5","3","2","2","3","4","2","763061574482268161","许","551","","","","","","","","","","","","","","","","","","","","","","","","","","","","","","feedback_test","","","","","","","","","","","",""
"690","","j","psychophysics","75","286784","0.0-7.0-1.0-1.0-0.0-0.33","3","3","3","3","3","3","3","1","3","3","4","3","2","4","4","4","4","4","4","4","2","2","2","2","2","1","2","2","1","1","0","0","1","0","0","1","1","0","1","1","0","1","0","1","4","3","4","4","5","3","2","2","3","4","2","763061574482268161","许","551","","","","match","","","","","","","","","","","","","","key","j","16.665346534653004","720","401","j","true","match","img/trapezoid.png","梯形","梯形","ALT1_2","prac_ALT1_2","","","","","","","","","","","",""
"null","<span style='color:GreenYellow; font-size: 70px;'>正确! </span>","null","html-keyboard-response","76","287286","0.0-7.0-1.0-1.0-0.0-1.33","3","3","3","3","3","3","3","1","3","3","4","3","2","4","4","4","4","4","4","4","2","2","2","2","2","1","2","2","1","1","0","0","1","0","0","1","1","0","1","1","0","1","0","1","4","3","4","4","5","3","2","2","3","4","2","763061574482268161","许","551","","","","","","","","","","","","","","","","","","","","","","","","","","","","","","feedback_test","","","","","","","","","","","",""
"982","","j","psychophysics","77","289270","0.0-7.0-1.0-1.0-0.0-0.34","3","3","3","3","3","3","3","1","3","3","4","3","2","4","4","4","4","4","4","4","2","2","2","2","2","1","2","2","1","1","0","0","1","0","0","1","1","0","1","1","0","1","0","1","4","3","4","4","5","3","2","2","3","4","2","763061574482268161","许","551","","","","match","","","","","","","","","","","","","","key","j","16.666101694915056","720","401","j","true","match","img/circle.png","圆形","圆形","ALT1_2","prac_ALT1_2","","","","","","","","","","","",""
"null","<span style='color:GreenYellow; font-size: 70px;'>正确! </span>","null","html-keyboard-response","78","289771","0.0-7.0-1.0-1.0-0.0-1.34","3","3","3","3","3","3","3","1","3","3","4","3","2","4","4","4","4","4","4","4","2","2","2","2","2","1","2","2","1","1","0","0","1","0","0","1","1","0","1","1","0","1","0","1","4","3","4","4","5","3","2","2","3","4","2","763061574482268161","许","551","","","","","","","","","","","","","","","","","","","","","","","","","","","","","","feedback_test","","","","","","","","","","","",""
"917","","j","psychophysics","79","291690","0.0-7.0-1.0-1.0-0.0-0.35","3","3","3","3","3","3","3","1","3","3","4","3","2","4","4","4","4","4","4","4","2","2","2","2","2","1","2","2","1","1","0","0","1","0","0","1","1","0","1","1","0","1","0","1","4","3","4","4","5","3","2","2","3","4","2","763061574482268161","许","551","","","","match","","","","","","","","","","","","","","key","j","16.66754385964892","720","401","f","false","nonmatch","img/pentagon.png","方形","五边","ALT1_2","prac_ALT1_2","","","","","","","","","","","",""
"null","<span style='color:red; font-size: 70px;'>错误! </span>","null","html-keyboard-response","80","292191","0.0-7.0-1.0-1.0-0.0-1.35","3","3","3","3","3","3","3","1","3","3","4","3","2","4","4","4","4","4","4","4","2","2","2","2","2","1","2","2","1","1","0","0","1","0","0","1","1","0","1","1","0","1","0","1","4","3","4","4","5","3","2","2","3","4","2","763061574482268161","许","551","","","","","","","","","","","","","","","","","","","","","","","","","","","","","","feedback_test","","","","","","","","","","","",""
"1094","","f","psychophysics","81","294288","0.0-7.0-1.0-1.0-0.0-0.36","3","3","3","3","3","3","3","1","3","3","4","3","2","4","4","4","4","4","4","4","2","2","2","2","2","1","2","2","1","1","0","0","1","0","0","1","1","0","1","1","0","1","0","1","4","3","4","4","5","3","2","2","3","4","2","763061574482268161","许","551","","","","nonmatch","","","","","","","","","","","","","","key","f","16.662903225806076","720","401","j","false","match","img/circle.png","圆形","圆形","ALT1_2","prac_ALT1_2","","","","","","","","","","","",""
"null","<span style='color:red; font-size: 70px;'>错误! </span>","null","html-keyboard-response","82","294789","0.0-7.0-1.0-1.0-0.0-1.36","3","3","3","3","3","3","3","1","3","3","4","3","2","4","4","4","4","4","4","4","2","2","2","2","2","1","2","2","1","1","0","0","1","0","0","1","1","0","1","1","0","1","0","1","4","3","4","4","5","3","2","2","3","4","2","763061574482268161","许","551","","","","","","","","","","","","","","","","","","","","","","","","","","","","","","feedback_test","","","","","","","","","","","",""
"484","","j","psychophysics","83","296274","0.0-7.0-1.0-1.0-0.0-0.37","3","3","3","3","3","3","3","1","3","3","4","3","2","4","4","4","4","4","4","4","2","2","2","2","2","1","2","2","1","1","0","0","1","0","0","1","1","0","1","1","0","1","0","1","4","3","4","4","5","3","2","2","3","4","2","763061574482268161","许","551","","","","match","","","","","","","","","","","","","","key","j","16.665909090908826","720","401","f","false","nonmatch","img/circle.png","梯形","圆形","ALT1_2","prac_ALT1_2","","","","","","","","","","","",""
"null","<span style='color:red; font-size: 70px;'>错误! </span>","null","html-keyboard-response","84","296779","0.0-7.0-1.0-1.0-0.0-1.37","3","3","3","3","3","3","3","1","3","3","4","3","2","4","4","4","4","4","4","4","2","2","2","2","2","1","2","2","1","1","0","0","1","0","0","1","1","0","1","1","0","1","0","1","4","3","4","4","5","3","2","2","3","4","2","763061574482268161","许","551","","","","","","","","","","","","","","","","","","","","","","","","","","","","","","feedback_test","","","","","","","","","","","",""
"null","","null","psychophysics","85","298992","0.0-7.0-1.0-1.0-0.0-0.38","3","3","3","3","3","3","3","1","3","3","4","3","2","4","4","4","4","4","4","4","2","2","2","2","2","1","2","2","1","1","0","0","1","0","0","1","1","0","1","1","0","1","0","1","4","3","4","4","5","3","2","2","3","4","2","763061574482268161","许","551","","","","null","","","","","","","","","","","","","","key","null","16.664885496183473","720","401","j","false","match","img/square.png","方形","方形","ALT1_2","prac_ALT1_2","","","","","","","","","","","",""
"null","<span class='add_' style='color:yellow; font-size: 70px;'> 太慢! </span>","null","html-keyboard-response","86","299494","0.0-7.0-1.0-1.0-0.0-1.38","3","3","3","3","3","3","3","1","3","3","4","3","2","4","4","4","4","4","4","4","2","2","2","2","2","1","2","2","1","1","0","0","1","0","0","1","1","0","1","1","0","1","0","1","4","3","4","4","5","3","2","2","3","4","2","763061574482268161","许","551","","","","","","","","","","","","","","","","","","","","","","","","","","","","","","feedback_test","","","","","","","","","","","",""
"546","","j","psychophysics","87","301042","0.0-7.0-1.0-1.0-0.0-0.39","3","3","3","3","3","3","3","1","3","3","4","3","2","4","4","4","4","4","4","4","2","2","2","2","2","1","2","2","1","1","0","0","1","0","0","1","1","0","1","1","0","1","0","1","4","3","4","4","5","3","2","2","3","4","2","763061574482268161","许","551","","","","match","","","","","","","","","","","","","","key","j","16.667032967033094","720","401","j","true","match","img/square.png","方形","方形","ALT1_2","prac_ALT1_2","","","","","","","","","","","",""
"null","<span style='color:GreenYellow; font-size: 70px;'>正确! </span>","null","html-keyboard-response","88","301544","0.0-7.0-1.0-1.0-0.0-1.39","3","3","3","3","3","3","3","1","3","3","4","3","2","4","4","4","4","4","4","4","2","2","2","2","2","1","2","2","1","1","0","0","1","0","0","1","1","0","1","1","0","1","0","1","4","3","4","4","5","3","2","2","3","4","2","763061574482268161","许","551","","","","","","","","","","","","","","","","","","","","","","","","","","","","","","feedback_test","","","","","","","","","","","",""
"985","","j","psychophysics","89","303531","0.0-7.0-1.0-1.0-0.0-0.40","3","3","3","3","3","3","3","1","3","3","4","3","2","4","4","4","4","4","4","4","2","2","2","2","2","1","2","2","1","1","0","0","1","0","0","1","1","0","1","1","0","1","0","1","4","3","4","4","5","3","2","2","3","4","2","763061574482268161","许","551","","","","match","","","","","","","","","","","","","","key","j","16.667796610169393","720","401","j","true","match","img/trapezoid.png","梯形","梯形","ALT1_2","prac_ALT1_2","","","","","","","","","","","",""
"null","<span style='color:GreenYellow; font-size: 70px;'>正确! </span>","null","html-keyboard-response","90","304032","0.0-7.0-1.0-1.0-0.0-1.40","3","3","3","3","3","3","3","1","3","3","4","3","2","4","4","4","4","4","4","4","2","2","2","2","2","1","2","2","1","1","0","0","1","0","0","1","1","0","1","1","0","1","0","1","4","3","4","4","5","3","2","2","3","4","2","763061574482268161","许","551","","","","","","","","","","","","","","","","","","","","","","","","","","","","","","feedback_test","","","","","","","","","","","",""
"1014","","j","psychophysics","91","306050","0.0-7.0-1.0-1.0-0.0-0.41","3","3","3","3","3","3","3","1","3","3","4","3","2","4","4","4","4","4","4","4","2","2","2","2","2","1","2","2","1","1","0","0","1","0","0","1","1","0","1","1","0","1","0","1","4","3","4","4","5","3","2","2","3","4","2","763061574482268161","许","551","","","","match","","","","","","","","","","","","","","key","j","16.666666666666668","720","401","j","true","match","img/trapezoid.png","梯形","梯形","ALT1_2","prac_ALT1_2","","","","","","","","","","","",""
"null","<span style='color:GreenYellow; font-size: 70px;'>正确! </span>","null","html-keyboard-response","92","306551","0.0-7.0-1.0-1.0-0.0-1.41","3","3","3","3","3","3","3","1","3","3","4","3","2","4","4","4","4","4","4","4","2","2","2","2","2","1","2","2","1","1","0","0","1","0","0","1","1","0","1","1","0","1","0","1","4","3","4","4","5","3","2","2","3","4","2","763061574482268161","许","551","","","","","","","","","","","","","","","","","","","","","","","","","","","","","","feedback_test","","","","","","","","","","","",""
"747","","j","psychophysics","93","308301","0.0-7.0-1.0-1.0-0.0-0.42","3","3","3","3","3","3","3","1","3","3","4","3","2","4","4","4","4","4","4","4","2","2","2","2","2","1","2","2","1","1","0","0","1","0","0","1","1","0","1","1","0","1","0","1","4","3","4","4","5","3","2","2","3","4","2","763061574482268161","许","551","","","","match","","","","","","","","","","","","","","key","j","16.666346153846042","720","401","j","true","match","img/circle.png","圆形","圆形","ALT1_2","prac_ALT1_2","","","","","","","","","","","",""
"null","<span style='color:GreenYellow; font-size: 70px;'>正确! </span>","null","html-keyboard-response","94","308803","0.0-7.0-1.0-1.0-0.0-1.42","3","3","3","3","3","3","3","1","3","3","4","3","2","4","4","4","4","4","4","4","2","2","2","2","2","1","2","2","1","1","0","0","1","0","0","1","1","0","1","1","0","1","0","1","4","3","4","4","5","3","2","2","3","4","2","763061574482268161","许","551","","","","","","","","","","","","","","","","","","","","","","","","","","","","","","feedback_test","","","","","","","","","","","",""
"810","","j","psychophysics","95","310615","0.0-7.0-1.0-1.0-0.0-0.43","3","3","3","3","3","3","3","1","3","3","4","3","2","4","4","4","4","4","4","4","2","2","2","2","2","1","2","2","1","1","0","0","1","0","0","1","1","0","1","1","0","1","0","1","4","3","4","4","5","3","2","2","3","4","2","763061574482268161","许","551","","","","match","","","","","","","","","","","","","","key","j","16.667592592592378","720","401","j","true","match","img/square.png","方形","方形","ALT1_2","prac_ALT1_2","","","","","","","","","","","",""
"null","<span style='color:GreenYellow; font-size: 70px;'>正确! </span>","null","html-keyboard-response","96","311118","0.0-7.0-1.0-1.0-0.0-1.43","3","3","3","3","3","3","3","1","3","3","4","3","2","4","4","4","4","4","4","4","2","2","2","2","2","1","2","2","1","1","0","0","1","0","0","1","1","0","1","1","0","1","0","1","4","3","4","4","5","3","2","2","3","4","2","763061574482268161","许","551","","","","","","","","","","","","","","","","","","","","","","","","","","","","","","feedback_test","","","","","","","","","","","",""
"794","","f","psychophysics","97","312913","0.0-7.0-1.0-1.0-0.0-0.44","3","3","3","3","3","3","3","1","3","3","4","3","2","4","4","4","4","4","4","4","2","2","2","2","2","1","2","2","1","1","0","0","1","0","0","1","1","0","1","1","0","1","0","1","4","3","4","4","5","3","2","2","3","4","2","763061574482268161","许","551","","","","nonmatch","","","","","","","","","","","","","","key","f","16.666355140186806","720","401","f","true","nonmatch","img/pentagon.png","圆形","五边","ALT1_2","prac_ALT1_2","","","","","","","","","","","",""
"null","<span style='color:GreenYellow; font-size: 70px;'>正确! </span>","null","html-keyboard-response","98","313415","0.0-7.0-1.0-1.0-0.0-1.44","3","3","3","3","3","3","3","1","3","3","4","3","2","4","4","4","4","4","4","4","2","2","2","2","2","1","2","2","1","1","0","0","1","0","0","1","1","0","1","1","0","1","0","1","4","3","4","4","5","3","2","2","3","4","2","763061574482268161","许","551","","","","","","","","","","","","","","","","","","","","","","","","","","","","","","feedback_test","","","","","","","","","","","",""
"1105","","j","psychophysics","99","315523","0.0-7.0-1.0-1.0-0.0-0.45","3","3","3","3","3","3","3","1","3","3","4","3","2","4","4","4","4","4","4","4","2","2","2","2","2","1","2","2","1","1","0","0","1","0","0","1","1","0","1","1","0","1","0","1","4","3","4","4","5","3","2","2","3","4","2","763061574482268161","许","551","","","","match","","","","","","","","","","","","","","key","j","16.66719999999972","720","401","f","false","nonmatch","img/trapezoid.png","方形","梯形","ALT1_2","prac_ALT1_2","","","","","","","","","","","",""
"null","<span style='color:red; font-size: 70px;'>错误! </span>","null","html-keyboard-response","100","316024","0.0-7.0-1.0-1.0-0.0-1.45","3","3","3","3","3","3","3","1","3","3","4","3","2","4","4","4","4","4","4","4","2","2","2","2","2","1","2","2","1","1","0","0","1","0","0","1","1","0","1","1","0","1","0","1","4","3","4","4","5","3","2","2","3","4","2","763061574482268161","许","551","","","","","","","","","","","","","","","","","","","","","","","","","","","","","","feedback_test","","","","","","","","","","","",""
"875","","j","psychophysics","101","317900","0.0-7.0-1.0-1.0-0.0-0.46","3","3","3","3","3","3","3","1","3","3","4","3","2","4","4","4","4","4","4","4","2","2","2","2","2","1","2","2","1","1","0","0","1","0","0","1","1","0","1","1","0","1","0","1","4","3","4","4","5","3","2","2","3","4","2","763061574482268161","许","551","","","","match","","","","","","","","","","","","","","key","j","16.667857142857038","720","401","j","true","match","img/pentagon.png","五边","五边","ALT1_2","prac_ALT1_2","","","","","","","","","","","",""
"null","<span style='color:GreenYellow; font-size: 70px;'>正确! </span>","null","html-keyboard-response","102","318401","0.0-7.0-1.0-1.0-0.0-1.46","3","3","3","3","3","3","3","1","3","3","4","3","2","4","4","4","4","4","4","4","2","2","2","2","2","1","2","2","1","1","0","0","1","0","0","1","1","0","1","1","0","1","0","1","4","3","4","4","5","3","2","2","3","4","2","763061574482268161","许","551","","","","","","","","","","","","","","","","","","","","","","","","","","","","","","feedback_test","","","","","","","","","","","",""
"965","","j","psychophysics","103","320369","0.0-7.0-1.0-1.0-0.0-0.47","3","3","3","3","3","3","3","1","3","3","4","3","2","4","4","4","4","4","4","4","2","2","2","2","2","1","2","2","1","1","0","0","1","0","0","1","1","0","1","1","0","1","0","1","4","3","4","4","5","3","2","2","3","4","2","763061574482268161","许","551","","","","match","","","","","","","","","","","","","","key","j","16.666666666666668","720","401","f","false","nonmatch","img/trapezoid.png","圆形","梯形","ALT1_2","prac_ALT1_2","","","","","","","","","","","",""
"null","<span style='color:red; font-size: 70px;'>错误! </span>","null","html-keyboard-response","104","320871","0.0-7.0-1.0-1.0-0.0-1.47","3","3","3","3","3","3","3","1","3","3","4","3","2","4","4","4","4","4","4","4","2","2","2","2","2","1","2","2","1","1","0","0","1","0","0","1","1","0","1","1","0","1","0","1","4","3","4","4","5","3","2","2","3","4","2","763061574482268161","许","551","","","","","","","","","","","","","","","","","","","","","","","","","","","","","","feedback_test","","","","","","","","","","","",""
"11739","<style>.context{color:white; font-size: 35px; line-height:40px}</style>                          <div><p class='context'>您正确回答了52% 的试次。</p><p class='context'>您的平均反应时为923毫秒。</p><p class='context'>恭喜您完成练习。按空格键继续。</p></div>"," ","html-keyboard-response","105","332615","0.0-7.0-1.0-1.0-1.0-0.0","3","3","3","3","3","3","3","1","3","3","4","3","2","4","4","4","4","4","4","4","2","2","2","2","2","1","2","2","1","1","0","0","1","0","0","1","1","0","1","1","0","1","0","1","4","3","4","4","5","3","2","2","3","4","2","763061574482268161","许","551","","","","","","","","","","","","","","","","","","","","","","","","","","","","","","","","","","","","","","","","","",""
"31116","","","instructions","106","363734","0.0-7.0-1.0-1.0-1.0-1.0","3","3","3","3","3","3","3","1","3","3","4","3","2","4","4","4","4","4","4","4","2","2","2","2","2","1","2","2","1","1","0","0","1","0","0","1","1","0","1","1","0","1","0","1","4","3","4","4","5","3","2","2","3","4","2","763061574482268161","许","551","","","","","","","","","","","","","","","","","[{""page_index"":0,""viewing_time"":18308},{""page_index"":1,""viewing_time"":9144},{""page_index"":2,""viewing_time"":3664}]","","","","","","","","","","","","","","","","","","","","","","","","",""
"null","","null","psychophysics","107","365945","0.0-7.0-1.0-1.1-0.1-0.48","3","3","3","3","3","3","3","1","3","3","4","3","2","4","4","4","4","4","4","4","2","2","2","2","2","1","2","2","1","1","0","0","1","0","0","1","1","0","1","1","0","1","0","1","4","3","4","4","5","3","2","2","3","4","2","763061574482268161","许","551","","","","null","","","","","","","","","","","","","","key","null","16.665151515151425","720","401","j","false","match","img/circle.png","圆形","圆形","ALT1_2","prac_ALT1_2","","","","","","","","","","","",""
"null","<span class='add_' style='color:yellow; font-size: 70px;'> 太慢! </span>","null","html-keyboard-response","108","366446","0.0-7.0-1.0-1.1-0.1-1.48","3","3","3","3","3","3","3","1","3","3","4","3","2","4","4","4","4","4","4","4","2","2","2","2","2","1","2","2","1","1","0","0","1","0","0","1","1","0","1","1","0","1","0","1","4","3","4","4","5","3","2","2","3","4","2","763061574482268161","许","551","","","","","","","","","","","","","","","","","","","","","","","","","","","","","","feedback_test","","","","","","","","","","","",""
"725","","j","psychophysics","109","368173","0.0-7.0-1.0-1.1-0.1-0.49","3","3","3","3","3","3","3","1","3","3","4","3","2","4","4","4","4","4","4","4","2","2","2","2","2","1","2","2","1","1","0","0","1","0","0","1","1","0","1","1","0","1","0","1","4","3","4","4","5","3","2","2","3","4","2","763061574482268161","许","551","","","","match","","","","","","","","","","","","","","key","j","16.666666666666668","720","401","f","false","nonmatch","img/square.png","五边","方形","ALT1_2","prac_ALT1_2","","","","","","","","","","","",""
"null","<span style='color:red; font-size: 70px;'>错误! </span>","null","html-keyboard-response","110","368676","0.0-7.0-1.0-1.1-0.1-1.49","3","3","3","3","3","3","3","1","3","3","4","3","2","4","4","4","4","4","4","4","2","2","2","2","2","1","2","2","1","1","0","0","1","0","0","1","1","0","1","1","0","1","0","1","4","3","4","4","5","3","2","2","3","4","2","763061574482268161","许","551","","","","","","","","","","","","","","","","","","","","","","","","","","","","","","feedback_test","","","","","","","","","","","",""
"802","","j","psychophysics","111","370480","0.0-7.0-1.0-1.1-0.1-0.50","3","3","3","3","3","3","3","1","3","3","4","3","2","4","4","4","4","4","4","4","2","2","2","2","2","1","2","2","1","1","0","0","1","0","0","1","1","0","1","1","0","1","0","1","4","3","4","4","5","3","2","2","3","4","2","763061574482268161","许","551","","","","match","","","","","","","","","","","","","","key","j","16.665420560747773","720","401","j","true","match","img/circle.png","圆形","圆形","ALT1_2","prac_ALT1_2","","","","","","","","","","","",""
"null","<span style='color:GreenYellow; font-size: 70px;'>正确! </span>","null","html-keyboard-response","112","370981","0.0-7.0-1.0-1.1-0.1-1.50","3","3","3","3","3","3","3","1","3","3","4","3","2","4","4","4","4","4","4","4","2","2","2","2","2","1","2","2","1","1","0","0","1","0","0","1","1","0","1","1","0","1","0","1","4","3","4","4","5","3","2","2","3","4","2","763061574482268161","许","551","","","","","","","","","","","","","","","","","","","","","","","","","","","","","","feedback_test","","","","","","","","","","","",""
"960","","j","psychophysics","113","372943","0.0-7.0-1.0-1.1-0.1-0.51","3","3","3","3","3","3","3","1","3","3","4","3","2","4","4","4","4","4","4","4","2","2","2","2","2","1","2","2","1","1","0","0","1","0","0","1","1","0","1","1","0","1","0","1","4","3","4","4","5","3","2","2","3","4","2","763061574482268161","许","551","","","","match","","","","","","","","","","","","","","key","j","16.666666666666668","720","401","f","false","nonmatch","img/trapezoid.png","五边","梯形","ALT1_2","prac_ALT1_2","","","","","","","","","","","",""
"null","<span style='color:red; font-size: 70px;'>错误! </span>","null","html-keyboard-response","114","373444","0.0-7.0-1.0-1.1-0.1-1.51","3","3","3","3","3","3","3","1","3","3","4","3","2","4","4","4","4","4","4","4","2","2","2","2","2","1","2","2","1","1","0","0","1","0","0","1","1","0","1","1","0","1","0","1","4","3","4","4","5","3","2","2","3","4","2","763061574482268161","许","551","","","","","","","","","","","","","","","","","","","","","","","","","","","","","","feedback_test","","","","","","","","","","","",""
"800","","j","psychophysics","115","375245","0.0-7.0-1.0-1.1-0.1-0.52","3","3","3","3","3","3","3","1","3","3","4","3","2","4","4","4","4","4","4","4","2","2","2","2","2","1","2","2","1","1","0","0","1","0","0","1","1","0","1","1","0","1","0","1","4","3","4","4","5","3","2","2","3","4","2","763061574482268161","许","551","","","","match","","","","","","","","","","","","","","key","j","16.665420560747773","720","401","f","false","nonmatch","img/pentagon.png","方形","五边","ALT1_2","prac_ALT1_2","","","","","","","","","","","",""
"null","<span style='color:red; font-size: 70px;'>错误! </span>","null","html-keyboard-response","116","375747","0.0-7.0-1.0-1.1-0.1-1.52","3","3","3","3","3","3","3","1","3","3","4","3","2","4","4","4","4","4","4","4","2","2","2","2","2","1","2","2","1","1","0","0","1","0","0","1","1","0","1","1","0","1","0","1","4","3","4","4","5","3","2","2","3","4","2","763061574482268161","许","551","","","","","","","","","","","","","","","","","","","","","","","","","","","","","","feedback_test","","","","","","","","","","","",""
"1104","","j","psychophysics","117","377854","0.0-7.0-1.0-1.1-0.1-0.53","3","3","3","3","3","3","3","1","3","3","4","3","2","4","4","4","4","4","4","4","2","2","2","2","2","1","2","2","1","1","0","0","1","0","0","1","1","0","1","1","0","1","0","1","4","3","4","4","5","3","2","2","3","4","2","763061574482268161","许","551","","","","match","","","","","","","","","","","","","","key","j","16.668","720","401","j","true","match","img/square.png","方形","方形","ALT1_2","prac_ALT1_2","","","","","","","","","","","",""
"null","<span style='color:GreenYellow; font-size: 70px;'>正确! </span>","null","html-keyboard-response","118","378357","0.0-7.0-1.0-1.1-0.1-1.53","3","3","3","3","3","3","3","1","3","3","4","3","2","4","4","4","4","4","4","4","2","2","2","2","2","1","2","2","1","1","0","0","1","0","0","1","1","0","1","1","0","1","0","1","4","3","4","4","5","3","2","2","3","4","2","763061574482268161","许","551","","","","","","","","","","","","","","","","","","","","","","","","","","","","","","feedback_test","","","","","","","","","","","",""
"859","","j","psychophysics","119","380218","0.0-7.0-1.0-1.1-0.1-0.54","3","3","3","3","3","3","3","1","3","3","4","3","2","4","4","4","4","4","4","4","2","2","2","2","2","1","2","2","1","1","0","0","1","0","0","1","1","0","1","1","0","1","0","1","4","3","4","4","5","3","2","2","3","4","2","763061574482268161","许","551","","","","match","","","","","","","","","","","","","","key","j","16.655454545454862","720","401","j","true","match","img/pentagon.png","五边","五边","ALT1_2","prac_ALT1_2","","","","","","","","","","","",""
"null","<span style='color:GreenYellow; font-size: 70px;'>正确! </span>","null","html-keyboard-response","120","380719","0.0-7.0-1.0-1.1-0.1-1.54","3","3","3","3","3","3","3","1","3","3","4","3","2","4","4","4","4","4","4","4","2","2","2","2","2","1","2","2","1","1","0","0","1","0","0","1","1","0","1","1","0","1","0","1","4","3","4","4","5","3","2","2","3","4","2","763061574482268161","许","551","","","","","","","","","","","","","","","","","","","","","","","","","","","","","","feedback_test","","","","","","","","","","","",""
"882","","j","psychophysics","121","382603","0.0-7.0-1.0-1.1-0.1-0.55","3","3","3","3","3","3","3","1","3","3","4","3","2","4","4","4","4","4","4","4","2","2","2","2","2","1","2","2","1","1","0","0","1","0","0","1","1","0","1","1","0","1","0","1","4","3","4","4","5","3","2","2","3","4","2","763061574482268161","许","551","","","","match","","","","","","","","","","","","","","key","j","16.66607142857122","720","401","f","false","nonmatch","img/pentagon.png","梯形","五边","ALT1_2","prac_ALT1_2","","","","","","","","","","","",""
"null","<span style='color:red; font-size: 70px;'>错误! </span>","null","html-keyboard-response","122","383105","0.0-7.0-1.0-1.1-0.1-1.55","3","3","3","3","3","3","3","1","3","3","4","3","2","4","4","4","4","4","4","4","2","2","2","2","2","1","2","2","1","1","0","0","1","0","0","1","1","0","1","1","0","1","0","1","4","3","4","4","5","3","2","2","3","4","2","763061574482268161","许","551","","","","","","","","","","","","","","","","","","","","","","","","","","","","","","feedback_test","","","","","","","","","","","",""
"898","","j","psychophysics","123","385004","0.0-7.0-1.0-1.1-0.1-0.56","3","3","3","3","3","3","3","1","3","3","4","3","2","4","4","4","4","4","4","4","2","2","2","2","2","1","2","2","1","1","0","0","1","0","0","1","1","0","1","1","0","1","0","1","4","3","4","4","5","3","2","2","3","4","2","763061574482268161","许","551","","","","match","","","","","","","","","","","","","","key","j","16.66637168141634","720","401","j","true","match","img/trapezoid.png","梯形","梯形","ALT1_2","prac_ALT1_2","","","","","","","","","","","",""
"null","<span style='color:GreenYellow; font-size: 70px;'>正确! </span>","null","html-keyboard-response","124","385506","0.0-7.0-1.0-1.1-0.1-1.56","3","3","3","3","3","3","3","1","3","3","4","3","2","4","4","4","4","4","4","4","2","2","2","2","2","1","2","2","1","1","0","0","1","0","0","1","1","0","1","1","0","1","0","1","4","3","4","4","5","3","2","2","3","4","2","763061574482268161","许","551","","","","","","","","","","","","","","","","","","","","","","","","","","","","","","feedback_test","","","","","","","","","","","",""
"974","","j","psychophysics","125","387482","0.0-7.0-1.0-1.1-0.1-0.57","3","3","3","3","3","3","3","1","3","3","4","3","2","4","4","4","4","4","4","4","2","2","2","2","2","1","2","2","1","1","0","0","1","0","0","1","1","0","1","1","0","1","0","1","4","3","4","4","5","3","2","2","3","4","2","763061574482268161","许","551","","","","match","","","","","","","","","","","","","","key","j","16.65726495726466","720","401","f","false","nonmatch","img/square.png","圆形","方形","ALT1_2","prac_ALT1_2","","","","","","","","","","","",""
"null","<span style='color:red; font-size: 70px;'>错误! </span>","null","html-keyboard-response","126","387991","0.0-7.0-1.0-1.1-0.1-1.57","3","3","3","3","3","3","3","1","3","3","4","3","2","4","4","4","4","4","4","4","2","2","2","2","2","1","2","2","1","1","0","0","1","0","0","1","1","0","1","1","0","1","0","1","4","3","4","4","5","3","2","2","3","4","2","763061574482268161","许","551","","","","","","","","","","","","","","","","","","","","","","","","","","","","","","feedback_test","","","","","","","","","","","",""
"885","","j","psychophysics","127","389878","0.0-7.0-1.0-1.1-0.1-0.58","3","3","3","3","3","3","3","1","3","3","4","3","2","4","4","4","4","4","4","4","2","2","2","2","2","1","2","2","1","1","0","0","1","0","0","1","1","0","1","1","0","1","0","1","4","3","4","4","5","3","2","2","3","4","2","763061574482268161","许","551","","","","match","","","","","","","","","","","","","","key","j","16.66607142857122","720","401","j","true","match","img/square.png","方形","方形","ALT1_2","prac_ALT1_2","","","","","","","","","","","",""
"null","<span style='color:GreenYellow; font-size: 70px;'>正确! </span>","null","html-keyboard-response","128","390391","0.0-7.0-1.0-1.1-0.1-1.58","3","3","3","3","3","3","3","1","3","3","4","3","2","4","4","4","4","4","4","4","2","2","2","2","2","1","2","2","1","1","0","0","1","0","0","1","1","0","1","1","0","1","0","1","4","3","4","4","5","3","2","2","3","4","2","763061574482268161","许","551","","","","","","","","","","","","","","","","","","","","","","","","","","","","","","feedback_test","","","","","","","","","","","",""
"773","","j","psychophysics","129","392166","0.0-7.0-1.0-1.1-0.1-0.59","3","3","3","3","3","3","3","1","3","3","4","3","2","4","4","4","4","4","4","4","2","2","2","2","2","1","2","2","1","1","0","0","1","0","0","1","1","0","1","1","0","1","0","1","4","3","4","4","5","3","2","2","3","4","2","763061574482268161","许","551","","","","match","","","","","","","","","","","","","","key","j","16.66761904761938","720","401","j","true","match","img/trapezoid.png","梯形","梯形","ALT1_2","prac_ALT1_2","","","","","","","","","","","",""
"null","<span style='color:GreenYellow; font-size: 70px;'>正确! </span>","null","html-keyboard-response","130","392668","0.0-7.0-1.0-1.1-0.1-1.59","3","3","3","3","3","3","3","1","3","3","4","3","2","4","4","4","4","4","4","4","2","2","2","2","2","1","2","2","1","1","0","0","1","0","0","1","1","0","1","1","0","1","0","1","4","3","4","4","5","3","2","2","3","4","2","763061574482268161","许","551","","","","","","","","","","","","","","","","","","","","","","","","","","","","","","feedback_test","","","","","","","","","","","",""
"946","","j","psychophysics","131","394616","0.0-7.0-1.0-1.1-0.1-0.60","3","3","3","3","3","3","3","1","3","3","4","3","2","4","4","4","4","4","4","4","2","2","2","2","2","1","2","2","1","1","0","0","1","0","0","1","1","0","1","1","0","1","0","1","4","3","4","4","5","3","2","2","3","4","2","763061574482268161","许","551","","","","match","","","","","","","","","","","","","","key","j","16.666379310344727","720","401","j","true","match","img/circle.png","圆形","圆形","ALT1_2","prac_ALT1_2","","","","","","","","","","","",""
"null","<span style='color:GreenYellow; font-size: 70px;'>正确! </span>","null","html-keyboard-response","132","395117","0.0-7.0-1.0-1.1-0.1-1.60","3","3","3","3","3","3","3","1","3","3","4","3","2","4","4","4","4","4","4","4","2","2","2","2","2","1","2","2","1","1","0","0","1","0","0","1","1","0","1","1","0","1","0","1","4","3","4","4","5","3","2","2","3","4","2","763061574482268161","许","551","","","","","","","","","","","","","","","","","","","","","","","","","","","","","","feedback_test","","","","","","","","","","","",""
"827","","j","psychophysics","133","396947","0.0-7.0-1.0-1.1-0.1-0.61","3","3","3","3","3","3","3","1","3","3","4","3","2","4","4","4","4","4","4","4","2","2","2","2","2","1","2","2","1","1","0","0","1","0","0","1","1","0","1","1","0","1","0","1","4","3","4","4","5","3","2","2","3","4","2","763061574482268161","许","551","","","","match","","","","","","","","","","","","","","key","j","16.666055045871346","720","401","f","false","nonmatch","img/trapezoid.png","方形","梯形","ALT1_2","prac_ALT1_2","","","","","","","","","","","",""
"null","<span style='color:red; font-size: 70px;'>错误! </span>","null","html-keyboard-response","134","397449","0.0-7.0-1.0-1.1-0.1-1.61","3","3","3","3","3","3","3","1","3","3","4","3","2","4","4","4","4","4","4","4","2","2","2","2","2","1","2","2","1","1","0","0","1","0","0","1","1","0","1","1","0","1","0","1","4","3","4","4","5","3","2","2","3","4","2","763061574482268161","许","551","","","","","","","","","","","","","","","","","","","","","","","","","","","","","","feedback_test","","","","","","","","","","","",""
"914","","j","psychophysics","135","399366","0.0-7.0-1.0-1.1-0.1-0.62","3","3","3","3","3","3","3","1","3","3","4","3","2","4","4","4","4","4","4","4","2","2","2","2","2","1","2","2","1","1","0","0","1","0","0","1","1","0","1","1","0","1","0","1","4","3","4","4","5","3","2","2","3","4","2","763061574482268161","许","551","","","","match","","","","","","","","","","","","","","key","j","16.666666666666668","720","401","j","true","match","img/pentagon.png","五边","五边","ALT1_2","prac_ALT1_2","","","","","","","","","","","",""
"null","<span style='color:GreenYellow; font-size: 70px;'>正确! </span>","null","html-keyboard-response","136","399867","0.0-7.0-1.0-1.1-0.1-1.62","3","3","3","3","3","3","3","1","3","3","4","3","2","4","4","4","4","4","4","4","2","2","2","2","2","1","2","2","1","1","0","0","1","0","0","1","1","0","1","1","0","1","0","1","4","3","4","4","5","3","2","2","3","4","2","763061574482268161","许","551","","","","","","","","","","","","","","","","","","","","","","","","","","","","","","feedback_test","","","","","","","","","","","",""
"774","","j","psychophysics","137","401644","0.0-7.0-1.0-1.1-0.1-0.63","3","3","3","3","3","3","3","1","3","3","4","3","2","4","4","4","4","4","4","4","2","2","2","2","2","1","2","2","1","1","0","0","1","0","0","1","1","0","1","1","0","1","0","1","4","3","4","4","5","3","2","2","3","4","2","763061574482268161","许","551","","","","match","","","","","","","","","","","","","","key","j","16.666037735848835","720","401","j","true","match","img/trapezoid.png","梯形","梯形","ALT1_2","prac_ALT1_2","","","","","","","","","","","",""
"null","<span style='color:GreenYellow; font-size: 70px;'>正确! </span>","null","html-keyboard-response","138","402146","0.0-7.0-1.0-1.1-0.1-1.63","3","3","3","3","3","3","3","1","3","3","4","3","2","4","4","4","4","4","4","4","2","2","2","2","2","1","2","2","1","1","0","0","1","0","0","1","1","0","1","1","0","1","0","1","4","3","4","4","5","3","2","2","3","4","2","763061574482268161","许","551","","","","","","","","","","","","","","","","","","","","","","","","","","","","","","feedback_test","","","","","","","","","","","",""
"698","","j","psychophysics","139","403846","0.0-7.0-1.0-1.1-0.1-0.64","3","3","3","3","3","3","3","1","3","3","4","3","2","4","4","4","4","4","4","4","2","2","2","2","2","1","2","2","1","1","0","0","1","0","0","1","1","0","1","1","0","1","0","1","4","3","4","4","5","3","2","2","3","4","2","763061574482268161","许","551","","","","match","","","","","","","","","","","","","","key","j","16.66534653465358","720","401","j","true","match","img/square.png","方形","方形","ALT1_2","prac_ALT1_2","","","","","","","","","","","",""
"null","<span style='color:GreenYellow; font-size: 70px;'>正确! </span>","null","html-keyboard-response","140","404348","0.0-7.0-1.0-1.1-0.1-1.64","3","3","3","3","3","3","3","1","3","3","4","3","2","4","4","4","4","4","4","4","2","2","2","2","2","1","2","2","1","1","0","0","1","0","0","1","1","0","1","1","0","1","0","1","4","3","4","4","5","3","2","2","3","4","2","763061574482268161","许","551","","","","","","","","","","","","","","","","","","","","","","","","","","","","","","feedback_test","","","","","","","","","","","",""
"573","","j","psychophysics","141","405923","0.0-7.0-1.0-1.1-0.1-0.65","3","3","3","3","3","3","3","1","3","3","4","3","2","4","4","4","4","4","4","4","2","2","2","2","2","1","2","2","1","1","0","0","1","0","0","1","1","0","1","1","0","1","0","1","4","3","4","4","5","3","2","2","3","4","2","763061574482268161","许","551","","","","match","","","","","","","","","","","","","","key","j","16.666666666666668","720","401","f","false","nonmatch","img/circle.png","方形","圆形","ALT1_2","prac_ALT1_2","","","","","","","","","","","",""
"null","<span style='color:red; font-size: 70px;'>错误! </span>","null","html-keyboard-response","142","406424","0.0-7.0-1.0-1.1-0.1-1.65","3","3","3","3","3","3","3","1","3","3","4","3","2","4","4","4","4","4","4","4","2","2","2","2","2","1","2","2","1","1","0","0","1","0","0","1","1","0","1","1","0","1","0","1","4","3","4","4","5","3","2","2","3","4","2","763061574482268161","许","551","","","","","","","","","","","","","","","","","","","","","","","","","","","","","","feedback_test","","","","","","","","","","","",""
"995","","f","psychophysics","143","408421","0.0-7.0-1.0-1.1-0.1-0.66","3","3","3","3","3","3","3","1","3","3","4","3","2","4","4","4","4","4","4","4","2","2","2","2","2","1","2","2","1","1","0","0","1","0","0","1","1","0","1","1","0","1","0","1","4","3","4","4","5","3","2","2","3","4","2","763061574482268161","许","551","","","","nonmatch","","","","","","","","","","","","","","key","f","16.666949152542472","720","401","f","true","nonmatch","img/circle.png","梯形","圆形","ALT1_2","prac_ALT1_2","","","","","","","","","","","",""
"null","<span style='color:GreenYellow; font-size: 70px;'>正确! </span>","null","html-keyboard-response","144","408923","0.0-7.0-1.0-1.1-0.1-1.66","3","3","3","3","3","3","3","1","3","3","4","3","2","4","4","4","4","4","4","4","2","2","2","2","2","1","2","2","1","1","0","0","1","0","0","1","1","0","1","1","0","1","0","1","4","3","4","4","5","3","2","2","3","4","2","763061574482268161","许","551","","","","","","","","","","","","","","","","","","","","","","","","","","","","","","feedback_test","","","","","","","","","","","",""
"970","","f","psychophysics","145","410896","0.0-7.0-1.0-1.1-0.1-0.67","3","3","3","3","3","3","3","1","3","3","4","3","2","4","4","4","4","4","4","4","2","2","2","2","2","1","2","2","1","1","0","0","1","0","0","1","1","0","1","1","0","1","0","1","4","3","4","4","5","3","2","2","3","4","2","763061574482268161","许","551","","","","nonmatch","","","","","","","","","","","","","","key","f","16.663247863247665","720","401","f","true","nonmatch","img/square.png","梯形","方形","ALT1_2","prac_ALT1_2","","","","","","","","","","","",""
"null","<span style='color:GreenYellow; font-size: 70px;'>正确! </span>","null","html-keyboard-response","146","411398","0.0-7.0-1.0-1.1-0.1-1.67","3","3","3","3","3","3","3","1","3","3","4","3","2","4","4","4","4","4","4","4","2","2","2","2","2","1","2","2","1","1","0","0","1","0","0","1","1","0","1","1","0","1","0","1","4","3","4","4","5","3","2","2","3","4","2","763061574482268161","许","551","","","","","","","","","","","","","","","","","","","","","","","","","","","","","","feedback_test","","","","","","","","","","","",""
"840","","f","psychophysics","147","413241","0.0-7.0-1.0-1.1-0.1-0.68","3","3","3","3","3","3","3","1","3","3","4","3","2","4","4","4","4","4","4","4","2","2","2","2","2","1","2","2","1","1","0","0","1","0","0","1","1","0","1","1","0","1","0","1","4","3","4","4","5","3","2","2","3","4","2","763061574482268161","许","551","","","","nonmatch","","","","","","","","","","","","","","key","f","16.667889908256775","720","401","f","true","nonmatch","img/trapezoid.png","圆形","梯形","ALT1_2","prac_ALT1_2","","","","","","","","","","","",""
"null","<span style='color:GreenYellow; font-size: 70px;'>正确! </span>","null","html-keyboard-response","148","413743","0.0-7.0-1.0-1.1-0.1-1.68","3","3","3","3","3","3","3","1","3","3","4","3","2","4","4","4","4","4","4","4","2","2","2","2","2","1","2","2","1","1","0","0","1","0","0","1","1","0","1","1","0","1","0","1","4","3","4","4","5","3","2","2","3","4","2","763061574482268161","许","551","","","","","","","","","","","","","","","","","","","","","","","","","","","","","","feedback_test","","","","","","","","","","","",""
"836","","f","psychophysics","149","415581","0.0-7.0-1.0-1.1-0.1-0.69","3","3","3","3","3","3","3","1","3","3","4","3","2","4","4","4","4","4","4","4","2","2","2","2","2","1","2","2","1","1","0","0","1","0","0","1","1","0","1","1","0","1","0","1","4","3","4","4","5","3","2","2","3","4","2","763061574482268161","许","551","","","","nonmatch","","","","","","","","","","","","","","key","f","16.667889908256775","720","401","f","true","nonmatch","img/circle.png","五边","圆形","ALT1_2","prac_ALT1_2","","","","","","","","","","","",""
"null","<span style='color:GreenYellow; font-size: 70px;'>正确! </span>","null","html-keyboard-response","150","416084","0.0-7.0-1.0-1.1-0.1-1.69","3","3","3","3","3","3","3","1","3","3","4","3","2","4","4","4","4","4","4","4","2","2","2","2","2","1","2","2","1","1","0","0","1","0","0","1","1","0","1","1","0","1","0","1","4","3","4","4","5","3","2","2","3","4","2","763061574482268161","许","551","","","","","","","","","","","","","","","","","","","","","","","","","","","","","","feedback_test","","","","","","","","","","","",""
"996","","j","psychophysics","151","418082","0.0-7.0-1.0-1.1-0.1-0.70","3","3","3","3","3","3","3","1","3","3","4","3","2","4","4","4","4","4","4","4","2","2","2","2","2","1","2","2","1","1","0","0","1","0","0","1","1","0","1","1","0","1","0","1","4","3","4","4","5","3","2","2","3","4","2","763061574482268161","许","551","","","","match","","","","","","","","","","","","","","key","j","16.6672268907565","720","401","j","true","match","img/pentagon.png","五边","五边","ALT1_2","prac_ALT1_2","","","","","","","","","","","",""
"null","<span style='color:GreenYellow; font-size: 70px;'>正确! </span>","null","html-keyboard-response","152","418583","0.0-7.0-1.0-1.1-0.1-1.70","3","3","3","3","3","3","3","1","3","3","4","3","2","4","4","4","4","4","4","4","2","2","2","2","2","1","2","2","1","1","0","0","1","0","0","1","1","0","1","1","0","1","0","1","4","3","4","4","5","3","2","2","3","4","2","763061574482268161","许","551","","","","","","","","","","","","","","","","","","","","","","","","","","","","","","feedback_test","","","","","","","","","","","",""
"867","","f","psychophysics","153","420452","0.0-7.0-1.0-1.1-0.1-0.71","3","3","3","3","3","3","3","1","3","3","4","3","2","4","4","4","4","4","4","4","2","2","2","2","2","1","2","2","1","1","0","0","1","0","0","1","1","0","1","1","0","1","0","1","4","3","4","4","5","3","2","2","3","4","2","763061574482268161","许","551","","","","nonmatch","","","","","","","","","","","","","","key","f","16.66576576576545","720","401","f","true","nonmatch","img/pentagon.png","圆形","五边","ALT1_2","prac_ALT1_2","","","","","","","","","","","",""
"null","<span style='color:GreenYellow; font-size: 70px;'>正确! </span>","null","html-keyboard-response","154","420953","0.0-7.0-1.0-1.1-0.1-1.71","3","3","3","3","3","3","3","1","3","3","4","3","2","4","4","4","4","4","4","4","2","2","2","2","2","1","2","2","1","1","0","0","1","0","0","1","1","0","1","1","0","1","0","1","4","3","4","4","5","3","2","2","3","4","2","763061574482268161","许","551","","","","","","","","","","","","","","","","","","","","","","","","","","","","","","feedback_test","","","","","","","","","","","",""
"874","","j","psychophysics","155","422832","0.0-7.0-1.0-1.1-0.1-0.72","3","3","3","3","3","3","3","1","3","3","4","3","2","4","4","4","4","4","4","4","2","2","2","2","2","1","2","2","1","1","0","0","1","0","0","1","1","0","1","1","0","1","0","1","4","3","4","4","5","3","2","2","3","4","2","763061574482268161","许","551","","","","match","","","","","","","","","","","","","","key","j","16.66696428571439","720","401","f","false","nonmatch","img/circle.png","梯形","圆形","ALT1_2","prac_ALT1_2","","","","","","","","","","","",""
"null","<span style='color:red; font-size: 70px;'>错误! </span>","null","html-keyboard-response","156","423334","0.0-7.0-1.0-1.1-0.1-1.72","3","3","3","3","3","3","3","1","3","3","4","3","2","4","4","4","4","4","4","4","2","2","2","2","2","1","2","2","1","1","0","0","1","0","0","1","1","0","1","1","0","1","0","1","4","3","4","4","5","3","2","2","3","4","2","763061574482268161","许","551","","","","","","","","","","","","","","","","","","","","","","","","","","","","","","feedback_test","","","","","","","","","","","",""
"1153","","j","psychophysics","157","425489","0.0-7.0-1.0-1.1-0.1-0.73","3","3","3","3","3","3","3","1","3","3","4","3","2","4","4","4","4","4","4","4","2","2","2","2","2","1","2","2","1","1","0","0","1","0","0","1","1","0","1","1","0","1","0","1","4","3","4","4","5","3","2","2","3","4","2","763061574482268161","许","551","","","","match","","","","","","","","","","","","","","key","j","16.667187499999727","720","401","j","true","match","img/trapezoid.png","梯形","梯形","ALT1_2","prac_ALT1_2","","","","","","","","","","","",""
"null","<span style='color:GreenYellow; font-size: 70px;'>正确! </span>","null","html-keyboard-response","158","425991","0.0-7.0-1.0-1.1-0.1-1.73","3","3","3","3","3","3","3","1","3","3","4","3","2","4","4","4","4","4","4","4","2","2","2","2","2","1","2","2","1","1","0","0","1","0","0","1","1","0","1","1","0","1","0","1","4","3","4","4","5","3","2","2","3","4","2","763061574482268161","许","551","","","","","","","","","","","","","","","","","","","","","","","","","","","","","","feedback_test","","","","","","","","","","","",""
"1001","","j","psychophysics","159","427993","0.0-7.0-1.0-1.1-0.1-0.74","3","3","3","3","3","3","3","1","3","3","4","3","2","4","4","4","4","4","4","4","2","2","2","2","2","1","2","2","1","1","0","0","1","0","0","1","1","0","1","1","0","1","0","1","4","3","4","4","5","3","2","2","3","4","2","763061574482268161","许","551","","","","match","","","","","","","","","","","","","","key","j","16.668067226890756","720","401","j","true","match","img/square.png","方形","方形","ALT1_2","prac_ALT1_2","","","","","","","","","","","",""
"null","<span style='color:GreenYellow; font-size: 70px;'>正确! </span>","null","html-keyboard-response","160","428496","0.0-7.0-1.0-1.1-0.1-1.74","3","3","3","3","3","3","3","1","3","3","4","3","2","4","4","4","4","4","4","4","2","2","2","2","2","1","2","2","1","1","0","0","1","0","0","1","1","0","1","1","0","1","0","1","4","3","4","4","5","3","2","2","3","4","2","763061574482268161","许","551","","","","","","","","","","","","","","","","","","","","","","","","","","","","","","feedback_test","","","","","","","","","","","",""
"773","","j","psychophysics","161","430272","0.0-7.0-1.0-1.1-0.1-0.75","3","3","3","3","3","3","3","1","3","3","4","3","2","4","4","4","4","4","4","4","2","2","2","2","2","1","2","2","1","1","0","0","1","0","0","1","1","0","1","1","0","1","0","1","4","3","4","4","5","3","2","2","3","4","2","763061574482268161","许","551","","","","match","","","","","","","","","","","","","","key","j","16.666666666666668","720","401","f","false","nonmatch","img/trapezoid.png","圆形","梯形","ALT1_2","prac_ALT1_2","","","","","","","","","","","",""
"null","<span style='color:red; font-size: 70px;'>错误! </span>","null","html-keyboard-response","162","430774","0.0-7.0-1.0-1.1-0.1-1.75","3","3","3","3","3","3","3","1","3","3","4","3","2","4","4","4","4","4","4","4","2","2","2","2","2","1","2","2","1","1","0","0","1","0","0","1","1","0","1","1","0","1","0","1","4","3","4","4","5","3","2","2","3","4","2","763061574482268161","许","551","","","","","","","","","","","","","","","","","","","","","","","","","","","","","","feedback_test","","","","","","","","","","","",""
"1077","","j","psychophysics","163","432853","0.0-7.0-1.0-1.1-0.1-0.76","3","3","3","3","3","3","3","1","3","3","4","3","2","4","4","4","4","4","4","4","2","2","2","2","2","1","2","2","1","1","0","0","1","0","0","1","1","0","1","1","0","1","0","1","4","3","4","4","5","3","2","2","3","4","2","763061574482268161","许","551","","","","match","","","","","","","","","","","","","","key","j","16.666666666666668","720","401","f","false","nonmatch","img/pentagon.png","方形","五边","ALT1_2","prac_ALT1_2","","","","","","","","","","","",""
"null","<span style='color:red; font-size: 70px;'>错误! </span>","null","html-keyboard-response","164","433355","0.0-7.0-1.0-1.1-0.1-1.76","3","3","3","3","3","3","3","1","3","3","4","3","2","4","4","4","4","4","4","4","2","2","2","2","2","1","2","2","1","1","0","0","1","0","0","1","1","0","1","1","0","1","0","1","4","3","4","4","5","3","2","2","3","4","2","763061574482268161","许","551","","","","","","","","","","","","","","","","","","","","","","","","","","","","","","feedback_test","","","","","","","","","","","",""
"null","","null","psychophysics","165","435565","0.0-7.0-1.0-1.1-0.1-0.77","3","3","3","3","3","3","3","1","3","3","4","3","2","4","4","4","4","4","4","4","2","2","2","2","2","1","2","2","1","1","0","0","1","0","0","1","1","0","1","1","0","1","0","1","4","3","4","4","5","3","2","2","3","4","2","763061574482268161","许","551","","","","null","","","","","","","","","","","","","","key","null","16.667424242424065","720","401","j","false","match","img/square.png","方形","方形","ALT1_2","prac_ALT1_2","","","","","","","","","","","",""
"null","<span class='add_' style='color:yellow; font-size: 70px;'> 太慢! </span>","null","html-keyboard-response","166","436067","0.0-7.0-1.0-1.1-0.1-1.77","3","3","3","3","3","3","3","1","3","3","4","3","2","4","4","4","4","4","4","4","2","2","2","2","2","1","2","2","1","1","0","0","1","0","0","1","1","0","1","1","0","1","0","1","4","3","4","4","5","3","2","2","3","4","2","763061574482268161","许","551","","","","","","","","","","","","","","","","","","","","","","","","","","","","","","feedback_test","","","","","","","","","","","",""
"857","","j","psychophysics","167","437927","0.0-7.0-1.0-1.1-0.1-0.78","3","3","3","3","3","3","3","1","3","3","4","3","2","4","4","4","4","4","4","4","2","2","2","2","2","1","2","2","1","1","0","0","1","0","0","1","1","0","1","1","0","1","0","1","4","3","4","4","5","3","2","2","3","4","2","763061574482268161","许","551","","","","match","","","","","","","","","","","","","","key","j","16.666666666666668","720","401","j","true","match","img/circle.png","圆形","圆形","ALT1_2","prac_ALT1_2","","","","","","","","","","","",""
"null","<span style='color:GreenYellow; font-size: 70px;'>正确! </span>","null","html-keyboard-response","168","438431","0.0-7.0-1.0-1.1-0.1-1.78","3","3","3","3","3","3","3","1","3","3","4","3","2","4","4","4","4","4","4","4","2","2","2","2","2","1","2","2","1","1","0","0","1","0","0","1","1","0","1","1","0","1","0","1","4","3","4","4","5","3","2","2","3","4","2","763061574482268161","许","551","","","","","","","","","","","","","","","","","","","","","","","","","","","","","","feedback_test","","","","","","","","","","","",""
"null","","null","psychophysics","169","440641","0.0-7.0-1.0-1.1-0.1-0.79","3","3","3","3","3","3","3","1","3","3","4","3","2","4","4","4","4","4","4","4","2","2","2","2","2","1","2","2","1","1","0","0","1","0","0","1","1","0","1","1","0","1","0","1","4","3","4","4","5","3","2","2","3","4","2","763061574482268161","许","551","","","","null","","","","","","","","","","","","","","key","null","16.665648854961475","720","401","f","false","nonmatch","img/trapezoid.png","五边","梯形","ALT1_2","prac_ALT1_2","","","","","","","","","","","",""
"null","<span class='add_' style='color:yellow; font-size: 70px;'> 太慢! </span>","null","html-keyboard-response","170","441143","0.0-7.0-1.0-1.1-0.1-1.79","3","3","3","3","3","3","3","1","3","3","4","3","2","4","4","4","4","4","4","4","2","2","2","2","2","1","2","2","1","1","0","0","1","0","0","1","1","0","1","1","0","1","0","1","4","3","4","4","5","3","2","2","3","4","2","763061574482268161","许","551","","","","","","","","","","","","","","","","","","","","","","","","","","","","","","feedback_test","","","","","","","","","","","",""
"912","","j","psychophysics","171","443056","0.0-7.0-1.0-1.1-0.1-0.80","3","3","3","3","3","3","3","1","3","3","4","3","2","4","4","4","4","4","4","4","2","2","2","2","2","1","2","2","1","1","0","0","1","0","0","1","1","0","1","1","0","1","0","1","4","3","4","4","5","3","2","2","3","4","2","763061574482268161","许","551","","","","match","","","","","","","","","","","","","","key","j","16.667256637168347","720","401","f","false","nonmatch","img/square.png","梯形","方形","ALT1_2","prac_ALT1_2","","","","","","","","","","","",""
"null","<span style='color:red; font-size: 70px;'>错误! </span>","null","html-keyboard-response","172","443558","0.0-7.0-1.0-1.1-0.1-1.80","3","3","3","3","3","3","3","1","3","3","4","3","2","4","4","4","4","4","4","4","2","2","2","2","2","1","2","2","1","1","0","0","1","0","0","1","1","0","1","1","0","1","0","1","4","3","4","4","5","3","2","2","3","4","2","763061574482268161","许","551","","","","","","","","","","","","","","","","","","","","","","","","","","","","","","feedback_test","","","","","","","","","","","",""
"1122","","j","psychophysics","173","445683","0.0-7.0-1.0-1.1-0.1-0.81","3","3","3","3","3","3","3","1","3","3","4","3","2","4","4","4","4","4","4","4","2","2","2","2","2","1","2","2","1","1","0","0","1","0","0","1","1","0","1","1","0","1","0","1","4","3","4","4","5","3","2","2","3","4","2","763061574482268161","许","551","","","","match","","","","","","","","","","","","","","key","j","16.664285714285807","720","401","j","true","match","img/pentagon.png","五边","五边","ALT1_2","prac_ALT1_2","","","","","","","","","","","",""
"null","<span style='color:GreenYellow; font-size: 70px;'>正确! </span>","null","html-keyboard-response","174","446184","0.0-7.0-1.0-1.1-0.1-1.81","3","3","3","3","3","3","3","1","3","3","4","3","2","4","4","4","4","4","4","4","2","2","2","2","2","1","2","2","1","1","0","0","1","0","0","1","1","0","1","1","0","1","0","1","4","3","4","4","5","3","2","2","3","4","2","763061574482268161","许","551","","","","","","","","","","","","","","","","","","","","","","","","","","","","","","feedback_test","","","","","","","","","","","",""
"1020","","j","psychophysics","175","448206","0.0-7.0-1.0-1.1-0.1-0.82","3","3","3","3","3","3","3","1","3","3","4","3","2","4","4","4","4","4","4","4","2","2","2","2","2","1","2","2","1","1","0","0","1","0","0","1","1","0","1","1","0","1","0","1","4","3","4","4","5","3","2","2","3","4","2","763061574482268161","许","551","","","","match","","","","","","","","","","","","","","key","j","16.667499999999805","720","401","j","true","match","img/pentagon.png","五边","五边","ALT1_2","prac_ALT1_2","","","","","","","","","","","",""
"null","<span style='color:GreenYellow; font-size: 70px;'>正确! </span>","null","html-keyboard-response","176","448709","0.0-7.0-1.0-1.1-0.1-1.82","3","3","3","3","3","3","3","1","3","3","4","3","2","4","4","4","4","4","4","4","2","2","2","2","2","1","2","2","1","1","0","0","1","0","0","1","1","0","1","1","0","1","0","1","4","3","4","4","5","3","2","2","3","4","2","763061574482268161","许","551","","","","","","","","","","","","","","","","","","","","","","","","","","","","","","feedback_test","","","","","","","","","","","",""
"902","","f","psychophysics","177","450615","0.0-7.0-1.0-1.1-0.1-0.83","3","3","3","3","3","3","3","1","3","3","4","3","2","4","4","4","4","4","4","4","2","2","2","2","2","1","2","2","1","1","0","0","1","0","0","1","1","0","1","1","0","1","0","1","4","3","4","4","5","3","2","2","3","4","2","763061574482268161","许","551","","","","nonmatch","","","","","","","","","","","","","","key","f","16.66548672566382","720","401","f","true","nonmatch","img/pentagon.png","梯形","五边","ALT1_2","prac_ALT1_2","","","","","","","","","","","",""
"null","<span style='color:GreenYellow; font-size: 70px;'>正确! </span>","null","html-keyboard-response","178","451118","0.0-7.0-1.0-1.1-0.1-1.83","3","3","3","3","3","3","3","1","3","3","4","3","2","4","4","4","4","4","4","4","2","2","2","2","2","1","2","2","1","1","0","0","1","0","0","1","1","0","1","1","0","1","0","1","4","3","4","4","5","3","2","2","3","4","2","763061574482268161","许","551","","","","","","","","","","","","","","","","","","","","","","","","","","","","","","feedback_test","","","","","","","","","","","",""
"954","","j","psychophysics","179","453074","0.0-7.0-1.0-1.1-0.1-0.84","3","3","3","3","3","3","3","1","3","3","4","3","2","4","4","4","4","4","4","4","2","2","2","2","2","1","2","2","1","1","0","0","1","0","0","1","1","0","1","1","0","1","0","1","4","3","4","4","5","3","2","2","3","4","2","763061574482268161","许","551","","","","match","","","","","","","","","","","","","","key","j","16.667241379310546","720","401","j","true","match","img/pentagon.png","五边","五边","ALT1_2","prac_ALT1_2","","","","","","","","","","","",""
"null","<span style='color:GreenYellow; font-size: 70px;'>正确! </span>","null","html-keyboard-response","180","453575","0.0-7.0-1.0-1.1-0.1-1.84","3","3","3","3","3","3","3","1","3","3","4","3","2","4","4","4","4","4","4","4","2","2","2","2","2","1","2","2","1","1","0","0","1","0","0","1","1","0","1","1","0","1","0","1","4","3","4","4","5","3","2","2","3","4","2","763061574482268161","许","551","","","","","","","","","","","","","","","","","","","","","","","","","","","","","","feedback_test","","","","","","","","","","","",""
"1137","","f","psychophysics","181","455714","0.0-7.0-1.0-1.1-0.1-0.85","3","3","3","3","3","3","3","1","3","3","4","3","2","4","4","4","4","4","4","4","2","2","2","2","2","1","2","2","1","1","0","0","1","0","0","1","1","0","1","1","0","1","0","1","4","3","4","4","5","3","2","2","3","4","2","763061574482268161","许","551","","","","nonmatch","","","","","","","","","","","","","","key","f","16.66614173228374","720","401","f","true","nonmatch","img/square.png","圆形","方形","ALT1_2","prac_ALT1_2","","","","","","","","","","","",""
