"rt","stimulus","response","trial_type","trial_index","time_elapsed","internal_node_id","swb_1","swb_2","swb_3","swb_4","swb_5","LOT_1","LOT_2","LOT_3","LOT_4","LOT_5","LOT_6","IPC_1","IPC_2","IPC_3","IPC_4","IPC_5","IPC_6","IPC_7","IPC_8","MorIden_1","MorIden_2","MorIden_3","MorIden_4","MorIden_5","MorIden_6","MorIden_7","MorIden_8","MorIden_9","MorIden_10","moralSeImag_1","moralSeImag_2","moralSeImag_3","moralSeImag_4","moralSeImag_5","moralSeImag_6","moralSeImag_7","moralSeImag_8","moralSeImag_9","sde_1","sde_2","sde_3","sde_4","sde_5","sde_6","sde_7","sde_8","sde_9","sde_10","sde_11","sde_12","sde_13","sde_14","sde_15","sde_16","sde_17","sde_18","sde_19","sde_20","IM_1","IM_2","IM_3","IM_4","IM_5","IM_6","IM_7","IM_8","IM_9","IM_10","IM_11","IM_12","IM_13","IM_14","IM_15","IM_16","IM_17","IM_18","IM_19","IM_20","subj_idx","friend_name","Sex","Word","Word2","value","success","timeout","failed_images","failed_audio","failed_video","user_agent","responses","item_order","radio_event_ids","radio_event_times","key_event_times","mouse_event_times","straightlining","zigzagging","honeypot","view_history","response_type","key_press","avg_frame_time","center_x","center_y","correct_response","correct","identity","Image","word","condition","task_id","screen_id","time_stamp","person","valence","domain","math","status","duration","question_order"
"31171","
   <p><div style='color:white; font-size: 25px'>您好，欢迎参加本次实验。</div></p>
   <p><div style='color:white; font-size: 25px'>为充分保障您的权利，请确保您已经知晓并同意《参与实验同意书》以及《数据公开知情同意书》。</div></p>
   <p><div style='color:white; font-size: 25px'>如果您未见过上述内容，请咨询实验员。</div></p>
   <p style='color:white; font-size: 25px'>如果您选择继续实验，则表示您已经清楚两份知情同意书的内容并同意。</p>
   <p> <div style = ""color: green""><按空格键至下页></div> </p>
   "," ","html-keyboard-response","0","31173","0.0-0.0","6","7","5","7","4","2","1","4","4","4","4","1","1","2","1","2","0","2","1","5","5","5","5","5","3","4","4","5","5","7","5","8","7","8","9","7","8","9","7","5","3","6","6","1","7","5","7","3","4","3","2","6","4","5","5","2","3","3","3","3","5","6","2","7","7","5","3","7","3","5","6","6","2","3","3","3","3","6","636207774144921600","常","Female","[""好我"",""坏我"",""好她"",""坏她""]","[""强我"",""弱我"",""强她"",""弱她""]","","","","","","","","","","","","","","","","","","","","","","","","","","","","","","","","","","","","","",""
"","","","call-function","1","31174","0.0-1.0-0.0","6","7","5","7","4","2","1","4","4","4","4","1","1","2","1","2","0","2","1","5","5","5","5","5","3","4","4","5","5","7","5","8","7","8","9","7","8","9","7","5","3","6","6","1","7","5","7","3","4","3","2","6","4","5","5","2","3","3","3","3","5","6","2","7","7","5","3","7","3","5","6","6","2","3","3","3","3","6","636207774144921600","常","Female","[""好我"",""坏我"",""好她"",""坏她""]","[""强我"",""弱我"",""强她"",""弱她""]","","","","","","","","","","","","","","","","","","","","","","","","","","","","","","","","","","","","","",""
"13133","","[{""name"":""Sex"",""value"":""1""},{""name"":""friend_name"",""value"":""常""}]","survey-html-form","2","44307","0.0-1.0-1.0","6","7","5","7","4","2","1","4","4","4","4","1","1","2","1","2","0","2","1","5","5","5","5","5","3","4","4","5","5","7","5","8","7","8","9","7","8","9","7","5","3","6","6","1","7","5","7","3","4","3","2","6","4","5","5","2","3","3","3","3","5","6","2","7","7","5","3","7","3","5","6","6","2","3","3","3","3","6","636207774144921600","常","Female","[""好我"",""坏我"",""好她"",""坏她""]","[""强我"",""弱我"",""强她"",""弱她""]","","","","","","","","","","","","","","","","","","","","","","","","","","","","","","","","","","","","","",""
"","","","preload","3","44660","0.0-2.0","6","7","5","7","4","2","1","4","4","4","4","1","1","2","1","2","0","2","1","5","5","5","5","5","3","4","4","5","5","7","5","8","7","8","9","7","8","9","7","5","3","6","6","1","7","5","7","3","4","3","2","6","4","5","5","2","3","3","3","3","5","6","2","7","7","5","3","7","3","5","6","6","2","3","3","3","3","6","636207774144921600","常","Female","[""好我"",""坏我"",""好她"",""坏她""]","[""强我"",""弱我"",""强她"",""弱她""]","","true","false","[]","[]","[]","","","","","","","","","","","","","","","","","","","","","","","","","","","","","","","",""
"","","","fullscreen","4","51009","0.0-3.0","6","7","5","7","4","2","1","4","4","4","4","1","1","2","1","2","0","2","1","5","5","5","5","5","3","4","4","5","5","7","5","8","7","8","9","7","8","9","7","5","3","6","6","1","7","5","7","3","4","3","2","6","4","5","5","2","3","3","3","3","5","6","2","7","7","5","3","7","3","5","6","6","2","3","3","3","3","6","636207774144921600","常","Female","[""好我"",""坏我"",""好她"",""坏她""]","[""强我"",""弱我"",""强她"",""弱她""]","","true","","","","","{}","","","","","","","","","","","","","","","","","","","","","","","","","","","","","","",""
"54845.200000047684","","{""Q01"":""6"",""Q02"":""7"",""Q03"":""5"",""Q04"":""7"",""Q05"":""4""}","survey-template","5","105856","0.0-4.0","6","7","5","7","4","2","1","4","4","4","4","1","1","2","1","2","0","2","1","5","5","5","5","5","3","4","4","5","5","7","5","8","7","8","9","7","8","9","7","5","3","6","6","1","7","5","7","3","4","3","2","6","4","5","5","2","3","3","3","3","5","6","2","7","7","5","3","7","3","5","6","6","2","3","3","3","3","6","636207774144921600","常","Female","[""好我"",""坏我"",""好她"",""坏她""]","[""强我"",""弱我"",""强她"",""弱她""]","","","","","","","","{""Q01"":""6"",""Q02"":""7"",""Q03"":""5"",""Q04"":""7"",""Q05"":""4""}","[0,1,2,3,4]","[""Q01"",""Q02"",""Q03"",""Q04"",""Q05""]","[13812,19406.10000014305,43097.90000009537,45912.300000190735,53299]","[]","[13812,19406.10000014305,43097.90000009537,45912.300000190735,53299,54844.300000190735]","0.4","0.25","0","","","","","","","","","","","","","","","","","","","","","",""
"23713","","{""Q01"":""2"",""Q02"":""1"",""Q03"":""4"",""Q04"":""4"",""Q05"":""4"",""Q06"":""4""}","survey-template","6","129572","0.0-5.0","6","7","5","7","4","2","1","4","4","4","4","1","1","2","1","2","0","2","1","5","5","5","5","5","3","4","4","5","5","7","5","8","7","8","9","7","8","9","7","5","3","6","6","1","7","5","7","3","4","3","2","6","4","5","5","2","3","3","3","3","5","6","2","7","7","5","3","7","3","5","6","6","2","3","3","3","3","6","636207774144921600","常","Female","[""好我"",""坏我"",""好她"",""坏她""]","[""强我"",""弱我"",""强她"",""弱她""]","","","","","","","","{""Q01"":""2"",""Q02"":""1"",""Q03"":""4"",""Q04"":""4"",""Q05"":""4"",""Q06"":""4""}","[0,1,2,3,4,5]","[""Q01"",""Q02"",""Q03"",""Q04"",""Q05"",""Q06""]","[5463.400000095367,8636.799999952316,12476,18372.5,20727.599999904633,22887.5]","[]","[5463.400000095367,8636.799999952316,12476,18372.5,20727.599999904633,22887.5,23712.400000095367]","0.5","0.2","0","","","","","","","","","","","","","","","","","","","","","",""
"39808.199999809265","","{""Q01"":""1"",""Q02"":""1"",""Q03"":""2"",""Q04"":""1"",""Q05"":""2"",""Q06"":""0"",""Q07"":""2"",""Q08"":""1""}","survey-template","7","169382","0.0-6.0","6","7","5","7","4","2","1","4","4","4","4","1","1","2","1","2","0","2","1","5","5","5","5","5","3","4","4","5","5","7","5","8","7","8","9","7","8","9","7","5","3","6","6","1","7","5","7","3","4","3","2","6","4","5","5","2","3","3","3","3","5","6","2","7","7","5","3","7","3","5","6","6","2","3","3","3","3","6","636207774144921600","常","Female","[""好我"",""坏我"",""好她"",""坏她""]","[""强我"",""弱我"",""强她"",""弱她""]","","","","","","","","{""Q01"":""1"",""Q02"":""1"",""Q03"":""2"",""Q04"":""1"",""Q05"":""2"",""Q06"":""0"",""Q07"":""2"",""Q08"":""1""}","[0,1,2,3,4,5,6,7]","[""Q01"",""Q02"",""Q03"",""Q04"",""Q05"",""Q06"",""Q07"",""Q08""]","[3720.899999856949,5884.399999856949,13246,20771.799999952316,24455.299999952316,27304.89999985695,36583.299999952316,39011.799999952316]","[]","[3720.899999856949,5884.399999856949,13246,20771.799999952316,24455.299999952316,27304.89999985695,36583.299999952316,39011.799999952316,39807.299999952316]","0.5","0.5714285714285714","0","","","","","","","","","","","","","","","","","","","","","",""
"16634","","","instructions","8","186018","0.0-7.0","6","7","5","7","4","2","1","4","4","4","4","1","1","2","1","2","0","2","1","5","5","5","5","5","3","4","4","5","5","7","5","8","7","8","9","7","8","9","7","5","3","6","6","1","7","5","7","3","4","3","2","6","4","5","5","2","3","3","3","3","5","6","2","7","7","5","3","7","3","5","6","6","2","3","3","3","3","6","636207774144921600","常","Female","[""好我"",""坏我"",""好她"",""坏她""]","[""强我"",""弱我"",""强她"",""弱她""]","","","","","","","","","","","","","","","","","[{""page_index"":0,""viewing_time"":16634}]","","","","","","","","","","","","","","","","","","","","",""
"164381","","","instructions","9","350400","0.0-8.0-1.0-0.0","6","7","5","7","4","2","1","4","4","4","4","1","1","2","1","2","0","2","1","5","5","5","5","5","3","4","4","5","5","7","5","8","7","8","9","7","8","9","7","5","3","6","6","1","7","5","7","3","4","3","2","6","4","5","5","2","3","3","3","3","5","6","2","7","7","5","3","7","3","5","6","6","2","3","3","3","3","6","636207774144921600","常","Female","[""好我"",""坏我"",""好她"",""坏她""]","[""强我"",""弱我"",""强她"",""弱她""]","","","","","","","","","","","","","","","","","[{""page_index"":0,""viewing_time"":109165},{""page_index"":1,""viewing_time"":40201},{""page_index"":2,""viewing_time"":13388},{""page_index"":3,""viewing_time"":1627}]","","","","","","","","","","","","","","","","","","","","",""
"895","","j","psychophysics","10","352298","0.0-8.0-1.0-1.0-0.0-0.0","6","7","5","7","4","2","1","4","4","4","4","1","1","2","1","2","0","2","1","5","5","5","5","5","3","4","4","5","5","7","5","8","7","8","9","7","8","9","7","5","3","6","6","1","7","5","7","3","4","3","2","6","4","5","5","2","3","3","3","3","5","6","2","7","7","5","3","7","3","5","6","6","2","3","3","3","3","6","636207774144921600","常","Female","[""好我"",""坏我"",""好她"",""坏她""]","[""强我"",""弱我"",""强她"",""弱她""]","","","","","","","","nonmatch","","","","","","","","","","key","j","4.166579646017687","853.3333333333334","476","j","true","nonmatch","img/pentagon.png","强我","弱她","prac_ALT2_ability","practice_ability","","","","","","","",""
"null","<span style='color:GreenYellow; font-size: 70px;'>正确! </span>","null","html-keyboard-response","11","352799","0.0-8.0-1.0-1.0-0.0-1.0","6","7","5","7","4","2","1","4","4","4","4","1","1","2","1","2","0","2","1","5","5","5","5","5","3","4","4","5","5","7","5","8","7","8","9","7","8","9","7","5","3","6","6","1","7","5","7","3","4","3","2","6","4","5","5","2","3","3","3","3","5","6","2","7","7","5","3","7","3","5","6","6","2","3","3","3","3","6","636207774144921600","常","Female","[""好我"",""坏我"",""好她"",""坏她""]","[""强我"",""弱我"",""强她"",""弱她""]","","","","","","","","","","","","","","","","","","","","","","","","","","","","","","feedback_test","","","","","","","",""
"920","","j","psychophysics","12","354720","0.0-8.0-1.0-1.0-0.0-0.1","6","7","5","7","4","2","1","4","4","4","4","1","1","2","1","2","0","2","1","5","5","5","5","5","3","4","4","5","5","7","5","8","7","8","9","7","8","9","7","5","3","6","6","1","7","5","7","3","4","3","2","6","4","5","5","2","3","3","3","3","5","6","2","7","7","5","3","7","3","5","6","6","2","3","3","3","3","6","636207774144921600","常","Female","[""好我"",""坏我"",""好她"",""坏她""]","[""强我"",""弱我"",""强她"",""弱她""]","","","","","","","","nonmatch","","","","","","","","","","key","j","4.17199344978163","853.3333333333334","476","j","true","nonmatch","img/trapezoid.png","弱她","弱我","prac_ALT2_ability","practice_ability","","","","","","","",""
"null","<span style='color:GreenYellow; font-size: 70px;'>正确! </span>","null","html-keyboard-response","13","355221","0.0-8.0-1.0-1.0-0.0-1.1","6","7","5","7","4","2","1","4","4","4","4","1","1","2","1","2","0","2","1","5","5","5","5","5","3","4","4","5","5","7","5","8","7","8","9","7","8","9","7","5","3","6","6","1","7","5","7","3","4","3","2","6","4","5","5","2","3","3","3","3","5","6","2","7","7","5","3","7","3","5","6","6","2","3","3","3","3","6","636207774144921600","常","Female","[""好我"",""坏我"",""好她"",""坏她""]","[""强我"",""弱我"",""强她"",""弱她""]","","","","","","","","","","","","","","","","","","","","","","","","","","","","","","feedback_test","","","","","","","",""
"1165","","j","psychophysics","14","357387","0.0-8.0-1.0-1.0-0.0-0.2","6","7","5","7","4","2","1","4","4","4","4","1","1","2","1","2","0","2","1","5","5","5","5","5","3","4","4","5","5","7","5","8","7","8","9","7","8","9","7","5","3","6","6","1","7","5","7","3","4","3","2","6","4","5","5","2","3","3","3","3","5","6","2","7","7","5","3","7","3","5","6","6","2","3","3","3","3","6","636207774144921600","常","Female","[""好我"",""坏我"",""好她"",""坏她""]","[""强我"",""弱我"",""强她"",""弱她""]","","","","","","","","nonmatch","","","","","","","","","","key","j","4.166583011582971","853.3333333333334","476","j","true","nonmatch","img/diamond.png","弱她","强我","prac_ALT2_ability","practice_ability","","","","","","","",""
"null","<span style='color:GreenYellow; font-size: 70px;'>正确! </span>","null","html-keyboard-response","15","357889","0.0-8.0-1.0-1.0-0.0-1.2","6","7","5","7","4","2","1","4","4","4","4","1","1","2","1","2","0","2","1","5","5","5","5","5","3","4","4","5","5","7","5","8","7","8","9","7","8","9","7","5","3","6","6","1","7","5","7","3","4","3","2","6","4","5","5","2","3","3","3","3","5","6","2","7","7","5","3","7","3","5","6","6","2","3","3","3","3","6","636207774144921600","常","Female","[""好我"",""坏我"",""好她"",""坏她""]","[""强我"",""弱我"",""强她"",""弱她""]","","","","","","","","","","","","","","","","","","","","","","","","","","","","","","feedback_test","","","","","","","",""
"804","","f","psychophysics","16","359695","0.0-8.0-1.0-1.0-0.0-0.3","6","7","5","7","4","2","1","4","4","4","4","1","1","2","1","2","0","2","1","5","5","5","5","5","3","4","4","5","5","7","5","8","7","8","9","7","8","9","7","5","3","6","6","1","7","5","7","3","4","3","2","6","4","5","5","2","3","3","3","3","5","6","2","7","7","5","3","7","3","5","6","6","2","3","3","3","3","6","636207774144921600","常","Female","[""好我"",""坏我"",""好她"",""坏她""]","[""强我"",""弱我"",""强她"",""弱她""]","","","","","","","","match","","","","","","","","","","key","f","4.166576388888912","853.3333333333334","476","j","false","nonmatch","img/trapezoid.png","强她","弱我","prac_ALT2_ability","practice_ability","","","","","","","",""
"null","<span style='color:red; font-size: 70px;'>错误! </span>","null","html-keyboard-response","17","360196","0.0-8.0-1.0-1.0-0.0-1.3","6","7","5","7","4","2","1","4","4","4","4","1","1","2","1","2","0","2","1","5","5","5","5","5","3","4","4","5","5","7","5","8","7","8","9","7","8","9","7","5","3","6","6","1","7","5","7","3","4","3","2","6","4","5","5","2","3","3","3","3","5","6","2","7","7","5","3","7","3","5","6","6","2","3","3","3","3","6","636207774144921600","常","Female","[""好我"",""坏我"",""好她"",""坏她""]","[""强我"",""弱我"",""强她"",""弱她""]","","","","","","","","","","","","","","","","","","","","","","","","","","","","","","feedback_test","","","","","","","",""
"792","","f","psychophysics","18","361989","0.0-8.0-1.0-1.0-0.0-0.4","6","7","5","7","4","2","1","4","4","4","4","1","1","2","1","2","0","2","1","5","5","5","5","5","3","4","4","5","5","7","5","8","7","8","9","7","8","9","7","5","3","6","6","1","7","5","7","3","4","3","2","6","4","5","5","2","3","3","3","3","5","6","2","7","7","5","3","7","3","5","6","6","2","3","3","3","3","6","636207774144921600","常","Female","[""好我"",""坏我"",""好她"",""坏她""]","[""强我"",""弱我"",""强她"",""弱她""]","","","","","","","","match","","","","","","","","","","key","f","4.176266355140142","853.3333333333334","476","f","true","match","img/diamond.png","强我","强我","prac_ALT2_ability","practice_ability","","","","","","","",""
"null","<span style='color:GreenYellow; font-size: 70px;'>正确! </span>","null","html-keyboard-response","19","362490","0.0-8.0-1.0-1.0-0.0-1.4","6","7","5","7","4","2","1","4","4","4","4","1","1","2","1","2","0","2","1","5","5","5","5","5","3","4","4","5","5","7","5","8","7","8","9","7","8","9","7","5","3","6","6","1","7","5","7","3","4","3","2","6","4","5","5","2","3","3","3","3","5","6","2","7","7","5","3","7","3","5","6","6","2","3","3","3","3","6","636207774144921600","常","Female","[""好我"",""坏我"",""好她"",""坏她""]","[""强我"",""弱我"",""强她"",""弱她""]","","","","","","","","","","","","","","","","","","","","","","","","","","","","","","feedback_test","","","","","","","",""
"685","","f","psychophysics","20","364176","0.0-8.0-1.0-1.0-0.0-0.5","6","7","5","7","4","2","1","4","4","4","4","1","1","2","1","2","0","2","1","5","5","5","5","5","3","4","4","5","5","7","5","8","7","8","9","7","8","9","7","5","3","6","6","1","7","5","7","3","4","3","2","6","4","5","5","2","3","3","3","3","5","6","2","7","7","5","3","7","3","5","6","6","2","3","3","3","3","6","636207774144921600","常","Female","[""好我"",""坏我"",""好她"",""坏她""]","[""强我"",""弱我"",""强她"",""弱她""]","","","","","","","","match","","","","","","","","","","key","f","4.166478908188478","853.3333333333334","476","f","true","match","img/trapezoid.png","弱我","弱我","prac_ALT2_ability","practice_ability","","","","","","","",""
"null","<span style='color:GreenYellow; font-size: 70px;'>正确! </span>","null","html-keyboard-response","21","364677","0.0-8.0-1.0-1.0-0.0-1.5","6","7","5","7","4","2","1","4","4","4","4","1","1","2","1","2","0","2","1","5","5","5","5","5","3","4","4","5","5","7","5","8","7","8","9","7","8","9","7","5","3","6","6","1","7","5","7","3","4","3","2","6","4","5","5","2","3","3","3","3","5","6","2","7","7","5","3","7","3","5","6","6","2","3","3","3","3","6","636207774144921600","常","Female","[""好我"",""坏我"",""好她"",""坏她""]","[""强我"",""弱我"",""强她"",""弱她""]","","","","","","","","","","","","","","","","","","","","","","","","","","","","","","feedback_test","","","","","","","",""
"844","","f","psychophysics","22","366523","0.0-8.0-1.0-1.0-0.0-0.6","6","7","5","7","4","2","1","4","4","4","4","1","1","2","1","2","0","2","1","5","5","5","5","5","3","4","4","5","5","7","5","8","7","8","9","7","8","9","7","5","3","6","6","1","7","5","7","3","4","3","2","6","4","5","5","2","3","3","3","3","5","6","2","7","7","5","3","7","3","5","6","6","2","3","3","3","3","6","636207774144921600","常","Female","[""好我"",""坏我"",""好她"",""坏她""]","[""强我"",""弱我"",""强她"",""弱她""]","","","","","","","","match","","","","","","","","","","key","f","4.166546485260739","853.3333333333334","476","f","true","match","img/ellipse.png","强她","强她","prac_ALT2_ability","practice_ability","","","","","","","",""
"null","<span style='color:GreenYellow; font-size: 70px;'>正确! </span>","null","html-keyboard-response","23","367024","0.0-8.0-1.0-1.0-0.0-1.6","6","7","5","7","4","2","1","4","4","4","4","1","1","2","1","2","0","2","1","5","5","5","5","5","3","4","4","5","5","7","5","8","7","8","9","7","8","9","7","5","3","6","6","1","7","5","7","3","4","3","2","6","4","5","5","2","3","3","3","3","5","6","2","7","7","5","3","7","3","5","6","6","2","3","3","3","3","6","636207774144921600","常","Female","[""好我"",""坏我"",""好她"",""坏她""]","[""强我"",""弱我"",""强她"",""弱她""]","","","","","","","","","","","","","","","","","","","","","","","","","","","","","","feedback_test","","","","","","","",""
"null","","null","psychophysics","24","369232","0.0-8.0-1.0-1.0-0.0-0.7","6","7","5","7","4","2","1","4","4","4","4","1","1","2","1","2","0","2","1","5","5","5","5","5","3","4","4","5","5","7","5","8","7","8","9","7","8","9","7","5","3","6","6","1","7","5","7","3","4","3","2","6","4","5","5","2","3","3","3","3","5","6","2","7","7","5","3","7","3","5","6","6","2","3","3","3","3","6","636207774144921600","常","Female","[""好我"",""坏我"",""好她"",""坏她""]","[""强我"",""弱我"",""强她"",""弱她""]","","","","","","","","null","","","","","","","","","","key","null","4.163316287878843","853.3333333333334","476","f","false","match","img/trapezoid.png","弱我","弱我","prac_ALT2_ability","practice_ability","","","","","","","",""
"null","<span class='add_' style='color:yellow; font-size: 70px;'> 太慢! </span>","null","html-keyboard-response","25","369734","0.0-8.0-1.0-1.0-0.0-1.7","6","7","5","7","4","2","1","4","4","4","4","1","1","2","1","2","0","2","1","5","5","5","5","5","3","4","4","5","5","7","5","8","7","8","9","7","8","9","7","5","3","6","6","1","7","5","7","3","4","3","2","6","4","5","5","2","3","3","3","3","5","6","2","7","7","5","3","7","3","5","6","6","2","3","3","3","3","6","636207774144921600","常","Female","[""好我"",""坏我"",""好她"",""坏她""]","[""强我"",""弱我"",""强她"",""弱她""]","","","","","","","","","","","","","","","","","","","","","","","","","","","","","","feedback_test","","","","","","","",""
"703","","f","psychophysics","26","371437","0.0-8.0-1.0-1.0-0.0-0.8","6","7","5","7","4","2","1","4","4","4","4","1","1","2","1","2","0","2","1","5","5","5","5","5","3","4","4","5","5","7","5","8","7","8","9","7","8","9","7","5","3","6","6","1","7","5","7","3","4","3","2","6","4","5","5","2","3","3","3","3","5","6","2","7","7","5","3","7","3","5","6","6","2","3","3","3","3","6","636207774144921600","常","Female","[""好我"",""坏我"",""好她"",""坏她""]","[""强我"",""弱我"",""强她"",""弱她""]","","","","","","","","match","","","","","","","","","","key","f","4.166540540540557","853.3333333333334","476","f","true","match","img/diamond.png","强我","强我","prac_ALT2_ability","practice_ability","","","","","","","",""
"null","<span style='color:GreenYellow; font-size: 70px;'>正确! </span>","null","html-keyboard-response","27","371938","0.0-8.0-1.0-1.0-0.0-1.8","6","7","5","7","4","2","1","4","4","4","4","1","1","2","1","2","0","2","1","5","5","5","5","5","3","4","4","5","5","7","5","8","7","8","9","7","8","9","7","5","3","6","6","1","7","5","7","3","4","3","2","6","4","5","5","2","3","3","3","3","5","6","2","7","7","5","3","7","3","5","6","6","2","3","3","3","3","6","636207774144921600","常","Female","[""好我"",""坏我"",""好她"",""坏她""]","[""强我"",""弱我"",""强她"",""弱她""]","","","","","","","","","","","","","","","","","","","","","","","","","","","","","","feedback_test","","","","","","","",""
"841","","f","psychophysics","28","373781","0.0-8.0-1.0-1.0-0.0-0.9","6","7","5","7","4","2","1","4","4","4","4","1","1","2","1","2","0","2","1","5","5","5","5","5","3","4","4","5","5","7","5","8","7","8","9","7","8","9","7","5","3","6","6","1","7","5","7","3","4","3","2","6","4","5","5","2","3","3","3","3","5","6","2","7","7","5","3","7","3","5","6","6","2","3","3","3","3","6","636207774144921600","常","Female","[""好我"",""坏我"",""好她"",""坏她""]","[""强我"",""弱我"",""强她"",""弱她""]","","","","","","","","match","","","","","","","","","","key","f","4.166622727272757","853.3333333333334","476","f","true","match","img/pentagon.png","弱她","弱她","prac_ALT2_ability","practice_ability","","","","","","","",""
"null","<span style='color:GreenYellow; font-size: 70px;'>正确! </span>","null","html-keyboard-response","29","374282","0.0-8.0-1.0-1.0-0.0-1.9","6","7","5","7","4","2","1","4","4","4","4","1","1","2","1","2","0","2","1","5","5","5","5","5","3","4","4","5","5","7","5","8","7","8","9","7","8","9","7","5","3","6","6","1","7","5","7","3","4","3","2","6","4","5","5","2","3","3","3","3","5","6","2","7","7","5","3","7","3","5","6","6","2","3","3","3","3","6","636207774144921600","常","Female","[""好我"",""坏我"",""好她"",""坏她""]","[""强我"",""弱我"",""强她"",""弱她""]","","","","","","","","","","","","","","","","","","","","","","","","","","","","","","feedback_test","","","","","","","",""
"796","","j","psychophysics","30","376079","0.0-8.0-1.0-1.0-0.0-0.10","6","7","5","7","4","2","1","4","4","4","4","1","1","2","1","2","0","2","1","5","5","5","5","5","3","4","4","5","5","7","5","8","7","8","9","7","8","9","7","5","3","6","6","1","7","5","7","3","4","3","2","6","4","5","5","2","3","3","3","3","5","6","2","7","7","5","3","7","3","5","6","6","2","3","3","3","3","6","636207774144921600","常","Female","[""好我"",""坏我"",""好她"",""坏她""]","[""强我"",""弱我"",""强她"",""弱她""]","","","","","","","","nonmatch","","","","","","","","","","key","j","4.166586046511589","853.3333333333334","476","j","true","nonmatch","img/pentagon.png","弱我","弱她","prac_ALT2_ability","practice_ability","","","","","","","",""
"null","<span style='color:GreenYellow; font-size: 70px;'>正确! </span>","null","html-keyboard-response","31","376580","0.0-8.0-1.0-1.0-0.0-1.10","6","7","5","7","4","2","1","4","4","4","4","1","1","2","1","2","0","2","1","5","5","5","5","5","3","4","4","5","5","7","5","8","7","8","9","7","8","9","7","5","3","6","6","1","7","5","7","3","4","3","2","6","4","5","5","2","3","3","3","3","5","6","2","7","7","5","3","7","3","5","6","6","2","3","3","3","3","6","636207774144921600","常","Female","[""好我"",""坏我"",""好她"",""坏她""]","[""强我"",""弱我"",""强她"",""弱她""]","","","","","","","","","","","","","","","","","","","","","","","","","","","","","","feedback_test","","","","","","","",""
"954","","j","psychophysics","32","378535","0.0-8.0-1.0-1.0-0.0-0.11","6","7","5","7","4","2","1","4","4","4","4","1","1","2","1","2","0","2","1","5","5","5","5","5","3","4","4","5","5","7","5","8","7","8","9","7","8","9","7","5","3","6","6","1","7","5","7","3","4","3","2","6","4","5","5","2","3","3","3","3","5","6","2","7","7","5","3","7","3","5","6","6","2","3","3","3","3","6","636207774144921600","常","Female","[""好我"",""坏我"",""好她"",""坏她""]","[""强我"",""弱我"",""强她"",""弱她""]","","","","","","","","nonmatch","","","","","","","","","","key","j","4.16644539614557","853.3333333333334","476","j","true","nonmatch","img/ellipse.png","强我","强她","prac_ALT2_ability","practice_ability","","","","","","","",""
"null","<span style='color:GreenYellow; font-size: 70px;'>正确! </span>","null","html-keyboard-response","33","379035","0.0-8.0-1.0-1.0-0.0-1.11","6","7","5","7","4","2","1","4","4","4","4","1","1","2","1","2","0","2","1","5","5","5","5","5","3","4","4","5","5","7","5","8","7","8","9","7","8","9","7","5","3","6","6","1","7","5","7","3","4","3","2","6","4","5","5","2","3","3","3","3","5","6","2","7","7","5","3","7","3","5","6","6","2","3","3","3","3","6","636207774144921600","常","Female","[""好我"",""坏我"",""好她"",""坏她""]","[""强我"",""弱我"",""强她"",""弱她""]","","","","","","","","","","","","","","","","","","","","","","","","","","","","","","feedback_test","","","","","","","",""
"911","","f","psychophysics","34","380947","0.0-8.0-1.0-1.0-0.0-0.12","6","7","5","7","4","2","1","4","4","4","4","1","1","2","1","2","0","2","1","5","5","5","5","5","3","4","4","5","5","7","5","8","7","8","9","7","8","9","7","5","3","6","6","1","7","5","7","3","4","3","2","6","4","5","5","2","3","3","3","3","5","6","2","7","7","5","3","7","3","5","6","6","2","3","3","3","3","6","636207774144921600","常","Female","[""好我"",""坏我"",""好她"",""坏她""]","[""强我"",""弱我"",""强她"",""弱她""]","","","","","","","","match","","","","","","","","","","key","f","4.166553610503262","853.3333333333334","476","f","true","match","img/trapezoid.png","弱我","弱我","prac_ALT2_ability","practice_ability","","","","","","","",""
"null","<span style='color:GreenYellow; font-size: 70px;'>正确! </span>","null","html-keyboard-response","35","381449","0.0-8.0-1.0-1.0-0.0-1.12","6","7","5","7","4","2","1","4","4","4","4","1","1","2","1","2","0","2","1","5","5","5","5","5","3","4","4","5","5","7","5","8","7","8","9","7","8","9","7","5","3","6","6","1","7","5","7","3","4","3","2","6","4","5","5","2","3","3","3","3","5","6","2","7","7","5","3","7","3","5","6","6","2","3","3","3","3","6","636207774144921600","常","Female","[""好我"",""坏我"",""好她"",""坏她""]","[""强我"",""弱我"",""强她"",""弱她""]","","","","","","","","","","","","","","","","","","","","","","","","","","","","","","feedback_test","","","","","","","",""
"717","","f","psychophysics","36","383167","0.0-8.0-1.0-1.0-0.0-0.13","6","7","5","7","4","2","1","4","4","4","4","1","1","2","1","2","0","2","1","5","5","5","5","5","3","4","4","5","5","7","5","8","7","8","9","7","8","9","7","5","3","6","6","1","7","5","7","3","4","3","2","6","4","5","5","2","3","3","3","3","5","6","2","7","7","5","3","7","3","5","6","6","2","3","3","3","3","6","636207774144921600","常","Female","[""好我"",""坏我"",""好她"",""坏她""]","[""强我"",""弱我"",""强她"",""弱她""]","","","","","","","","match","","","","","","","","","","key","f","4.162712895377129","853.3333333333334","476","f","true","match","img/diamond.png","强我","强我","prac_ALT2_ability","practice_ability","","","","","","","",""
"null","<span style='color:GreenYellow; font-size: 70px;'>正确! </span>","null","html-keyboard-response","37","383668","0.0-8.0-1.0-1.0-0.0-1.13","6","7","5","7","4","2","1","4","4","4","4","1","1","2","1","2","0","2","1","5","5","5","5","5","3","4","4","5","5","7","5","8","7","8","9","7","8","9","7","5","3","6","6","1","7","5","7","3","4","3","2","6","4","5","5","2","3","3","3","3","5","6","2","7","7","5","3","7","3","5","6","6","2","3","3","3","3","6","636207774144921600","常","Female","[""好我"",""坏我"",""好她"",""坏她""]","[""强我"",""弱我"",""强她"",""弱她""]","","","","","","","","","","","","","","","","","","","","","","","","","","","","","","feedback_test","","","","","","","",""
"863","","f","psychophysics","38","385533","0.0-8.0-1.0-1.0-0.0-0.14","6","7","5","7","4","2","1","4","4","4","4","1","1","2","1","2","0","2","1","5","5","5","5","5","3","4","4","5","5","7","5","8","7","8","9","7","8","9","7","5","3","6","6","1","7","5","7","3","4","3","2","6","4","5","5","2","3","3","3","3","5","6","2","7","7","5","3","7","3","5","6","6","2","3","3","3","3","6","636207774144921600","常","Female","[""好我"",""坏我"",""好她"",""坏她""]","[""强我"",""弱我"",""强她"",""弱她""]","","","","","","","","match","","","","","","","","","","key","f","4.166543820224771","853.3333333333334","476","f","true","match","img/pentagon.png","弱她","弱她","prac_ALT2_ability","practice_ability","","","","","","","",""
"null","<span style='color:GreenYellow; font-size: 70px;'>正确! </span>","null","html-keyboard-response","39","386033","0.0-8.0-1.0-1.0-0.0-1.14","6","7","5","7","4","2","1","4","4","4","4","1","1","2","1","2","0","2","1","5","5","5","5","5","3","4","4","5","5","7","5","8","7","8","9","7","8","9","7","5","3","6","6","1","7","5","7","3","4","3","2","6","4","5","5","2","3","3","3","3","5","6","2","7","7","5","3","7","3","5","6","6","2","3","3","3","3","6","636207774144921600","常","Female","[""好我"",""坏我"",""好她"",""坏她""]","[""强我"",""弱我"",""强她"",""弱她""]","","","","","","","","","","","","","","","","","","","","","","","","","","","","","","feedback_test","","","","","","","",""
"852","","j","psychophysics","40","387886","0.0-8.0-1.0-1.0-0.0-0.15","6","7","5","7","4","2","1","4","4","4","4","1","1","2","1","2","0","2","1","5","5","5","5","5","3","4","4","5","5","7","5","8","7","8","9","7","8","9","7","5","3","6","6","1","7","5","7","3","4","3","2","6","4","5","5","2","3","3","3","3","5","6","2","7","7","5","3","7","3","5","6","6","2","3","3","3","3","6","636207774144921600","常","Female","[""好我"",""坏我"",""好她"",""坏她""]","[""强我"",""弱我"",""强她"",""弱她""]","","","","","","","","nonmatch","","","","","","","","","","key","j","4.1665101580136","853.3333333333334","476","j","true","nonmatch","img/diamond.png","弱我","强我","prac_ALT2_ability","practice_ability","","","","","","","",""
"null","<span style='color:GreenYellow; font-size: 70px;'>正确! </span>","null","html-keyboard-response","41","388387","0.0-8.0-1.0-1.0-0.0-1.15","6","7","5","7","4","2","1","4","4","4","4","1","1","2","1","2","0","2","1","5","5","5","5","5","3","4","4","5","5","7","5","8","7","8","9","7","8","9","7","5","3","6","6","1","7","5","7","3","4","3","2","6","4","5","5","2","3","3","3","3","5","6","2","7","7","5","3","7","3","5","6","6","2","3","3","3","3","6","636207774144921600","常","Female","[""好我"",""坏我"",""好她"",""坏她""]","[""强我"",""弱我"",""强她"",""弱她""]","","","","","","","","","","","","","","","","","","","","","","","","","","","","","","feedback_test","","","","","","","",""
"1041","","f","psychophysics","42","390429","0.0-8.0-1.0-1.0-0.0-0.16","6","7","5","7","4","2","1","4","4","4","4","1","1","2","1","2","0","2","1","5","5","5","5","5","3","4","4","5","5","7","5","8","7","8","9","7","8","9","7","5","3","6","6","1","7","5","7","3","4","3","2","6","4","5","5","2","3","3","3","3","5","6","2","7","7","5","3","7","3","5","6","6","2","3","3","3","3","6","636207774144921600","常","Female","[""好我"",""坏我"",""好她"",""坏她""]","[""强我"",""弱我"",""强她"",""弱她""]","","","","","","","","match","","","","","","","","","","key","f","4.166487704918001","853.3333333333334","476","j","false","nonmatch","img/ellipse.png","弱她","强她","prac_ALT2_ability","practice_ability","","","","","","","",""
"null","<span style='color:red; font-size: 70px;'>错误! </span>","null","html-keyboard-response","43","390930","0.0-8.0-1.0-1.0-0.0-1.16","6","7","5","7","4","2","1","4","4","4","4","1","1","2","1","2","0","2","1","5","5","5","5","5","3","4","4","5","5","7","5","8","7","8","9","7","8","9","7","5","3","6","6","1","7","5","7","3","4","3","2","6","4","5","5","2","3","3","3","3","5","6","2","7","7","5","3","7","3","5","6","6","2","3","3","3","3","6","636207774144921600","常","Female","[""好我"",""坏我"",""好她"",""坏她""]","[""强我"",""弱我"",""强她"",""弱她""]","","","","","","","","","","","","","","","","","","","","","","","","","","","","","","feedback_test","","","","","","","",""
"1027","","j","psychophysics","44","392960","0.0-8.0-1.0-1.0-0.0-0.17","6","7","5","7","4","2","1","4","4","4","4","1","1","2","1","2","0","2","1","5","5","5","5","5","3","4","4","5","5","7","5","8","7","8","9","7","8","9","7","5","3","6","6","1","7","5","7","3","4","3","2","6","4","5","5","2","3","3","3","3","5","6","2","7","7","5","3","7","3","5","6","6","2","3","3","3","3","6","636207774144921600","常","Female","[""好我"",""坏我"",""好她"",""坏她""]","[""强我"",""弱我"",""强她"",""弱她""]","","","","","","","","nonmatch","","","","","","","","","","key","j","4.166564948453698","853.3333333333334","476","j","true","nonmatch","img/pentagon.png","强她","弱她","prac_ALT2_ability","practice_ability","","","","","","","",""
"null","<span style='color:GreenYellow; font-size: 70px;'>正确! </span>","null","html-keyboard-response","45","393461","0.0-8.0-1.0-1.0-0.0-1.17","6","7","5","7","4","2","1","4","4","4","4","1","1","2","1","2","0","2","1","5","5","5","5","5","3","4","4","5","5","7","5","8","7","8","9","7","8","9","7","5","3","6","6","1","7","5","7","3","4","3","2","6","4","5","5","2","3","3","3","3","5","6","2","7","7","5","3","7","3","5","6","6","2","3","3","3","3","6","636207774144921600","常","Female","[""好我"",""坏我"",""好她"",""坏她""]","[""强我"",""弱我"",""强她"",""弱她""]","","","","","","","","","","","","","","","","","","","","","","","","","","","","","","feedback_test","","","","","","","",""
"886","","f","psychophysics","46","395348","0.0-8.0-1.0-1.0-0.0-0.18","6","7","5","7","4","2","1","4","4","4","4","1","1","2","1","2","0","2","1","5","5","5","5","5","3","4","4","5","5","7","5","8","7","8","9","7","8","9","7","5","3","6","6","1","7","5","7","3","4","3","2","6","4","5","5","2","3","3","3","3","5","6","2","7","7","5","3","7","3","5","6","6","2","3","3","3","3","6","636207774144921600","常","Female","[""好我"",""坏我"",""好她"",""坏她""]","[""强我"",""弱我"",""强她"",""弱她""]","","","","","","","","match","","","","","","","","","","key","f","4.162889135254964","853.3333333333334","476","f","true","match","img/pentagon.png","弱她","弱她","prac_ALT2_ability","practice_ability","","","","","","","",""
"null","<span style='color:GreenYellow; font-size: 70px;'>正确! </span>","null","html-keyboard-response","47","395862","0.0-8.0-1.0-1.0-0.0-1.18","6","7","5","7","4","2","1","4","4","4","4","1","1","2","1","2","0","2","1","5","5","5","5","5","3","4","4","5","5","7","5","8","7","8","9","7","8","9","7","5","3","6","6","1","7","5","7","3","4","3","2","6","4","5","5","2","3","3","3","3","5","6","2","7","7","5","3","7","3","5","6","6","2","3","3","3","3","6","636207774144921600","常","Female","[""好我"",""坏我"",""好她"",""坏她""]","[""强我"",""弱我"",""强她"",""弱她""]","","","","","","","","","","","","","","","","","","","","","","","","","","","","","","feedback_test","","","","","","","",""
"857","","j","psychophysics","48","397721","0.0-8.0-1.0-1.0-0.0-0.19","6","7","5","7","4","2","1","4","4","4","4","1","1","2","1","2","0","2","1","5","5","5","5","5","3","4","4","5","5","7","5","8","7","8","9","7","8","9","7","5","3","6","6","1","7","5","7","3","4","3","2","6","4","5","5","2","3","3","3","3","5","6","2","7","7","5","3","7","3","5","6","6","2","3","3","3","3","6","636207774144921600","常","Female","[""好我"",""坏我"",""好她"",""坏她""]","[""强我"",""弱我"",""强她"",""弱她""]","","","","","","","","nonmatch","","","","","","","","","","key","j","4.166545045045036","853.3333333333334","476","j","true","nonmatch","img/ellipse.png","弱我","强她","prac_ALT2_ability","practice_ability","","","","","","","",""
"null","<span style='color:GreenYellow; font-size: 70px;'>正确! </span>","null","html-keyboard-response","49","398222","0.0-8.0-1.0-1.0-0.0-1.19","6","7","5","7","4","2","1","4","4","4","4","1","1","2","1","2","0","2","1","5","5","5","5","5","3","4","4","5","5","7","5","8","7","8","9","7","8","9","7","5","3","6","6","1","7","5","7","3","4","3","2","6","4","5","5","2","3","3","3","3","5","6","2","7","7","5","3","7","3","5","6","6","2","3","3","3","3","6","636207774144921600","常","Female","[""好我"",""坏我"",""好她"",""坏她""]","[""强我"",""弱我"",""强她"",""弱她""]","","","","","","","","","","","","","","","","","","","","","","","","","","","","","","feedback_test","","","","","","","",""
"1164","","j","psychophysics","50","400387","0.0-8.0-1.0-1.0-0.0-0.20","6","7","5","7","4","2","1","4","4","4","4","1","1","2","1","2","0","2","1","5","5","5","5","5","3","4","4","5","5","7","5","8","7","8","9","7","8","9","7","5","3","6","6","1","7","5","7","3","4","3","2","6","4","5","5","2","3","3","3","3","5","6","2","7","7","5","3","7","3","5","6","6","2","3","3","3","3","6","636207774144921600","常","Female","[""好我"",""坏我"",""好她"",""坏她""]","[""强我"",""弱我"",""强她"",""弱她""]","","","","","","","","nonmatch","","","","","","","","","","key","j","4.166567567567467","853.3333333333334","476","j","true","nonmatch","img/diamond.png","强她","强我","prac_ALT2_ability","practice_ability","","","","","","","",""
"null","<span style='color:GreenYellow; font-size: 70px;'>正确! </span>","null","html-keyboard-response","51","400889","0.0-8.0-1.0-1.0-0.0-1.20","6","7","5","7","4","2","1","4","4","4","4","1","1","2","1","2","0","2","1","5","5","5","5","5","3","4","4","5","5","7","5","8","7","8","9","7","8","9","7","5","3","6","6","1","7","5","7","3","4","3","2","6","4","5","5","2","3","3","3","3","5","6","2","7","7","5","3","7","3","5","6","6","2","3","3","3","3","6","636207774144921600","常","Female","[""好我"",""坏我"",""好她"",""坏她""]","[""强我"",""弱我"",""强她"",""弱她""]","","","","","","","","","","","","","","","","","","","","","","","","","","","","","","feedback_test","","","","","","","",""
"667","","j","psychophysics","52","402556","0.0-8.0-1.0-1.0-0.0-0.21","6","7","5","7","4","2","1","4","4","4","4","1","1","2","1","2","0","2","1","5","5","5","5","5","3","4","4","5","5","7","5","8","7","8","9","7","8","9","7","5","3","6","6","1","7","5","7","3","4","3","2","6","4","5","5","2","3","3","3","3","5","6","2","7","7","5","3","7","3","5","6","6","2","3","3","3","3","6","636207774144921600","常","Female","[""好我"",""坏我"",""好她"",""坏她""]","[""强我"",""弱我"",""强她"",""弱她""]","","","","","","","","nonmatch","","","","","","","","","","key","j","4.166482412060325","853.3333333333334","476","f","false","match","img/ellipse.png","强她","强她","prac_ALT2_ability","practice_ability","","","","","","","",""
"null","<span style='color:red; font-size: 70px;'>错误! </span>","null","html-keyboard-response","53","403057","0.0-8.0-1.0-1.0-0.0-1.21","6","7","5","7","4","2","1","4","4","4","4","1","1","2","1","2","0","2","1","5","5","5","5","5","3","4","4","5","5","7","5","8","7","8","9","7","8","9","7","5","3","6","6","1","7","5","7","3","4","3","2","6","4","5","5","2","3","3","3","3","5","6","2","7","7","5","3","7","3","5","6","6","2","3","3","3","3","6","636207774144921600","常","Female","[""好我"",""坏我"",""好她"",""坏她""]","[""强我"",""弱我"",""强她"",""弱她""]","","","","","","","","","","","","","","","","","","","","","","","","","","","","","","feedback_test","","","","","","","",""
"866","","j","psychophysics","54","404924","0.0-8.0-1.0-1.0-0.0-0.22","6","7","5","7","4","2","1","4","4","4","4","1","1","2","1","2","0","2","1","5","5","5","5","5","3","4","4","5","5","7","5","8","7","8","9","7","8","9","7","5","3","6","6","1","7","5","7","3","4","3","2","6","4","5","5","2","3","3","3","3","5","6","2","7","7","5","3","7","3","5","6","6","2","3","3","3","3","6","636207774144921600","常","Female","[""好我"",""坏我"",""好她"",""坏她""]","[""强我"",""弱我"",""强她"",""弱她""]","","","","","","","","nonmatch","","","","","","","","","","key","j","4.164136771300485","853.3333333333334","476","j","true","nonmatch","img/trapezoid.png","强我","弱我","prac_ALT2_ability","practice_ability","","","","","","","",""
"null","<span style='color:GreenYellow; font-size: 70px;'>正确! </span>","null","html-keyboard-response","55","405425","0.0-8.0-1.0-1.0-0.0-1.22","6","7","5","7","4","2","1","4","4","4","4","1","1","2","1","2","0","2","1","5","5","5","5","5","3","4","4","5","5","7","5","8","7","8","9","7","8","9","7","5","3","6","6","1","7","5","7","3","4","3","2","6","4","5","5","2","3","3","3","3","5","6","2","7","7","5","3","7","3","5","6","6","2","3","3","3","3","6","636207774144921600","常","Female","[""好我"",""坏我"",""好她"",""坏她""]","[""强我"",""弱我"",""强她"",""弱她""]","","","","","","","","","","","","","","","","","","","","","","","","","","","","","","feedback_test","","","","","","","",""
"606","","f","psychophysics","56","407033","0.0-8.0-1.0-1.0-0.0-0.23","6","7","5","7","4","2","1","4","4","4","4","1","1","2","1","2","0","2","1","5","5","5","5","5","3","4","4","5","5","7","5","8","7","8","9","7","8","9","7","5","3","6","6","1","7","5","7","3","4","3","2","6","4","5","5","2","3","3","3","3","5","6","2","7","7","5","3","7","3","5","6","6","2","3","3","3","3","6","636207774144921600","常","Female","[""好我"",""坏我"",""好她"",""坏她""]","[""强我"",""弱我"",""强她"",""弱她""]","","","","","","","","match","","","","","","","","","","key","f","4.166472584856449","853.3333333333334","476","f","true","match","img/ellipse.png","强她","强她","prac_ALT2_ability","practice_ability","","","","","","","",""
"null","<span style='color:GreenYellow; font-size: 70px;'>正确! </span>","null","html-keyboard-response","57","407534","0.0-8.0-1.0-1.0-0.0-1.23","6","7","5","7","4","2","1","4","4","4","4","1","1","2","1","2","0","2","1","5","5","5","5","5","3","4","4","5","5","7","5","8","7","8","9","7","8","9","7","5","3","6","6","1","7","5","7","3","4","3","2","6","4","5","5","2","3","3","3","3","5","6","2","7","7","5","3","7","3","5","6","6","2","3","3","3","3","6","636207774144921600","常","Female","[""好我"",""坏我"",""好她"",""坏她""]","[""强我"",""弱我"",""强她"",""弱她""]","","","","","","","","","","","","","","","","","","","","","","","","","","","","","","feedback_test","","","","","","","",""
"974","","j","psychophysics","58","409510","0.0-8.0-1.0-1.0-0.0-0.24","6","7","5","7","4","2","1","4","4","4","4","1","1","2","1","2","0","2","1","5","5","5","5","5","3","4","4","5","5","7","5","8","7","8","9","7","8","9","7","5","3","6","6","1","7","5","7","3","4","3","2","6","4","5","5","2","3","3","3","3","5","6","2","7","7","5","3","7","3","5","6","6","2","3","3","3","3","6","636207774144921600","常","Female","[""好我"",""坏我"",""好她"",""坏她""]","[""强我"",""弱我"",""强她"",""弱她""]","","","","","","","","nonmatch","","","","","","","","","","key","j","4.166444915254187","853.3333333333334","476","j","true","nonmatch","img/diamond.png","弱她","强我","prac_ALT2_ability","practice_ability","","","","","","","",""
"null","<span style='color:GreenYellow; font-size: 70px;'>正确! </span>","null","html-keyboard-response","59","410011","0.0-8.0-1.0-1.0-0.0-1.24","6","7","5","7","4","2","1","4","4","4","4","1","1","2","1","2","0","2","1","5","5","5","5","5","3","4","4","5","5","7","5","8","7","8","9","7","8","9","7","5","3","6","6","1","7","5","7","3","4","3","2","6","4","5","5","2","3","3","3","3","5","6","2","7","7","5","3","7","3","5","6","6","2","3","3","3","3","6","636207774144921600","常","Female","[""好我"",""坏我"",""好她"",""坏她""]","[""强我"",""弱我"",""强她"",""弱她""]","","","","","","","","","","","","","","","","","","","","","","","","","","","","","","feedback_test","","","","","","","",""
"760","","j","psychophysics","60","411772","0.0-8.0-1.0-1.0-0.0-0.25","6","7","5","7","4","2","1","4","4","4","4","1","1","2","1","2","0","2","1","5","5","5","5","5","3","4","4","5","5","7","5","8","7","8","9","7","8","9","7","5","3","6","6","1","7","5","7","3","4","3","2","6","4","5","5","2","3","3","3","3","5","6","2","7","7","5","3","7","3","5","6","6","2","3","3","3","3","6","636207774144921600","常","Female","[""好我"",""坏我"",""好她"",""坏她""]","[""强我"",""弱我"",""强她"",""弱她""]","","","","","","","","nonmatch","","","","","","","","","","key","j","4.166460807600989","853.3333333333334","476","j","true","nonmatch","img/pentagon.png","强我","弱她","prac_ALT2_ability","practice_ability","","","","","","","",""
"null","<span style='color:GreenYellow; font-size: 70px;'>正确! </span>","null","html-keyboard-response","61","412274","0.0-8.0-1.0-1.0-0.0-1.25","6","7","5","7","4","2","1","4","4","4","4","1","1","2","1","2","0","2","1","5","5","5","5","5","3","4","4","5","5","7","5","8","7","8","9","7","8","9","7","5","3","6","6","1","7","5","7","3","4","3","2","6","4","5","5","2","3","3","3","3","5","6","2","7","7","5","3","7","3","5","6","6","2","3","3","3","3","6","636207774144921600","常","Female","[""好我"",""坏我"",""好她"",""坏她""]","[""强我"",""弱我"",""强她"",""弱她""]","","","","","","","","","","","","","","","","","","","","","","","","","","","","","","feedback_test","","","","","","","",""
"687","","f","psychophysics","62","413962","0.0-8.0-1.0-1.0-0.0-0.26","6","7","5","7","4","2","1","4","4","4","4","1","1","2","1","2","0","2","1","5","5","5","5","5","3","4","4","5","5","7","5","8","7","8","9","7","8","9","7","5","3","6","6","1","7","5","7","3","4","3","2","6","4","5","5","2","3","3","3","3","5","6","2","7","7","5","3","7","3","5","6","6","2","3","3","3","3","6","636207774144921600","常","Female","[""好我"",""坏我"",""好她"",""坏她""]","[""强我"",""弱我"",""强她"",""弱她""]","","","","","","","","match","","","","","","","","","","key","f","4.163841191066975","853.3333333333334","476","f","true","match","img/trapezoid.png","弱我","弱我","prac_ALT2_ability","practice_ability","","","","","","","",""
"null","<span style='color:GreenYellow; font-size: 70px;'>正确! </span>","null","html-keyboard-response","63","414462","0.0-8.0-1.0-1.0-0.0-1.26","6","7","5","7","4","2","1","4","4","4","4","1","1","2","1","2","0","2","1","5","5","5","5","5","3","4","4","5","5","7","5","8","7","8","9","7","8","9","7","5","3","6","6","1","7","5","7","3","4","3","2","6","4","5","5","2","3","3","3","3","5","6","2","7","7","5","3","7","3","5","6","6","2","3","3","3","3","6","636207774144921600","常","Female","[""好我"",""坏我"",""好她"",""坏她""]","[""强我"",""弱我"",""强她"",""弱她""]","","","","","","","","","","","","","","","","","","","","","","","","","","","","","","feedback_test","","","","","","","",""
"722","","f","psychophysics","64","416186","0.0-8.0-1.0-1.0-0.0-0.27","6","7","5","7","4","2","1","4","4","4","4","1","1","2","1","2","0","2","1","5","5","5","5","5","3","4","4","5","5","7","5","8","7","8","9","7","8","9","7","5","3","6","6","1","7","5","7","3","4","3","2","6","4","5","5","2","3","3","3","3","5","6","2","7","7","5","3","7","3","5","6","6","2","3","3","3","3","6","636207774144921600","常","Female","[""好我"",""坏我"",""好她"",""坏她""]","[""强我"",""弱我"",""强她"",""弱她""]","","","","","","","","match","","","","","","","","","","key","f","4.16652311435521","853.3333333333334","476","f","true","match","img/ellipse.png","强她","强她","prac_ALT2_ability","practice_ability","","","","","","","",""
"null","<span style='color:GreenYellow; font-size: 70px;'>正确! </span>","null","html-keyboard-response","65","416686","0.0-8.0-1.0-1.0-0.0-1.27","6","7","5","7","4","2","1","4","4","4","4","1","1","2","1","2","0","2","1","5","5","5","5","5","3","4","4","5","5","7","5","8","7","8","9","7","8","9","7","5","3","6","6","1","7","5","7","3","4","3","2","6","4","5","5","2","3","3","3","3","5","6","2","7","7","5","3","7","3","5","6","6","2","3","3","3","3","6","636207774144921600","常","Female","[""好我"",""坏我"",""好她"",""坏她""]","[""强我"",""弱我"",""强她"",""弱她""]","","","","","","","","","","","","","","","","","","","","","","","","","","","","","","feedback_test","","","","","","","",""
"891","","f","psychophysics","66","418578","0.0-8.0-1.0-1.0-0.0-0.28","6","7","5","7","4","2","1","4","4","4","4","1","1","2","1","2","0","2","1","5","5","5","5","5","3","4","4","5","5","7","5","8","7","8","9","7","8","9","7","5","3","6","6","1","7","5","7","3","4","3","2","6","4","5","5","2","3","3","3","3","5","6","2","7","7","5","3","7","3","5","6","6","2","3","3","3","3","6","636207774144921600","常","Female","[""好我"",""坏我"",""好她"",""坏她""]","[""强我"",""弱我"",""强她"",""弱她""]","","","","","","","","match","","","","","","","","","","key","f","4.1664933628318686","853.3333333333334","476","j","false","nonmatch","img/pentagon.png","弱我","弱她","prac_ALT2_ability","practice_ability","","","","","","","",""
"null","<span style='color:red; font-size: 70px;'>错误! </span>","null","html-keyboard-response","67","419080","0.0-8.0-1.0-1.0-0.0-1.28","6","7","5","7","4","2","1","4","4","4","4","1","1","2","1","2","0","2","1","5","5","5","5","5","3","4","4","5","5","7","5","8","7","8","9","7","8","9","7","5","3","6","6","1","7","5","7","3","4","3","2","6","4","5","5","2","3","3","3","3","5","6","2","7","7","5","3","7","3","5","6","6","2","3","3","3","3","6","636207774144921600","常","Female","[""好我"",""坏我"",""好她"",""坏她""]","[""强我"",""弱我"",""强她"",""弱她""]","","","","","","","","","","","","","","","","","","","","","","","","","","","","","","feedback_test","","","","","","","",""
"904","","j","psychophysics","68","420985","0.0-8.0-1.0-1.0-0.0-0.29","6","7","5","7","4","2","1","4","4","4","4","1","1","2","1","2","0","2","1","5","5","5","5","5","3","4","4","5","5","7","5","8","7","8","9","7","8","9","7","5","3","6","6","1","7","5","7","3","4","3","2","6","4","5","5","2","3","3","3","3","5","6","2","7","7","5","3","7","3","5","6","6","2","3","3","3","3","6","636207774144921600","常","Female","[""好我"",""坏我"",""好她"",""坏她""]","[""强我"",""弱我"",""强她"",""弱她""]","","","","","","","","nonmatch","","","","","","","","","","key","j","4.166540659340687","853.3333333333334","476","j","true","nonmatch","img/diamond.png","强她","强我","prac_ALT2_ability","practice_ability","","","","","","","",""
"null","<span style='color:GreenYellow; font-size: 70px;'>正确! </span>","null","html-keyboard-response","69","421486","0.0-8.0-1.0-1.0-0.0-1.29","6","7","5","7","4","2","1","4","4","4","4","1","1","2","1","2","0","2","1","5","5","5","5","5","3","4","4","5","5","7","5","8","7","8","9","7","8","9","7","5","3","6","6","1","7","5","7","3","4","3","2","6","4","5","5","2","3","3","3","3","5","6","2","7","7","5","3","7","3","5","6","6","2","3","3","3","3","6","636207774144921600","常","Female","[""好我"",""坏我"",""好她"",""坏她""]","[""强我"",""弱我"",""强她"",""弱她""]","","","","","","","","","","","","","","","","","","","","","","","","","","","","","","feedback_test","","","","","","","",""
"777","","f","psychophysics","70","423264","0.0-8.0-1.0-1.0-0.0-0.30","6","7","5","7","4","2","1","4","4","4","4","1","1","2","1","2","0","2","1","5","5","5","5","5","3","4","4","5","5","7","5","8","7","8","9","7","8","9","7","5","3","6","6","1","7","5","7","3","4","3","2","6","4","5","5","2","3","3","3","3","5","6","2","7","7","5","3","7","3","5","6","6","2","3","3","3","3","6","636207774144921600","常","Female","[""好我"",""坏我"",""好她"",""坏她""]","[""强我"",""弱我"",""强她"",""弱她""]","","","","","","","","match","","","","","","","","","","key","f","4.166549528301815","853.3333333333334","476","f","true","match","img/trapezoid.png","弱我","弱我","prac_ALT2_ability","practice_ability","","","","","","","",""
"null","<span style='color:GreenYellow; font-size: 70px;'>正确! </span>","null","html-keyboard-response","71","423765","0.0-8.0-1.0-1.0-0.0-1.30","6","7","5","7","4","2","1","4","4","4","4","1","1","2","1","2","0","2","1","5","5","5","5","5","3","4","4","5","5","7","5","8","7","8","9","7","8","9","7","5","3","6","6","1","7","5","7","3","4","3","2","6","4","5","5","2","3","3","3","3","5","6","2","7","7","5","3","7","3","5","6","6","2","3","3","3","3","6","636207774144921600","常","Female","[""好我"",""坏我"",""好她"",""坏她""]","[""强我"",""弱我"",""强她"",""弱她""]","","","","","","","","","","","","","","","","","","","","","","","","","","","","","","feedback_test","","","","","","","",""
"695","","f","psychophysics","72","425461","0.0-8.0-1.0-1.0-0.0-0.31","6","7","5","7","4","2","1","4","4","4","4","1","1","2","1","2","0","2","1","5","5","5","5","5","3","4","4","5","5","7","5","8","7","8","9","7","8","9","7","5","3","6","6","1","7","5","7","3","4","3","2","6","4","5","5","2","3","3","3","3","5","6","2","7","7","5","3","7","3","5","6","6","2","3","3","3","3","6","636207774144921600","常","Female","[""好我"",""坏我"",""好她"",""坏她""]","[""强我"",""弱我"",""强她"",""弱她""]","","","","","","","","match","","","","","","","","","","key","f","4.166503703703724","853.3333333333334","476","f","true","match","img/pentagon.png","弱她","弱她","prac_ALT2_ability","practice_ability","","","","","","","",""
"null","<span style='color:GreenYellow; font-size: 70px;'>正确! </span>","null","html-keyboard-response","73","425962","0.0-8.0-1.0-1.0-0.0-1.31","6","7","5","7","4","2","1","4","4","4","4","1","1","2","1","2","0","2","1","5","5","5","5","5","3","4","4","5","5","7","5","8","7","8","9","7","8","9","7","5","3","6","6","1","7","5","7","3","4","3","2","6","4","5","5","2","3","3","3","3","5","6","2","7","7","5","3","7","3","5","6","6","2","3","3","3","3","6","636207774144921600","常","Female","[""好我"",""坏我"",""好她"",""坏她""]","[""强我"",""弱我"",""强她"",""弱她""]","","","","","","","","","","","","","","","","","","","","","","","","","","","","","","feedback_test","","","","","","","",""
"760","","j","psychophysics","74","427724","0.0-8.0-1.0-1.0-0.0-0.32","6","7","5","7","4","2","1","4","4","4","4","1","1","2","1","2","0","2","1","5","5","5","5","5","3","4","4","5","5","7","5","8","7","8","9","7","8","9","7","5","3","6","6","1","7","5","7","3","4","3","2","6","4","5","5","2","3","3","3","3","5","6","2","7","7","5","3","7","3","5","6","6","2","3","3","3","3","6","636207774144921600","常","Female","[""好我"",""坏我"",""好她"",""坏她""]","[""强我"",""弱我"",""强她"",""弱她""]","","","","","","","","nonmatch","","","","","","","","","","key","j","4.1665023809523385","853.3333333333334","476","j","true","nonmatch","img/trapezoid.png","强我","弱我","prac_ALT2_ability","practice_ability","","","","","","","",""
"null","<span style='color:GreenYellow; font-size: 70px;'>正确! </span>","null","html-keyboard-response","75","428225","0.0-8.0-1.0-1.0-0.0-1.32","6","7","5","7","4","2","1","4","4","4","4","1","1","2","1","2","0","2","1","5","5","5","5","5","3","4","4","5","5","7","5","8","7","8","9","7","8","9","7","5","3","6","6","1","7","5","7","3","4","3","2","6","4","5","5","2","3","3","3","3","5","6","2","7","7","5","3","7","3","5","6","6","2","3","3","3","3","6","636207774144921600","常","Female","[""好我"",""坏我"",""好她"",""坏她""]","[""强我"",""弱我"",""强她"",""弱她""]","","","","","","","","","","","","","","","","","","","","","","","","","","","","","","feedback_test","","","","","","","",""
"721","","j","psychophysics","76","429948","0.0-8.0-1.0-1.0-0.0-0.33","6","7","5","7","4","2","1","4","4","4","4","1","1","2","1","2","0","2","1","5","5","5","5","5","3","4","4","5","5","7","5","8","7","8","9","7","8","9","7","5","3","6","6","1","7","5","7","3","4","3","2","6","4","5","5","2","3","3","3","3","5","6","2","7","7","5","3","7","3","5","6","6","2","3","3","3","3","6","636207774144921600","常","Female","[""好我"",""坏我"",""好她"",""坏她""]","[""强我"",""弱我"",""强她"",""弱她""]","","","","","","","","nonmatch","","","","","","","","","","key","j","4.166486618004954","853.3333333333334","476","j","true","nonmatch","img/ellipse.png","强我","强她","prac_ALT2_ability","practice_ability","","","","","","","",""
"null","<span style='color:GreenYellow; font-size: 70px;'>正确! </span>","null","html-keyboard-response","77","430448","0.0-8.0-1.0-1.0-0.0-1.33","6","7","5","7","4","2","1","4","4","4","4","1","1","2","1","2","0","2","1","5","5","5","5","5","3","4","4","5","5","7","5","8","7","8","9","7","8","9","7","5","3","6","6","1","7","5","7","3","4","3","2","6","4","5","5","2","3","3","3","3","5","6","2","7","7","5","3","7","3","5","6","6","2","3","3","3","3","6","636207774144921600","常","Female","[""好我"",""坏我"",""好她"",""坏她""]","[""强我"",""弱我"",""强她"",""弱她""]","","","","","","","","","","","","","","","","","","","","","","","","","","","","","","feedback_test","","","","","","","",""
"658","","f","psychophysics","78","432107","0.0-8.0-1.0-1.0-0.0-0.34","6","7","5","7","4","2","1","4","4","4","4","1","1","2","1","2","0","2","1","5","5","5","5","5","3","4","4","5","5","7","5","8","7","8","9","7","8","9","7","5","3","6","6","1","7","5","7","3","4","3","2","6","4","5","5","2","3","3","3","3","5","6","2","7","7","5","3","7","3","5","6","6","2","3","3","3","3","6","636207774144921600","常","Female","[""好我"",""坏我"",""好她"",""坏她""]","[""强我"",""弱我"",""强她"",""弱她""]","","","","","","","","match","","","","","","","","","","key","f","4.164217171717242","853.3333333333334","476","j","false","nonmatch","img/diamond.png","弱我","强我","prac_ALT2_ability","practice_ability","","","","","","","",""
"null","<span style='color:red; font-size: 70px;'>错误! </span>","null","html-keyboard-response","79","432608","0.0-8.0-1.0-1.0-0.0-1.34","6","7","5","7","4","2","1","4","4","4","4","1","1","2","1","2","0","2","1","5","5","5","5","5","3","4","4","5","5","7","5","8","7","8","9","7","8","9","7","5","3","6","6","1","7","5","7","3","4","3","2","6","4","5","5","2","3","3","3","3","5","6","2","7","7","5","3","7","3","5","6","6","2","3","3","3","3","6","636207774144921600","常","Female","[""好我"",""坏我"",""好她"",""坏她""]","[""强我"",""弱我"",""强她"",""弱她""]","","","","","","","","","","","","","","","","","","","","","","","","","","","","","","feedback_test","","","","","","","",""
"964","","j","psychophysics","80","434573","0.0-8.0-1.0-1.0-0.0-0.35","6","7","5","7","4","2","1","4","4","4","4","1","1","2","1","2","0","2","1","5","5","5","5","5","3","4","4","5","5","7","5","8","7","8","9","7","8","9","7","5","3","6","6","1","7","5","7","3","4","3","2","6","4","5","5","2","3","3","3","3","5","6","2","7","7","5","3","7","3","5","6","6","2","3","3","3","3","6","636207774144921600","常","Female","[""好我"",""坏我"",""好她"",""坏她""]","[""强我"",""弱我"",""强她"",""弱她""]","","","","","","","","nonmatch","","","","","","","","","","key","j","4.175443496801697","853.3333333333334","476","j","true","nonmatch","img/ellipse.png","弱我","强她","prac_ALT2_ability","practice_ability","","","","","","","",""
"null","<span style='color:GreenYellow; font-size: 70px;'>正确! </span>","null","html-keyboard-response","81","435074","0.0-8.0-1.0-1.0-0.0-1.35","6","7","5","7","4","2","1","4","4","4","4","1","1","2","1","2","0","2","1","5","5","5","5","5","3","4","4","5","5","7","5","8","7","8","9","7","8","9","7","5","3","6","6","1","7","5","7","3","4","3","2","6","4","5","5","2","3","3","3","3","5","6","2","7","7","5","3","7","3","5","6","6","2","3","3","3","3","6","636207774144921600","常","Female","[""好我"",""坏我"",""好她"",""坏她""]","[""强我"",""弱我"",""强她"",""弱她""]","","","","","","","","","","","","","","","","","","","","","","","","","","","","","","feedback_test","","","","","","","",""
"797","","f","psychophysics","82","436873","0.0-8.0-1.0-1.0-0.0-0.36","6","7","5","7","4","2","1","4","4","4","4","1","1","2","1","2","0","2","1","5","5","5","5","5","3","4","4","5","5","7","5","8","7","8","9","7","8","9","7","5","3","6","6","1","7","5","7","3","4","3","2","6","4","5","5","2","3","3","3","3","5","6","2","7","7","5","3","7","3","5","6","6","2","3","3","3","3","6","636207774144921600","常","Female","[""好我"",""坏我"",""好她"",""坏她""]","[""强我"",""弱我"",""强她"",""弱她""]","","","","","","","","match","","","","","","","","","","key","f","4.166557109557062","853.3333333333334","476","f","true","match","img/trapezoid.png","弱我","弱我","prac_ALT2_ability","practice_ability","","","","","","","",""
"null","<span style='color:GreenYellow; font-size: 70px;'>正确! </span>","null","html-keyboard-response","83","437373","0.0-8.0-1.0-1.0-0.0-1.36","6","7","5","7","4","2","1","4","4","4","4","1","1","2","1","2","0","2","1","5","5","5","5","5","3","4","4","5","5","7","5","8","7","8","9","7","8","9","7","5","3","6","6","1","7","5","7","3","4","3","2","6","4","5","5","2","3","3","3","3","5","6","2","7","7","5","3","7","3","5","6","6","2","3","3","3","3","6","636207774144921600","常","Female","[""好我"",""坏我"",""好她"",""坏她""]","[""强我"",""弱我"",""强她"",""弱她""]","","","","","","","","","","","","","","","","","","","","","","","","","","","","","","feedback_test","","","","","","","",""
"1135","","f","psychophysics","84","439509","0.0-8.0-1.0-1.0-0.0-0.37","6","7","5","7","4","2","1","4","4","4","4","1","1","2","1","2","0","2","1","5","5","5","5","5","3","4","4","5","5","7","5","8","7","8","9","7","8","9","7","5","3","6","6","1","7","5","7","3","4","3","2","6","4","5","5","2","3","3","3","3","5","6","2","7","7","5","3","7","3","5","6","6","2","3","3","3","3","6","636207774144921600","常","Female","[""好我"",""坏我"",""好她"",""坏她""]","[""强我"",""弱我"",""强她"",""弱她""]","","","","","","","","match","","","","","","","","","","key","f","4.163305283757382","853.3333333333334","476","f","true","match","img/ellipse.png","强她","强她","prac_ALT2_ability","practice_ability","","","","","","","",""
"null","<span style='color:GreenYellow; font-size: 70px;'>正确! </span>","null","html-keyboard-response","85","440010","0.0-8.0-1.0-1.0-0.0-1.37","6","7","5","7","4","2","1","4","4","4","4","1","1","2","1","2","0","2","1","5","5","5","5","5","3","4","4","5","5","7","5","8","7","8","9","7","8","9","7","5","3","6","6","1","7","5","7","3","4","3","2","6","4","5","5","2","3","3","3","3","5","6","2","7","7","5","3","7","3","5","6","6","2","3","3","3","3","6","636207774144921600","常","Female","[""好我"",""坏我"",""好她"",""坏她""]","[""强我"",""弱我"",""强她"",""弱她""]","","","","","","","","","","","","","","","","","","","","","","","","","","","","","","feedback_test","","","","","","","",""
"759","","f","psychophysics","86","441769","0.0-8.0-1.0-1.0-0.0-0.38","6","7","5","7","4","2","1","4","4","4","4","1","1","2","1","2","0","2","1","5","5","5","5","5","3","4","4","5","5","7","5","8","7","8","9","7","8","9","7","5","3","6","6","1","7","5","7","3","4","3","2","6","4","5","5","2","3","3","3","3","5","6","2","7","7","5","3","7","3","5","6","6","2","3","3","3","3","6","636207774144921600","常","Female","[""好我"",""坏我"",""好她"",""坏她""]","[""强我"",""弱我"",""强她"",""弱她""]","","","","","","","","match","","","","","","","","","","key","f","4.166619047619142","853.3333333333334","476","f","true","match","img/diamond.png","强我","强我","prac_ALT2_ability","practice_ability","","","","","","","",""
"null","<span style='color:GreenYellow; font-size: 70px;'>正确! </span>","null","html-keyboard-response","87","442270","0.0-8.0-1.0-1.0-0.0-1.38","6","7","5","7","4","2","1","4","4","4","4","1","1","2","1","2","0","2","1","5","5","5","5","5","3","4","4","5","5","7","5","8","7","8","9","7","8","9","7","5","3","6","6","1","7","5","7","3","4","3","2","6","4","5","5","2","3","3","3","3","5","6","2","7","7","5","3","7","3","5","6","6","2","3","3","3","3","6","636207774144921600","常","Female","[""好我"",""坏我"",""好她"",""坏她""]","[""强我"",""弱我"",""强她"",""弱她""]","","","","","","","","","","","","","","","","","","","","","","","","","","","","","","feedback_test","","","","","","","",""
"972","","f","psychophysics","88","444244","0.0-8.0-1.0-1.0-0.0-0.39","6","7","5","7","4","2","1","4","4","4","4","1","1","2","1","2","0","2","1","5","5","5","5","5","3","4","4","5","5","7","5","8","7","8","9","7","8","9","7","5","3","6","6","1","7","5","7","3","4","3","2","6","4","5","5","2","3","3","3","3","5","6","2","7","7","5","3","7","3","5","6","6","2","3","3","3","3","6","636207774144921600","常","Female","[""好我"",""坏我"",""好她"",""坏她""]","[""强我"",""弱我"",""强她"",""弱她""]","","","","","","","","match","","","","","","","","","","key","f","4.16647983014852","853.3333333333334","476","f","true","match","img/ellipse.png","强她","强她","prac_ALT2_ability","practice_ability","","","","","","","",""
"null","<span style='color:GreenYellow; font-size: 70px;'>正确! </span>","null","html-keyboard-response","89","444744","0.0-8.0-1.0-1.0-0.0-1.39","6","7","5","7","4","2","1","4","4","4","4","1","1","2","1","2","0","2","1","5","5","5","5","5","3","4","4","5","5","7","5","8","7","8","9","7","8","9","7","5","3","6","6","1","7","5","7","3","4","3","2","6","4","5","5","2","3","3","3","3","5","6","2","7","7","5","3","7","3","5","6","6","2","3","3","3","3","6","636207774144921600","常","Female","[""好我"",""坏我"",""好她"",""坏她""]","[""强我"",""弱我"",""强她"",""弱她""]","","","","","","","","","","","","","","","","","","","","","","","","","","","","","","feedback_test","","","","","","","",""
"820","","j","psychophysics","90","446565","0.0-8.0-1.0-1.0-0.0-0.40","6","7","5","7","4","2","1","4","4","4","4","1","1","2","1","2","0","2","1","5","5","5","5","5","3","4","4","5","5","7","5","8","7","8","9","7","8","9","7","5","3","6","6","1","7","5","7","3","4","3","2","6","4","5","5","2","3","3","3","3","5","6","2","7","7","5","3","7","3","5","6","6","2","3","3","3","3","6","636207774144921600","常","Female","[""好我"",""坏我"",""好她"",""坏她""]","[""强我"",""弱我"",""强她"",""弱她""]","","","","","","","","nonmatch","","","","","","","","","","key","j","4.166519540229989","853.3333333333334","476","j","true","nonmatch","img/ellipse.png","弱她","强她","prac_ALT2_ability","practice_ability","","","","","","","",""
"null","<span style='color:GreenYellow; font-size: 70px;'>正确! </span>","null","html-keyboard-response","91","447066","0.0-8.0-1.0-1.0-0.0-1.40","6","7","5","7","4","2","1","4","4","4","4","1","1","2","1","2","0","2","1","5","5","5","5","5","3","4","4","5","5","7","5","8","7","8","9","7","8","9","7","5","3","6","6","1","7","5","7","3","4","3","2","6","4","5","5","2","3","3","3","3","5","6","2","7","7","5","3","7","3","5","6","6","2","3","3","3","3","6","636207774144921600","常","Female","[""好我"",""坏我"",""好她"",""坏她""]","[""强我"",""弱我"",""强她"",""弱她""]","","","","","","","","","","","","","","","","","","","","","","","","","","","","","","feedback_test","","","","","","","",""
"822","","f","psychophysics","92","448890","0.0-8.0-1.0-1.0-0.0-0.41","6","7","5","7","4","2","1","4","4","4","4","1","1","2","1","2","0","2","1","5","5","5","5","5","3","4","4","5","5","7","5","8","7","8","9","7","8","9","7","5","3","6","6","1","7","5","7","3","4","3","2","6","4","5","5","2","3","3","3","3","5","6","2","7","7","5","3","7","3","5","6","6","2","3","3","3","3","6","636207774144921600","常","Female","[""好我"",""坏我"",""好她"",""坏她""]","[""强我"",""弱我"",""强她"",""弱她""]","","","","","","","","match","","","","","","","","","","key","f","4.1664942528735365","853.3333333333334","476","f","true","match","img/pentagon.png","弱她","弱她","prac_ALT2_ability","practice_ability","","","","","","","",""
"null","<span style='color:GreenYellow; font-size: 70px;'>正确! </span>","null","html-keyboard-response","93","449391","0.0-8.0-1.0-1.0-0.0-1.41","6","7","5","7","4","2","1","4","4","4","4","1","1","2","1","2","0","2","1","5","5","5","5","5","3","4","4","5","5","7","5","8","7","8","9","7","8","9","7","5","3","6","6","1","7","5","7","3","4","3","2","6","4","5","5","2","3","3","3","3","5","6","2","7","7","5","3","7","3","5","6","6","2","3","3","3","3","6","636207774144921600","常","Female","[""好我"",""坏我"",""好她"",""坏她""]","[""强我"",""弱我"",""强她"",""弱她""]","","","","","","","","","","","","","","","","","","","","","","","","","","","","","","feedback_test","","","","","","","",""
"651","","f","psychophysics","94","451044","0.0-8.0-1.0-1.0-0.0-0.42","6","7","5","7","4","2","1","4","4","4","4","1","1","2","1","2","0","2","1","5","5","5","5","5","3","4","4","5","5","7","5","8","7","8","9","7","8","9","7","5","3","6","6","1","7","5","7","3","4","3","2","6","4","5","5","2","3","3","3","3","5","6","2","7","7","5","3","7","3","5","6","6","2","3","3","3","3","6","636207774144921600","常","Female","[""好我"",""坏我"",""好她"",""坏她""]","[""强我"",""弱我"",""强她"",""弱她""]","","","","","","","","match","","","","","","","","","","key","f","4.166530456852823","853.3333333333334","476","f","true","match","img/pentagon.png","弱她","弱她","prac_ALT2_ability","practice_ability","","","","","","","",""
"null","<span style='color:GreenYellow; font-size: 70px;'>正确! </span>","null","html-keyboard-response","95","451545","0.0-8.0-1.0-1.0-0.0-1.42","6","7","5","7","4","2","1","4","4","4","4","1","1","2","1","2","0","2","1","5","5","5","5","5","3","4","4","5","5","7","5","8","7","8","9","7","8","9","7","5","3","6","6","1","7","5","7","3","4","3","2","6","4","5","5","2","3","3","3","3","5","6","2","7","7","5","3","7","3","5","6","6","2","3","3","3","3","6","636207774144921600","常","Female","[""好我"",""坏我"",""好她"",""坏她""]","[""强我"",""弱我"",""强她"",""弱她""]","","","","","","","","","","","","","","","","","","","","","","","","","","","","","","feedback_test","","","","","","","",""
"653","","f","psychophysics","96","453198","0.0-8.0-1.0-1.0-0.0-0.43","6","7","5","7","4","2","1","4","4","4","4","1","1","2","1","2","0","2","1","5","5","5","5","5","3","4","4","5","5","7","5","8","7","8","9","7","8","9","7","5","3","6","6","1","7","5","7","3","4","3","2","6","4","5","5","2","3","3","3","3","5","6","2","7","7","5","3","7","3","5","6","6","2","3","3","3","3","6","636207774144921600","常","Female","[""好我"",""坏我"",""好她"",""坏她""]","[""强我"",""弱我"",""强她"",""弱她""]","","","","","","","","match","","","","","","","","","","key","f","4.166531645569544","853.3333333333334","476","f","true","match","img/diamond.png","强我","强我","prac_ALT2_ability","practice_ability","","","","","","","",""
"null","<span style='color:GreenYellow; font-size: 70px;'>正确! </span>","null","html-keyboard-response","97","453700","0.0-8.0-1.0-1.0-0.0-1.43","6","7","5","7","4","2","1","4","4","4","4","1","1","2","1","2","0","2","1","5","5","5","5","5","3","4","4","5","5","7","5","8","7","8","9","7","8","9","7","5","3","6","6","1","7","5","7","3","4","3","2","6","4","5","5","2","3","3","3","3","5","6","2","7","7","5","3","7","3","5","6","6","2","3","3","3","3","6","636207774144921600","常","Female","[""好我"",""坏我"",""好她"",""坏她""]","[""强我"",""弱我"",""强她"",""弱她""]","","","","","","","","","","","","","","","","","","","","","","","","","","","","","","feedback_test","","","","","","","",""
"706","","f","psychophysics","98","455407","0.0-8.0-1.0-1.0-0.0-0.44","6","7","5","7","4","2","1","4","4","4","4","1","1","2","1","2","0","2","1","5","5","5","5","5","3","4","4","5","5","7","5","8","7","8","9","7","8","9","7","5","3","6","6","1","7","5","7","3","4","3","2","6","4","5","5","2","3","3","3","3","5","6","2","7","7","5","3","7","3","5","6","6","2","3","3","3","3","6","636207774144921600","常","Female","[""好我"",""坏我"",""好她"",""坏她""]","[""强我"",""弱我"",""强她"",""弱她""]","","","","","","","","match","","","","","","","","","","key","f","4.176705159705146","853.3333333333334","476","j","false","nonmatch","img/pentagon.png","强她","弱她","prac_ALT2_ability","practice_ability","","","","","","","",""
"null","<span style='color:red; font-size: 70px;'>错误! </span>","null","html-keyboard-response","99","455908","0.0-8.0-1.0-1.0-0.0-1.44","6","7","5","7","4","2","1","4","4","4","4","1","1","2","1","2","0","2","1","5","5","5","5","5","3","4","4","5","5","7","5","8","7","8","9","7","8","9","7","5","3","6","6","1","7","5","7","3","4","3","2","6","4","5","5","2","3","3","3","3","5","6","2","7","7","5","3","7","3","5","6","6","2","3","3","3","3","6","636207774144921600","常","Female","[""好我"",""坏我"",""好她"",""坏她""]","[""强我"",""弱我"",""强她"",""弱她""]","","","","","","","","","","","","","","","","","","","","","","","","","","","","","","feedback_test","","","","","","","",""
"547","","f","psychophysics","100","457455","0.0-8.0-1.0-1.0-0.0-0.45","6","7","5","7","4","2","1","4","4","4","4","1","1","2","1","2","0","2","1","5","5","5","5","5","3","4","4","5","5","7","5","8","7","8","9","7","8","9","7","5","3","6","6","1","7","5","7","3","4","3","2","6","4","5","5","2","3","3","3","3","5","6","2","7","7","5","3","7","3","5","6","6","2","3","3","3","3","6","636207774144921600","常","Female","[""好我"",""坏我"",""好她"",""坏她""]","[""强我"",""弱我"",""强她"",""弱她""]","","","","","","","","match","","","","","","","","","","key","f","4.166365853658603","853.3333333333334","476","f","true","match","img/diamond.png","强我","强我","prac_ALT2_ability","practice_ability","","","","","","","",""
"null","<span style='color:GreenYellow; font-size: 70px;'>正确! </span>","null","html-keyboard-response","101","457956","0.0-8.0-1.0-1.0-0.0-1.45","6","7","5","7","4","2","1","4","4","4","4","1","1","2","1","2","0","2","1","5","5","5","5","5","3","4","4","5","5","7","5","8","7","8","9","7","8","9","7","5","3","6","6","1","7","5","7","3","4","3","2","6","4","5","5","2","3","3","3","3","5","6","2","7","7","5","3","7","3","5","6","6","2","3","3","3","3","6","636207774144921600","常","Female","[""好我"",""坏我"",""好她"",""坏她""]","[""强我"",""弱我"",""强她"",""弱她""]","","","","","","","","","","","","","","","","","","","","","","","","","","","","","","feedback_test","","","","","","","",""
"568","","f","psychophysics","102","459526","0.0-8.0-1.0-1.0-0.0-0.46","6","7","5","7","4","2","1","4","4","4","4","1","1","2","1","2","0","2","1","5","5","5","5","5","3","4","4","5","5","7","5","8","7","8","9","7","8","9","7","5","3","6","6","1","7","5","7","3","4","3","2","6","4","5","5","2","3","3","3","3","5","6","2","7","7","5","3","7","3","5","6","6","2","3","3","3","3","6","636207774144921600","常","Female","[""好我"",""坏我"",""好她"",""坏她""]","[""强我"",""弱我"",""强她"",""弱她""]","","","","","","","","match","","","","","","","","","","key","f","4.163245333333345","853.3333333333334","476","j","false","nonmatch","img/trapezoid.png","弱她","弱我","prac_ALT2_ability","practice_ability","","","","","","","",""
"null","<span style='color:red; font-size: 70px;'>错误! </span>","null","html-keyboard-response","103","460027","0.0-8.0-1.0-1.0-0.0-1.46","6","7","5","7","4","2","1","4","4","4","4","1","1","2","1","2","0","2","1","5","5","5","5","5","3","4","4","5","5","7","5","8","7","8","9","7","8","9","7","5","3","6","6","1","7","5","7","3","4","3","2","6","4","5","5","2","3","3","3","3","5","6","2","7","7","5","3","7","3","5","6","6","2","3","3","3","3","6","636207774144921600","常","Female","[""好我"",""坏我"",""好她"",""坏她""]","[""强我"",""弱我"",""强她"",""弱她""]","","","","","","","","","","","","","","","","","","","","","","","","","","","","","","feedback_test","","","","","","","",""
"675","","f","psychophysics","104","461703","0.0-8.0-1.0-1.0-0.0-0.47","6","7","5","7","4","2","1","4","4","4","4","1","1","2","1","2","0","2","1","5","5","5","5","5","3","4","4","5","5","7","5","8","7","8","9","7","8","9","7","5","3","6","6","1","7","5","7","3","4","3","2","6","4","5","5","2","3","3","3","3","5","6","2","7","7","5","3","7","3","5","6","6","2","3","3","3","3","6","636207774144921600","常","Female","[""好我"",""坏我"",""好她"",""坏她""]","[""强我"",""弱我"",""强她"",""弱她""]","","","","","","","","match","","","","","","","","","","key","f","4.162510000000038","853.3333333333334","476","j","false","nonmatch","img/trapezoid.png","强她","弱我","prac_ALT2_ability","practice_ability","","","","","","","",""
"null","<span style='color:red; font-size: 70px;'>错误! </span>","null","html-keyboard-response","105","462204","0.0-8.0-1.0-1.0-0.0-1.47","6","7","5","7","4","2","1","4","4","4","4","1","1","2","1","2","0","2","1","5","5","5","5","5","3","4","4","5","5","7","5","8","7","8","9","7","8","9","7","5","3","6","6","1","7","5","7","3","4","3","2","6","4","5","5","2","3","3","3","3","5","6","2","7","7","5","3","7","3","5","6","6","2","3","3","3","3","6","636207774144921600","常","Female","[""好我"",""坏我"",""好她"",""坏她""]","[""强我"",""弱我"",""强她"",""弱她""]","","","","","","","","","","","","","","","","","","","","","","","","","","","","","","feedback_test","","","","","","","",""
"1886","<style>.context{color:white; font-size: 35px; line-height:40px}</style>                          <div><p class='context'>您正确回答了81% 的试次。</p><p class='context'>您的平均反应时为832毫秒。</p><p class='context'>恭喜您完成练习。按空格键进入正式实验。</p><p class='footer' style='color:white;font-size: 35px; line-height:40px;'>请在进入正式实验实验之前将您的<span style='color: lightgreen;'>食指</span>放在电脑键盘的相应键位上进行按键。</p>","f","html-keyboard-response","106","464092","0.0-8.0-1.0-2.0","6","7","5","7","4","2","1","4","4","4","4","1","1","2","1","2","0","2","1","5","5","5","5","5","3","4","4","5","5","7","5","8","7","8","9","7","8","9","7","5","3","6","6","1","7","5","7","3","4","3","2","6","4","5","5","2","3","3","3","3","5","6","2","7","7","5","3","7","3","5","6","6","2","3","3","3","3","6","636207774144921600","常","Female","[""好我"",""坏我"",""好她"",""坏她""]","[""强我"",""弱我"",""强她"",""弱她""]","","","","","","","","","","","","","","","","","","","","","","","","","","","","","","","","","","","","","",""
"1468","
  <p>请您将手指放在按键上，准备进入正式的匹配任务。</p>
  <p> <div style = ""color: green""><按空格键进入下一阶段的匹配任务></div></p>
  "," ","html-keyboard-response","107","465562","0.0-8.0-1.0-3.0","6","7","5","7","4","2","1","4","4","4","4","1","1","2","1","2","0","2","1","5","5","5","5","5","3","4","4","5","5","7","5","8","7","8","9","7","8","9","7","5","3","6","6","1","7","5","7","3","4","3","2","6","4","5","5","2","3","3","3","3","5","6","2","7","7","5","3","7","3","5","6","6","2","3","3","3","3","6","636207774144921600","常","Female","[""好我"",""坏我"",""好她"",""坏她""]","[""强我"",""弱我"",""强她"",""弱她""]","","","","","","","","","","","","","","","","","","","","","","","","","","","","","","","","","","","","","",""
"634","","f","psychophysics","108","467197","0.0-8.0-1.0-4.0-0.0-0.0","6","7","5","7","4","2","1","4","4","4","4","1","1","2","1","2","0","2","1","5","5","5","5","5","3","4","4","5","5","7","5","8","7","8","9","7","8","9","7","5","3","6","6","1","7","5","7","3","4","3","2","6","4","5","5","2","3","3","3","3","5","6","2","7","7","5","3","7","3","5","6","6","2","3","3","3","3","6","636207774144921600","常","Female","[""好我"",""坏我"",""好她"",""坏她""]","[""强我"",""弱我"",""强她"",""弱她""]","","","","","","","","match","","","","","","","","","","key","f","4.166535897435805","853.3333333333334","476","j","false","nonmatch","img/pentagon.png","强她","弱她","ALT2","ability","","","","","","","",""
"null","<span style='color:red; font-size: 70px;'>错误! </span>","null","html-keyboard-response","109","467698","0.0-8.0-1.0-4.0-0.0-1.0","6","7","5","7","4","2","1","4","4","4","4","1","1","2","1","2","0","2","1","5","5","5","5","5","3","4","4","5","5","7","5","8","7","8","9","7","8","9","7","5","3","6","6","1","7","5","7","3","4","3","2","6","4","5","5","2","3","3","3","3","5","6","2","7","7","5","3","7","3","5","6","6","2","3","3","3","3","6","636207774144921600","常","Female","[""好我"",""坏我"",""好她"",""坏她""]","[""强我"",""弱我"",""强她"",""弱她""]","","","","","","","","","","","","","","","","","","","","","","","","","","","","","","feedback_test","","","","","","","",""
"682","","f","psychophysics","110","469381","0.0-8.0-1.0-4.0-0.0-0.1","6","7","5","7","4","2","1","4","4","4","4","1","1","2","1","2","0","2","1","5","5","5","5","5","3","4","4","5","5","7","5","8","7","8","9","7","8","9","7","5","3","6","6","1","7","5","7","3","4","3","2","6","4","5","5","2","3","3","3","3","5","6","2","7","7","5","3","7","3","5","6","6","2","3","3","3","3","6","636207774144921600","常","Female","[""好我"",""坏我"",""好她"",""坏她""]","[""强我"",""弱我"",""强她"",""弱她""]","","","","","","","","match","","","","","","","","","","key","f","4.166541147132159","853.3333333333334","476","j","false","nonmatch","img/trapezoid.png","强我","弱我","ALT2","ability","","","","","","","",""
"null","<span style='color:red; font-size: 70px;'>错误! </span>","null","html-keyboard-response","111","469882","0.0-8.0-1.0-4.0-0.0-1.1","6","7","5","7","4","2","1","4","4","4","4","1","1","2","1","2","0","2","1","5","5","5","5","5","3","4","4","5","5","7","5","8","7","8","9","7","8","9","7","5","3","6","6","1","7","5","7","3","4","3","2","6","4","5","5","2","3","3","3","3","5","6","2","7","7","5","3","7","3","5","6","6","2","3","3","3","3","6","636207774144921600","常","Female","[""好我"",""坏我"",""好她"",""坏她""]","[""强我"",""弱我"",""强她"",""弱她""]","","","","","","","","","","","","","","","","","","","","","","","","","","","","","","feedback_test","","","","","","","",""
"640","","f","psychophysics","112","471523","0.0-8.0-1.0-4.0-0.0-0.2","6","7","5","7","4","2","1","4","4","4","4","1","1","2","1","2","0","2","1","5","5","5","5","5","3","4","4","5","5","7","5","8","7","8","9","7","8","9","7","5","3","6","6","1","7","5","7","3","4","3","2","6","4","5","5","2","3","3","3","3","5","6","2","7","7","5","3","7","3","5","6","6","2","3","3","3","3","6","636207774144921600","常","Female","[""好我"",""坏我"",""好她"",""坏她""]","[""强我"",""弱我"",""强她"",""弱她""]","","","","","","","","match","","","","","","","","","","key","f","4.166462915601022","853.3333333333334","476","j","false","nonmatch","img/pentagon.png","弱我","弱她","ALT2","ability","","","","","","","",""
"null","<span style='color:red; font-size: 70px;'>错误! </span>","null","html-keyboard-response","113","472024","0.0-8.0-1.0-4.0-0.0-1.2","6","7","5","7","4","2","1","4","4","4","4","1","1","2","1","2","0","2","1","5","5","5","5","5","3","4","4","5","5","7","5","8","7","8","9","7","8","9","7","5","3","6","6","1","7","5","7","3","4","3","2","6","4","5","5","2","3","3","3","3","5","6","2","7","7","5","3","7","3","5","6","6","2","3","3","3","3","6","636207774144921600","常","Female","[""好我"",""坏我"",""好她"",""坏她""]","[""强我"",""弱我"",""强她"",""弱她""]","","","","","","","","","","","","","","","","","","","","","","","","","","","","","","feedback_test","","","","","","","",""
"997","","j","psychophysics","114","474022","0.0-8.0-1.0-4.0-0.0-0.3","6","7","5","7","4","2","1","4","4","4","4","1","1","2","1","2","0","2","1","5","5","5","5","5","3","4","4","5","5","7","5","8","7","8","9","7","8","9","7","5","3","6","6","1","7","5","7","3","4","3","2","6","4","5","5","2","3","3","3","3","5","6","2","7","7","5","3","7","3","5","6","6","2","3","3","3","3","6","636207774144921600","常","Female","[""好我"",""坏我"",""好她"",""坏她""]","[""强我"",""弱我"",""强她"",""弱她""]","","","","","","","","nonmatch","","","","","","","","","","key","j","4.1752788259958225","853.3333333333334","476","j","true","nonmatch","img/diamond.png","弱她","强我","ALT2","ability","","","","","","","",""
"null","<span style='color:GreenYellow; font-size: 70px;'>正确! </span>","null","html-keyboard-response","115","474523","0.0-8.0-1.0-4.0-0.0-1.3","6","7","5","7","4","2","1","4","4","4","4","1","1","2","1","2","0","2","1","5","5","5","5","5","3","4","4","5","5","7","5","8","7","8","9","7","8","9","7","5","3","6","6","1","7","5","7","3","4","3","2","6","4","5","5","2","3","3","3","3","5","6","2","7","7","5","3","7","3","5","6","6","2","3","3","3","3","6","636207774144921600","常","Female","[""好我"",""坏我"",""好她"",""坏她""]","[""强我"",""弱我"",""强她"",""弱她""]","","","","","","","","","","","","","","","","","","","","","","","","","","","","","","feedback_test","","","","","","","",""
"966","","j","psychophysics","116","476491","0.0-8.0-1.0-4.0-0.0-0.4","6","7","5","7","4","2","1","4","4","4","4","1","1","2","1","2","0","2","1","5","5","5","5","5","3","4","4","5","5","7","5","8","7","8","9","7","8","9","7","5","3","6","6","1","7","5","7","3","4","3","2","6","4","5","5","2","3","3","3","3","5","6","2","7","7","5","3","7","3","5","6","6","2","3","3","3","3","6","636207774144921600","常","Female","[""好我"",""坏我"",""好她"",""坏她""]","[""强我"",""弱我"",""强她"",""弱她""]","","","","","","","","nonmatch","","","","","","","","","","key","j","4.166547770700674","853.3333333333334","476","j","true","nonmatch","img/diamond.png","强她","强我","ALT2","ability","","","","","","","",""
"null","<span style='color:GreenYellow; font-size: 70px;'>正确! </span>","null","html-keyboard-response","117","476992","0.0-8.0-1.0-4.0-0.0-1.4","6","7","5","7","4","2","1","4","4","4","4","1","1","2","1","2","0","2","1","5","5","5","5","5","3","4","4","5","5","7","5","8","7","8","9","7","8","9","7","5","3","6","6","1","7","5","7","3","4","3","2","6","4","5","5","2","3","3","3","3","5","6","2","7","7","5","3","7","3","5","6","6","2","3","3","3","3","6","636207774144921600","常","Female","[""好我"",""坏我"",""好她"",""坏她""]","[""强我"",""弱我"",""强她"",""弱她""]","","","","","","","","","","","","","","","","","","","","","","","","","","","","","","feedback_test","","","","","","","",""
"909","","j","psychophysics","118","478902","0.0-8.0-1.0-4.0-0.0-0.5","6","7","5","7","4","2","1","4","4","4","4","1","1","2","1","2","0","2","1","5","5","5","5","5","3","4","4","5","5","7","5","8","7","8","9","7","8","9","7","5","3","6","6","1","7","5","7","3","4","3","2","6","4","5","5","2","3","3","3","3","5","6","2","7","7","5","3","7","3","5","6","6","2","3","3","3","3","6","636207774144921600","常","Female","[""好我"",""坏我"",""好她"",""坏她""]","[""强我"",""弱我"",""强她"",""弱她""]","","","","","","","","nonmatch","","","","","","","","","","key","j","4.166555798687173","853.3333333333334","476","j","true","nonmatch","img/ellipse.png","弱我","强她","ALT2","ability","","","","","","","",""
"null","<span style='color:GreenYellow; font-size: 70px;'>正确! </span>","null","html-keyboard-response","119","479402","0.0-8.0-1.0-4.0-0.0-1.5","6","7","5","7","4","2","1","4","4","4","4","1","1","2","1","2","0","2","1","5","5","5","5","5","3","4","4","5","5","7","5","8","7","8","9","7","8","9","7","5","3","6","6","1","7","5","7","3","4","3","2","6","4","5","5","2","3","3","3","3","5","6","2","7","7","5","3","7","3","5","6","6","2","3","3","3","3","6","636207774144921600","常","Female","[""好我"",""坏我"",""好她"",""坏她""]","[""强我"",""弱我"",""强她"",""弱她""]","","","","","","","","","","","","","","","","","","","","","","","","","","","","","","feedback_test","","","","","","","",""
"579","","f","psychophysics","120","480982","0.0-8.0-1.0-4.0-0.0-0.6","6","7","5","7","4","2","1","4","4","4","4","1","1","2","1","2","0","2","1","5","5","5","5","5","3","4","4","5","5","7","5","8","7","8","9","7","8","9","7","5","3","6","6","1","7","5","7","3","4","3","2","6","4","5","5","2","3","3","3","3","5","6","2","7","7","5","3","7","3","5","6","6","2","3","3","3","3","6","636207774144921600","常","Female","[""好我"",""坏我"",""好她"",""坏她""]","[""强我"",""弱我"",""强她"",""弱她""]","","","","","","","","match","","","","","","","","","","key","f","4.163472148541155","853.3333333333334","476","f","true","match","img/pentagon.png","弱她","弱她","ALT2","ability","","","","","","","",""
"null","<span style='color:GreenYellow; font-size: 70px;'>正确! </span>","null","html-keyboard-response","121","481483","0.0-8.0-1.0-4.0-0.0-1.6","6","7","5","7","4","2","1","4","4","4","4","1","1","2","1","2","0","2","1","5","5","5","5","5","3","4","4","5","5","7","5","8","7","8","9","7","8","9","7","5","3","6","6","1","7","5","7","3","4","3","2","6","4","5","5","2","3","3","3","3","5","6","2","7","7","5","3","7","3","5","6","6","2","3","3","3","3","6","636207774144921600","常","Female","[""好我"",""坏我"",""好她"",""坏她""]","[""强我"",""弱我"",""强她"",""弱她""]","","","","","","","","","","","","","","","","","","","","","","","","","","","","","","feedback_test","","","","","","","",""
"576","","f","psychophysics","122","483060","0.0-8.0-1.0-4.0-0.0-0.7","6","7","5","7","4","2","1","4","4","4","4","1","1","2","1","2","0","2","1","5","5","5","5","5","3","4","4","5","5","7","5","8","7","8","9","7","8","9","7","5","3","6","6","1","7","5","7","3","4","3","2","6","4","5","5","2","3","3","3","3","5","6","2","7","7","5","3","7","3","5","6","6","2","3","3","3","3","6","636207774144921600","常","Female","[""好我"",""坏我"",""好她"",""坏她""]","[""强我"",""弱我"",""强她"",""弱她""]","","","","","","","","match","","","","","","","","","","key","f","4.166550531914796","853.3333333333334","476","j","false","nonmatch","img/trapezoid.png","弱她","弱我","ALT2","ability","","","","","","","",""
"null","<span style='color:red; font-size: 70px;'>错误! </span>","null","html-keyboard-response","123","483561","0.0-8.0-1.0-4.0-0.0-1.7","6","7","5","7","4","2","1","4","4","4","4","1","1","2","1","2","0","2","1","5","5","5","5","5","3","4","4","5","5","7","5","8","7","8","9","7","8","9","7","5","3","6","6","1","7","5","7","3","4","3","2","6","4","5","5","2","3","3","3","3","5","6","2","7","7","5","3","7","3","5","6","6","2","3","3","3","3","6","636207774144921600","常","Female","[""好我"",""坏我"",""好她"",""坏她""]","[""强我"",""弱我"",""强她"",""弱她""]","","","","","","","","","","","","","","","","","","","","","","","","","","","","","","feedback_test","","","","","","","",""
"597","","f","psychophysics","124","485159","0.0-8.0-1.0-4.0-0.0-0.8","6","7","5","7","4","2","1","4","4","4","4","1","1","2","1","2","0","2","1","5","5","5","5","5","3","4","4","5","5","7","5","8","7","8","9","7","8","9","7","5","3","6","6","1","7","5","7","3","4","3","2","6","4","5","5","2","3","3","3","3","5","6","2","7","7","5","3","7","3","5","6","6","2","3","3","3","3","6","636207774144921600","常","Female","[""好我"",""坏我"",""好她"",""坏她""]","[""强我"",""弱我"",""强她"",""弱她""]","","","","","","","","match","","","","","","","","","","key","f","4.166473821989512","853.3333333333334","476","f","true","match","img/ellipse.png","强她","强她","ALT2","ability","","","","","","","",""
"null","<span style='color:GreenYellow; font-size: 70px;'>正确! </span>","null","html-keyboard-response","125","485660","0.0-8.0-1.0-4.0-0.0-1.8","6","7","5","7","4","2","1","4","4","4","4","1","1","2","1","2","0","2","1","5","5","5","5","5","3","4","4","5","5","7","5","8","7","8","9","7","8","9","7","5","3","6","6","1","7","5","7","3","4","3","2","6","4","5","5","2","3","3","3","3","5","6","2","7","7","5","3","7","3","5","6","6","2","3","3","3","3","6","636207774144921600","常","Female","[""好我"",""坏我"",""好她"",""坏她""]","[""强我"",""弱我"",""强她"",""弱她""]","","","","","","","","","","","","","","","","","","","","","","","","","","","","","","feedback_test","","","","","","","",""
"996","","f","psychophysics","126","487657","0.0-8.0-1.0-4.0-0.0-0.9","6","7","5","7","4","2","1","4","4","4","4","1","1","2","1","2","0","2","1","5","5","5","5","5","3","4","4","5","5","7","5","8","7","8","9","7","8","9","7","5","3","6","6","1","7","5","7","3","4","3","2","6","4","5","5","2","3","3","3","3","5","6","2","7","7","5","3","7","3","5","6","6","2","3","3","3","3","6","636207774144921600","常","Female","[""好我"",""坏我"",""好她"",""坏她""]","[""强我"",""弱我"",""强她"",""弱她""]","","","","","","","","match","","","","","","","","","","key","f","4.166560669456025","853.3333333333334","476","f","true","match","img/trapezoid.png","弱我","弱我","ALT2","ability","","","","","","","",""
"null","<span style='color:GreenYellow; font-size: 70px;'>正确! </span>","null","html-keyboard-response","127","488158","0.0-8.0-1.0-4.0-0.0-1.9","6","7","5","7","4","2","1","4","4","4","4","1","1","2","1","2","0","2","1","5","5","5","5","5","3","4","4","5","5","7","5","8","7","8","9","7","8","9","7","5","3","6","6","1","7","5","7","3","4","3","2","6","4","5","5","2","3","3","3","3","5","6","2","7","7","5","3","7","3","5","6","6","2","3","3","3","3","6","636207774144921600","常","Female","[""好我"",""坏我"",""好她"",""坏她""]","[""强我"",""弱我"",""强她"",""弱她""]","","","","","","","","","","","","","","","","","","","","","","","","","","","","","","feedback_test","","","","","","","",""
"702","","f","psychophysics","128","489861","0.0-8.0-1.0-4.0-0.0-0.10","6","7","5","7","4","2","1","4","4","4","4","1","1","2","1","2","0","2","1","5","5","5","5","5","3","4","4","5","5","7","5","8","7","8","9","7","8","9","7","5","3","6","6","1","7","5","7","3","4","3","2","6","4","5","5","2","3","3","3","3","5","6","2","7","7","5","3","7","3","5","6","6","2","3","3","3","3","6","636207774144921600","常","Female","[""好我"",""坏我"",""好她"",""坏她""]","[""强我"",""弱我"",""强她"",""弱她""]","","","","","","","","match","","","","","","","","","","key","f","4.166573891625654","853.3333333333334","476","f","true","match","img/ellipse.png","强她","强她","ALT2","ability","","","","","","","",""
"null","<span style='color:GreenYellow; font-size: 70px;'>正确! </span>","null","html-keyboard-response","129","490362","0.0-8.0-1.0-4.0-0.0-1.10","6","7","5","7","4","2","1","4","4","4","4","1","1","2","1","2","0","2","1","5","5","5","5","5","3","4","4","5","5","7","5","8","7","8","9","7","8","9","7","5","3","6","6","1","7","5","7","3","4","3","2","6","4","5","5","2","3","3","3","3","5","6","2","7","7","5","3","7","3","5","6","6","2","3","3","3","3","6","636207774144921600","常","Female","[""好我"",""坏我"",""好她"",""坏她""]","[""强我"",""弱我"",""强她"",""弱她""]","","","","","","","","","","","","","","","","","","","","","","","","","","","","","","feedback_test","","","","","","","",""
"622","","f","psychophysics","130","491984","0.0-8.0-1.0-4.0-0.0-0.11","6","7","5","7","4","2","1","4","4","4","4","1","1","2","1","2","0","2","1","5","5","5","5","5","3","4","4","5","5","7","5","8","7","8","9","7","8","9","7","5","3","6","6","1","7","5","7","3","4","3","2","6","4","5","5","2","3","3","3","3","5","6","2","7","7","5","3","7","3","5","6","6","2","3","3","3","3","6","636207774144921600","常","Female","[""好我"",""坏我"",""好她"",""坏她""]","[""强我"",""弱我"",""强她"",""弱她""]","","","","","","","","match","","","","","","","","","","key","f","4.166608247422756","853.3333333333334","476","f","true","match","img/diamond.png","强我","强我","ALT2","ability","","","","","","","",""
"null","<span style='color:GreenYellow; font-size: 70px;'>正确! </span>","null","html-keyboard-response","131","492485","0.0-8.0-1.0-4.0-0.0-1.11","6","7","5","7","4","2","1","4","4","4","4","1","1","2","1","2","0","2","1","5","5","5","5","5","3","4","4","5","5","7","5","8","7","8","9","7","8","9","7","5","3","6","6","1","7","5","7","3","4","3","2","6","4","5","5","2","3","3","3","3","5","6","2","7","7","5","3","7","3","5","6","6","2","3","3","3","3","6","636207774144921600","常","Female","[""好我"",""坏我"",""好她"",""坏她""]","[""强我"",""弱我"",""强她"",""弱她""]","","","","","","","","","","","","","","","","","","","","","","","","","","","","","","feedback_test","","","","","","","",""
"547","","f","psychophysics","132","494033","0.0-8.0-1.0-4.0-0.0-0.12","6","7","5","7","4","2","1","4","4","4","4","1","1","2","1","2","0","2","1","5","5","5","5","5","3","4","4","5","5","7","5","8","7","8","9","7","8","9","7","5","3","6","6","1","7","5","7","3","4","3","2","6","4","5","5","2","3","3","3","3","5","6","2","7","7","5","3","7","3","5","6","6","2","3","3","3","3","6","636207774144921600","常","Female","[""好我"",""坏我"",""好她"",""坏她""]","[""强我"",""弱我"",""强她"",""弱她""]","","","","","","","","match","","","","","","","","","","key","f","4.161767567567703","853.3333333333334","476","j","false","nonmatch","img/trapezoid.png","强她","弱我","ALT2","ability","","","","","","","",""
"null","<span style='color:red; font-size: 70px;'>错误! </span>","null","html-keyboard-response","133","494535","0.0-8.0-1.0-4.0-0.0-1.12","6","7","5","7","4","2","1","4","4","4","4","1","1","2","1","2","0","2","1","5","5","5","5","5","3","4","4","5","5","7","5","8","7","8","9","7","8","9","7","5","3","6","6","1","7","5","7","3","4","3","2","6","4","5","5","2","3","3","3","3","5","6","2","7","7","5","3","7","3","5","6","6","2","3","3","3","3","6","636207774144921600","常","Female","[""好我"",""坏我"",""好她"",""坏她""]","[""强我"",""弱我"",""强她"",""弱她""]","","","","","","","","","","","","","","","","","","","","","","","","","","","","","","feedback_test","","","","","","","",""
"592","","f","psychophysics","134","496128","0.0-8.0-1.0-4.0-0.0-0.13","6","7","5","7","4","2","1","4","4","4","4","1","1","2","1","2","0","2","1","5","5","5","5","5","3","4","4","5","5","7","5","8","7","8","9","7","8","9","7","5","3","6","6","1","7","5","7","3","4","3","2","6","4","5","5","2","3","3","3","3","5","6","2","7","7","5","3","7","3","5","6","6","2","3","3","3","3","6","636207774144921600","常","Female","[""好我"",""坏我"",""好她"",""坏她""]","[""强我"",""弱我"",""强她"",""弱她""]","","","","","","","","match","","","","","","","","","","key","f","4.16652755905508","853.3333333333334","476","f","true","match","img/ellipse.png","强她","强她","ALT2","ability","","","","","","","",""
"null","<span style='color:GreenYellow; font-size: 70px;'>正确! </span>","null","html-keyboard-response","135","496630","0.0-8.0-1.0-4.0-0.0-1.13","6","7","5","7","4","2","1","4","4","4","4","1","1","2","1","2","0","2","1","5","5","5","5","5","3","4","4","5","5","7","5","8","7","8","9","7","8","9","7","5","3","6","6","1","7","5","7","3","4","3","2","6","4","5","5","2","3","3","3","3","5","6","2","7","7","5","3","7","3","5","6","6","2","3","3","3","3","6","636207774144921600","常","Female","[""好我"",""坏我"",""好她"",""坏她""]","[""强我"",""弱我"",""强她"",""弱她""]","","","","","","","","","","","","","","","","","","","","","","","","","","","","","","feedback_test","","","","","","","",""
"631","","j","psychophysics","136","498262","0.0-8.0-1.0-4.0-0.0-0.14","6","7","5","7","4","2","1","4","4","4","4","1","1","2","1","2","0","2","1","5","5","5","5","5","3","4","4","5","5","7","5","8","7","8","9","7","8","9","7","5","3","6","6","1","7","5","7","3","4","3","2","6","4","5","5","2","3","3","3","3","5","6","2","7","7","5","3","7","3","5","6","6","2","3","3","3","3","6","636207774144921600","常","Female","[""好我"",""坏我"",""好她"",""坏她""]","[""强我"",""弱我"",""强她"",""弱她""]","","","","","","","","nonmatch","","","","","","","","","","key","j","4.166525641025659","853.3333333333334","476","f","false","match","img/pentagon.png","弱她","弱她","ALT2","ability","","","","","","","",""
"null","<span style='color:red; font-size: 70px;'>错误! </span>","null","html-keyboard-response","137","498763","0.0-8.0-1.0-4.0-0.0-1.14","6","7","5","7","4","2","1","4","4","4","4","1","1","2","1","2","0","2","1","5","5","5","5","5","3","4","4","5","5","7","5","8","7","8","9","7","8","9","7","5","3","6","6","1","7","5","7","3","4","3","2","6","4","5","5","2","3","3","3","3","5","6","2","7","7","5","3","7","3","5","6","6","2","3","3","3","3","6","636207774144921600","常","Female","[""好我"",""坏我"",""好她"",""坏她""]","[""强我"",""弱我"",""强她"",""弱她""]","","","","","","","","","","","","","","","","","","","","","","","","","","","","","","feedback_test","","","","","","","",""
"null","","null","psychophysics","138","500972","0.0-8.0-1.0-4.0-0.0-0.15","6","7","5","7","4","2","1","4","4","4","4","1","1","2","1","2","0","2","1","5","5","5","5","5","3","4","4","5","5","7","5","8","7","8","9","7","8","9","7","5","3","6","6","1","7","5","7","3","4","3","2","6","4","5","5","2","3","3","3","3","5","6","2","7","7","5","3","7","3","5","6","6","2","3","3","3","3","6","636207774144921600","常","Female","[""好我"",""坏我"",""好她"",""坏她""]","[""强我"",""弱我"",""强她"",""弱她""]","","","","","","","","null","","","","","","","","","","key","null","4.16654545454543","853.3333333333334","476","j","false","nonmatch","img/ellipse.png","弱她","强她","ALT2","ability","","","","","","","",""
"null","<span class='add_' style='color:yellow; font-size: 70px;'> 太慢! </span>","null","html-keyboard-response","139","501474","0.0-8.0-1.0-4.0-0.0-1.15","6","7","5","7","4","2","1","4","4","4","4","1","1","2","1","2","0","2","1","5","5","5","5","5","3","4","4","5","5","7","5","8","7","8","9","7","8","9","7","5","3","6","6","1","7","5","7","3","4","3","2","6","4","5","5","2","3","3","3","3","5","6","2","7","7","5","3","7","3","5","6","6","2","3","3","3","3","6","636207774144921600","常","Female","[""好我"",""坏我"",""好她"",""坏她""]","[""强我"",""弱我"",""强她"",""弱她""]","","","","","","","","","","","","","","","","","","","","","","","","","","","","","","feedback_test","","","","","","","",""
