"rt","stimulus","response","trial_type","trial_index","time_elapsed","internal_node_id","swb_1","swb_2","swb_3","swb_4","swb_5","LOT_1","LOT_2","LOT_3","LOT_4","LOT_5","LOT_6","IPC_1","IPC_2","IPC_3","IPC_4","IPC_5","IPC_6","IPC_7","IPC_8","MorIden_1","MorIden_2","MorIden_3","MorIden_4","MorIden_5","MorIden_6","MorIden_7","MorIden_8","MorIden_9","MorIden_10","moralSeImag_1","moralSeImag_2","moralSeImag_3","moralSeImag_4","moralSeImag_5","moralSeImag_6","moralSeImag_7","moralSeImag_8","moralSeImag_9","sde_1","sde_2","sde_3","sde_4","sde_5","sde_6","sde_7","sde_8","sde_9","sde_10","sde_11","sde_12","sde_13","sde_14","sde_15","sde_16","sde_17","sde_18","sde_19","sde_20","IM_1","IM_2","IM_3","IM_4","IM_5","IM_6","IM_7","IM_8","IM_9","IM_10","IM_11","IM_12","IM_13","IM_14","IM_15","IM_16","IM_17","IM_18","IM_19","IM_20","subj_idx","friend_name","Sex","Word","Word2","value","success","timeout","failed_images","failed_audio","failed_video","user_agent","responses","item_order","radio_event_ids","radio_event_times","key_event_times","mouse_event_times","straightlining","zigzagging","honeypot","view_history","response_type","key_press","avg_frame_time","center_x","center_y","correct_response","correct","identity","Image","word","condition","task_id","screen_id","time_stamp","person","valence","domain","math","status","duration","question_order"
"1497","
   <p><div style='color:white; font-size: 25px'>您好，欢迎参加本次实验。</div></p>
   <p><div style='color:white; font-size: 25px'>为充分保障您的权利，请确保您已经知晓并同意《参与实验同意书》以及《数据公开知情同意书》。</div></p>
   <p><div style='color:white; font-size: 25px'>如果您未见过上述内容，请咨询实验员。</div></p>
   <p style='color:white; font-size: 25px'>如果您选择继续实验，则表示您已经清楚两份知情同意书的内容并同意。</p>
   <p> <div style = ""color: green""><按空格键至下页></div> </p>
   "," ","html-keyboard-response","0","1499","0.0-0.0","7","7","7","6","6","5","4","5","5","5","5","2","0","2","2","1","2","2","2","5","5","5","5","5","5","5","5","5","5","5","5","5","5","5","5","5","5","5","6","6","6","7","6","5","6","1","7","7","6","6","7","3","6","6","6","6","6","7","5","6","6","6","7","7","6","7","7","7","7","7","7","1","7","7","7","7","6","7","728341831389020160","李","Male","[""好我"",""坏我"",""好他"",""坏他""]","[""强我"",""弱我"",""强他"",""弱他""]","","","","","","","","","","","","","","","","","","","","","","","","","","","","","","","","","","","","","",""
"","","","call-function","1","1499","0.0-1.0-0.0","7","7","7","6","6","5","4","5","5","5","5","2","0","2","2","1","2","2","2","5","5","5","5","5","5","5","5","5","5","5","5","5","5","5","5","5","5","5","6","6","6","7","6","5","6","1","7","7","6","6","7","3","6","6","6","6","6","7","5","6","6","6","7","7","6","7","7","7","7","7","7","1","7","7","7","7","6","7","728341831389020160","李","Male","[""好我"",""坏我"",""好他"",""坏他""]","[""强我"",""弱我"",""强他"",""弱他""]","","","","","","","","","","","","","","","","","","","","","","","","","","","","","","","","","","","","","",""
"34509","","[{""name"":""Sex"",""value"":""0""},{""name"":""friend_name"",""value"":""李""}]","survey-html-form","2","36009","0.0-1.0-1.0","7","7","7","6","6","5","4","5","5","5","5","2","0","2","2","1","2","2","2","5","5","5","5","5","5","5","5","5","5","5","5","5","5","5","5","5","5","5","6","6","6","7","6","5","6","1","7","7","6","6","7","3","6","6","6","6","6","7","5","6","6","6","7","7","6","7","7","7","7","7","7","1","7","7","7","7","6","7","728341831389020160","李","Male","[""好我"",""坏我"",""好他"",""坏他""]","[""强我"",""弱我"",""强他"",""弱他""]","","","","","","","","","","","","","","","","","","","","","","","","","","","","","","","","","","","","","",""
"","","","preload","3","36567","0.0-2.0","7","7","7","6","6","5","4","5","5","5","5","2","0","2","2","1","2","2","2","5","5","5","5","5","5","5","5","5","5","5","5","5","5","5","5","5","5","5","6","6","6","7","6","5","6","1","7","7","6","6","7","3","6","6","6","6","6","7","5","6","6","6","7","7","6","7","7","7","7","7","7","1","7","7","7","7","6","7","728341831389020160","李","Male","[""好我"",""坏我"",""好他"",""坏他""]","[""强我"",""弱我"",""强他"",""弱他""]","","true","false","[]","[]","[]","","","","","","","","","","","","","","","","","","","","","","","","","","","","","","","",""
"","","","fullscreen","4","45720","0.0-3.0","7","7","7","6","6","5","4","5","5","5","5","2","0","2","2","1","2","2","2","5","5","5","5","5","5","5","5","5","5","5","5","5","5","5","5","5","5","5","6","6","6","7","6","5","6","1","7","7","6","6","7","3","6","6","6","6","6","7","5","6","6","6","7","7","6","7","7","7","7","7","7","1","7","7","7","7","6","7","728341831389020160","李","Male","[""好我"",""坏我"",""好他"",""坏他""]","[""强我"",""弱我"",""强他"",""弱他""]","","true","","","","","{}","","","","","","","","","","","","","","","","","","","","","","","","","","","","","","",""
"12514.099999964237","","{""Q01"":""7"",""Q02"":""7"",""Q03"":""7"",""Q04"":""6"",""Q05"":""6""}","survey-template","5","58237","0.0-4.0","7","7","7","6","6","5","4","5","5","5","5","2","0","2","2","1","2","2","2","5","5","5","5","5","5","5","5","5","5","5","5","5","5","5","5","5","5","5","6","6","6","7","6","5","6","1","7","7","6","6","7","3","6","6","6","6","6","7","5","6","6","6","7","7","6","7","7","7","7","7","7","1","7","7","7","7","6","7","728341831389020160","李","Male","[""好我"",""坏我"",""好他"",""坏他""]","[""强我"",""弱我"",""强他"",""弱他""]","","","","","","","","{""Q01"":""7"",""Q02"":""7"",""Q03"":""7"",""Q04"":""6"",""Q05"":""6""}","[0,1,2,3,4]","[""Q01"",""Q02"",""Q03"",""Q04"",""Q05"",""Q05""]","[2591.300000011921,3759.899999976158,4686.800000011921,8544.399999976158,9807.199999988079,9862.899999976158]","[]","[17.80000001192093,2591.300000011921,3759.899999976158,4686.800000011921,6360.599999964237,6415.599999964237,8544.399999976158,9807.199999988079,9862.899999976158,12512.699999988079]","0.6","0.25","0","","","","","","","","","","","","","","","","","","","","","",""
"28152.30000001192","","{""Q01"":""5"",""Q02"":""4"",""Q03"":""5"",""Q04"":""5"",""Q05"":""5"",""Q06"":""5""}","survey-template","6","86394","0.0-5.0","7","7","7","6","6","5","4","5","5","5","5","2","0","2","2","1","2","2","2","5","5","5","5","5","5","5","5","5","5","5","5","5","5","5","5","5","5","5","6","6","6","7","6","5","6","1","7","7","6","6","7","3","6","6","6","6","6","7","5","6","6","6","7","7","6","7","7","7","7","7","7","1","7","7","7","7","6","7","728341831389020160","李","Male","[""好我"",""坏我"",""好他"",""坏他""]","[""强我"",""弱我"",""强他"",""弱他""]","","","","","","","","{""Q01"":""5"",""Q02"":""4"",""Q03"":""5"",""Q04"":""5"",""Q05"":""5"",""Q06"":""5""}","[0,1,2,3,4,5]","[""Q01"",""Q01"",""Q02"",""Q02"",""Q03"",""Q04"",""Q05"",""Q05"",""Q06"",""Q06""]","[4536.300000011921,4591.900000035763,5463.900000035763,15927.800000011921,20671.69999998808,22087.69999998808,24312.19999998808,24415.80000001192,27311.69999998808,27369.900000035763]","[]","[40.5,103.60000002384186,4056.199999988079,4536.300000011921,4591.900000035763,5463.900000035763,15927.800000011921,17360,20671.69999998808,22087.69999998808,24312.19999998808,24415.80000001192,27311.69999998808,27369.900000035763,28151.600000023842]","0.5","0.4","0","","","","","","","","","","","","","","","","","","","","","",""
"34398","","{""Q01"":""2"",""Q02"":""0"",""Q03"":""2"",""Q04"":""2"",""Q05"":""1"",""Q06"":""2"",""Q07"":""2"",""Q08"":""2""}","survey-template","7","120796","0.0-6.0","7","7","7","6","6","5","4","5","5","5","5","2","0","2","2","1","2","2","2","5","5","5","5","5","5","5","5","5","5","5","5","5","5","5","5","5","5","5","6","6","6","7","6","5","6","1","7","7","6","6","7","3","6","6","6","6","6","7","5","6","6","6","7","7","6","7","7","7","7","7","7","1","7","7","7","7","6","7","728341831389020160","李","Male","[""好我"",""坏我"",""好他"",""坏他""]","[""强我"",""弱我"",""强他"",""弱他""]","","","","","","","","{""Q01"":""2"",""Q02"":""0"",""Q03"":""2"",""Q04"":""2"",""Q05"":""1"",""Q06"":""2"",""Q07"":""2"",""Q08"":""2""}","[0,1,2,3,4,5,6,7]","[""Q01"",""Q01"",""Q02"",""Q02"",""Q02"",""Q03"",""Q04"",""Q04"",""Q05"",""Q05"",""Q06"",""Q06"",""Q07"",""Q07"",""Q08""]","[4668.5,4717.100000023842,8636.399999976158,18300.69999998808,20445.100000023842,22788.80000001192,24685.30000001192,24788.69999998808,26652.600000023842,26715.899999976158,27899.30000001192,28012.30000001192,30636.19999998808,30732.5,33716.10000002384]","[]","[4668.5,4717.100000023842,8636.399999976158,18300.69999998808,20445.100000023842,22788.80000001192,24685.30000001192,24788.69999998808,26652.600000023842,26715.899999976158,27899.30000001192,28012.30000001192,30636.19999998808,30732.5,31900.5,33372.30000001192,33716.10000002384,34397]","0.75","0.2857142857142857","0","","","","","","","","","","","","","","","","","","","","","",""
"127516","","","instructions","8","248314","0.0-7.0","7","7","7","6","6","5","4","5","5","5","5","2","0","2","2","1","2","2","2","5","5","5","5","5","5","5","5","5","5","5","5","5","5","5","5","5","5","5","6","6","6","7","6","5","6","1","7","7","6","6","7","3","6","6","6","6","6","7","5","6","6","6","7","7","6","7","7","7","7","7","7","1","7","7","7","7","6","7","728341831389020160","李","Male","[""好我"",""坏我"",""好他"",""坏他""]","[""强我"",""弱我"",""强他"",""弱他""]","","","","","","","","","","","","","","","","","[{""page_index"":0,""viewing_time"":127516}]","","","","","","","","","","","","","","","","","","","","",""
"122886","","","instructions","9","371202","0.0-8.0-0.0-0.0","7","7","7","6","6","5","4","5","5","5","5","2","0","2","2","1","2","2","2","5","5","5","5","5","5","5","5","5","5","5","5","5","5","5","5","5","5","5","6","6","6","7","6","5","6","1","7","7","6","6","7","3","6","6","6","6","6","7","5","6","6","6","7","7","6","7","7","7","7","7","7","1","7","7","7","7","6","7","728341831389020160","李","Male","[""好我"",""坏我"",""好他"",""坏他""]","[""强我"",""弱我"",""强他"",""弱他""]","","","","","","","","","","","","","","","","","[{""page_index"":0,""viewing_time"":12894},{""page_index"":1,""viewing_time"":106721},{""page_index"":2,""viewing_time"":1591},{""page_index"":3,""viewing_time"":1680}]","","","","","","","","","","","","","","","","","","","","",""
"838","","f","psychophysics","10","373043","0.0-8.0-0.0-1.0-0.0-0.0","7","7","7","6","6","5","4","5","5","5","5","2","0","2","2","1","2","2","2","5","5","5","5","5","5","5","5","5","5","5","5","5","5","5","5","5","5","5","6","6","6","7","6","5","6","1","7","7","6","6","7","3","6","6","6","6","6","7","5","6","6","6","7","7","6","7","7","7","7","7","7","1","7","7","7","7","6","7","728341831389020160","李","Male","[""好我"",""坏我"",""好他"",""坏他""]","[""强我"",""弱我"",""强他"",""弱他""]","","","","","","","","match","","","","","","","","","","key","f","16.676293577981788","768","428","f","true","match","img/hexagon.png","好我","好我","prac_ALT2_moral","practice_moral","","","","","","","",""
"null","<span style='color:GreenYellow; font-size: 70px;'>正确! </span>","null","html-keyboard-response","11","373546","0.0-8.0-0.0-1.0-0.0-1.0","7","7","7","6","6","5","4","5","5","5","5","2","0","2","2","1","2","2","2","5","5","5","5","5","5","5","5","5","5","5","5","5","5","5","5","5","5","5","6","6","6","7","6","5","6","1","7","7","6","6","7","3","6","6","6","6","6","7","5","6","6","6","7","7","6","7","7","7","7","7","7","1","7","7","7","7","6","7","728341831389020160","李","Male","[""好我"",""坏我"",""好他"",""坏他""]","[""强我"",""弱我"",""强他"",""弱他""]","","","","","","","","","","","","","","","","","","","","","","","","","","","","","","feedback_test","","","","","","","",""
"885","","j","psychophysics","12","375441","0.0-8.0-0.0-1.0-0.0-0.1","7","7","7","6","6","5","4","5","5","5","5","2","0","2","2","1","2","2","2","5","5","5","5","5","5","5","5","5","5","5","5","5","5","5","5","5","5","5","6","6","6","7","6","5","6","1","7","7","6","6","7","3","6","6","6","6","6","7","5","6","6","6","7","7","6","7","7","7","7","7","7","1","7","7","7","7","6","7","728341831389020160","李","Male","[""好我"",""坏我"",""好他"",""坏他""]","[""强我"",""弱我"",""强他"",""弱他""]","","","","","","","","nonmatch","","","","","","","","","","key","j","16.673044247787644","768","428","f","false","match","img/ellipse.png","好他","好他","prac_ALT2_moral","practice_moral","","","","","","","",""
"null","<span style='color:red; font-size: 70px;'>错误! </span>","null","html-keyboard-response","13","375942","0.0-8.0-0.0-1.0-0.0-1.1","7","7","7","6","6","5","4","5","5","5","5","2","0","2","2","1","2","2","2","5","5","5","5","5","5","5","5","5","5","5","5","5","5","5","5","5","5","5","6","6","6","7","6","5","6","1","7","7","6","6","7","3","6","6","6","6","6","7","5","6","6","6","7","7","6","7","7","7","7","7","7","1","7","7","7","7","6","7","728341831389020160","李","Male","[""好我"",""坏我"",""好他"",""坏他""]","[""强我"",""弱我"",""强他"",""弱他""]","","","","","","","","","","","","","","","","","","","","","","","","","","","","","","feedback_test","","","","","","","",""
"1127","","j","psychophysics","14","378071","0.0-8.0-0.0-1.0-0.0-0.2","7","7","7","6","6","5","4","5","5","5","5","2","0","2","2","1","2","2","2","5","5","5","5","5","5","5","5","5","5","5","5","5","5","5","5","5","5","5","6","6","6","7","6","5","6","1","7","7","6","6","7","3","6","6","6","6","6","7","5","6","6","6","7","7","6","7","7","7","7","7","7","1","7","7","7","7","6","7","728341831389020160","李","Male","[""好我"",""坏我"",""好他"",""坏他""]","[""强我"",""弱我"",""强他"",""弱他""]","","","","","","","","nonmatch","","","","","","","","","","key","j","16.67300793650793","768","428","f","false","match","img/ellipse.png","好他","好他","prac_ALT2_moral","practice_moral","","","","","","","",""
"null","<span style='color:red; font-size: 70px;'>错误! </span>","null","html-keyboard-response","15","378572","0.0-8.0-0.0-1.0-0.0-1.2","7","7","7","6","6","5","4","5","5","5","5","2","0","2","2","1","2","2","2","5","5","5","5","5","5","5","5","5","5","5","5","5","5","5","5","5","5","5","6","6","6","7","6","5","6","1","7","7","6","6","7","3","6","6","6","6","6","7","5","6","6","6","7","7","6","7","7","7","7","7","7","1","7","7","7","7","6","7","728341831389020160","李","Male","[""好我"",""坏我"",""好他"",""坏他""]","[""强我"",""弱我"",""强他"",""弱他""]","","","","","","","","","","","","","","","","","","","","","","","","","","","","","","feedback_test","","","","","","","",""
"482","","f","psychophysics","16","380056","0.0-8.0-0.0-1.0-0.0-0.3","7","7","7","6","6","5","4","5","5","5","5","2","0","2","2","1","2","2","2","5","5","5","5","5","5","5","5","5","5","5","5","5","5","5","5","5","5","5","6","6","6","7","6","5","6","1","7","7","6","6","7","3","6","6","6","6","6","7","5","6","6","6","7","7","6","7","7","7","7","7","7","1","7","7","7","7","6","7","728341831389020160","李","Male","[""好我"",""坏我"",""好他"",""坏他""]","[""强我"",""弱我"",""强他"",""弱他""]","","","","","","","","match","","","","","","","","","","key","f","16.678735632183773","768","428","j","false","nonmatch","img/hexagon.png","坏我","好我","prac_ALT2_moral","practice_moral","","","","","","","",""
"null","<span style='color:red; font-size: 70px;'>错误! </span>","null","html-keyboard-response","17","380558","0.0-8.0-0.0-1.0-0.0-1.3","7","7","7","6","6","5","4","5","5","5","5","2","0","2","2","1","2","2","2","5","5","5","5","5","5","5","5","5","5","5","5","5","5","5","5","5","5","5","6","6","6","7","6","5","6","1","7","7","6","6","7","3","6","6","6","6","6","7","5","6","6","6","7","7","6","7","7","7","7","7","7","1","7","7","7","7","6","7","728341831389020160","李","Male","[""好我"",""坏我"",""好他"",""坏他""]","[""强我"",""弱我"",""强他"",""弱他""]","","","","","","","","","","","","","","","","","","","","","","","","","","","","","","feedback_test","","","","","","","",""
"986","","j","psychophysics","18","382546","0.0-8.0-0.0-1.0-0.0-0.4","7","7","7","6","6","5","4","5","5","5","5","2","0","2","2","1","2","2","2","5","5","5","5","5","5","5","5","5","5","5","5","5","5","5","5","5","5","5","6","6","6","7","6","5","6","1","7","7","6","6","7","3","6","6","6","6","6","7","5","6","6","6","7","7","6","7","7","7","7","7","7","1","7","7","7","7","6","7","728341831389020160","李","Male","[""好我"",""坏我"",""好他"",""坏他""]","[""强我"",""弱我"",""强他"",""弱他""]","","","","","","","","nonmatch","","","","","","","","","","key","j","16.676940677966233","768","428","j","true","nonmatch","img/hexagon.png","坏他","好我","prac_ALT2_moral","practice_moral","","","","","","","",""
"null","<span style='color:GreenYellow; font-size: 70px;'>正确! </span>","null","html-keyboard-response","19","383047","0.0-8.0-0.0-1.0-0.0-1.4","7","7","7","6","6","5","4","5","5","5","5","2","0","2","2","1","2","2","2","5","5","5","5","5","5","5","5","5","5","5","5","5","5","5","5","5","5","5","6","6","6","7","6","5","6","1","7","7","6","6","7","3","6","6","6","6","6","7","5","6","6","6","7","7","6","7","7","7","7","7","7","1","7","7","7","7","6","7","728341831389020160","李","Male","[""好我"",""坏我"",""好他"",""坏他""]","[""强我"",""弱我"",""强他"",""弱他""]","","","","","","","","","","","","","","","","","","","","","","","","","","","","","","feedback_test","","","","","","","",""
"null","","null","psychophysics","20","385254","0.0-8.0-0.0-1.0-0.0-0.5","7","7","7","6","6","5","4","5","5","5","5","2","0","2","2","1","2","2","2","5","5","5","5","5","5","5","5","5","5","5","5","5","5","5","5","5","5","5","6","6","6","7","6","5","6","1","7","7","6","6","7","3","6","6","6","6","6","7","5","6","6","6","7","7","6","7","7","7","7","7","7","1","7","7","7","7","6","7","728341831389020160","李","Male","[""好我"",""坏我"",""好他"",""坏他""]","[""强我"",""弱我"",""强他"",""弱他""]","","","","","","","","null","","","","","","","","","","key","null","16.674351145037917","768","428","f","false","match","img/trapezoid.png","坏他","坏他","prac_ALT2_moral","practice_moral","","","","","","","",""
"null","<span class='add_' style='color:yellow; font-size: 70px;'> 太慢! </span>","null","html-keyboard-response","21","385756","0.0-8.0-0.0-1.0-0.0-1.5","7","7","7","6","6","5","4","5","5","5","5","2","0","2","2","1","2","2","2","5","5","5","5","5","5","5","5","5","5","5","5","5","5","5","5","5","5","5","6","6","6","7","6","5","6","1","7","7","6","6","7","3","6","6","6","6","6","7","5","6","6","6","7","7","6","7","7","7","7","7","7","1","7","7","7","7","6","7","728341831389020160","李","Male","[""好我"",""坏我"",""好他"",""坏他""]","[""强我"",""弱我"",""强他"",""弱他""]","","","","","","","","","","","","","","","","","","","","","","","","","","","","","","feedback_test","","","","","","","",""
"638","","f","psychophysics","22","387397","0.0-8.0-0.0-1.0-0.0-0.6","7","7","7","6","6","5","4","5","5","5","5","2","0","2","2","1","2","2","2","5","5","5","5","5","5","5","5","5","5","5","5","5","5","5","5","5","5","5","6","6","6","7","6","5","6","1","7","7","6","6","7","3","6","6","6","6","6","7","5","6","6","6","7","7","6","7","7","7","7","7","7","1","7","7","7","7","6","7","728341831389020160","李","Male","[""好我"",""坏我"",""好他"",""坏他""]","[""强我"",""弱我"",""强他"",""弱他""]","","","","","","","","match","","","","","","","","","","key","f","16.672346938775654","768","428","j","false","nonmatch","img/hexagon.png","好他","好我","prac_ALT2_moral","practice_moral","","","","","","","",""
"null","<span style='color:red; font-size: 70px;'>错误! </span>","null","html-keyboard-response","23","387899","0.0-8.0-0.0-1.0-0.0-1.6","7","7","7","6","6","5","4","5","5","5","5","2","0","2","2","1","2","2","2","5","5","5","5","5","5","5","5","5","5","5","5","5","5","5","5","5","5","5","6","6","6","7","6","5","6","1","7","7","6","6","7","3","6","6","6","6","6","7","5","6","6","6","7","7","6","7","7","7","7","7","7","1","7","7","7","7","6","7","728341831389020160","李","Male","[""好我"",""坏我"",""好他"",""坏他""]","[""强我"",""弱我"",""强他"",""弱他""]","","","","","","","","","","","","","","","","","","","","","","","","","","","","","","feedback_test","","","","","","","",""
"929","","f","psychophysics","24","389832","0.0-8.0-0.0-1.0-0.0-0.7","7","7","7","6","6","5","4","5","5","5","5","2","0","2","2","1","2","2","2","5","5","5","5","5","5","5","5","5","5","5","5","5","5","5","5","5","5","5","6","6","6","7","6","5","6","1","7","7","6","6","7","3","6","6","6","6","6","7","5","6","6","6","7","7","6","7","7","7","7","7","7","1","7","7","7","7","6","7","728341831389020160","李","Male","[""好我"",""坏我"",""好他"",""坏他""]","[""强我"",""弱我"",""强他"",""弱他""]","","","","","","","","match","","","","","","","","","","key","f","16.671860869565432","768","428","j","false","nonmatch","img/ellipse.png","坏我","好他","prac_ALT2_moral","practice_moral","","","","","","","",""
"null","<span style='color:red; font-size: 70px;'>错误! </span>","null","html-keyboard-response","25","390334","0.0-8.0-0.0-1.0-0.0-1.7","7","7","7","6","6","5","4","5","5","5","5","2","0","2","2","1","2","2","2","5","5","5","5","5","5","5","5","5","5","5","5","5","5","5","5","5","5","5","6","6","6","7","6","5","6","1","7","7","6","6","7","3","6","6","6","6","6","7","5","6","6","6","7","7","6","7","7","7","7","7","7","1","7","7","7","7","6","7","728341831389020160","李","Male","[""好我"",""坏我"",""好他"",""坏他""]","[""强我"",""弱我"",""强他"",""弱他""]","","","","","","","","","","","","","","","","","","","","","","","","","","","","","","feedback_test","","","","","","","",""
"1116","","f","psychophysics","26","392453","0.0-8.0-0.0-1.0-0.0-0.8","7","7","7","6","6","5","4","5","5","5","5","2","0","2","2","1","2","2","2","5","5","5","5","5","5","5","5","5","5","5","5","5","5","5","5","5","5","5","6","6","6","7","6","5","6","1","7","7","6","6","7","3","6","6","6","6","6","7","5","6","6","6","7","7","6","7","7","7","7","7","7","1","7","7","7","7","6","7","728341831389020160","李","Male","[""好我"",""坏我"",""好他"",""坏他""]","[""强我"",""弱我"",""强他"",""弱他""]","","","","","","","","match","","","","","","","","","","key","f","16.674952380952337","768","428","f","true","match","img/trapezoid.png","坏他","坏他","prac_ALT2_moral","practice_moral","","","","","","","",""
"null","<span style='color:GreenYellow; font-size: 70px;'>正确! </span>","null","html-keyboard-response","27","392955","0.0-8.0-0.0-1.0-0.0-1.8","7","7","7","6","6","5","4","5","5","5","5","2","0","2","2","1","2","2","2","5","5","5","5","5","5","5","5","5","5","5","5","5","5","5","5","5","5","5","6","6","6","7","6","5","6","1","7","7","6","6","7","3","6","6","6","6","6","7","5","6","6","6","7","7","6","7","7","7","7","7","7","1","7","7","7","7","6","7","728341831389020160","李","Male","[""好我"",""坏我"",""好他"",""坏他""]","[""强我"",""弱我"",""强他"",""弱他""]","","","","","","","","","","","","","","","","","","","","","","","","","","","","","","feedback_test","","","","","","","",""
"785","","f","psychophysics","28","394742","0.0-8.0-0.0-1.0-0.0-0.9","7","7","7","6","6","5","4","5","5","5","5","2","0","2","2","1","2","2","2","5","5","5","5","5","5","5","5","5","5","5","5","5","5","5","5","5","5","5","6","6","6","7","6","5","6","1","7","7","6","6","7","3","6","6","6","6","6","7","5","6","6","6","7","7","6","7","7","7","7","7","7","1","7","7","7","7","6","7","728341831389020160","李","Male","[""好我"",""坏我"",""好他"",""坏他""]","[""强我"",""弱我"",""强他"",""弱他""]","","","","","","","","match","","","","","","","","","","key","f","16.674452830188937","768","428","j","false","nonmatch","img/trapezoid.png","好我","坏他","prac_ALT2_moral","practice_moral","","","","","","","",""
"null","<span style='color:red; font-size: 70px;'>错误! </span>","null","html-keyboard-response","29","395256","0.0-8.0-0.0-1.0-0.0-1.9","7","7","7","6","6","5","4","5","5","5","5","2","0","2","2","1","2","2","2","5","5","5","5","5","5","5","5","5","5","5","5","5","5","5","5","5","5","5","6","6","6","7","6","5","6","1","7","7","6","6","7","3","6","6","6","6","6","7","5","6","6","6","7","7","6","7","7","7","7","7","7","1","7","7","7","7","6","7","728341831389020160","李","Male","[""好我"",""坏我"",""好他"",""坏他""]","[""强我"",""弱我"",""强他"",""弱他""]","","","","","","","","","","","","","","","","","","","","","","","","","","","","","","feedback_test","","","","","","","",""
"625","","f","psychophysics","30","396883","0.0-8.0-0.0-1.0-0.0-0.10","7","7","7","6","6","5","4","5","5","5","5","2","0","2","2","1","2","2","2","5","5","5","5","5","5","5","5","5","5","5","5","5","5","5","5","5","5","5","6","6","6","7","6","5","6","1","7","7","6","6","7","3","6","6","6","6","6","7","5","6","6","6","7","7","6","7","7","7","7","7","7","1","7","7","7","7","6","7","728341831389020160","李","Male","[""好我"",""坏我"",""好他"",""坏他""]","[""强我"",""弱我"",""强他"",""弱他""]","","","","","","","","match","","","","","","","","","","key","f","16.673804123711307","768","428","f","true","match","img/hexagon.png","好我","好我","prac_ALT2_moral","practice_moral","","","","","","","",""
"null","<span style='color:GreenYellow; font-size: 70px;'>正确! </span>","null","html-keyboard-response","31","397385","0.0-8.0-0.0-1.0-0.0-1.10","7","7","7","6","6","5","4","5","5","5","5","2","0","2","2","1","2","2","2","5","5","5","5","5","5","5","5","5","5","5","5","5","5","5","5","5","5","5","6","6","6","7","6","5","6","1","7","7","6","6","7","3","6","6","6","6","6","7","5","6","6","6","7","7","6","7","7","7","7","7","7","1","7","7","7","7","6","7","728341831389020160","李","Male","[""好我"",""坏我"",""好他"",""坏他""]","[""强我"",""弱我"",""强他"",""弱他""]","","","","","","","","","","","","","","","","","","","","","","","","","","","","","","feedback_test","","","","","","","",""
"715","","f","psychophysics","32","399102","0.0-8.0-0.0-1.0-0.0-0.11","7","7","7","6","6","5","4","5","5","5","5","2","0","2","2","1","2","2","2","5","5","5","5","5","5","5","5","5","5","5","5","5","5","5","5","5","5","5","6","6","6","7","6","5","6","1","7","7","6","6","7","3","6","6","6","6","6","7","5","6","6","6","7","7","6","7","7","7","7","7","7","1","7","7","7","7","6","7","728341831389020160","李","Male","[""好我"",""坏我"",""好他"",""坏他""]","[""强我"",""弱我"",""强他"",""弱他""]","","","","","","","","match","","","","","","","","","","key","f","16.673715686274342","768","428","f","true","match","img/hexagon.png","好我","好我","prac_ALT2_moral","practice_moral","","","","","","","",""
"null","<span style='color:GreenYellow; font-size: 70px;'>正确! </span>","null","html-keyboard-response","33","399604","0.0-8.0-0.0-1.0-0.0-1.11","7","7","7","6","6","5","4","5","5","5","5","2","0","2","2","1","2","2","2","5","5","5","5","5","5","5","5","5","5","5","5","5","5","5","5","5","5","5","6","6","6","7","6","5","6","1","7","7","6","6","7","3","6","6","6","6","6","7","5","6","6","6","7","7","6","7","7","7","7","7","7","1","7","7","7","7","6","7","728341831389020160","李","Male","[""好我"",""坏我"",""好他"",""坏他""]","[""强我"",""弱我"",""强他"",""弱他""]","","","","","","","","","","","","","","","","","","","","","","","","","","","","","","feedback_test","","","","","","","",""
"939","","f","psychophysics","34","401545","0.0-8.0-0.0-1.0-0.0-0.12","7","7","7","6","6","5","4","5","5","5","5","2","0","2","2","1","2","2","2","5","5","5","5","5","5","5","5","5","5","5","5","5","5","5","5","5","5","5","6","6","6","7","6","5","6","1","7","7","6","6","7","3","6","6","6","6","6","7","5","6","6","6","7","7","6","7","7","7","7","7","7","1","7","7","7","7","6","7","728341831389020160","李","Male","[""好我"",""坏我"",""好他"",""坏他""]","[""强我"",""弱我"",""强他"",""弱他""]","","","","","","","","match","","","","","","","","","","key","f","16.669121739130627","768","428","j","false","nonmatch","img/trapezoid.png","好他","坏他","prac_ALT2_moral","practice_moral","","","","","","","",""
"null","<span style='color:red; font-size: 70px;'>错误! </span>","null","html-keyboard-response","35","402046","0.0-8.0-0.0-1.0-0.0-1.12","7","7","7","6","6","5","4","5","5","5","5","2","0","2","2","1","2","2","2","5","5","5","5","5","5","5","5","5","5","5","5","5","5","5","5","5","5","5","6","6","6","7","6","5","6","1","7","7","6","6","7","3","6","6","6","6","6","7","5","6","6","6","7","7","6","7","7","7","7","7","7","1","7","7","7","7","6","7","728341831389020160","李","Male","[""好我"",""坏我"",""好他"",""坏他""]","[""强我"",""弱我"",""强他"",""弱他""]","","","","","","","","","","","","","","","","","","","","","","","","","","","","","","feedback_test","","","","","","","",""
"797","","f","psychophysics","36","403846","0.0-8.0-0.0-1.0-0.0-0.13","7","7","7","6","6","5","4","5","5","5","5","2","0","2","2","1","2","2","2","5","5","5","5","5","5","5","5","5","5","5","5","5","5","5","5","5","5","5","6","6","6","7","6","5","6","1","7","7","6","6","7","3","6","6","6","6","6","7","5","6","6","6","7","7","6","7","7","7","7","7","7","1","7","7","7","7","6","7","728341831389020160","李","Male","[""好我"",""坏我"",""好他"",""坏他""]","[""强我"",""弱我"",""强他"",""弱他""]","","","","","","","","match","","","","","","","","","","key","f","16.67433644859795","768","428","f","true","match","img/triangle.png","坏我","坏我","prac_ALT2_moral","practice_moral","","","","","","","",""
"null","<span style='color:GreenYellow; font-size: 70px;'>正确! </span>","null","html-keyboard-response","37","404349","0.0-8.0-0.0-1.0-0.0-1.13","7","7","7","6","6","5","4","5","5","5","5","2","0","2","2","1","2","2","2","5","5","5","5","5","5","5","5","5","5","5","5","5","5","5","5","5","5","5","6","6","6","7","6","5","6","1","7","7","6","6","7","3","6","6","6","6","6","7","5","6","6","6","7","7","6","7","7","7","7","7","7","1","7","7","7","7","6","7","728341831389020160","李","Male","[""好我"",""坏我"",""好他"",""坏他""]","[""强我"",""弱我"",""强他"",""弱他""]","","","","","","","","","","","","","","","","","","","","","","","","","","","","","","feedback_test","","","","","","","",""
"974","","f","psychophysics","38","406325","0.0-8.0-0.0-1.0-0.0-0.14","7","7","7","6","6","5","4","5","5","5","5","2","0","2","2","1","2","2","2","5","5","5","5","5","5","5","5","5","5","5","5","5","5","5","5","5","5","5","6","6","6","7","6","5","6","1","7","7","6","6","7","3","6","6","6","6","6","7","5","6","6","6","7","7","6","7","7","7","7","7","7","1","7","7","7","7","6","7","728341831389020160","李","Male","[""好我"",""坏我"",""好他"",""坏他""]","[""强我"",""弱我"",""强他"",""弱他""]","","","","","","","","match","","","","","","","","","","key","f","16.673803418803598","768","428","f","true","match","img/triangle.png","坏我","坏我","prac_ALT2_moral","practice_moral","","","","","","","",""
"null","<span style='color:GreenYellow; font-size: 70px;'>正确! </span>","null","html-keyboard-response","39","406826","0.0-8.0-0.0-1.0-0.0-1.14","7","7","7","6","6","5","4","5","5","5","5","2","0","2","2","1","2","2","2","5","5","5","5","5","5","5","5","5","5","5","5","5","5","5","5","5","5","5","6","6","6","7","6","5","6","1","7","7","6","6","7","3","6","6","6","6","6","7","5","6","6","6","7","7","6","7","7","7","7","7","7","1","7","7","7","7","6","7","728341831389020160","李","Male","[""好我"",""坏我"",""好他"",""坏他""]","[""强我"",""弱我"",""强他"",""弱他""]","","","","","","","","","","","","","","","","","","","","","","","","","","","","","","feedback_test","","","","","","","",""
"980","","j","psychophysics","40","408808","0.0-8.0-0.0-1.0-0.0-0.15","7","7","7","6","6","5","4","5","5","5","5","2","0","2","2","1","2","2","2","5","5","5","5","5","5","5","5","5","5","5","5","5","5","5","5","5","5","5","6","6","6","7","6","5","6","1","7","7","6","6","7","3","6","6","6","6","6","7","5","6","6","6","7","7","6","7","7","7","7","7","7","1","7","7","7","7","6","7","728341831389020160","李","Male","[""好我"",""坏我"",""好他"",""坏他""]","[""强我"",""弱我"",""强他"",""弱他""]","","","","","","","","nonmatch","","","","","","","","","","key","j","16.67675423728829","768","428","f","false","match","img/trapezoid.png","坏他","坏他","prac_ALT2_moral","practice_moral","","","","","","","",""
"null","<span style='color:red; font-size: 70px;'>错误! </span>","null","html-keyboard-response","41","409310","0.0-8.0-0.0-1.0-0.0-1.15","7","7","7","6","6","5","4","5","5","5","5","2","0","2","2","1","2","2","2","5","5","5","5","5","5","5","5","5","5","5","5","5","5","5","5","5","5","5","6","6","6","7","6","5","6","1","7","7","6","6","7","3","6","6","6","6","6","7","5","6","6","6","7","7","6","7","7","7","7","7","7","1","7","7","7","7","6","7","728341831389020160","李","Male","[""好我"",""坏我"",""好他"",""坏他""]","[""强我"",""弱我"",""强他"",""弱他""]","","","","","","","","","","","","","","","","","","","","","","","","","","","","","","feedback_test","","","","","","","",""
"null","","null","psychophysics","42","411515","0.0-8.0-0.0-1.0-0.0-0.16","7","7","7","6","6","5","4","5","5","5","5","2","0","2","2","1","2","2","2","5","5","5","5","5","5","5","5","5","5","5","5","5","5","5","5","5","5","5","6","6","6","7","6","5","6","1","7","7","6","6","7","3","6","6","6","6","6","7","5","6","6","6","7","7","6","7","7","7","7","7","7","1","7","7","7","7","6","7","728341831389020160","李","Male","[""好我"",""坏我"",""好他"",""坏他""]","[""强我"",""弱我"",""强他"",""弱他""]","","","","","","","","null","","","","","","","","","","key","null","16.67361068702303","768","428","f","false","match","img/ellipse.png","好他","好他","prac_ALT2_moral","practice_moral","","","","","","","",""
"null","<span class='add_' style='color:yellow; font-size: 70px;'> 太慢! </span>","null","html-keyboard-response","43","412016","0.0-8.0-0.0-1.0-0.0-1.16","7","7","7","6","6","5","4","5","5","5","5","2","0","2","2","1","2","2","2","5","5","5","5","5","5","5","5","5","5","5","5","5","5","5","5","5","5","5","6","6","6","7","6","5","6","1","7","7","6","6","7","3","6","6","6","6","6","7","5","6","6","6","7","7","6","7","7","7","7","7","7","1","7","7","7","7","6","7","728341831389020160","李","Male","[""好我"",""坏我"",""好他"",""坏他""]","[""强我"",""弱我"",""强他"",""弱他""]","","","","","","","","","","","","","","","","","","","","","","","","","","","","","","feedback_test","","","","","","","",""
"634","","f","psychophysics","44","413653","0.0-8.0-0.0-1.0-0.0-0.17","7","7","7","6","6","5","4","5","5","5","5","2","0","2","2","1","2","2","2","5","5","5","5","5","5","5","5","5","5","5","5","5","5","5","5","5","5","5","6","6","6","7","6","5","6","1","7","7","6","6","7","3","6","6","6","6","6","7","5","6","6","6","7","7","6","7","7","7","7","7","7","1","7","7","7","7","6","7","728341831389020160","李","Male","[""好我"",""坏我"",""好他"",""坏他""]","[""强我"",""弱我"",""强他"",""弱他""]","","","","","","","","match","","","","","","","","","","key","f","16.67862886597928","768","428","j","false","nonmatch","img/triangle.png","好我","坏我","prac_ALT2_moral","practice_moral","","","","","","","",""
"null","<span style='color:red; font-size: 70px;'>错误! </span>","null","html-keyboard-response","45","414154","0.0-8.0-0.0-1.0-0.0-1.17","7","7","7","6","6","5","4","5","5","5","5","2","0","2","2","1","2","2","2","5","5","5","5","5","5","5","5","5","5","5","5","5","5","5","5","5","5","5","6","6","6","7","6","5","6","1","7","7","6","6","7","3","6","6","6","6","6","7","5","6","6","6","7","7","6","7","7","7","7","7","7","1","7","7","7","7","6","7","728341831389020160","李","Male","[""好我"",""坏我"",""好他"",""坏他""]","[""强我"",""弱我"",""强他"",""弱他""]","","","","","","","","","","","","","","","","","","","","","","","","","","","","","","feedback_test","","","","","","","",""
"777","","j","psychophysics","46","415933","0.0-8.0-0.0-1.0-0.0-0.18","7","7","7","6","6","5","4","5","5","5","5","2","0","2","2","1","2","2","2","5","5","5","5","5","5","5","5","5","5","5","5","5","5","5","5","5","5","5","6","6","6","7","6","5","6","1","7","7","6","6","7","3","6","6","6","6","6","7","5","6","6","6","7","7","6","7","7","7","7","7","7","1","7","7","7","7","6","7","728341831389020160","李","Male","[""好我"",""坏我"",""好他"",""坏他""]","[""强我"",""弱我"",""强他"",""弱他""]","","","","","","","","nonmatch","","","","","","","","","","key","j","16.675380952381307","768","428","j","true","nonmatch","img/trapezoid.png","坏我","坏他","prac_ALT2_moral","practice_moral","","","","","","","",""
"null","<span style='color:GreenYellow; font-size: 70px;'>正确! </span>","null","html-keyboard-response","47","416434","0.0-8.0-0.0-1.0-0.0-1.18","7","7","7","6","6","5","4","5","5","5","5","2","0","2","2","1","2","2","2","5","5","5","5","5","5","5","5","5","5","5","5","5","5","5","5","5","5","5","6","6","6","7","6","5","6","1","7","7","6","6","7","3","6","6","6","6","6","7","5","6","6","6","7","7","6","7","7","7","7","7","7","1","7","7","7","7","6","7","728341831389020160","李","Male","[""好我"",""坏我"",""好他"",""坏他""]","[""强我"",""弱我"",""强他"",""弱他""]","","","","","","","","","","","","","","","","","","","","","","","","","","","","","","feedback_test","","","","","","","",""
"828","","f","psychophysics","48","418264","0.0-8.0-0.0-1.0-0.0-0.19","7","7","7","6","6","5","4","5","5","5","5","2","0","2","2","1","2","2","2","5","5","5","5","5","5","5","5","5","5","5","5","5","5","5","5","5","5","5","6","6","6","7","6","5","6","1","7","7","6","6","7","3","6","6","6","6","6","7","5","6","6","6","7","7","6","7","7","7","7","7","7","1","7","7","7","7","6","7","728341831389020160","李","Male","[""好我"",""坏我"",""好他"",""坏他""]","[""强我"",""弱我"",""强他"",""弱他""]","","","","","","","","match","","","","","","","","","","key","f","16.67434862385335","768","428","j","false","nonmatch","img/triangle.png","坏他","坏我","prac_ALT2_moral","practice_moral","","","","","","","",""
"null","<span style='color:red; font-size: 70px;'>错误! </span>","null","html-keyboard-response","49","418765","0.0-8.0-0.0-1.0-0.0-1.19","7","7","7","6","6","5","4","5","5","5","5","2","0","2","2","1","2","2","2","5","5","5","5","5","5","5","5","5","5","5","5","5","5","5","5","5","5","5","6","6","6","7","6","5","6","1","7","7","6","6","7","3","6","6","6","6","6","7","5","6","6","6","7","7","6","7","7","7","7","7","7","1","7","7","7","7","6","7","728341831389020160","李","Male","[""好我"",""坏我"",""好他"",""坏他""]","[""强我"",""弱我"",""强他"",""弱他""]","","","","","","","","","","","","","","","","","","","","","","","","","","","","","","feedback_test","","","","","","","",""
"918","","j","psychophysics","50","420685","0.0-8.0-0.0-1.0-0.0-0.20","7","7","7","6","6","5","4","5","5","5","5","2","0","2","2","1","2","2","2","5","5","5","5","5","5","5","5","5","5","5","5","5","5","5","5","5","5","5","6","6","6","7","6","5","6","1","7","7","6","6","7","3","6","6","6","6","6","7","5","6","6","6","7","7","6","7","7","7","7","7","7","1","7","7","7","7","6","7","728341831389020160","李","Male","[""好我"",""坏我"",""好他"",""坏他""]","[""强我"",""弱我"",""强他"",""弱他""]","","","","","","","","nonmatch","","","","","","","","","","key","j","16.67646491228094","768","428","j","true","nonmatch","img/ellipse.png","好我","好他","prac_ALT2_moral","practice_moral","","","","","","","",""
"null","<span style='color:GreenYellow; font-size: 70px;'>正确! </span>","null","html-keyboard-response","51","421186","0.0-8.0-0.0-1.0-0.0-1.20","7","7","7","6","6","5","4","5","5","5","5","2","0","2","2","1","2","2","2","5","5","5","5","5","5","5","5","5","5","5","5","5","5","5","5","5","5","5","6","6","6","7","6","5","6","1","7","7","6","6","7","3","6","6","6","6","6","7","5","6","6","6","7","7","6","7","7","7","7","7","7","1","7","7","7","7","6","7","728341831389020160","李","Male","[""好我"",""坏我"",""好他"",""坏他""]","[""强我"",""弱我"",""强他"",""弱他""]","","","","","","","","","","","","","","","","","","","","","","","","","","","","","","feedback_test","","","","","","","",""
"973","","j","psychophysics","52","423163","0.0-8.0-0.0-1.0-0.0-0.21","7","7","7","6","6","5","4","5","5","5","5","2","0","2","2","1","2","2","2","5","5","5","5","5","5","5","5","5","5","5","5","5","5","5","5","5","5","5","6","6","6","7","6","5","6","1","7","7","6","6","7","3","6","6","6","6","6","7","5","6","6","6","7","7","6","7","7","7","7","7","7","1","7","7","7","7","6","7","728341831389020160","李","Male","[""好我"",""坏我"",""好他"",""坏他""]","[""强我"",""弱我"",""强他"",""弱他""]","","","","","","","","nonmatch","","","","","","","","","","key","j","16.672872881355726","768","428","j","true","nonmatch","img/triangle.png","好他","坏我","prac_ALT2_moral","practice_moral","","","","","","","",""
"null","<span style='color:GreenYellow; font-size: 70px;'>正确! </span>","null","html-keyboard-response","53","423667","0.0-8.0-0.0-1.0-0.0-1.21","7","7","7","6","6","5","4","5","5","5","5","2","0","2","2","1","2","2","2","5","5","5","5","5","5","5","5","5","5","5","5","5","5","5","5","5","5","5","6","6","6","7","6","5","6","1","7","7","6","6","7","3","6","6","6","6","6","7","5","6","6","6","7","7","6","7","7","7","7","7","7","1","7","7","7","7","6","7","728341831389020160","李","Male","[""好我"",""坏我"",""好他"",""坏他""]","[""强我"",""弱我"",""强他"",""弱他""]","","","","","","","","","","","","","","","","","","","","","","","","","","","","","","feedback_test","","","","","","","",""
"910","","f","psychophysics","54","425580","0.0-8.0-0.0-1.0-0.0-0.22","7","7","7","6","6","5","4","5","5","5","5","2","0","2","2","1","2","2","2","5","5","5","5","5","5","5","5","5","5","5","5","5","5","5","5","5","5","5","6","6","6","7","6","5","6","1","7","7","6","6","7","3","6","6","6","6","6","7","5","6","6","6","7","7","6","7","7","7","7","7","7","1","7","7","7","7","6","7","728341831389020160","李","Male","[""好我"",""坏我"",""好他"",""坏他""]","[""强我"",""弱我"",""强他"",""弱他""]","","","","","","","","match","","","","","","","","","","key","f","16.67595614035095","768","428","f","true","match","img/triangle.png","坏我","坏我","prac_ALT2_moral","practice_moral","","","","","","","",""
"null","<span style='color:GreenYellow; font-size: 70px;'>正确! </span>","null","html-keyboard-response","55","426081","0.0-8.0-0.0-1.0-0.0-1.22","7","7","7","6","6","5","4","5","5","5","5","2","0","2","2","1","2","2","2","5","5","5","5","5","5","5","5","5","5","5","5","5","5","5","5","5","5","5","6","6","6","7","6","5","6","1","7","7","6","6","7","3","6","6","6","6","6","7","5","6","6","6","7","7","6","7","7","7","7","7","7","1","7","7","7","7","6","7","728341831389020160","李","Male","[""好我"",""坏我"",""好他"",""坏他""]","[""强我"",""弱我"",""强他"",""弱他""]","","","","","","","","","","","","","","","","","","","","","","","","","","","","","","feedback_test","","","","","","","",""
"621","","j","psychophysics","56","427704","0.0-8.0-0.0-1.0-0.0-0.23","7","7","7","6","6","5","4","5","5","5","5","2","0","2","2","1","2","2","2","5","5","5","5","5","5","5","5","5","5","5","5","5","5","5","5","5","5","5","6","6","6","7","6","5","6","1","7","7","6","6","7","3","6","6","6","6","6","7","5","6","6","6","7","7","6","7","7","7","7","7","7","1","7","7","7","7","6","7","728341831389020160","李","Male","[""好我"",""坏我"",""好他"",""坏他""]","[""强我"",""弱我"",""强他"",""弱他""]","","","","","","","","nonmatch","","","","","","","","","","key","j","16.673770833333037","768","428","j","true","nonmatch","img/ellipse.png","坏他","好他","prac_ALT2_moral","practice_moral","","","","","","","",""
"null","<span style='color:GreenYellow; font-size: 70px;'>正确! </span>","null","html-keyboard-response","57","428205","0.0-8.0-0.0-1.0-0.0-1.23","7","7","7","6","6","5","4","5","5","5","5","2","0","2","2","1","2","2","2","5","5","5","5","5","5","5","5","5","5","5","5","5","5","5","5","5","5","5","6","6","6","7","6","5","6","1","7","7","6","6","7","3","6","6","6","6","6","7","5","6","6","6","7","7","6","7","7","7","7","7","7","1","7","7","7","7","6","7","728341831389020160","李","Male","[""好我"",""坏我"",""好他"",""坏他""]","[""强我"",""弱我"",""强他"",""弱他""]","","","","","","","","","","","","","","","","","","","","","","","","","","","","","","feedback_test","","","","","","","",""
"731","","f","psychophysics","58","429938","0.0-8.0-0.0-1.0-0.0-0.24","7","7","7","6","6","5","4","5","5","5","5","2","0","2","2","1","2","2","2","5","5","5","5","5","5","5","5","5","5","5","5","5","5","5","5","5","5","5","6","6","6","7","6","5","6","1","7","7","6","6","7","3","6","6","6","6","6","7","5","6","6","6","7","7","6","7","7","7","7","7","7","1","7","7","7","7","6","7","728341831389020160","李","Male","[""好我"",""坏我"",""好他"",""坏他""]","[""强我"",""弱我"",""强他"",""弱他""]","","","","","","","","match","","","","","","","","","","key","f","16.675126213592236","768","428","j","false","nonmatch","img/hexagon.png","好他","好我","prac_ALT2_moral","practice_moral","","","","","","","",""
"null","<span style='color:red; font-size: 70px;'>错误! </span>","null","html-keyboard-response","59","430439","0.0-8.0-0.0-1.0-0.0-1.24","7","7","7","6","6","5","4","5","5","5","5","2","0","2","2","1","2","2","2","5","5","5","5","5","5","5","5","5","5","5","5","5","5","5","5","5","5","5","6","6","6","7","6","5","6","1","7","7","6","6","7","3","6","6","6","6","6","7","5","6","6","6","7","7","6","7","7","7","7","7","7","1","7","7","7","7","6","7","728341831389020160","李","Male","[""好我"",""坏我"",""好他"",""坏他""]","[""强我"",""弱我"",""强他"",""弱他""]","","","","","","","","","","","","","","","","","","","","","","","","","","","","","","feedback_test","","","","","","","",""
"598","","f","psychophysics","60","432039","0.0-8.0-0.0-1.0-0.0-0.25","7","7","7","6","6","5","4","5","5","5","5","2","0","2","2","1","2","2","2","5","5","5","5","5","5","5","5","5","5","5","5","5","5","5","5","5","5","5","6","6","6","7","6","5","6","1","7","7","6","6","7","3","6","6","6","6","6","7","5","6","6","6","7","7","6","7","7","7","7","7","7","1","7","7","7","7","6","7","728341831389020160","李","Male","[""好我"",""坏我"",""好他"",""坏他""]","[""强我"",""弱我"",""强他"",""弱他""]","","","","","","","","match","","","","","","","","","","key","f","16.677526315789375","768","428","f","true","match","img/hexagon.png","好我","好我","prac_ALT2_moral","practice_moral","","","","","","","",""
"null","<span style='color:GreenYellow; font-size: 70px;'>正确! </span>","null","html-keyboard-response","61","432540","0.0-8.0-0.0-1.0-0.0-1.25","7","7","7","6","6","5","4","5","5","5","5","2","0","2","2","1","2","2","2","5","5","5","5","5","5","5","5","5","5","5","5","5","5","5","5","5","5","5","6","6","6","7","6","5","6","1","7","7","6","6","7","3","6","6","6","6","6","7","5","6","6","6","7","7","6","7","7","7","7","7","7","1","7","7","7","7","6","7","728341831389020160","李","Male","[""好我"",""坏我"",""好他"",""坏他""]","[""强我"",""弱我"",""强他"",""弱他""]","","","","","","","","","","","","","","","","","","","","","","","","","","","","","","feedback_test","","","","","","","",""
"725","","f","psychophysics","62","434268","0.0-8.0-0.0-1.0-0.0-0.26","7","7","7","6","6","5","4","5","5","5","5","2","0","2","2","1","2","2","2","5","5","5","5","5","5","5","5","5","5","5","5","5","5","5","5","5","5","5","6","6","6","7","6","5","6","1","7","7","6","6","7","3","6","6","6","6","6","7","5","6","6","6","7","7","6","7","7","7","7","7","7","1","7","7","7","7","6","7","728341831389020160","李","Male","[""好我"",""坏我"",""好他"",""坏他""]","[""强我"",""弱我"",""强他"",""弱他""]","","","","","","","","match","","","","","","","","","","key","f","16.6790485436897","768","428","f","true","match","img/hexagon.png","好我","好我","prac_ALT2_moral","practice_moral","","","","","","","",""
"null","<span style='color:GreenYellow; font-size: 70px;'>正确! </span>","null","html-keyboard-response","63","434770","0.0-8.0-0.0-1.0-0.0-1.26","7","7","7","6","6","5","4","5","5","5","5","2","0","2","2","1","2","2","2","5","5","5","5","5","5","5","5","5","5","5","5","5","5","5","5","5","5","5","6","6","6","7","6","5","6","1","7","7","6","6","7","3","6","6","6","6","6","7","5","6","6","6","7","7","6","7","7","7","7","7","7","1","7","7","7","7","6","7","728341831389020160","李","Male","[""好我"",""坏我"",""好他"",""坏他""]","[""强我"",""弱我"",""强他"",""弱他""]","","","","","","","","","","","","","","","","","","","","","","","","","","","","","","feedback_test","","","","","","","",""
"817","","f","psychophysics","64","436589","0.0-8.0-0.0-1.0-0.0-0.27","7","7","7","6","6","5","4","5","5","5","5","2","0","2","2","1","2","2","2","5","5","5","5","5","5","5","5","5","5","5","5","5","5","5","5","5","5","5","6","6","6","7","6","5","6","1","7","7","6","6","7","3","6","6","6","6","6","7","5","6","6","6","7","7","6","7","7","7","7","7","7","1","7","7","7","7","6","7","728341831389020160","李","Male","[""好我"",""坏我"",""好他"",""坏他""]","[""强我"",""弱我"",""强他"",""弱他""]","","","","","","","","match","","","","","","","","","","key","f","16.678907407407273","768","428","j","false","nonmatch","img/trapezoid.png","好他","坏他","prac_ALT2_moral","practice_moral","","","","","","","",""
"null","<span style='color:red; font-size: 70px;'>错误! </span>","null","html-keyboard-response","65","437091","0.0-8.0-0.0-1.0-0.0-1.27","7","7","7","6","6","5","4","5","5","5","5","2","0","2","2","1","2","2","2","5","5","5","5","5","5","5","5","5","5","5","5","5","5","5","5","5","5","5","6","6","6","7","6","5","6","1","7","7","6","6","7","3","6","6","6","6","6","7","5","6","6","6","7","7","6","7","7","7","7","7","7","1","7","7","7","7","6","7","728341831389020160","李","Male","[""好我"",""坏我"",""好他"",""坏他""]","[""强我"",""弱我"",""强他"",""弱他""]","","","","","","","","","","","","","","","","","","","","","","","","","","","","","","feedback_test","","","","","","","",""
"963","","j","psychophysics","66","439057","0.0-8.0-0.0-1.0-0.0-0.28","7","7","7","6","6","5","4","5","5","5","5","2","0","2","2","1","2","2","2","5","5","5","5","5","5","5","5","5","5","5","5","5","5","5","5","5","5","5","6","6","6","7","6","5","6","1","7","7","6","6","7","3","6","6","6","6","6","7","5","6","6","6","7","7","6","7","7","7","7","7","7","1","7","7","7","7","6","7","728341831389020160","李","Male","[""好我"",""坏我"",""好他"",""坏他""]","[""强我"",""弱我"",""强他"",""弱他""]","","","","","","","","nonmatch","","","","","","","","","","key","j","16.674905982906292","768","428","f","false","match","img/trapezoid.png","坏他","坏他","prac_ALT2_moral","practice_moral","","","","","","","",""
"null","<span style='color:red; font-size: 70px;'>错误! </span>","null","html-keyboard-response","67","439558","0.0-8.0-0.0-1.0-0.0-1.28","7","7","7","6","6","5","4","5","5","5","5","2","0","2","2","1","2","2","2","5","5","5","5","5","5","5","5","5","5","5","5","5","5","5","5","5","5","5","6","6","6","7","6","5","6","1","7","7","6","6","7","3","6","6","6","6","6","7","5","6","6","6","7","7","6","7","7","7","7","7","7","1","7","7","7","7","6","7","728341831389020160","李","Male","[""好我"",""坏我"",""好他"",""坏他""]","[""强我"",""弱我"",""强他"",""弱他""]","","","","","","","","","","","","","","","","","","","","","","","","","","","","","","feedback_test","","","","","","","",""
"999","","f","psychophysics","68","441559","0.0-8.0-0.0-1.0-0.0-0.29","7","7","7","6","6","5","4","5","5","5","5","2","0","2","2","1","2","2","2","5","5","5","5","5","5","5","5","5","5","5","5","5","5","5","5","5","5","5","6","6","6","7","6","5","6","1","7","7","6","6","7","3","6","6","6","6","6","7","5","6","6","6","7","7","6","7","7","7","7","7","7","1","7","7","7","7","6","7","728341831389020160","李","Male","[""好我"",""坏我"",""好他"",""坏他""]","[""强我"",""弱我"",""强他"",""弱他""]","","","","","","","","match","","","","","","","","","","key","f","16.674285714285634","768","428","j","false","nonmatch","img/triangle.png","坏他","坏我","prac_ALT2_moral","practice_moral","","","","","","","",""
"null","<span style='color:red; font-size: 70px;'>错误! </span>","null","html-keyboard-response","69","442061","0.0-8.0-0.0-1.0-0.0-1.29","7","7","7","6","6","5","4","5","5","5","5","2","0","2","2","1","2","2","2","5","5","5","5","5","5","5","5","5","5","5","5","5","5","5","5","5","5","5","6","6","6","7","6","5","6","1","7","7","6","6","7","3","6","6","6","6","6","7","5","6","6","6","7","7","6","7","7","7","7","7","7","1","7","7","7","7","6","7","728341831389020160","李","Male","[""好我"",""坏我"",""好他"",""坏他""]","[""强我"",""弱我"",""强他"",""弱他""]","","","","","","","","","","","","","","","","","","","","","","","","","","","","","","feedback_test","","","","","","","",""
"null","","null","psychophysics","70","444269","0.0-8.0-0.0-1.0-0.0-0.30","7","7","7","6","6","5","4","5","5","5","5","2","0","2","2","1","2","2","2","5","5","5","5","5","5","5","5","5","5","5","5","5","5","5","5","5","5","5","6","6","6","7","6","5","6","1","7","7","6","6","7","3","6","6","6","6","6","7","5","6","6","6","7","7","6","7","7","7","7","7","7","1","7","7","7","7","6","7","728341831389020160","李","Male","[""好我"",""坏我"",""好他"",""坏他""]","[""强我"",""弱我"",""强他"",""弱他""]","","","","","","","","null","","","","","","","","","","key","null","16.67546969696978","768","428","j","false","nonmatch","img/trapezoid.png","坏我","坏他","prac_ALT2_moral","practice_moral","","","","","","","",""
"null","<span class='add_' style='color:yellow; font-size: 70px;'> 太慢! </span>","null","html-keyboard-response","71","444772","0.0-8.0-0.0-1.0-0.0-1.30","7","7","7","6","6","5","4","5","5","5","5","2","0","2","2","1","2","2","2","5","5","5","5","5","5","5","5","5","5","5","5","5","5","5","5","5","5","5","6","6","6","7","6","5","6","1","7","7","6","6","7","3","6","6","6","6","6","7","5","6","6","6","7","7","6","7","7","7","7","7","7","1","7","7","7","7","6","7","728341831389020160","李","Male","[""好我"",""坏我"",""好他"",""坏他""]","[""强我"",""弱我"",""强他"",""弱他""]","","","","","","","","","","","","","","","","","","","","","","","","","","","","","","feedback_test","","","","","","","",""
"890","","j","psychophysics","72","446663","0.0-8.0-0.0-1.0-0.0-0.31","7","7","7","6","6","5","4","5","5","5","5","2","0","2","2","1","2","2","2","5","5","5","5","5","5","5","5","5","5","5","5","5","5","5","5","5","5","5","6","6","6","7","6","5","6","1","7","7","6","6","7","3","6","6","6","6","6","7","5","6","6","6","7","7","6","7","7","7","7","7","7","1","7","7","7","7","6","7","728341831389020160","李","Male","[""好我"",""坏我"",""好他"",""坏他""]","[""强我"",""弱我"",""强他"",""弱他""]","","","","","","","","nonmatch","","","","","","","","","","key","j","16.673901785714406","768","428","j","true","nonmatch","img/hexagon.png","坏他","好我","prac_ALT2_moral","practice_moral","","","","","","","",""
"null","<span style='color:GreenYellow; font-size: 70px;'>正确! </span>","null","html-keyboard-response","73","447164","0.0-8.0-0.0-1.0-0.0-1.31","7","7","7","6","6","5","4","5","5","5","5","2","0","2","2","1","2","2","2","5","5","5","5","5","5","5","5","5","5","5","5","5","5","5","5","5","5","5","6","6","6","7","6","5","6","1","7","7","6","6","7","3","6","6","6","6","6","7","5","6","6","6","7","7","6","7","7","7","7","7","7","1","7","7","7","7","6","7","728341831389020160","李","Male","[""好我"",""坏我"",""好他"",""坏他""]","[""强我"",""弱我"",""强他"",""弱他""]","","","","","","","","","","","","","","","","","","","","","","","","","","","","","","feedback_test","","","","","","","",""
"811","","j","psychophysics","74","448978","0.0-8.0-0.0-1.0-0.0-0.32","7","7","7","6","6","5","4","5","5","5","5","2","0","2","2","1","2","2","2","5","5","5","5","5","5","5","5","5","5","5","5","5","5","5","5","5","5","5","6","6","6","7","6","5","6","1","7","7","6","6","7","3","6","6","6","6","6","7","5","6","6","6","7","7","6","7","7","7","7","7","7","1","7","7","7","7","6","7","728341831389020160","李","Male","[""好我"",""坏我"",""好他"",""坏他""]","[""强我"",""弱我"",""强他"",""弱他""]","","","","","","","","nonmatch","","","","","","","","","","key","j","16.65888785046719","768","428","j","true","nonmatch","img/ellipse.png","好我","好他","prac_ALT2_moral","practice_moral","","","","","","","",""
"null","<span style='color:GreenYellow; font-size: 70px;'>正确! </span>","null","html-keyboard-response","75","449480","0.0-8.0-0.0-1.0-0.0-1.32","7","7","7","6","6","5","4","5","5","5","5","2","0","2","2","1","2","2","2","5","5","5","5","5","5","5","5","5","5","5","5","5","5","5","5","5","5","5","6","6","6","7","6","5","6","1","7","7","6","6","7","3","6","6","6","6","6","7","5","6","6","6","7","7","6","7","7","7","7","7","7","1","7","7","7","7","6","7","728341831389020160","李","Male","[""好我"",""坏我"",""好他"",""坏他""]","[""强我"",""弱我"",""强他"",""弱他""]","","","","","","","","","","","","","","","","","","","","","","","","","","","","","","feedback_test","","","","","","","",""
"969","","j","psychophysics","76","451451","0.0-8.0-0.0-1.0-0.0-0.33","7","7","7","6","6","5","4","5","5","5","5","2","0","2","2","1","2","2","2","5","5","5","5","5","5","5","5","5","5","5","5","5","5","5","5","5","5","5","6","6","6","7","6","5","6","1","7","7","6","6","7","3","6","6","6","6","6","7","5","6","6","6","7","7","6","7","7","7","7","7","7","1","7","7","7","7","6","7","728341831389020160","李","Male","[""好我"",""坏我"",""好他"",""坏他""]","[""强我"",""弱我"",""强他"",""弱他""]","","","","","","","","nonmatch","","","","","","","","","","key","j","16.67279661016961","768","428","j","true","nonmatch","img/hexagon.png","坏我","好我","prac_ALT2_moral","practice_moral","","","","","","","",""
"null","<span style='color:GreenYellow; font-size: 70px;'>正确! </span>","null","html-keyboard-response","77","451952","0.0-8.0-0.0-1.0-0.0-1.33","7","7","7","6","6","5","4","5","5","5","5","2","0","2","2","1","2","2","2","5","5","5","5","5","5","5","5","5","5","5","5","5","5","5","5","5","5","5","6","6","6","7","6","5","6","1","7","7","6","6","7","3","6","6","6","6","6","7","5","6","6","6","7","7","6","7","7","7","7","7","7","1","7","7","7","7","6","7","728341831389020160","李","Male","[""好我"",""坏我"",""好他"",""坏他""]","[""强我"",""弱我"",""强他"",""弱他""]","","","","","","","","","","","","","","","","","","","","","","","","","","","","","","feedback_test","","","","","","","",""
"825","","j","psychophysics","78","453778","0.0-8.0-0.0-1.0-0.0-0.34","7","7","7","6","6","5","4","5","5","5","5","2","0","2","2","1","2","2","2","5","5","5","5","5","5","5","5","5","5","5","5","5","5","5","5","5","5","5","6","6","6","7","6","5","6","1","7","7","6","6","7","3","6","6","6","6","6","7","5","6","6","6","7","7","6","7","7","7","7","7","7","1","7","7","7","7","6","7","728341831389020160","李","Male","[""好我"",""坏我"",""好他"",""坏他""]","[""强我"",""弱我"",""强他"",""弱他""]","","","","","","","","nonmatch","","","","","","","","","","key","j","16.67535185185207","768","428","j","true","nonmatch","img/triangle.png","好我","坏我","prac_ALT2_moral","practice_moral","","","","","","","",""
"null","<span style='color:GreenYellow; font-size: 70px;'>正确! </span>","null","html-keyboard-response","79","454280","0.0-8.0-0.0-1.0-0.0-1.34","7","7","7","6","6","5","4","5","5","5","5","2","0","2","2","1","2","2","2","5","5","5","5","5","5","5","5","5","5","5","5","5","5","5","5","5","5","5","6","6","6","7","6","5","6","1","7","7","6","6","7","3","6","6","6","6","6","7","5","6","6","6","7","7","6","7","7","7","7","7","7","1","7","7","7","7","6","7","728341831389020160","李","Male","[""好我"",""坏我"",""好他"",""坏他""]","[""强我"",""弱我"",""强他"",""弱他""]","","","","","","","","","","","","","","","","","","","","","","","","","","","","","","feedback_test","","","","","","","",""
"675","","f","psychophysics","80","455958","0.0-8.0-0.0-1.0-0.0-0.35","7","7","7","6","6","5","4","5","5","5","5","2","0","2","2","1","2","2","2","5","5","5","5","5","5","5","5","5","5","5","5","5","5","5","5","5","5","5","6","6","6","7","6","5","6","1","7","7","6","6","7","3","6","6","6","6","6","7","5","6","6","6","7","7","6","7","7","7","7","7","7","1","7","7","7","7","6","7","728341831389020160","李","Male","[""好我"",""坏我"",""好他"",""坏他""]","[""强我"",""弱我"",""强他"",""弱他""]","","","","","","","","match","","","","","","","","","","key","f","16.67609999999986","768","428","f","true","match","img/hexagon.png","好我","好我","prac_ALT2_moral","practice_moral","","","","","","","",""
"null","<span style='color:GreenYellow; font-size: 70px;'>正确! </span>","null","html-keyboard-response","81","456461","0.0-8.0-0.0-1.0-0.0-1.35","7","7","7","6","6","5","4","5","5","5","5","2","0","2","2","1","2","2","2","5","5","5","5","5","5","5","5","5","5","5","5","5","5","5","5","5","5","5","6","6","6","7","6","5","6","1","7","7","6","6","7","3","6","6","6","6","6","7","5","6","6","6","7","7","6","7","7","7","7","7","7","1","7","7","7","7","6","7","728341831389020160","李","Male","[""好我"",""坏我"",""好他"",""坏他""]","[""强我"",""弱我"",""强他"",""弱他""]","","","","","","","","","","","","","","","","","","","","","","","","","","","","","","feedback_test","","","","","","","",""
"746","","f","psychophysics","82","458208","0.0-8.0-0.0-1.0-0.0-0.36","7","7","7","6","6","5","4","5","5","5","5","2","0","2","2","1","2","2","2","5","5","5","5","5","5","5","5","5","5","5","5","5","5","5","5","5","5","5","6","6","6","7","6","5","6","1","7","7","6","6","7","3","6","6","6","6","6","7","5","6","6","6","7","7","6","7","7","7","7","7","7","1","7","7","7","7","6","7","728341831389020160","李","Male","[""好我"",""坏我"",""好他"",""坏他""]","[""强我"",""弱我"",""强他"",""弱他""]","","","","","","","","match","","","","","","","","","","key","f","16.674076923076846","768","428","j","false","nonmatch","img/trapezoid.png","好我","坏他","prac_ALT2_moral","practice_moral","","","","","","","",""
"null","<span style='color:red; font-size: 70px;'>错误! </span>","null","html-keyboard-response","83","458711","0.0-8.0-0.0-1.0-0.0-1.36","7","7","7","6","6","5","4","5","5","5","5","2","0","2","2","1","2","2","2","5","5","5","5","5","5","5","5","5","5","5","5","5","5","5","5","5","5","5","6","6","6","7","6","5","6","1","7","7","6","6","7","3","6","6","6","6","6","7","5","6","6","6","7","7","6","7","7","7","7","7","7","1","7","7","7","7","6","7","728341831389020160","李","Male","[""好我"",""坏我"",""好他"",""坏他""]","[""强我"",""弱我"",""强他"",""弱他""]","","","","","","","","","","","","","","","","","","","","","","","","","","","","","","feedback_test","","","","","","","",""
"847","","f","psychophysics","84","460560","0.0-8.0-0.0-1.0-0.0-0.37","7","7","7","6","6","5","4","5","5","5","5","2","0","2","2","1","2","2","2","5","5","5","5","5","5","5","5","5","5","5","5","5","5","5","5","5","5","5","6","6","6","7","6","5","6","1","7","7","6","6","7","3","6","6","6","6","6","7","5","6","6","6","7","7","6","7","7","7","7","7","7","1","7","7","7","7","6","7","728341831389020160","李","Male","[""好我"",""坏我"",""好他"",""坏他""]","[""强我"",""弱我"",""强他"",""弱他""]","","","","","","","","match","","","","","","","","","","key","f","16.674645454545548","768","428","f","true","match","img/triangle.png","坏我","坏我","prac_ALT2_moral","practice_moral","","","","","","","",""
"null","<span style='color:GreenYellow; font-size: 70px;'>正确! </span>","null","html-keyboard-response","85","461061","0.0-8.0-0.0-1.0-0.0-1.37","7","7","7","6","6","5","4","5","5","5","5","2","0","2","2","1","2","2","2","5","5","5","5","5","5","5","5","5","5","5","5","5","5","5","5","5","5","5","6","6","6","7","6","5","6","1","7","7","6","6","7","3","6","6","6","6","6","7","5","6","6","6","7","7","6","7","7","7","7","7","7","1","7","7","7","7","6","7","728341831389020160","李","Male","[""好我"",""坏我"",""好他"",""坏他""]","[""强我"",""弱我"",""强他"",""弱他""]","","","","","","","","","","","","","","","","","","","","","","","","","","","","","","feedback_test","","","","","","","",""
"834","","j","psychophysics","86","462899","0.0-8.0-0.0-1.0-0.0-0.38","7","7","7","6","6","5","4","5","5","5","5","2","0","2","2","1","2","2","2","5","5","5","5","5","5","5","5","5","5","5","5","5","5","5","5","5","5","5","6","6","6","7","6","5","6","1","7","7","6","6","7","3","6","6","6","6","6","7","5","6","6","6","7","7","6","7","7","7","7","7","7","1","7","7","7","7","6","7","728341831389020160","李","Male","[""好我"",""坏我"",""好他"",""坏他""]","[""强我"",""弱我"",""强他"",""弱他""]","","","","","","","","nonmatch","","","","","","","","","","key","j","16.678091743119367","768","428","f","false","match","img/trapezoid.png","坏他","坏他","prac_ALT2_moral","practice_moral","","","","","","","",""
"null","<span style='color:red; font-size: 70px;'>错误! </span>","null","html-keyboard-response","87","463401","0.0-8.0-0.0-1.0-0.0-1.38","7","7","7","6","6","5","4","5","5","5","5","2","0","2","2","1","2","2","2","5","5","5","5","5","5","5","5","5","5","5","5","5","5","5","5","5","5","5","6","6","6","7","6","5","6","1","7","7","6","6","7","3","6","6","6","6","6","7","5","6","6","6","7","7","6","7","7","7","7","7","7","1","7","7","7","7","6","7","728341831389020160","李","Male","[""好我"",""坏我"",""好他"",""坏他""]","[""强我"",""弱我"",""强他"",""弱他""]","","","","","","","","","","","","","","","","","","","","","","","","","","","","","","feedback_test","","","","","","","",""
"862","","f","psychophysics","88","465265","0.0-8.0-0.0-1.0-0.0-0.39","7","7","7","6","6","5","4","5","5","5","5","2","0","2","2","1","2","2","2","5","5","5","5","5","5","5","5","5","5","5","5","5","5","5","5","5","5","5","6","6","6","7","6","5","6","1","7","7","6","6","7","3","6","6","6","6","6","7","5","6","6","6","7","7","6","7","7","7","7","7","7","1","7","7","7","7","6","7","728341831389020160","李","Male","[""好我"",""坏我"",""好他"",""坏他""]","[""强我"",""弱我"",""强他"",""弱他""]","","","","","","","","match","","","","","","","","","","key","f","16.678891891892057","768","428","f","true","match","img/triangle.png","坏我","坏我","prac_ALT2_moral","practice_moral","","","","","","","",""
"null","<span style='color:GreenYellow; font-size: 70px;'>正确! </span>","null","html-keyboard-response","89","465767","0.0-8.0-0.0-1.0-0.0-1.39","7","7","7","6","6","5","4","5","5","5","5","2","0","2","2","1","2","2","2","5","5","5","5","5","5","5","5","5","5","5","5","5","5","5","5","5","5","5","6","6","6","7","6","5","6","1","7","7","6","6","7","3","6","6","6","6","6","7","5","6","6","6","7","7","6","7","7","7","7","7","7","1","7","7","7","7","6","7","728341831389020160","李","Male","[""好我"",""坏我"",""好他"",""坏他""]","[""强我"",""弱我"",""强他"",""弱他""]","","","","","","","","","","","","","","","","","","","","","","","","","","","","","","feedback_test","","","","","","","",""
"830","","f","psychophysics","90","467599","0.0-8.0-0.0-1.0-0.0-0.40","7","7","7","6","6","5","4","5","5","5","5","2","0","2","2","1","2","2","2","5","5","5","5","5","5","5","5","5","5","5","5","5","5","5","5","5","5","5","6","6","6","7","6","5","6","1","7","7","6","6","7","3","6","6","6","6","6","7","5","6","6","6","7","7","6","7","7","7","7","7","7","1","7","7","7","7","6","7","728341831389020160","李","Male","[""好我"",""坏我"",""好他"",""坏他""]","[""强我"",""弱我"",""强他"",""弱他""]","","","","","","","","match","","","","","","","","","","key","f","16.678678899082257","768","428","j","false","nonmatch","img/ellipse.png","坏我","好他","prac_ALT2_moral","practice_moral","","","","","","","",""
"null","<span style='color:red; font-size: 70px;'>错误! </span>","null","html-keyboard-response","91","468102","0.0-8.0-0.0-1.0-0.0-1.40","7","7","7","6","6","5","4","5","5","5","5","2","0","2","2","1","2","2","2","5","5","5","5","5","5","5","5","5","5","5","5","5","5","5","5","5","5","5","6","6","6","7","6","5","6","1","7","7","6","6","7","3","6","6","6","6","6","7","5","6","6","6","7","7","6","7","7","7","7","7","7","1","7","7","7","7","6","7","728341831389020160","李","Male","[""好我"",""坏我"",""好他"",""坏他""]","[""强我"",""弱我"",""强他"",""弱他""]","","","","","","","","","","","","","","","","","","","","","","","","","","","","","","feedback_test","","","","","","","",""
"984","","j","psychophysics","92","470088","0.0-8.0-0.0-1.0-0.0-0.41","7","7","7","6","6","5","4","5","5","5","5","2","0","2","2","1","2","2","2","5","5","5","5","5","5","5","5","5","5","5","5","5","5","5","5","5","5","5","6","6","6","7","6","5","6","1","7","7","6","6","7","3","6","6","6","6","6","7","5","6","6","6","7","7","6","7","7","7","7","7","7","1","7","7","7","7","6","7","728341831389020160","李","Male","[""好我"",""坏我"",""好他"",""坏他""]","[""强我"",""弱我"",""强他"",""弱他""]","","","","","","","","nonmatch","","","","","","","","","","key","j","16.675542372881665","768","428","f","false","match","img/trapezoid.png","坏他","坏他","prac_ALT2_moral","practice_moral","","","","","","","",""
"null","<span style='color:red; font-size: 70px;'>错误! </span>","null","html-keyboard-response","93","470589","0.0-8.0-0.0-1.0-0.0-1.41","7","7","7","6","6","5","4","5","5","5","5","2","0","2","2","1","2","2","2","5","5","5","5","5","5","5","5","5","5","5","5","5","5","5","5","5","5","5","6","6","6","7","6","5","6","1","7","7","6","6","7","3","6","6","6","6","6","7","5","6","6","6","7","7","6","7","7","7","7","7","7","1","7","7","7","7","6","7","728341831389020160","李","Male","[""好我"",""坏我"",""好他"",""坏他""]","[""强我"",""弱我"",""强他"",""弱他""]","","","","","","","","","","","","","","","","","","","","","","","","","","","","","","feedback_test","","","","","","","",""
"748","","j","psychophysics","94","472340","0.0-8.0-0.0-1.0-0.0-0.42","7","7","7","6","6","5","4","5","5","5","5","2","0","2","2","1","2","2","2","5","5","5","5","5","5","5","5","5","5","5","5","5","5","5","5","5","5","5","6","6","6","7","6","5","6","1","7","7","6","6","7","3","6","6","6","6","6","7","5","6","6","6","7","7","6","7","7","7","7","7","7","1","7","7","7","7","6","7","728341831389020160","李","Male","[""好我"",""坏我"",""好他"",""坏他""]","[""强我"",""弱我"",""强他"",""弱他""]","","","","","","","","nonmatch","","","","","","","","","","key","j","16.6598349514562","768","428","f","false","match","img/ellipse.png","好他","好他","prac_ALT2_moral","practice_moral","","","","","","","",""
"null","<span style='color:red; font-size: 70px;'>错误! </span>","null","html-keyboard-response","95","472842","0.0-8.0-0.0-1.0-0.0-1.42","7","7","7","6","6","5","4","5","5","5","5","2","0","2","2","1","2","2","2","5","5","5","5","5","5","5","5","5","5","5","5","5","5","5","5","5","5","5","6","6","6","7","6","5","6","1","7","7","6","6","7","3","6","6","6","6","6","7","5","6","6","6","7","7","6","7","7","7","7","7","7","1","7","7","7","7","6","7","728341831389020160","李","Male","[""好我"",""坏我"",""好他"",""坏他""]","[""强我"",""弱我"",""强他"",""弱他""]","","","","","","","","","","","","","","","","","","","","","","","","","","","","","","feedback_test","","","","","","","",""
"706","","f","psychophysics","96","474550","0.0-8.0-0.0-1.0-0.0-0.43","7","7","7","6","6","5","4","5","5","5","5","2","0","2","2","1","2","2","2","5","5","5","5","5","5","5","5","5","5","5","5","5","5","5","5","5","5","5","6","6","6","7","6","5","6","1","7","7","6","6","7","3","6","6","6","6","6","7","5","6","6","6","7","7","6","7","7","7","7","7","7","1","7","7","7","7","6","7","728341831389020160","李","Male","[""好我"",""坏我"",""好他"",""坏他""]","[""强我"",""弱我"",""强他"",""弱他""]","","","","","","","","match","","","","","","","","","","key","f","16.67738613861355","768","428","f","true","match","img/triangle.png","坏我","坏我","prac_ALT2_moral","practice_moral","","","","","","","",""
"null","<span style='color:GreenYellow; font-size: 70px;'>正确! </span>","null","html-keyboard-response","97","475053","0.0-8.0-0.0-1.0-0.0-1.43","7","7","7","6","6","5","4","5","5","5","5","2","0","2","2","1","2","2","2","5","5","5","5","5","5","5","5","5","5","5","5","5","5","5","5","5","5","5","6","6","6","7","6","5","6","1","7","7","6","6","7","3","6","6","6","6","6","7","5","6","6","6","7","7","6","7","7","7","7","7","7","1","7","7","7","7","6","7","728341831389020160","李","Male","[""好我"",""坏我"",""好他"",""坏他""]","[""强我"",""弱我"",""强他"",""弱他""]","","","","","","","","","","","","","","","","","","","","","","","","","","","","","","feedback_test","","","","","","","",""
"853","","j","psychophysics","98","476908","0.0-8.0-0.0-1.0-0.0-0.44","7","7","7","6","6","5","4","5","5","5","5","2","0","2","2","1","2","2","2","5","5","5","5","5","5","5","5","5","5","5","5","5","5","5","5","5","5","5","6","6","6","7","6","5","6","1","7","7","6","6","7","3","6","6","6","6","6","7","5","6","6","6","7","7","6","7","7","7","7","7","7","1","7","7","7","7","6","7","728341831389020160","李","Male","[""好我"",""坏我"",""好他"",""坏他""]","[""强我"",""弱我"",""强他"",""弱他""]","","","","","","","","nonmatch","","","","","","","","","","key","j","16.6732818181817","768","428","j","true","nonmatch","img/triangle.png","好他","坏我","prac_ALT2_moral","practice_moral","","","","","","","",""
"null","<span style='color:GreenYellow; font-size: 70px;'>正确! </span>","null","html-keyboard-response","99","477411","0.0-8.0-0.0-1.0-0.0-1.44","7","7","7","6","6","5","4","5","5","5","5","2","0","2","2","1","2","2","2","5","5","5","5","5","5","5","5","5","5","5","5","5","5","5","5","5","5","5","6","6","6","7","6","5","6","1","7","7","6","6","7","3","6","6","6","6","6","7","5","6","6","6","7","7","6","7","7","7","7","7","7","1","7","7","7","7","6","7","728341831389020160","李","Male","[""好我"",""坏我"",""好他"",""坏他""]","[""强我"",""弱我"",""强他"",""弱他""]","","","","","","","","","","","","","","","","","","","","","","","","","","","","","","feedback_test","","","","","","","",""
"627","","j","psychophysics","100","479039","0.0-8.0-0.0-1.0-0.0-0.45","7","7","7","6","6","5","4","5","5","5","5","2","0","2","2","1","2","2","2","5","5","5","5","5","5","5","5","5","5","5","5","5","5","5","5","5","5","5","6","6","6","7","6","5","6","1","7","7","6","6","7","3","6","6","6","6","6","7","5","6","6","6","7","7","6","7","7","7","7","7","7","1","7","7","7","7","6","7","728341831389020160","李","Male","[""好我"",""坏我"",""好他"",""坏他""]","[""强我"",""弱我"",""强他"",""弱他""]","","","","","","","","nonmatch","","","","","","","","","","key","j","16.672552083333358","768","428","f","false","match","img/ellipse.png","好他","好他","prac_ALT2_moral","practice_moral","","","","","","","",""
"null","<span style='color:red; font-size: 70px;'>错误! </span>","null","html-keyboard-response","101","479540","0.0-8.0-0.0-1.0-0.0-1.45","7","7","7","6","6","5","4","5","5","5","5","2","0","2","2","1","2","2","2","5","5","5","5","5","5","5","5","5","5","5","5","5","5","5","5","5","5","5","6","6","6","7","6","5","6","1","7","7","6","6","7","3","6","6","6","6","6","7","5","6","6","6","7","7","6","7","7","7","7","7","7","1","7","7","7","7","6","7","728341831389020160","李","Male","[""好我"",""坏我"",""好他"",""坏他""]","[""强我"",""弱我"",""强他"",""弱他""]","","","","","","","","","","","","","","","","","","","","","","","","","","","","","","feedback_test","","","","","","","",""
"769","","f","psychophysics","102","481311","0.0-8.0-0.0-1.0-0.0-0.46","7","7","7","6","6","5","4","5","5","5","5","2","0","2","2","1","2","2","2","5","5","5","5","5","5","5","5","5","5","5","5","5","5","5","5","5","5","5","6","6","6","7","6","5","6","1","7","7","6","6","7","3","6","6","6","6","6","7","5","6","6","6","7","7","6","7","7","7","7","7","7","1","7","7","7","7","6","7","728341831389020160","李","Male","[""好我"",""坏我"",""好他"",""坏他""]","[""强我"",""弱我"",""强他"",""弱他""]","","","","","","","","match","","","","","","","","","","key","f","16.675466666666658","768","428","j","false","nonmatch","img/ellipse.png","坏他","好他","prac_ALT2_moral","practice_moral","","","","","","","",""
"null","<span style='color:red; font-size: 70px;'>错误! </span>","null","html-keyboard-response","103","481812","0.0-8.0-0.0-1.0-0.0-1.46","7","7","7","6","6","5","4","5","5","5","5","2","0","2","2","1","2","2","2","5","5","5","5","5","5","5","5","5","5","5","5","5","5","5","5","5","5","5","6","6","6","7","6","5","6","1","7","7","6","6","7","3","6","6","6","6","6","7","5","6","6","6","7","7","6","7","7","7","7","7","7","1","7","7","7","7","6","7","728341831389020160","李","Male","[""好我"",""坏我"",""好他"",""坏他""]","[""强我"",""弱我"",""强他"",""弱他""]","","","","","","","","","","","","","","","","","","","","","","","","","","","","","","feedback_test","","","","","","","",""
"611","","j","psychophysics","104","483426","0.0-8.0-0.0-1.0-0.0-0.47","7","7","7","6","6","5","4","5","5","5","5","2","0","2","2","1","2","2","2","5","5","5","5","5","5","5","5","5","5","5","5","5","5","5","5","5","5","5","6","6","6","7","6","5","6","1","7","7","6","6","7","3","6","6","6","6","6","7","5","6","6","6","7","7","6","7","7","7","7","7","7","1","7","7","7","7","6","7","728341831389020160","李","Male","[""好我"",""坏我"",""好他"",""坏他""]","[""强我"",""弱我"",""强他"",""弱他""]","","","","","","","","nonmatch","","","","","","","","","","key","j","16.670357894736316","768","428","f","false","match","img/ellipse.png","好他","好他","prac_ALT2_moral","practice_moral","","","","","","","",""
"null","<span style='color:red; font-size: 70px;'>错误! </span>","null","html-keyboard-response","105","483927","0.0-8.0-0.0-1.0-0.0-1.47","7","7","7","6","6","5","4","5","5","5","5","2","0","2","2","1","2","2","2","5","5","5","5","5","5","5","5","5","5","5","5","5","5","5","5","5","5","5","6","6","6","7","6","5","6","1","7","7","6","6","7","3","6","6","6","6","6","7","5","6","6","6","7","7","6","7","7","7","7","7","7","1","7","7","7","7","6","7","728341831389020160","李","Male","[""好我"",""坏我"",""好他"",""坏他""]","[""强我"",""弱我"",""强他"",""弱他""]","","","","","","","","","","","","","","","","","","","","","","","","","","","","","","feedback_test","","","","","","","",""
"6672","<style>.context{color:white; font-size: 35px; line-height:40px}</style>                            <div><p class='context'>您正确回答了48% 的试次。</p><p class='context'>您的平均反应时为827毫秒。</p><p class='context'>按空格键继续。</p></div>"," ","html-keyboard-response","106","490604","0.0-8.0-0.0-1.0-1.0-0.0","7","7","7","6","6","5","4","5","5","5","5","2","0","2","2","1","2","2","2","5","5","5","5","5","5","5","5","5","5","5","5","5","5","5","5","5","5","5","6","6","6","7","6","5","6","1","7","7","6","6","7","3","6","6","6","6","6","7","5","6","6","6","7","7","6","7","7","7","7","7","7","1","7","7","7","7","6","7","728341831389020160","李","Male","[""好我"",""坏我"",""好他"",""坏他""]","[""强我"",""弱我"",""强他"",""弱他""]","","","","","","","","","","","","","","","","","","","","","","","","","","","","","","","","","","","","","",""
"8839","","","instructions","107","499450","0.0-8.0-0.0-1.0-1.0-1.0","7","7","7","6","6","5","4","5","5","5","5","2","0","2","2","1","2","2","2","5","5","5","5","5","5","5","5","5","5","5","5","5","5","5","5","5","5","5","6","6","6","7","6","5","6","1","7","7","6","6","7","3","6","6","6","6","6","7","5","6","6","6","7","7","6","7","7","7","7","7","7","1","7","7","7","7","6","7","728341831389020160","李","Male","[""好我"",""坏我"",""好他"",""坏他""]","[""强我"",""弱我"",""强他"",""弱他""]","","","","","","","","","","","","","","","","","[{""page_index"":0,""viewing_time"":3656},{""page_index"":1,""viewing_time"":3087},{""page_index"":2,""viewing_time"":2096}]","","","","","","","","","","","","","","","","","","","","",""
"788","","j","psychophysics","108","501240","0.0-8.0-0.0-1.1-0.1-0.48","7","7","7","6","6","5","4","5","5","5","5","2","0","2","2","1","2","2","2","5","5","5","5","5","5","5","5","5","5","5","5","5","5","5","5","5","5","5","6","6","6","7","6","5","6","1","7","7","6","6","7","3","6","6","6","6","6","7","5","6","6","6","7","7","6","7","7","7","7","7","7","1","7","7","7","7","6","7","728341831389020160","李","Male","[""好我"",""坏我"",""好他"",""坏他""]","[""强我"",""弱我"",""强他"",""弱他""]","","","","","","","","nonmatch","","","","","","","","","","key","j","16.67356603773572","768","428","j","true","nonmatch","img/triangle.png","好我","坏我","prac_ALT2_moral","practice_moral","","","","","","","",""
"null","<span style='color:GreenYellow; font-size: 70px;'>正确! </span>","null","html-keyboard-response","109","501742","0.0-8.0-0.0-1.1-0.1-1.48","7","7","7","6","6","5","4","5","5","5","5","2","0","2","2","1","2","2","2","5","5","5","5","5","5","5","5","5","5","5","5","5","5","5","5","5","5","5","6","6","6","7","6","5","6","1","7","7","6","6","7","3","6","6","6","6","6","7","5","6","6","6","7","7","6","7","7","7","7","7","7","1","7","7","7","7","6","7","728341831389020160","李","Male","[""好我"",""坏我"",""好他"",""坏他""]","[""强我"",""弱我"",""强他"",""弱他""]","","","","","","","","","","","","","","","","","","","","","","","","","","","","","","feedback_test","","","","","","","",""
"532","","j","psychophysics","110","503276","0.0-8.0-0.0-1.1-0.1-0.49","7","7","7","6","6","5","4","5","5","5","5","2","0","2","2","1","2","2","2","5","5","5","5","5","5","5","5","5","5","5","5","5","5","5","5","5","5","5","6","6","6","7","6","5","6","1","7","7","6","6","7","3","6","6","6","6","6","7","5","6","6","6","7","7","6","7","7","7","7","7","7","1","7","7","7","7","6","7","728341831389020160","李","Male","[""好我"",""坏我"",""好他"",""坏他""]","[""强我"",""弱我"",""强他"",""弱他""]","","","","","","","","nonmatch","","","","","","","","","","key","j","16.672395604395867","768","428","f","false","match","img/ellipse.png","好他","好他","prac_ALT2_moral","practice_moral","","","","","","","",""
"null","<span style='color:red; font-size: 70px;'>错误! </span>","null","html-keyboard-response","111","503777","0.0-8.0-0.0-1.1-0.1-1.49","7","7","7","6","6","5","4","5","5","5","5","2","0","2","2","1","2","2","2","5","5","5","5","5","5","5","5","5","5","5","5","5","5","5","5","5","5","5","6","6","6","7","6","5","6","1","7","7","6","6","7","3","6","6","6","6","6","7","5","6","6","6","7","7","6","7","7","7","7","7","7","1","7","7","7","7","6","7","728341831389020160","李","Male","[""好我"",""坏我"",""好他"",""坏他""]","[""强我"",""弱我"",""强他"",""弱他""]","","","","","","","","","","","","","","","","","","","","","","","","","","","","","","feedback_test","","","","","","","",""
"836","","j","psychophysics","112","505616","0.0-8.0-0.0-1.1-0.1-0.50","7","7","7","6","6","5","4","5","5","5","5","2","0","2","2","1","2","2","2","5","5","5","5","5","5","5","5","5","5","5","5","5","5","5","5","5","5","5","6","6","6","7","6","5","6","1","7","7","6","6","7","3","6","6","6","6","6","7","5","6","6","6","7","7","6","7","7","7","7","7","7","1","7","7","7","7","6","7","728341831389020160","李","Male","[""好我"",""坏我"",""好他"",""坏他""]","[""强我"",""弱我"",""强他"",""弱他""]","","","","","","","","nonmatch","","","","","","","","","","key","j","16.674100917431318","768","428","j","true","nonmatch","img/triangle.png","坏他","坏我","prac_ALT2_moral","practice_moral","","","","","","","",""
"null","<span style='color:GreenYellow; font-size: 70px;'>正确! </span>","null","html-keyboard-response","113","506118","0.0-8.0-0.0-1.1-0.1-1.50","7","7","7","6","6","5","4","5","5","5","5","2","0","2","2","1","2","2","2","5","5","5","5","5","5","5","5","5","5","5","5","5","5","5","5","5","5","5","6","6","6","7","6","5","6","1","7","7","6","6","7","3","6","6","6","6","6","7","5","6","6","6","7","7","6","7","7","7","7","7","7","1","7","7","7","7","6","7","728341831389020160","李","Male","[""好我"",""坏我"",""好他"",""坏他""]","[""强我"",""弱我"",""强他"",""弱他""]","","","","","","","","","","","","","","","","","","","","","","","","","","","","","","feedback_test","","","","","","","",""
"623","","j","psychophysics","114","507744","0.0-8.0-0.0-1.1-0.1-0.51","7","7","7","6","6","5","4","5","5","5","5","2","0","2","2","1","2","2","2","5","5","5","5","5","5","5","5","5","5","5","5","5","5","5","5","5","5","5","6","6","6","7","6","5","6","1","7","7","6","6","7","3","6","6","6","6","6","7","5","6","6","6","7","7","6","7","7","7","7","7","7","1","7","7","7","7","6","7","728341831389020160","李","Male","[""好我"",""坏我"",""好他"",""坏他""]","[""强我"",""弱我"",""强他"",""弱他""]","","","","","","","","nonmatch","","","","","","","","","","key","j","16.67326804123682","768","428","j","true","nonmatch","img/ellipse.png","坏他","好他","prac_ALT2_moral","practice_moral","","","","","","","",""
"null","<span style='color:GreenYellow; font-size: 70px;'>正确! </span>","null","html-keyboard-response","115","508247","0.0-8.0-0.0-1.1-0.1-1.51","7","7","7","6","6","5","4","5","5","5","5","2","0","2","2","1","2","2","2","5","5","5","5","5","5","5","5","5","5","5","5","5","5","5","5","5","5","5","6","6","6","7","6","5","6","1","7","7","6","6","7","3","6","6","6","6","6","7","5","6","6","6","7","7","6","7","7","7","7","7","7","1","7","7","7","7","6","7","728341831389020160","李","Male","[""好我"",""坏我"",""好他"",""坏他""]","[""强我"",""弱我"",""强他"",""弱他""]","","","","","","","","","","","","","","","","","","","","","","","","","","","","","","feedback_test","","","","","","","",""
"584","","f","psychophysics","116","509832","0.0-8.0-0.0-1.1-0.1-0.52","7","7","7","6","6","5","4","5","5","5","5","2","0","2","2","1","2","2","2","5","5","5","5","5","5","5","5","5","5","5","5","5","5","5","5","5","5","5","6","6","6","7","6","5","6","1","7","7","6","6","7","3","6","6","6","6","6","7","5","6","6","6","7","7","6","7","7","7","7","7","7","1","7","7","7","7","6","7","728341831389020160","李","Male","[""好我"",""坏我"",""好他"",""坏他""]","[""强我"",""弱我"",""强他"",""弱他""]","","","","","","","","match","","","","","","","","","","key","f","16.67338297872351","768","428","j","false","nonmatch","img/trapezoid.png","好他","坏他","prac_ALT2_moral","practice_moral","","","","","","","",""
"null","<span style='color:red; font-size: 70px;'>错误! </span>","null","html-keyboard-response","117","510334","0.0-8.0-0.0-1.1-0.1-1.52","7","7","7","6","6","5","4","5","5","5","5","2","0","2","2","1","2","2","2","5","5","5","5","5","5","5","5","5","5","5","5","5","5","5","5","5","5","5","6","6","6","7","6","5","6","1","7","7","6","6","7","3","6","6","6","6","6","7","5","6","6","6","7","7","6","7","7","7","7","7","7","1","7","7","7","7","6","7","728341831389020160","李","Male","[""好我"",""坏我"",""好他"",""坏他""]","[""强我"",""弱我"",""强他"",""弱他""]","","","","","","","","","","","","","","","","","","","","","","","","","","","","","","feedback_test","","","","","","","",""
"743","","j","psychophysics","118","512080","0.0-8.0-0.0-1.1-0.1-0.53","7","7","7","6","6","5","4","5","5","5","5","2","0","2","2","1","2","2","2","5","5","5","5","5","5","5","5","5","5","5","5","5","5","5","5","5","5","5","6","6","6","7","6","5","6","1","7","7","6","6","7","3","6","6","6","6","6","7","5","6","6","6","7","7","6","7","7","7","7","7","7","1","7","7","7","7","6","7","728341831389020160","李","Male","[""好我"",""坏我"",""好他"",""坏他""]","[""强我"",""弱我"",""强他"",""弱他""]","","","","","","","","nonmatch","","","","","","","","","","key","j","16.673298076922947","768","428","j","true","nonmatch","img/trapezoid.png","坏我","坏他","prac_ALT2_moral","practice_moral","","","","","","","",""
"null","<span style='color:GreenYellow; font-size: 70px;'>正确! </span>","null","html-keyboard-response","119","512581","0.0-8.0-0.0-1.1-0.1-1.53","7","7","7","6","6","5","4","5","5","5","5","2","0","2","2","1","2","2","2","5","5","5","5","5","5","5","5","5","5","5","5","5","5","5","5","5","5","5","6","6","6","7","6","5","6","1","7","7","6","6","7","3","6","6","6","6","6","7","5","6","6","6","7","7","6","7","7","7","7","7","7","1","7","7","7","7","6","7","728341831389020160","李","Male","[""好我"",""坏我"",""好他"",""坏他""]","[""强我"",""弱我"",""强他"",""弱他""]","","","","","","","","","","","","","","","","","","","","","","","","","","","","","","feedback_test","","","","","","","",""
"590","","j","psychophysics","120","514174","0.0-8.0-0.0-1.1-0.1-0.54","7","7","7","6","6","5","4","5","5","5","5","2","0","2","2","1","2","2","2","5","5","5","5","5","5","5","5","5","5","5","5","5","5","5","5","5","5","5","6","6","6","7","6","5","6","1","7","7","6","6","7","3","6","6","6","6","6","7","5","6","6","6","7","7","6","7","7","7","7","7","7","1","7","7","7","7","6","7","728341831389020160","李","Male","[""好我"",""坏我"",""好他"",""坏他""]","[""强我"",""弱我"",""强他"",""弱他""]","","","","","","","","nonmatch","","","","","","","","","","key","j","16.679191489361518","768","428","f","false","match","img/trapezoid.png","坏他","坏他","prac_ALT2_moral","practice_moral","","","","","","","",""
"null","<span style='color:red; font-size: 70px;'>错误! </span>","null","html-keyboard-response","121","514676","0.0-8.0-0.0-1.1-0.1-1.54","7","7","7","6","6","5","4","5","5","5","5","2","0","2","2","1","2","2","2","5","5","5","5","5","5","5","5","5","5","5","5","5","5","5","5","5","5","5","6","6","6","7","6","5","6","1","7","7","6","6","7","3","6","6","6","6","6","7","5","6","6","6","7","7","6","7","7","7","7","7","7","1","7","7","7","7","6","7","728341831389020160","李","Male","[""好我"",""坏我"",""好他"",""坏他""]","[""强我"",""弱我"",""强他"",""弱他""]","","","","","","","","","","","","","","","","","","","","","","","","","","","","","","feedback_test","","","","","","","",""
"459","","f","psychophysics","122","516136","0.0-8.0-0.0-1.1-0.1-0.55","7","7","7","6","6","5","4","5","5","5","5","2","0","2","2","1","2","2","2","5","5","5","5","5","5","5","5","5","5","5","5","5","5","5","5","5","5","5","6","6","6","7","6","5","6","1","7","7","6","6","7","3","6","6","6","6","6","7","5","6","6","6","7","7","6","7","7","7","7","7","7","1","7","7","7","7","6","7","728341831389020160","李","Male","[""好我"",""坏我"",""好他"",""坏他""]","[""强我"",""弱我"",""强他"",""弱他""]","","","","","","","","match","","","","","","","","","","key","f","16.674523255814186","768","428","j","false","nonmatch","img/trapezoid.png","好我","坏他","prac_ALT2_moral","practice_moral","","","","","","","",""
"null","<span style='color:red; font-size: 70px;'>错误! </span>","null","html-keyboard-response","123","516637","0.0-8.0-0.0-1.1-0.1-1.55","7","7","7","6","6","5","4","5","5","5","5","2","0","2","2","1","2","2","2","5","5","5","5","5","5","5","5","5","5","5","5","5","5","5","5","5","5","5","6","6","6","7","6","5","6","1","7","7","6","6","7","3","6","6","6","6","6","7","5","6","6","6","7","7","6","7","7","7","7","7","7","1","7","7","7","7","6","7","728341831389020160","李","Male","[""好我"",""坏我"",""好他"",""坏他""]","[""强我"",""弱我"",""强他"",""弱他""]","","","","","","","","","","","","","","","","","","","","","","","","","","","","","","feedback_test","","","","","","","",""
"919","","j","psychophysics","124","518559","0.0-8.0-0.0-1.1-0.1-0.56","7","7","7","6","6","5","4","5","5","5","5","2","0","2","2","1","2","2","2","5","5","5","5","5","5","5","5","5","5","5","5","5","5","5","5","5","5","5","6","6","6","7","6","5","6","1","7","7","6","6","7","3","6","6","6","6","6","7","5","6","6","6","7","7","6","7","7","7","7","7","7","1","7","7","7","7","6","7","728341831389020160","李","Male","[""好我"",""坏我"",""好他"",""坏他""]","[""强我"",""弱我"",""强他"",""弱他""]","","","","","","","","nonmatch","","","","","","","","","","key","j","16.674298245613993","768","428","j","true","nonmatch","img/hexagon.png","好他","好我","prac_ALT2_moral","practice_moral","","","","","","","",""
"null","<span style='color:GreenYellow; font-size: 70px;'>正确! </span>","null","html-keyboard-response","125","519060","0.0-8.0-0.0-1.1-0.1-1.56","7","7","7","6","6","5","4","5","5","5","5","2","0","2","2","1","2","2","2","5","5","5","5","5","5","5","5","5","5","5","5","5","5","5","5","5","5","5","6","6","6","7","6","5","6","1","7","7","6","6","7","3","6","6","6","6","6","7","5","6","6","6","7","7","6","7","7","7","7","7","7","1","7","7","7","7","6","7","728341831389020160","李","Male","[""好我"",""坏我"",""好他"",""坏他""]","[""强我"",""弱我"",""强他"",""弱他""]","","","","","","","","","","","","","","","","","","","","","","","","","","","","","","feedback_test","","","","","","","",""
"799","","f","psychophysics","126","520863","0.0-8.0-0.0-1.1-0.1-0.57","7","7","7","6","6","5","4","5","5","5","5","2","0","2","2","1","2","2","2","5","5","5","5","5","5","5","5","5","5","5","5","5","5","5","5","5","5","5","6","6","6","7","6","5","6","1","7","7","6","6","7","3","6","6","6","6","6","7","5","6","6","6","7","7","6","7","7","7","7","7","7","1","7","7","7","7","6","7","728341831389020160","李","Male","[""好我"",""坏我"",""好他"",""坏他""]","[""强我"",""弱我"",""强他"",""弱他""]","","","","","","","","match","","","","","","","","","","key","f","16.672953271027982","768","428","f","true","match","img/triangle.png","坏我","坏我","prac_ALT2_moral","practice_moral","","","","","","","",""
"null","<span style='color:GreenYellow; font-size: 70px;'>正确! </span>","null","html-keyboard-response","127","521364","0.0-8.0-0.0-1.1-0.1-1.57","7","7","7","6","6","5","4","5","5","5","5","2","0","2","2","1","2","2","2","5","5","5","5","5","5","5","5","5","5","5","5","5","5","5","5","5","5","5","6","6","6","7","6","5","6","1","7","7","6","6","7","3","6","6","6","6","6","7","5","6","6","6","7","7","6","7","7","7","7","7","7","1","7","7","7","7","6","7","728341831389020160","李","Male","[""好我"",""坏我"",""好他"",""坏他""]","[""强我"",""弱我"",""强他"",""弱他""]","","","","","","","","","","","","","","","","","","","","","","","","","","","","","","feedback_test","","","","","","","",""
"636","","j","psychophysics","128","523002","0.0-8.0-0.0-1.1-0.1-0.58","7","7","7","6","6","5","4","5","5","5","5","2","0","2","2","1","2","2","2","5","5","5","5","5","5","5","5","5","5","5","5","5","5","5","5","5","5","5","6","6","6","7","6","5","6","1","7","7","6","6","7","3","6","6","6","6","6","7","5","6","6","6","7","7","6","7","7","7","7","7","7","1","7","7","7","7","6","7","728341831389020160","李","Male","[""好我"",""坏我"",""好他"",""坏他""]","[""强我"",""弱我"",""强他"",""弱他""]","","","","","","","","nonmatch","","","","","","","","","","key","j","16.67232989690737","768","428","j","true","nonmatch","img/ellipse.png","好我","好他","prac_ALT2_moral","practice_moral","","","","","","","",""
"null","<span style='color:GreenYellow; font-size: 70px;'>正确! </span>","null","html-keyboard-response","129","523503","0.0-8.0-0.0-1.1-0.1-1.58","7","7","7","6","6","5","4","5","5","5","5","2","0","2","2","1","2","2","2","5","5","5","5","5","5","5","5","5","5","5","5","5","5","5","5","5","5","5","6","6","6","7","6","5","6","1","7","7","6","6","7","3","6","6","6","6","6","7","5","6","6","6","7","7","6","7","7","7","7","7","7","1","7","7","7","7","6","7","728341831389020160","李","Male","[""好我"",""坏我"",""好他"",""坏他""]","[""强我"",""弱我"",""强他"",""弱他""]","","","","","","","","","","","","","","","","","","","","","","","","","","","","","","feedback_test","","","","","","","",""
"581","","f","psychophysics","130","525088","0.0-8.0-0.0-1.1-0.1-0.59","7","7","7","6","6","5","4","5","5","5","5","2","0","2","2","1","2","2","2","5","5","5","5","5","5","5","5","5","5","5","5","5","5","5","5","5","5","5","6","6","6","7","6","5","6","1","7","7","6","6","7","3","6","6","6","6","6","7","5","6","6","6","7","7","6","7","7","7","7","7","7","1","7","7","7","7","6","7","728341831389020160","李","Male","[""好我"",""坏我"",""好他"",""坏他""]","[""强我"",""弱我"",""强他"",""弱他""]","","","","","","","","match","","","","","","","","","","key","f","16.674414893617218","768","428","f","true","match","img/hexagon.png","好我","好我","prac_ALT2_moral","practice_moral","","","","","","","",""
"null","<span style='color:GreenYellow; font-size: 70px;'>正确! </span>","null","html-keyboard-response","131","525589","0.0-8.0-0.0-1.1-0.1-1.59","7","7","7","6","6","5","4","5","5","5","5","2","0","2","2","1","2","2","2","5","5","5","5","5","5","5","5","5","5","5","5","5","5","5","5","5","5","5","6","6","6","7","6","5","6","1","7","7","6","6","7","3","6","6","6","6","6","7","5","6","6","6","7","7","6","7","7","7","7","7","7","1","7","7","7","7","6","7","728341831389020160","李","Male","[""好我"",""坏我"",""好他"",""坏他""]","[""强我"",""弱我"",""强他"",""弱他""]","","","","","","","","","","","","","","","","","","","","","","","","","","","","","","feedback_test","","","","","","","",""
"711","","j","psychophysics","132","527304","0.0-8.0-0.0-1.1-0.1-0.60","7","7","7","6","6","5","4","5","5","5","5","2","0","2","2","1","2","2","2","5","5","5","5","5","5","5","5","5","5","5","5","5","5","5","5","5","5","5","6","6","6","7","6","5","6","1","7","7","6","6","7","3","6","6","6","6","6","7","5","6","6","6","7","7","6","7","7","7","7","7","7","1","7","7","7","7","6","7","728341831389020160","李","Male","[""好我"",""坏我"",""好他"",""坏他""]","[""强我"",""弱我"",""强他"",""弱他""]","","","","","","","","nonmatch","","","","","","","","","","key","j","16.679264705882673","768","428","j","true","nonmatch","img/triangle.png","好他","坏我","prac_ALT2_moral","practice_moral","","","","","","","",""
"null","<span style='color:GreenYellow; font-size: 70px;'>正确! </span>","null","html-keyboard-response","133","527806","0.0-8.0-0.0-1.1-0.1-1.60","7","7","7","6","6","5","4","5","5","5","5","2","0","2","2","1","2","2","2","5","5","5","5","5","5","5","5","5","5","5","5","5","5","5","5","5","5","5","6","6","6","7","6","5","6","1","7","7","6","6","7","3","6","6","6","6","6","7","5","6","6","6","7","7","6","7","7","7","7","7","7","1","7","7","7","7","6","7","728341831389020160","李","Male","[""好我"",""坏我"",""好他"",""坏他""]","[""强我"",""弱我"",""强他"",""弱他""]","","","","","","","","","","","","","","","","","","","","","","","","","","","","","","feedback_test","","","","","","","",""
"528","","f","psychophysics","134","529336","0.0-8.0-0.0-1.1-0.1-0.61","7","7","7","6","6","5","4","5","5","5","5","2","0","2","2","1","2","2","2","5","5","5","5","5","5","5","5","5","5","5","5","5","5","5","5","5","5","5","6","6","6","7","6","5","6","1","7","7","6","6","7","3","6","6","6","6","6","7","5","6","6","6","7","7","6","7","7","7","7","7","7","1","7","7","7","7","6","7","728341831389020160","李","Male","[""好我"",""坏我"",""好他"",""坏他""]","[""强我"",""弱我"",""强他"",""弱他""]","","","","","","","","match","","","","","","","","","","key","f","16.675362637362465","768","428","f","true","match","img/hexagon.png","好我","好我","prac_ALT2_moral","practice_moral","","","","","","","",""
"null","<span style='color:GreenYellow; font-size: 70px;'>正确! </span>","null","html-keyboard-response","135","529838","0.0-8.0-0.0-1.1-0.1-1.61","7","7","7","6","6","5","4","5","5","5","5","2","0","2","2","1","2","2","2","5","5","5","5","5","5","5","5","5","5","5","5","5","5","5","5","5","5","5","6","6","6","7","6","5","6","1","7","7","6","6","7","3","6","6","6","6","6","7","5","6","6","6","7","7","6","7","7","7","7","7","7","1","7","7","7","7","6","7","728341831389020160","李","Male","[""好我"",""坏我"",""好他"",""坏他""]","[""强我"",""弱我"",""强他"",""弱他""]","","","","","","","","","","","","","","","","","","","","","","","","","","","","","","feedback_test","","","","","","","",""
"551","","j","psychophysics","136","531393","0.0-8.0-0.0-1.1-0.1-0.62","7","7","7","6","6","5","4","5","5","5","5","2","0","2","2","1","2","2","2","5","5","5","5","5","5","5","5","5","5","5","5","5","5","5","5","5","5","5","6","6","6","7","6","5","6","1","7","7","6","6","7","3","6","6","6","6","6","7","5","6","6","6","7","7","6","7","7","7","7","7","7","1","7","7","7","7","6","7","728341831389020160","李","Male","[""好我"",""坏我"",""好他"",""坏他""]","[""强我"",""弱我"",""强他"",""弱他""]","","","","","","","","nonmatch","","","","","","","","","","key","j","16.675619565217463","768","428","j","true","nonmatch","img/hexagon.png","坏我","好我","prac_ALT2_moral","practice_moral","","","","","","","",""
"null","<span style='color:GreenYellow; font-size: 70px;'>正确! </span>","null","html-keyboard-response","137","531895","0.0-8.0-0.0-1.1-0.1-1.62","7","7","7","6","6","5","4","5","5","5","5","2","0","2","2","1","2","2","2","5","5","5","5","5","5","5","5","5","5","5","5","5","5","5","5","5","5","5","6","6","6","7","6","5","6","1","7","7","6","6","7","3","6","6","6","6","6","7","5","6","6","6","7","7","6","7","7","7","7","7","7","1","7","7","7","7","6","7","728341831389020160","李","Male","[""好我"",""坏我"",""好他"",""坏他""]","[""强我"",""弱我"",""强他"",""弱他""]","","","","","","","","","","","","","","","","","","","","","","","","","","","","","","feedback_test","","","","","","","",""
"722","","j","psychophysics","138","533620","0.0-8.0-0.0-1.1-0.1-0.63","7","7","7","6","6","5","4","5","5","5","5","2","0","2","2","1","2","2","2","5","5","5","5","5","5","5","5","5","5","5","5","5","5","5","5","5","5","5","6","6","6","7","6","5","6","1","7","7","6","6","7","3","6","6","6","6","6","7","5","6","6","6","7","7","6","7","7","7","7","7","7","1","7","7","7","7","6","7","728341831389020160","李","Male","[""好我"",""坏我"",""好他"",""坏他""]","[""强我"",""弱我"",""强他"",""弱他""]","","","","","","","","nonmatch","","","","","","","","","","key","j","16.673310679611884","768","428","f","false","match","img/ellipse.png","好他","好他","prac_ALT2_moral","practice_moral","","","","","","","",""
"null","<span style='color:red; font-size: 70px;'>错误! </span>","null","html-keyboard-response","139","534123","0.0-8.0-0.0-1.1-0.1-1.63","7","7","7","6","6","5","4","5","5","5","5","2","0","2","2","1","2","2","2","5","5","5","5","5","5","5","5","5","5","5","5","5","5","5","5","5","5","5","6","6","6","7","6","5","6","1","7","7","6","6","7","3","6","6","6","6","6","7","5","6","6","6","7","7","6","7","7","7","7","7","7","1","7","7","7","7","6","7","728341831389020160","李","Male","[""好我"",""坏我"",""好他"",""坏他""]","[""强我"",""弱我"",""强他"",""弱他""]","","","","","","","","","","","","","","","","","","","","","","","","","","","","","","feedback_test","","","","","","","",""
"944","","f","psychophysics","140","536069","0.0-8.0-0.0-1.1-0.1-0.64","7","7","7","6","6","5","4","5","5","5","5","2","0","2","2","1","2","2","2","5","5","5","5","5","5","5","5","5","5","5","5","5","5","5","5","5","5","5","6","6","6","7","6","5","6","1","7","7","6","6","7","3","6","6","6","6","6","7","5","6","6","6","7","7","6","7","7","7","7","7","7","1","7","7","7","7","6","7","728341831389020160","李","Male","[""好我"",""坏我"",""好他"",""坏他""]","[""强我"",""弱我"",""强他"",""弱他""]","","","","","","","","match","","","","","","","","","","key","f","16.679060344827153","768","428","j","false","nonmatch","img/ellipse.png","坏我","好他","prac_ALT2_moral","practice_moral","","","","","","","",""
