"rt","stimulus","response","trial_type","trial_index","time_elapsed","internal_node_id","swb_1","swb_2","swb_3","swb_4","swb_5","LOT_1","LOT_2","LOT_3","LOT_4","LOT_5","LOT_6","IPC_1","IPC_2","IPC_3","IPC_4","IPC_5","IPC_6","IPC_7","IPC_8","MorIden_1","MorIden_2","MorIden_3","MorIden_4","MorIden_5","MorIden_6","MorIden_7","MorIden_8","MorIden_9","MorIden_10","moralSeImag_1","moralSeImag_2","moralSeImag_3","moralSeImag_4","moralSeImag_5","moralSeImag_6","moralSeImag_7","moralSeImag_8","moralSeImag_9","sde_1","sde_2","sde_3","sde_4","sde_5","sde_6","sde_7","sde_8","sde_9","sde_10","sde_11","sde_12","sde_13","sde_14","sde_15","sde_16","sde_17","sde_18","sde_19","sde_20","IM_1","IM_2","IM_3","IM_4","IM_5","IM_6","IM_7","IM_8","IM_9","IM_10","IM_11","IM_12","IM_13","IM_14","IM_15","IM_16","IM_17","IM_18","IM_19","IM_20","subj_idx","friend_name","Sex","Word","Word2","value","success","timeout","failed_images","failed_audio","failed_video","user_agent","responses","item_order","radio_event_ids","radio_event_times","key_event_times","mouse_event_times","straightlining","zigzagging","honeypot","task_id","screen_id","time_stamp","response_type","key_press","avg_frame_time","center_x","center_y","person","word","valence","domain","math","correct_response","correct","status","view_history","identity","duration","Image","condition","question_order"
"3956","
   <p><div style='color:white; font-size: 25px'>您好，欢迎参加本次实验。</div></p>
   <p><div style='color:white; font-size: 25px'>为充分保障您的权利，请确保您已经知晓并同意《参与实验同意书》以及《数据公开知情同意书》。</div></p>
   <p><div style='color:white; font-size: 25px'>如果您未见过上述内容，请咨询实验员。</div></p>
   <p style='color:white; font-size: 25px'>如果您选择继续实验，则表示您已经清楚两份知情同意书的内容并同意。</p>
   <p> <div style = ""color: green""><按空格键至下页></div> </p>
   "," ","html-keyboard-response","0","3965","0.0-0.0","4","3","3","4","3","4","2","2","4","4","4","0","1","-1","1","-1","0","0","0","4","4","4","2","4","3","4","4","4","4","6","7","5","6","4","6","6","7","7","3","3","3","3","3","3","5","3","3","3","3","2","5","3","3","3","3","3","3","3","3","5","2","3","3","5","2","5","3","3","5","5","3","5","2","5","3","6","3","4","703157170715230208","张","Female","[""坏我"",""好她"",""好我"",""坏她""]","[""弱我"",""强她"",""强我"",""弱她""]","","","","","","","","","","","","","","","","","","","","","","","","","","","","","","","","","","","","","",""
"","","","call-function","1","3973","0.0-1.0-0.0","4","3","3","4","3","4","2","2","4","4","4","0","1","-1","1","-1","0","0","0","4","4","4","2","4","3","4","4","4","4","6","7","5","6","4","6","6","7","7","3","3","3","3","3","3","5","3","3","3","3","2","5","3","3","3","3","3","3","3","3","5","2","3","3","5","2","5","3","3","5","5","3","5","2","5","3","6","3","4","703157170715230208","张","Female","[""坏我"",""好她"",""好我"",""坏她""]","[""弱我"",""强她"",""强我"",""弱她""]","","","","","","","","","","","","","","","","","","","","","","","","","","","","","","","","","","","","","",""
"21422","","[{""name"":""Sex"",""value"":""1""},{""name"":""friend_name"",""value"":""张""}]","survey-html-form","2","25398","0.0-1.0-1.0","4","3","3","4","3","4","2","2","4","4","4","0","1","-1","1","-1","0","0","0","4","4","4","2","4","3","4","4","4","4","6","7","5","6","4","6","6","7","7","3","3","3","3","3","3","5","3","3","3","3","2","5","3","3","3","3","3","3","3","3","5","2","3","3","5","2","5","3","3","5","5","3","5","2","5","3","6","3","4","703157170715230208","张","Female","[""坏我"",""好她"",""好我"",""坏她""]","[""弱我"",""强她"",""强我"",""弱她""]","","","","","","","","","","","","","","","","","","","","","","","","","","","","","","","","","","","","","",""
"","","","preload","3","26526","0.0-2.0","4","3","3","4","3","4","2","2","4","4","4","0","1","-1","1","-1","0","0","0","4","4","4","2","4","3","4","4","4","4","6","7","5","6","4","6","6","7","7","3","3","3","3","3","3","5","3","3","3","3","2","5","3","3","3","3","3","3","3","3","5","2","3","3","5","2","5","3","3","5","5","3","5","2","5","3","6","3","4","703157170715230208","张","Female","[""坏我"",""好她"",""好我"",""坏她""]","[""弱我"",""强她"",""强我"",""弱她""]","","true","false","[]","[]","[]","","","","","","","","","","","","","","","","","","","","","","","","","","","","","","","",""
"","","","fullscreen","4","31232","0.0-3.0","4","3","3","4","3","4","2","2","4","4","4","0","1","-1","1","-1","0","0","0","4","4","4","2","4","3","4","4","4","4","6","7","5","6","4","6","6","7","7","3","3","3","3","3","3","5","3","3","3","3","2","5","3","3","3","3","3","3","3","3","5","2","3","3","5","2","5","3","3","5","5","3","5","2","5","3","6","3","4","703157170715230208","张","Female","[""坏我"",""好她"",""好我"",""坏她""]","[""弱我"",""强她"",""强我"",""弱她""]","","true","","","","","{}","","","","","","","","","","","","","","","","","","","","","","","","","","","","","","",""
"23165.799999998882","","{""Q01"":""4"",""Q02"":""3"",""Q03"":""3"",""Q04"":""4"",""Q05"":""3""}","survey-template","5","54406","0.0-4.0","4","3","3","4","3","4","2","2","4","4","4","0","1","-1","1","-1","0","0","0","4","4","4","2","4","3","4","4","4","4","6","7","5","6","4","6","6","7","7","3","3","3","3","3","3","5","3","3","3","3","2","5","3","3","3","3","3","3","3","3","5","2","3","3","5","2","5","3","3","5","5","3","5","2","5","3","6","3","4","703157170715230208","张","Female","[""坏我"",""好她"",""好我"",""坏她""]","[""弱我"",""强她"",""强我"",""弱她""]","","","","","","","","{""Q01"":""4"",""Q02"":""3"",""Q03"":""3"",""Q04"":""4"",""Q05"":""3""}","[0,1,2,3,4]","[""Q01"",""Q02"",""Q03"",""Q04"",""Q05"",""Q05"",""Q04""]","[4206.299999998882,10869.299999998882,13797.299999998882,18637.599999999627,20965.299999998882,20980.799999998882,21597.299999998882]","[]","[4206.299999998882,10869.299999998882,13797.299999998882,18637.599999999627,20965.299999998882,20980.799999998882,21597.299999998882,23157.599999999627]","0.6","0.75","0","","","","","","","","","","","","","","","","","","","","","",""
"81970.29999999888","","{""Q01"":""4"",""Q02"":""2"",""Q03"":""2"",""Q04"":""4"",""Q05"":""4"",""Q06"":""4""}","survey-template","6","136399","0.0-5.0","4","3","3","4","3","4","2","2","4","4","4","0","1","-1","1","-1","0","0","0","4","4","4","2","4","3","4","4","4","4","6","7","5","6","4","6","6","7","7","3","3","3","3","3","3","5","3","3","3","3","2","5","3","3","3","3","3","3","3","3","5","2","3","3","5","2","5","3","3","5","5","3","5","2","5","3","6","3","4","703157170715230208","张","Female","[""坏我"",""好她"",""好我"",""坏她""]","[""弱我"",""强她"",""强我"",""弱她""]","","","","","","","","{""Q01"":""4"",""Q02"":""2"",""Q03"":""2"",""Q04"":""4"",""Q05"":""4"",""Q06"":""4""}","[0,1,2,3,4,5]","[""Q01"",""Q02"",""Q03"",""Q03"",""Q04"",""Q06"",""Q05"",""Q04"",""Q03"",""Q03""]","[4008.5999999996275,10816.5,13304,14200.099999999627,21055.89999999851,28367.599999999627,33431.29999999888,42543,62950.39999999851,66134.09999999963]","[]","[4008.5999999996275,10816.5,13304,14200.099999999627,21055.89999999851,28367.599999999627,33431.29999999888,42543,62950.39999999851,66134.09999999963,81965.79999999888]","0.5","0","0","","","","","","","","","","","","","","","","","","","","","",""
"38927","","{""Q01"":""0"",""Q02"":""1"",""Q03"":""-1"",""Q04"":""1"",""Q05"":""-1"",""Q06"":""0"",""Q07"":""0"",""Q08"":""0""}","survey-template","7","175345","0.0-6.0","4","3","3","4","3","4","2","2","4","4","4","0","1","-1","1","-1","0","0","0","4","4","4","2","4","3","4","4","4","4","6","7","5","6","4","6","6","7","7","3","3","3","3","3","3","5","3","3","3","3","2","5","3","3","3","3","3","3","3","3","5","2","3","3","5","2","5","3","3","5","5","3","5","2","5","3","6","3","4","703157170715230208","张","Female","[""坏我"",""好她"",""好我"",""坏她""]","[""弱我"",""强她"",""强我"",""弱她""]","","","","","","","","{""Q01"":""0"",""Q02"":""1"",""Q03"":""-1"",""Q04"":""1"",""Q05"":""-1"",""Q06"":""0"",""Q07"":""0"",""Q08"":""0""}","[0,1,2,3,4,5,6,7]","[""Q01"",""Q02"",""Q03"",""Q04"",""Q05"",""Q06"",""Q07"",""Q08""]","[3938.300000000745,11410.200000001118,15882.200000001118,20177.800000000745,24113.900000000373,27713.400000000373,33553.300000000745,37553.40000000037]","[]","[3938.300000000745,11410.200000001118,15882.200000001118,20177.800000000745,24113.900000000373,27713.400000000373,33553.300000000745,37553.40000000037,38921.300000000745]","0.5","0.2857142857142857","0","","","","","","","","","","","","","","","","","","","","","",""
"32857","
    <p><div style='color:white;font-size:35px; line-height:20px;'>词汇评估任务</div></p><br>
    <p><div style='color:white;font-size:25px; line-height:20px;'>请再次回忆该亲密的朋友，你们至少2年前就认识了，并且最近2年经常见面。</div></p>
    <p><div style='color:white;font-size:25px; line-height:20px;'>在本实验中，您将会看到一些形容词。</div></p>
    <p><div style='color:yellow;font-size:25px; line-height:20px;'>您的任务是判断这些形容词是否符合对您自己或您的朋友的描述。</div></p><p style='font-size:35px'>符合按<span style=""color:lightgreen""> f 键</span>，不符合按<span style=""color:red""> j 键</span></p>","0","html-button-response","8","208218","0.0-7.0-0.0","4","3","3","4","3","4","2","2","4","4","4","0","1","-1","1","-1","0","0","0","4","4","4","2","4","3","4","4","4","4","6","7","5","6","4","6","6","7","7","3","3","3","3","3","3","5","3","3","3","3","2","5","3","3","3","3","3","3","3","3","5","2","3","3","5","2","5","3","3","5","5","3","5","2","5","3","6","3","4","703157170715230208","张","Female","[""坏我"",""好她"",""好我"",""坏她""]","[""弱我"",""强她"",""强我"",""弱她""]","","","","","","","","","","","","","","","","","SRET_EW","EW_instructions","Sat Sep 16 2023 23:28:50 GMT+0800 (中国标准时间)","","","","","","","","","","","","","","","","","","",""
"878","","f","psychophysics","9","210120","0.0-7.0-1.0-0.0","4","3","3","4","3","4","2","2","4","4","4","0","1","-1","1","-1","0","0","0","4","4","4","2","4","3","4","4","4","4","6","7","5","6","4","6","6","7","7","3","3","3","3","3","3","5","3","3","3","3","2","5","3","3","3","3","3","3","3","3","5","2","3","3","5","2","5","3","3","5","5","3","5","2","5","3","6","3","4","703157170715230208","张","Female","[""坏我"",""好她"",""好我"",""坏她""]","[""弱我"",""强她"",""强我"",""弱她""]","","","","","","","","yes","","","","","","","","","SRET_EW","EW_practice","","key","f","19.306734693877527","683","380","自己","严谨","Positive","ability","","","","","","","","","",""
"3131","","f","psychophysics","10","214260","0.0-7.0-1.0-0.1","4","3","3","4","3","4","2","2","4","4","4","0","1","-1","1","-1","0","0","0","4","4","4","2","4","3","4","4","4","4","6","7","5","6","4","6","6","7","7","3","3","3","3","3","3","5","3","3","3","3","2","5","3","3","3","3","3","3","3","3","5","2","3","3","5","2","5","3","3","5","5","3","5","2","5","3","6","3","4","703157170715230208","张","Female","[""坏我"",""好她"",""好我"",""坏她""]","[""弱我"",""强她"",""强我"",""弱她""]","","","","","","","","yes","","","","","","","","","SRET_EW","EW_practice","","key","f","19.515726415094353","683","380","自己","刻板","Negative","ability","","","","","","","","","",""
"1035","","f","psychophysics","11","216301","0.0-7.0-1.0-0.2","4","3","3","4","3","4","2","2","4","4","4","0","1","-1","1","-1","0","0","0","4","4","4","2","4","3","4","4","4","4","6","7","5","6","4","6","6","7","7","3","3","3","3","3","3","5","3","3","3","3","2","5","3","3","3","3","3","3","3","3","5","2","3","3","5","2","5","3","3","5","5","3","5","2","5","3","6","3","4","703157170715230208","张","Female","[""坏我"",""好她"",""好我"",""坏她""]","[""弱我"",""强她"",""强我"",""弱她""]","","","","","","","","yes","","","","","","","","","SRET_EW","EW_practice","","key","f","17.034313559322026","683","380","朋友","忠实","Positive","morality","","","","","","","","","",""
"2780","","j","psychophysics","12","220086","0.0-7.0-1.0-0.3","4","3","3","4","3","4","2","2","4","4","4","0","1","-1","1","-1","0","0","0","4","4","4","2","4","3","4","4","4","4","6","7","5","6","4","6","6","7","7","3","3","3","3","3","3","5","3","3","3","3","2","5","3","3","3","3","3","3","3","3","5","2","3","3","5","2","5","3","3","5","5","3","5","2","5","3","6","3","4","703157170715230208","张","Female","[""坏我"",""好她"",""好我"",""坏她""]","[""弱我"",""强她"",""强我"",""弱她""]","","","","","","","","no","","","","","","","","","SRET_EW","EW_practice","","key","j","20.482711956521676","683","380","朋友","徇私","Negative","morality","","","","","","","","","",""
"5920","
    <p><div style='color:white;font-size:35px; line-height:20px;'>请您再次阅读实验要求</div></p><br>
    <p><div style='color:white;font-size:25px; line-height:20px;'>请回忆某一个亲密的朋友，你们至少2年前就认识了，并且最近2年经常见面。</div></p>
    <p><div style='color:white;font-size:25px; line-height:20px;'>在本实验中，您将会看到一些形容词。</div></p>
    <p><div style='color:yellow;font-size:25px; line-height:20px;'>您的任务是判断这些形容词是否符合对您自己或您的朋友的描述。</div></p>
    <p><div class='footer' style='font-size:25px; line-height:20px;'>如果对本实验还有不清楚之处，请立即向实验员咨询。</p><p style='font-size:25px; line-height:20px;'>如果您明白了规则：</p><p style='font-size:22px; line-height:20px;'>请按 继续 进入正式实验</p>
    </div>
    <p style='font-size:35px'>符合按<span style=""color:lightgreen""> f 键</span>，不符合按<span style=""color:red""> j 键</span></p>","0","html-button-response","13","226010","0.0-7.0-2.0","4","3","3","4","3","4","2","2","4","4","4","0","1","-1","1","-1","0","0","0","4","4","4","2","4","3","4","4","4","4","6","7","5","6","4","6","6","7","7","3","3","3","3","3","3","5","3","3","3","3","2","5","3","3","3","3","3","3","3","3","5","2","3","3","5","2","5","3","3","5","5","3","5","2","5","3","6","3","4","703157170715230208","张","Female","[""坏我"",""好她"",""好我"",""坏她""]","[""弱我"",""强她"",""强我"",""弱她""]","","","","","","","","","","","","","","","","","SRET_EW","prac_instructions","Sat Sep 16 2023 23:28:50 GMT+0800 (中国标准时间)","","","","","","","","","","","","","","","","","","",""
"1002","","f","psychophysics","14","228020","0.0-7.0-3.0-0.0","4","3","3","4","3","4","2","2","4","4","4","0","1","-1","1","-1","0","0","0","4","4","4","2","4","3","4","4","4","4","6","7","5","6","4","6","6","7","7","3","3","3","3","3","3","5","3","3","3","3","2","5","3","3","3","3","3","3","3","3","5","2","3","3","5","2","5","3","3","5","5","3","5","2","5","3","6","3","4","703157170715230208","张","Female","[""坏我"",""好她"",""好我"",""坏她""]","[""弱我"",""强她"",""强我"",""弱她""]","","","","","","","","yes","","","","","","","","","SRET","EW_formal","","key","f","17.283060344827515","683","380","朋友","务实","Positive","ability","","","","","","","","","",""
"1835","","f","psychophysics","15","230861","0.0-7.0-3.0-0.1","4","3","3","4","3","4","2","2","4","4","4","0","1","-1","1","-1","0","0","0","4","4","4","2","4","3","4","4","4","4","6","7","5","6","4","6","6","7","7","3","3","3","3","3","3","5","3","3","3","3","2","5","3","3","3","3","3","3","3","3","5","2","3","3","5","2","5","3","3","5","5","3","5","2","5","3","6","3","4","703157170715230208","张","Female","[""坏我"",""好她"",""好我"",""坏她""]","[""弱我"",""强她"",""强我"",""弱她""]","","","","","","","","yes","","","","","","","","","SRET","EW_formal","","key","f","18.308941558441497","683","380","朋友","迷糊","Negative","ability","","","","","","","","","",""
"2989","","f","psychophysics","16","234852","0.0-7.0-3.0-0.2","4","3","3","4","3","4","2","2","4","4","4","0","1","-1","1","-1","0","0","0","4","4","4","2","4","3","4","4","4","4","6","7","5","6","4","6","6","7","7","3","3","3","3","3","3","5","3","3","3","3","2","5","3","3","3","3","3","3","3","3","5","2","3","3","5","2","5","3","3","5","5","3","5","2","5","3","6","3","4","703157170715230208","张","Female","[""坏我"",""好她"",""好我"",""坏她""]","[""弱我"",""强她"",""强我"",""弱她""]","","","","","","","","yes","","","","","","","","","SRET","EW_formal","","key","f","16.964867521367562","683","380","自己","坚贞","Positive","morality","","","","","","","","","",""
"1822","","j","psychophysics","17","237676","0.0-7.0-3.0-0.3","4","3","3","4","3","4","2","2","4","4","4","0","1","-1","1","-1","0","0","0","4","4","4","2","4","3","4","4","4","4","6","7","5","6","4","6","6","7","7","3","3","3","3","3","3","5","3","3","3","3","2","5","3","3","3","3","3","3","3","3","5","2","3","3","5","2","5","3","3","5","5","3","5","2","5","3","6","3","4","703157170715230208","张","Female","[""坏我"",""好她"",""好我"",""坏她""]","[""弱我"",""强她"",""强我"",""弱她""]","","","","","","","","no","","","","","","","","","SRET","EW_formal","","key","j","22.37872800000012","683","380","自己","说谎","Negative","morality","","","","","","","","","",""
"2208","","f","psychophysics","18","240894","0.0-7.0-3.0-0.4","4","3","3","4","3","4","2","2","4","4","4","0","1","-1","1","-1","0","0","0","4","4","4","2","4","3","4","4","4","4","6","7","5","6","4","6","6","7","7","3","3","3","3","3","3","5","3","3","3","3","2","5","3","3","3","3","3","3","3","3","5","2","3","3","5","2","5","3","3","5","5","3","5","2","5","3","6","3","4","703157170715230208","张","Female","[""坏我"",""好她"",""好我"",""坏她""]","[""弱我"",""强她"",""强我"",""弱她""]","","","","","","","","yes","","","","","","","","","SRET","EW_formal","","key","f","19.837347826086923","683","380","朋友","慷慨","Positive","morality","","","","","","","","","",""
"1413","","j","psychophysics","19","243317","0.0-7.0-3.0-0.5","4","3","3","4","3","4","2","2","4","4","4","0","1","-1","1","-1","0","0","0","4","4","4","2","4","3","4","4","4","4","6","7","5","6","4","6","6","7","7","3","3","3","3","3","3","5","3","3","3","3","2","5","3","3","3","3","3","3","3","3","5","2","3","3","5","2","5","3","3","5","5","3","5","2","5","3","6","3","4","703157170715230208","张","Female","[""坏我"",""好她"",""好我"",""坏她""]","[""弱我"",""强她"",""强我"",""弱她""]","","","","","","","","no","","","","","","","","","SRET","EW_formal","","key","j","16.986225352112637","683","380","自己","黑心","Negative","morality","","","","","","","","","",""
"1733","","j","psychophysics","20","246053","0.0-7.0-3.0-0.6","4","3","3","4","3","4","2","2","4","4","4","0","1","-1","1","-1","0","0","0","4","4","4","2","4","3","4","4","4","4","6","7","5","6","4","6","6","7","7","3","3","3","3","3","3","5","3","3","3","3","2","5","3","3","3","3","3","3","3","3","5","2","3","3","5","2","5","3","3","5","5","3","5","2","5","3","6","3","4","703157170715230208","张","Female","[""坏我"",""好她"",""好我"",""坏她""]","[""弱我"",""强她"",""强我"",""弱她""]","","","","","","","","no","","","","","","","","","SRET","EW_formal","","key","j","18.97613986013978","683","380","朋友","贪腐","Negative","morality","","","","","","","","","",""
"1357","","f","psychophysics","21","248419","0.0-7.0-3.0-0.7","4","3","3","4","3","4","2","2","4","4","4","0","1","-1","1","-1","0","0","0","4","4","4","2","4","3","4","4","4","4","6","7","5","6","4","6","6","7","7","3","3","3","3","3","3","5","3","3","3","3","2","5","3","3","3","3","3","3","3","3","5","2","3","3","5","2","5","3","3","5","5","3","5","2","5","3","6","3","4","703157170715230208","张","Female","[""坏我"",""好她"",""好我"",""坏她""]","[""弱我"",""强她"",""强我"",""弱她""]","","","","","","","","yes","","","","","","","","","SRET","EW_formal","","key","f","17.114144927536287","683","380","朋友","善心","Positive","morality","","","","","","","","","",""
"1021","","f","psychophysics","22","250444","0.0-7.0-3.0-0.8","4","3","3","4","3","4","2","2","4","4","4","0","1","-1","1","-1","0","0","0","4","4","4","2","4","3","4","4","4","4","6","7","5","6","4","6","6","7","7","3","3","3","3","3","3","5","3","3","3","3","2","5","3","3","3","3","3","3","3","3","5","2","3","3","5","2","5","3","3","5","5","3","5","2","5","3","6","3","4","703157170715230208","张","Female","[""坏我"",""好她"",""好我"",""坏她""]","[""弱我"",""强她"",""强我"",""弱她""]","","","","","","","","yes","","","","","","","","","SRET","EW_formal","","key","f","21.784673913043502","683","380","自己","忠诚","Positive","morality","","","","","","","","","",""
"1254","","f","psychophysics","23","252702","0.0-7.0-3.0-0.9","4","3","3","4","3","4","2","2","4","4","4","0","1","-1","1","-1","0","0","0","4","4","4","2","4","3","4","4","4","4","6","7","5","6","4","6","6","7","7","3","3","3","3","3","3","5","3","3","3","3","2","5","3","3","3","3","3","3","3","3","5","2","3","3","5","2","5","3","3","5","5","3","5","2","5","3","6","3","4","703157170715230208","张","Female","[""坏我"",""好她"",""好我"",""坏她""]","[""弱我"",""强她"",""强我"",""弱她""]","","","","","","","","yes","","","","","","","","","SRET","EW_formal","","key","f","16.83585606060594","683","380","自己","马虎","Negative","ability","","","","","","","","","",""
"1531","","f","psychophysics","24","255276","0.0-7.0-3.0-0.10","4","3","3","4","3","4","2","2","4","4","4","0","1","-1","1","-1","0","0","0","4","4","4","2","4","3","4","4","4","4","6","7","5","6","4","6","6","7","7","3","3","3","3","3","3","5","3","3","3","3","2","5","3","3","3","3","3","3","3","3","5","2","3","3","5","2","5","3","3","5","5","3","5","2","5","3","6","3","4","703157170715230208","张","Female","[""坏我"",""好她"",""好我"",""坏她""]","[""弱我"",""强她"",""强我"",""弱她""]","","","","","","","","yes","","","","","","","","","SRET","EW_formal","","key","f","17.31615540540539","683","380","自己","驽钝","Negative","ability","","","","","","","","","",""
"2498","","f","psychophysics","25","258779","0.0-7.0-3.0-0.11","4","3","3","4","3","4","2","2","4","4","4","0","1","-1","1","-1","0","0","0","4","4","4","2","4","3","4","4","4","4","6","7","5","6","4","6","6","7","7","3","3","3","3","3","3","5","3","3","3","3","2","5","3","3","3","3","3","3","3","3","5","2","3","3","5","2","5","3","3","5","5","3","5","2","5","3","6","3","4","703157170715230208","张","Female","[""坏我"",""好她"",""好我"",""坏她""]","[""弱我"",""强她"",""强我"",""弱她""]","","","","","","","","yes","","","","","","","","","SRET","EW_formal","","key","f","20.895736526945868","683","380","自己","盲目","Negative","ability","","","","","","","","","",""
"1451","","j","psychophysics","26","261236","0.0-7.0-3.0-0.12","4","3","3","4","3","4","2","2","4","4","4","0","1","-1","1","-1","0","0","0","4","4","4","2","4","3","4","4","4","4","6","7","5","6","4","6","6","7","7","3","3","3","3","3","3","5","3","3","3","3","2","5","3","3","3","3","3","3","3","3","5","2","3","3","5","2","5","3","3","5","5","3","5","2","5","3","6","3","4","703157170715230208","张","Female","[""坏我"",""好她"",""好我"",""坏她""]","[""弱我"",""强她"",""强我"",""弱她""]","","","","","","","","no","","","","","","","","","SRET","EW_formal","","key","j","21.542513274336315","683","380","朋友","逞强","Negative","ability","","","","","","","","","",""
"2179","","f","psychophysics","27","264420","0.0-7.0-3.0-0.13","4","3","3","4","3","4","2","2","4","4","4","0","1","-1","1","-1","0","0","0","4","4","4","2","4","3","4","4","4","4","6","7","5","6","4","6","6","7","7","3","3","3","3","3","3","5","3","3","3","3","2","5","3","3","3","3","3","3","3","3","5","2","3","3","5","2","5","3","3","5","5","3","5","2","5","3","6","3","4","703157170715230208","张","Female","[""坏我"",""好她"",""好我"",""坏她""]","[""弱我"",""强她"",""强我"",""弱她""]","","","","","","","","yes","","","","","","","","","SRET","EW_formal","","key","f","17.020403225806678","683","380","自己","利己","Negative","morality","","","","","","","","","",""
"1483","","j","psychophysics","28","266909","0.0-7.0-3.0-0.14","4","3","3","4","3","4","2","2","4","4","4","0","1","-1","1","-1","0","0","0","4","4","4","2","4","3","4","4","4","4","6","7","5","6","4","6","6","7","7","3","3","3","3","3","3","5","3","3","3","3","2","5","3","3","3","3","3","3","3","3","5","2","3","3","5","2","5","3","3","5","5","3","5","2","5","3","6","3","4","703157170715230208","张","Female","[""坏我"",""好她"",""好我"",""坏她""]","[""弱我"",""强她"",""强我"",""弱她""]","","","","","","","","no","","","","","","","","","SRET","EW_formal","","key","j","16.979904109588983","683","380","朋友","无为","Negative","ability","","","","","","","","","",""
"1689","","j","psychophysics","29","269603","0.0-7.0-3.0-0.15","4","3","3","4","3","4","2","2","4","4","4","0","1","-1","1","-1","0","0","0","4","4","4","2","4","3","4","4","4","4","6","7","5","6","4","6","6","7","7","3","3","3","3","3","3","5","3","3","3","3","2","5","3","3","3","3","3","3","3","3","5","2","3","3","5","2","5","3","3","5","5","3","5","2","5","3","6","3","4","703157170715230208","张","Female","[""坏我"",""好她"",""好我"",""坏她""]","[""弱我"",""强她"",""强我"",""弱她""]","","","","","","","","no","","","","","","","","","SRET","EW_formal","","key","j","22.57033898305075","683","380","朋友","草率","Negative","ability","","","","","","","","","",""
"1773","","j","psychophysics","30","272379","0.0-7.0-3.0-0.16","4","3","3","4","3","4","2","2","4","4","4","0","1","-1","1","-1","0","0","0","4","4","4","2","4","3","4","4","4","4","6","7","5","6","4","6","6","7","7","3","3","3","3","3","3","5","3","3","3","3","2","5","3","3","3","3","3","3","3","3","5","2","3","3","5","2","5","3","3","5","5","3","5","2","5","3","6","3","4","703157170715230208","张","Female","[""坏我"",""好她"",""好我"",""坏她""]","[""弱我"",""强她"",""强我"",""弱她""]","","","","","","","","no","","","","","","","","","SRET","EW_formal","","key","j","17.02651851851835","683","380","自己","贪污","Negative","morality","","","","","","","","","",""
"1906","","j","psychophysics","31","275293","0.0-7.0-3.0-0.17","4","3","3","4","3","4","2","2","4","4","4","0","1","-1","1","-1","0","0","0","4","4","4","2","4","3","4","4","4","4","6","7","5","6","4","6","6","7","7","3","3","3","3","3","3","5","3","3","3","3","2","5","3","3","3","3","3","3","3","3","5","2","3","3","5","2","5","3","3","5","5","3","5","2","5","3","6","3","4","703157170715230208","张","Female","[""坏我"",""好她"",""好我"",""坏她""]","[""弱我"",""强她"",""强我"",""弱她""]","","","","","","","","no","","","","","","","","","SRET","EW_formal","","key","j","16.946269005847814","683","380","自己","不仁","Negative","morality","","","","","","","","","",""
"1168","","f","psychophysics","32","277467","0.0-7.0-3.0-0.18","4","3","3","4","3","4","2","2","4","4","4","0","1","-1","1","-1","0","0","0","4","4","4","2","4","3","4","4","4","4","6","7","5","6","4","6","6","7","7","3","3","3","3","3","3","5","3","3","3","3","2","5","3","3","3","3","3","3","3","3","5","2","3","3","5","2","5","3","3","5","5","3","5","2","5","3","6","3","4","703157170715230208","张","Female","[""坏我"",""好她"",""好我"",""坏她""]","[""弱我"",""强她"",""强我"",""弱她""]","","","","","","","","yes","","","","","","","","","SRET","EW_formal","","key","f","17.014267716535706","683","380","自己","周到","Positive","ability","","","","","","","","","",""
"2576","","j","psychophysics","33","281052","0.0-7.0-3.0-0.19","4","3","3","4","3","4","2","2","4","4","4","0","1","-1","1","-1","0","0","0","4","4","4","2","4","3","4","4","4","4","6","7","5","6","4","6","6","7","7","3","3","3","3","3","3","5","3","3","3","3","2","5","3","3","3","3","3","3","3","3","5","2","3","3","5","2","5","3","3","5","5","3","5","2","5","3","6","3","4","703157170715230208","张","Female","[""坏我"",""好她"",""好我"",""坏她""]","[""弱我"",""强她"",""强我"",""弱她""]","","","","","","","","no","","","","","","","","","SRET","EW_formal","","key","j","16.989452380952258","683","380","自己","变通","Positive","ability","","","","","","","","","",""
"1425","","f","psychophysics","34","283485","0.0-7.0-3.0-0.20","4","3","3","4","3","4","2","2","4","4","4","0","1","-1","1","-1","0","0","0","4","4","4","2","4","3","4","4","4","4","6","7","5","6","4","6","6","7","7","3","3","3","3","3","3","5","3","3","3","3","2","5","3","3","3","3","3","3","3","3","5","2","3","3","5","2","5","3","3","5","5","3","5","2","5","3","6","3","4","703157170715230208","张","Female","[""坏我"",""好她"",""好我"",""坏她""]","[""弱我"",""强她"",""强我"",""弱她""]","","","","","","","","yes","","","","","","","","","SRET","EW_formal","","key","f","16.986288732394467","683","380","自己","中用","Positive","ability","","","","","","","","","",""
"1184","","f","psychophysics","35","285676","0.0-7.0-3.0-0.21","4","3","3","4","3","4","2","2","4","4","4","0","1","-1","1","-1","0","0","0","4","4","4","2","4","3","4","4","4","4","6","7","5","6","4","6","6","7","7","3","3","3","3","3","3","5","3","3","3","3","2","5","3","3","3","3","3","3","3","3","5","2","3","3","5","2","5","3","3","5","5","3","5","2","5","3","6","3","4","703157170715230208","张","Female","[""坏我"",""好她"",""好我"",""坏她""]","[""弱我"",""强她"",""强我"",""弱她""]","","","","","","","","yes","","","","","","","","","SRET","EW_formal","","key","f","22.449360824742154","683","380","朋友","敏捷","Positive","ability","","","","","","","","","",""
"2967","","j","psychophysics","36","289651","0.0-7.0-3.0-0.22","4","3","3","4","3","4","2","2","4","4","4","0","1","-1","1","-1","0","0","0","4","4","4","2","4","3","4","4","4","4","6","7","5","6","4","6","6","7","7","3","3","3","3","3","3","5","3","3","3","3","2","5","3","3","3","3","3","3","3","3","5","2","3","3","5","2","5","3","3","5","5","3","5","2","5","3","6","3","4","703157170715230208","张","Female","[""坏我"",""好她"",""好我"",""坏她""]","[""弱我"",""强她"",""强我"",""弱她""]","","","","","","","","no","","","","","","","","","SRET","EW_formal","","key","j","17.088969696969805","683","380","自己","淡泊","Positive","morality","","","","","","","","","",""
"2473","","j","psychophysics","37","293140","0.0-7.0-3.0-0.23","4","3","3","4","3","4","2","2","4","4","4","0","1","-1","1","-1","0","0","0","4","4","4","2","4","3","4","4","4","4","6","7","5","6","4","6","6","7","7","3","3","3","3","3","3","5","3","3","3","3","2","5","3","3","3","3","3","3","3","3","5","2","3","3","5","2","5","3","3","5","5","3","5","2","5","3","6","3","4","703157170715230208","张","Female","[""坏我"",""好她"",""好我"",""坏她""]","[""弱我"",""强她"",""强我"",""弱她""]","","","","","","","","no","","","","","","","","","SRET","EW_formal","","key","j","16.995370731707208","683","380","自己","稳健","Positive","ability","","","","","","","","","",""
"1058","","f","psychophysics","38","295206","0.0-7.0-3.0-0.24","4","3","3","4","3","4","2","2","4","4","4","0","1","-1","1","-1","0","0","0","4","4","4","2","4","3","4","4","4","4","6","7","5","6","4","6","6","7","7","3","3","3","3","3","3","5","3","3","3","3","2","5","3","3","3","3","3","3","3","3","5","2","3","3","5","2","5","3","3","5","5","3","5","2","5","3","6","3","4","703157170715230208","张","Female","[""坏我"",""好她"",""好我"",""坏她""]","[""弱我"",""强她"",""强我"",""弱她""]","","","","","","","","yes","","","","","","","","","SRET","EW_formal","","key","f","21.158468749999884","683","380","朋友","宽容","Positive","morality","","","","","","","","","",""
"961","","f","psychophysics","39","297171","0.0-7.0-3.0-0.25","4","3","3","4","3","4","2","2","4","4","4","0","1","-1","1","-1","0","0","0","4","4","4","2","4","3","4","4","4","4","6","7","5","6","4","6","6","7","7","3","3","3","3","3","3","5","3","3","3","3","2","5","3","3","3","3","3","3","3","3","5","2","3","3","5","2","5","3","3","5","5","3","5","2","5","3","6","3","4","703157170715230208","张","Female","[""坏我"",""好她"",""好我"",""坏她""]","[""弱我"",""强她"",""强我"",""弱她""]","","","","","","","","yes","","","","","","","","","SRET","EW_formal","","key","f","16.847103448276076","683","380","朋友","守信","Positive","morality","","","","","","","","","",""
"921","","f","psychophysics","40","299107","0.0-7.0-3.0-0.26","4","3","3","4","3","4","2","2","4","4","4","0","1","-1","1","-1","0","0","0","4","4","4","2","4","3","4","4","4","4","6","7","5","6","4","6","6","7","7","3","3","3","3","3","3","5","3","3","3","3","2","5","3","3","3","3","3","3","3","3","5","2","3","3","5","2","5","3","3","5","5","3","5","2","5","3","6","3","4","703157170715230208","张","Female","[""坏我"",""好她"",""好我"",""坏她""]","[""弱我"",""强她"",""强我"",""弱她""]","","","","","","","","yes","","","","","","","","","SRET","EW_formal","","key","f","16.75031304347845","683","380","朋友","聪明","Positive","ability","","","","","","","","","",""
"865","","f","psychophysics","41","300980","0.0-7.0-3.0-0.27","4","3","3","4","3","4","2","2","4","4","4","0","1","-1","1","-1","0","0","0","4","4","4","2","4","3","4","4","4","4","6","7","5","6","4","6","6","7","7","3","3","3","3","3","3","5","3","3","3","3","2","5","3","3","3","3","3","3","3","3","5","2","3","3","5","2","5","3","3","5","5","3","5","2","5","3","6","3","4","703157170715230208","张","Female","[""坏我"",""好她"",""好我"",""坏她""]","[""弱我"",""强她"",""强我"",""弱她""]","","","","","","","","yes","","","","","","","","","SRET","EW_formal","","key","f","16.75046846846817","683","380","朋友","君子","Positive","morality","","","","","","","","","",""
"978","","f","psychophysics","42","302964","0.0-7.0-3.0-0.28","4","3","3","4","3","4","2","2","4","4","4","0","1","-1","1","-1","0","0","0","4","4","4","2","4","3","4","4","4","4","6","7","5","6","4","6","6","7","7","3","3","3","3","3","3","5","3","3","3","3","2","5","3","3","3","3","3","3","3","3","5","2","3","3","5","2","5","3","3","5","5","3","5","2","5","3","6","3","4","703157170715230208","张","Female","[""坏我"",""好她"",""好我"",""坏她""]","[""弱我"",""强她"",""强我"",""弱她""]","","","","","","","","yes","","","","","","","","","SRET","EW_formal","","key","f","20.951655913978033","683","380","朋友","依靠","Negative","ability","","","","","","","","","",""
"1205","","j","psychophysics","43","305172","0.0-7.0-3.0-0.29","4","3","3","4","3","4","2","2","4","4","4","0","1","-1","1","-1","0","0","0","4","4","4","2","4","3","4","4","4","4","6","7","5","6","4","6","6","7","7","3","3","3","3","3","3","5","3","3","3","3","2","5","3","3","3","3","3","3","3","3","5","2","3","3","5","2","5","3","3","5","5","3","5","2","5","3","6","3","4","703157170715230208","张","Female","[""坏我"",""好她"",""好我"",""坏她""]","[""弱我"",""强她"",""强我"",""弱她""]","","","","","","","","no","","","","","","","","","SRET","EW_formal","","key","j","20.9078571428567","683","380","朋友","业余","Negative","ability","","","","","","","","","",""
"1729","","f","psychophysics","44","307908","0.0-7.0-3.0-0.30","4","3","3","4","3","4","2","2","4","4","4","0","1","-1","1","-1","0","0","0","4","4","4","2","4","3","4","4","4","4","6","7","5","6","4","6","6","7","7","3","3","3","3","3","3","5","3","3","3","3","2","5","3","3","3","3","3","3","3","3","5","2","3","3","5","2","5","3","3","5","5","3","5","2","5","3","6","3","4","703157170715230208","张","Female","[""坏我"",""好她"",""好我"",""坏她""]","[""弱我"",""强她"",""强我"",""弱她""]","","","","","","","","yes","","","","","","","","","SRET","EW_formal","","key","f","21.61868800000008","683","380","自己","忠良","Positive","morality","","","","","","","","","",""
"1215","","f","psychophysics","45","310130","0.0-7.0-3.0-0.31","4","3","3","4","3","4","2","2","4","4","4","0","1","-1","1","-1","0","0","0","4","4","4","2","4","3","4","4","4","4","6","7","5","6","4","6","6","7","7","3","3","3","3","3","3","5","3","3","3","3","2","5","3","3","3","3","3","3","3","3","5","2","3","3","5","2","5","3","3","5","5","3","5","2","5","3","6","3","4","703157170715230208","张","Female","[""坏我"",""好她"",""好我"",""坏她""]","[""弱我"",""强她"",""强我"",""弱她""]","","","","","","","","yes","","","","","","","","","SRET","EW_formal","","key","f","17.008261538461262","683","380","自己","谦逊","Positive","morality","","","","","","","","","",""
"1557","","j","psychophysics","46","312692","0.0-7.0-3.0-0.32","4","3","3","4","3","4","2","2","4","4","4","0","1","-1","1","-1","0","0","0","4","4","4","2","4","3","4","4","4","4","6","7","5","6","4","6","6","7","7","3","3","3","3","3","3","5","3","3","3","3","2","5","3","3","3","3","3","3","3","3","5","2","3","3","5","2","5","3","3","5","5","3","5","2","5","3","6","3","4","703157170715230208","张","Female","[""坏我"",""好她"",""好我"",""坏她""]","[""弱我"",""强她"",""强我"",""弱她""]","","","","","","","","no","","","","","","","","","SRET","EW_formal","","key","j","22.18673684210527","683","380","朋友","虚伪","Negative","morality","","","","","","","","","",""
"1943","","j","psychophysics","47","315643","0.0-7.0-3.0-0.33","4","3","3","4","3","4","2","2","4","4","4","0","1","-1","1","-1","0","0","0","4","4","4","2","4","3","4","4","4","4","6","7","5","6","4","6","6","7","7","3","3","3","3","3","3","5","3","3","3","3","2","5","3","3","3","3","3","3","3","3","5","2","3","3","5","2","5","3","3","5","5","3","5","2","5","3","6","3","4","703157170715230208","张","Female","[""坏我"",""好她"",""好我"",""坏她""]","[""弱我"",""强她"",""强我"",""弱她""]","","","","","","","","no","","","","","","","","","SRET","EW_formal","","key","j","20.154712328767047","683","380","自己","背叛","Negative","morality","","","","","","","","","",""
"919","","f","psychophysics","48","317571","0.0-7.0-3.0-0.34","4","3","3","4","3","4","2","2","4","4","4","0","1","-1","1","-1","0","0","0","4","4","4","2","4","3","4","4","4","4","6","7","5","6","4","6","6","7","7","3","3","3","3","3","3","5","3","3","3","3","2","5","3","3","3","3","3","3","3","3","5","2","3","3","5","2","5","3","3","5","5","3","5","2","5","3","6","3","4","703157170715230208","张","Female","[""坏我"",""好她"",""好我"",""坏她""]","[""弱我"",""强她"",""强我"",""弱她""]","","","","","","","","yes","","","","","","","","","SRET","EW_formal","","key","f","22.529729411764727","683","380","自己","侠义","Positive","morality","","","","","","","","","",""
"856","","f","psychophysics","49","319435","0.0-7.0-3.0-0.35","4","3","3","4","3","4","2","2","4","4","4","0","1","-1","1","-1","0","0","0","4","4","4","2","4","3","4","4","4","4","6","7","5","6","4","6","6","7","7","3","3","3","3","3","3","5","3","3","3","3","2","5","3","3","3","3","3","3","3","3","5","2","3","3","5","2","5","3","3","5","5","3","5","2","5","3","6","3","4","703157170715230208","张","Female","[""坏我"",""好她"",""好我"",""坏她""]","[""弱我"",""强她"",""强我"",""弱她""]","","","","","","","","yes","","","","","","","","","SRET","EW_formal","","key","f","22.067626506024244","683","380","自己","义气","Positive","morality","","","","","","","","","",""
"1322","","f","psychophysics","50","321762","0.0-7.0-3.0-0.36","4","3","3","4","3","4","2","2","4","4","4","0","1","-1","1","-1","0","0","0","4","4","4","2","4","3","4","4","4","4","6","7","5","6","4","6","6","7","7","3","3","3","3","3","3","5","3","3","3","3","2","5","3","3","3","3","3","3","3","3","5","2","3","3","5","2","5","3","3","5","5","3","5","2","5","3","6","3","4","703157170715230208","张","Female","[""坏我"",""好她"",""好我"",""坏她""]","[""弱我"",""强她"",""强我"",""弱她""]","","","","","","","","yes","","","","","","","","","SRET","EW_formal","","key","f","16.75001449275347","683","380","自己","自律","Positive","ability","","","","","","","","","",""
"1431","","j","psychophysics","51","324203","0.0-7.0-3.0-0.37","4","3","3","4","3","4","2","2","4","4","4","0","1","-1","1","-1","0","0","0","4","4","4","2","4","3","4","4","4","4","6","7","5","6","4","6","6","7","7","3","3","3","3","3","3","5","3","3","3","3","2","5","3","3","3","3","3","3","3","3","5","2","3","3","5","2","5","3","3","5","5","3","5","2","5","3","6","3","4","703157170715230208","张","Female","[""坏我"",""好她"",""好我"",""坏她""]","[""弱我"",""强她"",""强我"",""弱她""]","","","","","","","","no","","","","","","","","","SRET","EW_formal","","key","j","19.631314516129","683","380","自己","新手","Negative","ability","","","","","","","","","",""
"1574","","f","psychophysics","52","326786","0.0-7.0-3.0-0.38","4","3","3","4","3","4","2","2","4","4","4","0","1","-1","1","-1","0","0","0","4","4","4","2","4","3","4","4","4","4","6","7","5","6","4","6","6","7","7","3","3","3","3","3","3","5","3","3","3","3","2","5","3","3","3","3","3","3","3","3","5","2","3","3","5","2","5","3","3","5","5","3","5","2","5","3","6","3","4","703157170715230208","张","Female","[""坏我"",""好她"",""好我"",""坏她""]","[""弱我"",""强她"",""强我"",""弱她""]","","","","","","","","yes","","","","","","","","","SRET","EW_formal","","key","f","17.319979591836415","683","380","朋友","顶事","Positive","ability","","","","","","","","","",""
"2100","","f","psychophysics","53","329893","0.0-7.0-3.0-0.39","4","3","3","4","3","4","2","2","4","4","4","0","1","-1","1","-1","0","0","0","4","4","4","2","4","3","4","4","4","4","6","7","5","6","4","6","6","7","7","3","3","3","3","3","3","5","3","3","3","3","2","5","3","3","3","3","3","3","3","3","5","2","3","3","5","2","5","3","3","5","5","3","5","2","5","3","6","3","4","703157170715230208","张","Female","[""坏我"",""好她"",""好我"",""坏她""]","[""弱我"",""强她"",""强我"",""弱她""]","","","","","","","","yes","","","","","","","","","SRET","EW_formal","","key","f","16.933590163934475","683","380","自己","毛糙","Negative","ability","","","","","","","","","",""
"1863","","j","psychophysics","54","332762","0.0-7.0-3.0-0.40","4","3","3","4","3","4","2","2","4","4","4","0","1","-1","1","-1","0","0","0","4","4","4","2","4","3","4","4","4","4","6","7","5","6","4","6","6","7","7","3","3","3","3","3","3","5","3","3","3","3","2","5","3","3","3","3","3","3","3","3","5","2","3","3","5","2","5","3","3","5","5","3","5","2","5","3","6","3","4","703157170715230208","张","Female","[""坏我"",""好她"",""好我"",""坏她""]","[""弱我"",""强她"",""强我"",""弱她""]","","","","","","","","no","","","","","","","","","SRET","EW_formal","","key","j","19.503575342465734","683","380","自己","昏庸","Negative","ability","","","","","","","","","",""
"1134","","f","psychophysics","55","334905","0.0-7.0-3.0-0.41","4","3","3","4","3","4","2","2","4","4","4","0","1","-1","1","-1","0","0","0","4","4","4","2","4","3","4","4","4","4","6","7","5","6","4","6","6","7","7","3","3","3","3","3","3","5","3","3","3","3","2","5","3","3","3","3","3","3","3","3","5","2","3","3","5","2","5","3","3","5","5","3","5","2","5","3","6","3","4","703157170715230208","张","Female","[""坏我"",""好她"",""好我"",""坏她""]","[""弱我"",""强她"",""强我"",""弱她""]","","","","","","","","yes","","","","","","","","","SRET","EW_formal","","key","f","18.874238938053008","683","380","朋友","勤恳","Positive","morality","","","","","","","","","",""
"945","","f","psychophysics","56","336862","0.0-7.0-3.0-0.42","4","3","3","4","3","4","2","2","4","4","4","0","1","-1","1","-1","0","0","0","4","4","4","2","4","3","4","4","4","4","6","7","5","6","4","6","6","7","7","3","3","3","3","3","3","5","3","3","3","3","2","5","3","3","3","3","3","3","3","3","5","2","3","3","5","2","5","3","3","5","5","3","5","2","5","3","6","3","4","703157170715230208","张","Female","[""坏我"",""好她"",""好我"",""坏她""]","[""弱我"",""强她"",""强我"",""弱她""]","","","","","","","","yes","","","","","","","","","SRET","EW_formal","","key","f","19.626252525252635","683","380","朋友","文明","Positive","morality","","","","","","","","","",""
"2234","","f","psychophysics","57","340099","0.0-7.0-3.0-0.43","4","3","3","4","3","4","2","2","4","4","4","0","1","-1","1","-1","0","0","0","4","4","4","2","4","3","4","4","4","4","6","7","5","6","4","6","6","7","7","3","3","3","3","3","3","5","3","3","3","3","2","5","3","3","3","3","3","3","3","3","5","2","3","3","5","2","5","3","3","5","5","3","5","2","5","3","6","3","4","703157170715230208","张","Female","[""坏我"",""好她"",""好我"",""坏她""]","[""弱我"",""强她"",""强我"",""弱她""]","","","","","","","","yes","","","","","","","","","SRET","EW_formal","","key","f","16.750244791666773","683","380","自己","扎实","Positive","ability","","","","","","","","","",""
"1991","","j","psychophysics","58","343100","0.0-7.0-3.0-0.44","4","3","3","4","3","4","2","2","4","4","4","0","1","-1","1","-1","0","0","0","4","4","4","2","4","3","4","4","4","4","6","7","5","6","4","6","6","7","7","3","3","3","3","3","3","5","3","3","3","3","2","5","3","3","3","3","3","3","3","3","5","2","3","3","5","2","5","3","3","5","5","3","5","2","5","3","6","3","4","703157170715230208","张","Female","[""坏我"",""好她"",""好我"",""坏她""]","[""弱我"",""强她"",""强我"",""弱她""]","","","","","","","","no","","","","","","","","","SRET","EW_formal","","key","j","16.75036516853934","683","380","朋友","不良","Negative","morality","","","","","","","","","",""
"1414","","j","psychophysics","59","345523","0.0-7.0-3.0-0.45","4","3","3","4","3","4","2","2","4","4","4","0","1","-1","1","-1","0","0","0","4","4","4","2","4","3","4","4","4","4","6","7","5","6","4","6","6","7","7","3","3","3","3","3","3","5","3","3","3","3","2","5","3","3","3","3","3","3","3","3","5","2","3","3","5","2","5","3","3","5","5","3","5","2","5","3","6","3","4","703157170715230208","张","Female","[""坏我"",""好她"",""好我"",""坏她""]","[""弱我"",""强她"",""强我"",""弱她""]","","","","","","","","no","","","","","","","","","SRET","EW_formal","","key","j","16.905447552447903","683","380","自己","缺德","Negative","morality","","","","","","","","","",""
"910","","f","psychophysics","60","347443","0.0-7.0-3.0-0.46","4","3","3","4","3","4","2","2","4","4","4","0","1","-1","1","-1","0","0","0","4","4","4","2","4","3","4","4","4","4","6","7","5","6","4","6","6","7","7","3","3","3","3","3","3","5","3","3","3","3","2","5","3","3","3","3","3","3","3","3","5","2","3","3","5","2","5","3","3","5","5","3","5","2","5","3","6","3","4","703157170715230208","张","Female","[""坏我"",""好她"",""好我"",""坏她""]","[""弱我"",""强她"",""强我"",""弱她""]","","","","","","","","yes","","","","","","","","","SRET","EW_formal","","key","f","16.75076991150442","683","380","朋友","高效","Positive","ability","","","","","","","","","",""
"1084","","f","psychophysics","61","349532","0.0-7.0-3.0-0.47","4","3","3","4","3","4","2","2","4","4","4","0","1","-1","1","-1","0","0","0","4","4","4","2","4","3","4","4","4","4","6","7","5","6","4","6","6","7","7","3","3","3","3","3","3","5","3","3","3","3","2","5","3","3","3","3","3","3","3","3","5","2","3","3","5","2","5","3","3","5","5","3","5","2","5","3","6","3","4","703157170715230208","张","Female","[""坏我"",""好她"",""好我"",""坏她""]","[""弱我"",""强她"",""强我"",""弱她""]","","","","","","","","yes","","","","","","","","","SRET","EW_formal","","key","f","22.03424468085088","683","380","朋友","礼貌","Positive","morality","","","","","","","","","",""
"1782","","j","psychophysics","62","352323","0.0-7.0-3.0-0.48","4","3","3","4","3","4","2","2","4","4","4","0","1","-1","1","-1","0","0","0","4","4","4","2","4","3","4","4","4","4","6","7","5","6","4","6","6","7","7","3","3","3","3","3","3","5","3","3","3","3","2","5","3","3","3","3","3","3","3","3","5","2","3","3","5","2","5","3","3","5","5","3","5","2","5","3","6","3","4","703157170715230208","张","Female","[""坏我"",""好她"",""好我"",""坏她""]","[""弱我"",""强她"",""强我"",""弱她""]","","","","","","","","no","","","","","","","","","SRET","EW_formal","","key","j","16.71728915662655","683","380","朋友","畏难","Negative","ability","","","","","","","","","",""
"925","","j","psychophysics","63","354258","0.0-7.0-3.0-0.49","4","3","3","4","3","4","2","2","4","4","4","0","1","-1","1","-1","0","0","0","4","4","4","2","4","3","4","4","4","4","6","7","5","6","4","6","6","7","7","3","3","3","3","3","3","5","3","3","3","3","2","5","3","3","3","3","3","3","3","3","5","2","3","3","5","2","5","3","3","5","5","3","5","2","5","3","6","3","4","703157170715230208","张","Female","[""坏我"",""好她"",""好我"",""坏她""]","[""弱我"",""强她"",""强我"",""弱她""]","","","","","","","","no","","","","","","","","","SRET","EW_formal","","key","j","16.750385964912233","683","380","朋友","无耻","Negative","morality","","","","","","","","","",""
"834","","j","psychophysics","64","356099","0.0-7.0-3.0-0.50","4","3","3","4","3","4","2","2","4","4","4","0","1","-1","1","-1","0","0","0","4","4","4","2","4","3","4","4","4","4","6","7","5","6","4","6","6","7","7","3","3","3","3","3","3","5","3","3","3","3","2","5","3","3","3","3","3","3","3","3","5","2","3","3","5","2","5","3","3","5","5","3","5","2","5","3","6","3","4","703157170715230208","张","Female","[""坏我"",""好她"",""好我"",""坏她""]","[""弱我"",""强她"",""强我"",""弱她""]","","","","","","","","no","","","","","","","","","SRET","EW_formal","","key","j","16.75047706421988","683","380","朋友","虚假","Negative","morality","","","","","","","","","",""
"2287","","j","psychophysics","65","359394","0.0-7.0-3.0-0.51","4","3","3","4","3","4","2","2","4","4","4","0","1","-1","1","-1","0","0","0","4","4","4","2","4","3","4","4","4","4","6","7","5","6","4","6","6","7","7","3","3","3","3","3","3","5","3","3","3","3","2","5","3","3","3","3","3","3","3","3","5","2","3","3","5","2","5","3","3","5","5","3","5","2","5","3","6","3","4","703157170715230208","张","Female","[""坏我"",""好她"",""好我"",""坏她""]","[""弱我"",""强她"",""强我"",""弱她""]","","","","","","","","no","","","","","","","","","SRET","EW_formal","","key","j","16.8360564102565","683","380","自己","伪善","Negative","morality","","","","","","","","","",""
"1333","","j","psychophysics","66","361739","0.0-7.0-3.0-0.52","4","3","3","4","3","4","2","2","4","4","4","0","1","-1","1","-1","0","0","0","4","4","4","2","4","3","4","4","4","4","6","7","5","6","4","6","6","7","7","3","3","3","3","3","3","5","3","3","3","3","2","5","3","3","3","3","3","3","3","3","5","2","3","3","5","2","5","3","3","5","5","3","5","2","5","3","6","3","4","703157170715230208","张","Female","[""坏我"",""好她"",""好我"",""坏她""]","[""弱我"",""强她"",""强我"",""弱她""]","","","","","","","","no","","","","","","","","","SRET","EW_formal","","key","j","17.773099236640874","683","380","朋友","怠惰","Negative","ability","","","","","","","","","",""
"918","","j","psychophysics","67","363667","0.0-7.0-3.0-0.53","4","3","3","4","3","4","2","2","4","4","4","0","1","-1","1","-1","0","0","0","4","4","4","2","4","3","4","4","4","4","6","7","5","6","4","6","6","7","7","3","3","3","3","3","3","5","3","3","3","3","2","5","3","3","3","3","3","3","3","3","5","2","3","3","5","2","5","3","3","5","5","3","5","2","5","3","6","3","4","703157170715230208","张","Female","[""坏我"",""好她"",""好我"",""坏她""]","[""弱我"",""强她"",""强我"",""弱她""]","","","","","","","","no","","","","","","","","","SRET","EW_formal","","key","j","17.000571428571543","683","380","自己","蛇蝎","Negative","morality","","","","","","","","","",""
"910","","f","psychophysics","68","365587","0.0-7.0-3.0-0.54","4","3","3","4","3","4","2","2","4","4","4","0","1","-1","1","-1","0","0","0","4","4","4","2","4","3","4","4","4","4","6","7","5","6","4","6","6","7","7","3","3","3","3","3","3","5","3","3","3","3","2","5","3","3","3","3","3","3","3","3","5","2","3","3","5","2","5","3","3","5","5","3","5","2","5","3","6","3","4","703157170715230208","张","Female","[""坏我"",""好她"",""好我"",""坏她""]","[""弱我"",""强她"",""强我"",""弱她""]","","","","","","","","yes","","","","","","","","","SRET","EW_formal","","key","f","16.750096491228057","683","380","朋友","坚持","Positive","ability","","","","","","","","","",""
"1207","","j","psychophysics","69","367796","0.0-7.0-3.0-0.55","4","3","3","4","3","4","2","2","4","4","4","0","1","-1","1","-1","0","0","0","4","4","4","2","4","3","4","4","4","4","6","7","5","6","4","6","6","7","7","3","3","3","3","3","3","5","3","3","3","3","2","5","3","3","3","3","3","3","3","3","5","2","3","3","5","2","5","3","3","5","5","3","5","2","5","3","6","3","4","703157170715230208","张","Female","[""坏我"",""好她"",""好我"",""坏她""]","[""弱我"",""强她"",""强我"",""弱她""]","","","","","","","","no","","","","","","","","","SRET","EW_formal","","key","j","16.750661538461618","683","380","自己","不端","Negative","morality","","","","","","","","","",""
"917","","f","psychophysics","70","369722","0.0-7.0-3.0-0.56","4","3","3","4","3","4","2","2","4","4","4","0","1","-1","1","-1","0","0","0","4","4","4","2","4","3","4","4","4","4","6","7","5","6","4","6","6","7","7","3","3","3","3","3","3","5","3","3","3","3","2","5","3","3","3","3","3","3","3","3","5","2","3","3","5","2","5","3","3","5","5","3","5","2","5","3","6","3","4","703157170715230208","张","Female","[""坏我"",""好她"",""好我"",""坏她""]","[""弱我"",""强她"",""强我"",""弱她""]","","","","","","","","yes","","","","","","","","","SRET","EW_formal","","key","f","21.516730337078666","683","380","朋友","守时","Positive","morality","","","","","","","","","",""
"1242","","f","psychophysics","71","371970","0.0-7.0-3.0-0.57","4","3","3","4","3","4","2","2","4","4","4","0","1","-1","1","-1","0","0","0","4","4","4","2","4","3","4","4","4","4","6","7","5","6","4","6","6","7","7","3","3","3","3","3","3","5","3","3","3","3","2","5","3","3","3","3","3","3","3","3","5","2","3","3","5","2","5","3","3","5","5","3","5","2","5","3","6","3","4","703157170715230208","张","Female","[""坏我"",""好她"",""好我"",""坏她""]","[""弱我"",""强她"",""强我"",""弱她""]","","","","","","","","yes","","","","","","","","","SRET","EW_formal","","key","f","16.921446969696923","683","380","朋友","毅力","Positive","ability","","","","","","","","","",""
"4030","","j","psychophysics","72","377011","0.0-7.0-3.0-0.58","4","3","3","4","3","4","2","2","4","4","4","0","1","-1","1","-1","0","0","0","4","4","4","2","4","3","4","4","4","4","6","7","5","6","4","6","6","7","7","3","3","3","3","3","3","5","3","3","3","3","2","5","3","3","3","3","3","3","3","3","5","2","3","3","5","2","5","3","3","5","5","3","5","2","5","3","6","3","4","703157170715230208","张","Female","[""坏我"",""好她"",""好我"",""坏她""]","[""弱我"",""强她"",""强我"",""弱她""]","","","","","","","","no","","","","","","","","","SRET","EW_formal","","key","j","16.806324414715768","683","380","自己","沉着","Positive","ability","","","","","","","","","",""
"3673","","j","psychophysics","73","381690","0.0-7.0-3.0-0.59","4","3","3","4","3","4","2","2","4","4","4","0","1","-1","1","-1","0","0","0","4","4","4","2","4","3","4","4","4","4","6","7","5","6","4","6","6","7","7","3","3","3","3","3","3","5","3","3","3","3","2","5","3","3","3","3","3","3","3","3","5","2","3","3","5","2","5","3","3","5","5","3","5","2","5","3","6","3","4","703157170715230208","张","Female","[""坏我"",""好她"",""好我"",""坏她""]","[""弱我"",""强她"",""强我"",""弱她""]","","","","","","","","no","","","","","","","","","SRET","EW_formal","","key","j","19.32193360995855","683","380","自己","慈悲","Positive","morality","","","","","","","","","",""
"2277","","j","psychophysics","74","384978","0.0-7.0-3.0-0.60","4","3","3","4","3","4","2","2","4","4","4","0","1","-1","1","-1","0","0","0","4","4","4","2","4","3","4","4","4","4","6","7","5","6","4","6","6","7","7","3","3","3","3","3","3","5","3","3","3","3","2","5","3","3","3","3","3","3","3","3","5","2","3","3","5","2","5","3","3","5","5","3","5","2","5","3","6","3","4","703157170715230208","张","Female","[""坏我"",""好她"",""好我"",""坏她""]","[""弱我"",""强她"",""强我"",""弱她""]","","","","","","","","no","","","","","","","","","SRET","EW_formal","","key","j","16.75034358974379","683","380","自己","势利","Negative","morality","","","","","","","","","",""
"2009","","j","psychophysics","75","387994","0.0-7.0-3.0-0.61","4","3","3","4","3","4","2","2","4","4","4","0","1","-1","1","-1","0","0","0","4","4","4","2","4","3","4","4","4","4","6","7","5","6","4","6","6","7","7","3","3","3","3","3","3","5","3","3","3","3","2","5","3","3","3","3","3","3","3","3","5","2","3","3","5","2","5","3","3","5","5","3","5","2","5","3","6","3","4","703157170715230208","张","Female","[""坏我"",""好她"",""好我"",""坏她""]","[""弱我"",""强她"",""强我"",""弱她""]","","","","","","","","no","","","","","","","","","SRET","EW_formal","","key","j","21.265014184396946","683","380","朋友","偏私","Negative","morality","","","","","","","","","",""
"896","","f","psychophysics","76","389902","0.0-7.0-3.0-0.62","4","3","3","4","3","4","2","2","4","4","4","0","1","-1","1","-1","0","0","0","4","4","4","2","4","3","4","4","4","4","6","7","5","6","4","6","6","7","7","3","3","3","3","3","3","5","3","3","3","3","2","5","3","3","3","3","3","3","3","3","5","2","3","3","5","2","5","3","3","5","5","3","5","2","5","3","6","3","4","703157170715230208","张","Female","[""坏我"",""好她"",""好我"",""坏她""]","[""弱我"",""强她"",""强我"",""弱她""]","","","","","","","","yes","","","","","","","","","SRET","EW_formal","","key","f","22.008418604651016","683","380","朋友","努力","Positive","ability","","","","","","","","","",""
"1276","","f","psychophysics","77","392186","0.0-7.0-3.0-0.63","4","3","3","4","3","4","2","2","4","4","4","0","1","-1","1","-1","0","0","0","4","4","4","2","4","3","4","4","4","4","6","7","5","6","4","6","6","7","7","3","3","3","3","3","3","5","3","3","3","3","2","5","3","3","3","3","3","3","3","3","5","2","3","3","5","2","5","3","3","5","5","3","5","2","5","3","6","3","4","703157170715230208","张","Female","[""坏我"",""好她"",""好我"",""坏她""]","[""弱我"",""强她"",""强我"",""弱她""]","","","","","","","","yes","","","","","","","","","SRET","EW_formal","","key","f","16.793444444444376","683","380","自己","迂拙","Negative","ability","","","","","","","","","",""
"2010","","j","psychophysics","78","395201","0.0-7.0-3.0-0.64","4","3","3","4","3","4","2","2","4","4","4","0","1","-1","1","-1","0","0","0","4","4","4","2","4","3","4","4","4","4","6","7","5","6","4","6","6","7","7","3","3","3","3","3","3","5","3","3","3","3","2","5","3","3","3","3","3","3","3","3","5","2","3","3","5","2","5","3","3","5","5","3","5","2","5","3","6","3","4","703157170715230208","张","Female","[""坏我"",""好她"",""好我"",""坏她""]","[""弱我"",""强她"",""强我"",""弱她""]","","","","","","","","no","","","","","","","","","SRET","EW_formal","","key","j","16.75031284916224","683","380","自己","利落","Positive","ability","","","","","","","","","",""
"1372","","f","psychophysics","79","397581","0.0-7.0-3.0-0.65","4","3","3","4","3","4","2","2","4","4","4","0","1","-1","1","-1","0","0","0","4","4","4","2","4","3","4","4","4","4","6","7","5","6","4","6","6","7","7","3","3","3","3","3","3","5","3","3","3","3","2","5","3","3","3","3","3","3","3","3","5","2","3","3","5","2","5","3","3","5","5","3","5","2","5","3","6","3","4","703157170715230208","张","Female","[""坏我"",""好她"",""好我"",""坏她""]","[""弱我"",""强她"",""强我"",""弱她""]","","","","","","","","yes","","","","","","","","","SRET","EW_formal","","key","f","16.75047142857137","683","380","自己","坦荡","Positive","morality","","","","","","","","","",""
"2596","","f","psychophysics","80","401187","0.0-7.0-3.0-0.66","4","3","3","4","3","4","2","2","4","4","4","0","1","-1","1","-1","0","0","0","4","4","4","2","4","3","4","4","4","4","6","7","5","6","4","6","6","7","7","3","3","3","3","3","3","5","3","3","3","3","2","5","3","3","3","3","3","3","3","3","5","2","3","3","5","2","5","3","3","5","5","3","5","2","5","3","6","3","4","703157170715230208","张","Female","[""坏我"",""好她"",""好我"",""坏她""]","[""弱我"",""强她"",""强我"",""弱她""]","","","","","","","","yes","","","","","","","","","SRET","EW_formal","","key","f","16.828677570093454","683","380","自己","拙笨","Negative","ability","","","","","","","","","",""
"1104","","j","psychophysics","81","403295","0.0-7.0-3.0-0.67","4","3","3","4","3","4","2","2","4","4","4","0","1","-1","1","-1","0","0","0","4","4","4","2","4","3","4","4","4","4","6","7","5","6","4","6","6","7","7","3","3","3","3","3","3","5","3","3","3","3","2","5","3","3","3","3","3","3","3","3","5","2","3","3","5","2","5","3","3","5","5","3","5","2","5","3","6","3","4","703157170715230208","张","Female","[""坏我"",""好她"",""好我"",""坏她""]","[""弱我"",""强她"",""强我"",""弱她""]","","","","","","","","no","","","","","","","","","SRET","EW_formal","","key","j","16.749992000000084","683","380","朋友","小人","Negative","morality","","","","","","","","","",""
"1074","","f","psychophysics","82","405372","0.0-7.0-3.0-0.68","4","3","3","4","3","4","2","2","4","4","4","0","1","-1","1","-1","0","0","0","4","4","4","2","4","3","4","4","4","4","6","7","5","6","4","6","6","7","7","3","3","3","3","3","3","5","3","3","3","3","2","5","3","3","3","3","3","3","3","3","5","2","3","3","5","2","5","3","3","5","5","3","5","2","5","3","6","3","4","703157170715230208","张","Female","[""坏我"",""好她"",""好我"",""坏她""]","[""弱我"",""强她"",""强我"",""弱她""]","","","","","","","","yes","","","","","","","","","SRET","EW_formal","","key","f","16.750292682926535","683","380","自己","爱国","Positive","morality","","","","","","","","","",""
"1100","","j","psychophysics","83","407476","0.0-7.0-3.0-0.69","4","3","3","4","3","4","2","2","4","4","4","0","1","-1","1","-1","0","0","0","4","4","4","2","4","3","4","4","4","4","6","7","5","6","4","6","6","7","7","3","3","3","3","3","3","5","3","3","3","3","2","5","3","3","3","3","3","3","3","3","5","2","3","3","5","2","5","3","3","5","5","3","5","2","5","3","6","3","4","703157170715230208","张","Female","[""坏我"",""好她"",""好我"",""坏她""]","[""弱我"",""强她"",""强我"",""弱她""]","","","","","","","","no","","","","","","","","","SRET","EW_formal","","key","j","16.750274193548268","683","380","朋友","自私","Negative","morality","","","","","","","","","",""
"948","","j","psychophysics","84","409427","0.0-7.0-3.0-0.70","4","3","3","4","3","4","2","2","4","4","4","0","1","-1","1","-1","0","0","0","4","4","4","2","4","3","4","4","4","4","6","7","5","6","4","6","6","7","7","3","3","3","3","3","3","5","3","3","3","3","2","5","3","3","3","3","3","3","3","3","5","2","3","3","5","2","5","3","3","5","5","3","5","2","5","3","6","3","4","703157170715230208","张","Female","[""坏我"",""好她"",""好我"",""坏她""]","[""弱我"",""强她"",""强我"",""弱她""]","","","","","","","","no","","","","","","","","","SRET","EW_formal","","key","j","16.750396551724407","683","380","朋友","淫乱","Negative","morality","","","","","","","","","",""
"1060","","f","psychophysics","85","411491","0.0-7.0-3.0-0.71","4","3","3","4","3","4","2","2","4","4","4","0","1","-1","1","-1","0","0","0","4","4","4","2","4","3","4","4","4","4","6","7","5","6","4","6","6","7","7","3","3","3","3","3","3","5","3","3","3","3","2","5","3","3","3","3","3","3","3","3","5","2","3","3","5","2","5","3","3","5","5","3","5","2","5","3","6","3","4","703157170715230208","张","Female","[""坏我"",""好她"",""好我"",""坏她""]","[""弱我"",""强她"",""强我"",""弱她""]","","","","","","","","yes","","","","","","","","","SRET","EW_formal","","key","f","16.750377049180106","683","380","朋友","学霸","Positive","ability","","","","","","","","","",""
"1764","","j","psychophysics","86","414260","0.0-7.0-3.0-0.72","4","3","3","4","3","4","2","2","4","4","4","0","1","-1","1","-1","0","0","0","4","4","4","2","4","3","4","4","4","4","6","7","5","6","4","6","6","7","7","3","3","3","3","3","3","5","3","3","3","3","2","5","3","3","3","3","3","3","3","3","5","2","3","3","5","2","5","3","3","5","5","3","5","2","5","3","6","3","4","703157170715230208","张","Female","[""坏我"",""好她"",""好我"",""坏她""]","[""弱我"",""强她"",""强我"",""弱她""]","","","","","","","","no","","","","","","","","","SRET","EW_formal","","key","j","20.969832061068775","683","380","朋友","愚痴","Negative","ability","","","","","","","","","",""
"908","","f","psychophysics","87","416171","0.0-7.0-3.0-0.73","4","3","3","4","3","4","2","2","4","4","4","0","1","-1","1","-1","0","0","0","4","4","4","2","4","3","4","4","4","4","6","7","5","6","4","6","6","7","7","3","3","3","3","3","3","5","3","3","3","3","2","5","3","3","3","3","3","3","3","3","5","2","3","3","5","2","5","3","3","5","5","3","5","2","5","3","6","3","4","703157170715230208","张","Female","[""坏我"",""好她"",""好我"",""坏她""]","[""弱我"",""强她"",""强我"",""弱她""]","","","","","","","","yes","","","","","","","","","SRET","EW_formal","","key","f","17.00290090090077","683","380","朋友","刻苦","Positive","ability","","","","","","","","","",""
"966","","j","psychophysics","88","418149","0.0-7.0-3.0-0.74","4","3","3","4","3","4","2","2","4","4","4","0","1","-1","1","-1","0","0","0","4","4","4","2","4","3","4","4","4","4","6","7","5","6","4","6","6","7","7","3","3","3","3","3","3","5","3","3","3","3","2","5","3","3","3","3","3","3","3","3","5","2","3","3","5","2","5","3","3","5","5","3","5","2","5","3","6","3","4","703157170715230208","张","Female","[""坏我"",""好她"",""好我"",""坏她""]","[""弱我"",""强她"",""强我"",""弱她""]","","","","","","","","no","","","","","","","","","SRET","EW_formal","","key","j","22.395000000000106","683","380","朋友","窝囊","Negative","ability","","","","","","","","","",""
"1069","","f","psychophysics","89","420228","0.0-7.0-3.0-0.75","4","3","3","4","3","4","2","2","4","4","4","0","1","-1","1","-1","0","0","0","4","4","4","2","4","3","4","4","4","4","6","7","5","6","4","6","6","7","7","3","3","3","3","3","3","5","3","3","3","3","2","5","3","3","3","3","3","3","3","3","5","2","3","3","5","2","5","3","3","5","5","3","5","2","5","3","6","3","4","703157170715230208","张","Female","[""坏我"",""好她"",""好我"",""坏她""]","[""弱我"",""强她"",""强我"",""弱她""]","","","","","","","","yes","","","","","","","","","SRET","EW_formal","","key","f","20.75598989898983","683","380","自己","厚道","Positive","morality","","","","","","","","","",""
"1146","","j","psychophysics","90","422379","0.0-7.0-3.0-0.76","4","3","3","4","3","4","2","2","4","4","4","0","1","-1","1","-1","0","0","0","4","4","4","2","4","3","4","4","4","4","6","7","5","6","4","6","6","7","7","3","3","3","3","3","3","5","3","3","3","3","2","5","3","3","3","3","3","3","3","3","5","2","3","3","5","2","5","3","3","5","5","3","5","2","5","3","6","3","4","703157170715230208","张","Female","[""坏我"",""好她"",""好我"",""坏她""]","[""弱我"",""强她"",""强我"",""弱她""]","","","","","","","","no","","","","","","","","","SRET","EW_formal","","key","j","16.883690476190715","683","380","朋友","才尽","Negative","ability","","","","","","","","","",""
"1700","","f","psychophysics","91","425084","0.0-7.0-3.0-0.77","4","3","3","4","3","4","2","2","4","4","4","0","1","-1","1","-1","0","0","0","4","4","4","2","4","3","4","4","4","4","6","7","5","6","4","6","6","7","7","3","3","3","3","3","3","5","3","3","3","3","2","5","3","3","3","3","3","3","3","3","5","2","3","3","5","2","5","3","3","5","5","3","5","2","5","3","6","3","4","703157170715230208","张","Female","[""坏我"",""好她"",""好我"",""坏她""]","[""弱我"",""强她"",""强我"",""弱她""]","","","","","","","","yes","","","","","","","","","SRET","EW_formal","","key","f","16.85564150943409","683","380","自己","拖拉","Negative","ability","","","","","","","","","",""
"978","","f","psychophysics","92","427066","0.0-7.0-3.0-0.78","4","3","3","4","3","4","2","2","4","4","4","0","1","-1","1","-1","0","0","0","4","4","4","2","4","3","4","4","4","4","6","7","5","6","4","6","6","7","7","3","3","3","3","3","3","5","3","3","3","3","2","5","3","3","3","3","3","3","3","3","5","2","3","3","5","2","5","3","3","5","5","3","5","2","5","3","6","3","4","703157170715230208","张","Female","[""坏我"",""好她"",""好我"",""坏她""]","[""弱我"",""强她"",""强我"",""弱她""]","","","","","","","","yes","","","","","","","","","SRET","EW_formal","","key","f","16.893239316239487","683","380","朋友","守法","Positive","morality","","","","","","","","","",""
"1852","","j","psychophysics","93","429922","0.0-7.0-3.0-0.79","4","3","3","4","3","4","2","2","4","4","4","0","1","-1","1","-1","0","0","0","4","4","4","2","4","3","4","4","4","4","6","7","5","6","4","6","6","7","7","3","3","3","3","3","3","5","3","3","3","3","2","5","3","3","3","3","3","3","3","3","5","2","3","3","5","2","5","3","3","5","5","3","5","2","5","3","6","3","4","703157170715230208","张","Female","[""坏我"",""好她"",""好我"",""坏她""]","[""弱我"",""强她"",""强我"",""弱她""]","","","","","","","","no","","","","","","","","","SRET","EW_formal","","key","j","22.42034126984118","683","380","自己","果断","Positive","ability","","","","","","","","","",""
"1098","","j","psychophysics","94","432026","0.0-7.0-3.0-0.80","4","3","3","4","3","4","2","2","4","4","4","0","1","-1","1","-1","0","0","0","4","4","4","2","4","3","4","4","4","4","6","7","5","6","4","6","6","7","7","3","3","3","3","3","3","5","3","3","3","3","2","5","3","3","3","3","3","3","3","3","5","2","3","3","5","2","5","3","3","5","5","3","5","2","5","3","6","3","4","703157170715230208","张","Female","[""坏我"",""好她"",""好我"",""坏她""]","[""弱我"",""强她"",""强我"",""弱她""]","","","","","","","","no","","","","","","","","","SRET","EW_formal","","key","j","17.117254098360597","683","380","朋友","龌龊","Negative","morality","","","","","","","","","",""
"2156","","f","psychophysics","95","435188","0.0-7.0-3.0-0.81","4","3","3","4","3","4","2","2","4","4","4","0","1","-1","1","-1","0","0","0","4","4","4","2","4","3","4","4","4","4","6","7","5","6","4","6","6","7","7","3","3","3","3","3","3","5","3","3","3","3","2","5","3","3","3","3","3","3","3","3","5","2","3","3","5","2","5","3","3","5","5","3","5","2","5","3","6","3","4","703157170715230208","张","Female","[""坏我"",""好她"",""好我"",""坏她""]","[""弱我"",""强她"",""强我"",""弱她""]","","","","","","","","yes","","","","","","","","","SRET","EW_formal","","key","f","16.7504202127661","683","380","自己","外行","Negative","ability","","","","","","","","","",""
"1011","","f","psychophysics","96","437202","0.0-7.0-3.0-0.82","4","3","3","4","3","4","2","2","4","4","4","0","1","-1","1","-1","0","0","0","4","4","4","2","4","3","4","4","4","4","6","7","5","6","4","6","6","7","7","3","3","3","3","3","3","5","3","3","3","3","2","5","3","3","3","3","3","3","3","3","5","2","3","3","5","2","5","3","3","5","5","3","5","2","5","3","6","3","4","703157170715230208","张","Female","[""坏我"",""好她"",""好我"",""坏她""]","[""弱我"",""强她"",""强我"",""弱她""]","","","","","","","","yes","","","","","","","","","SRET","EW_formal","","key","f","16.892635593220387","683","380","自己","能干","Positive","ability","","","","","","","","","",""
"1228","","f","psychophysics","97","439435","0.0-7.0-3.0-0.83","4","3","3","4","3","4","2","2","4","4","4","0","1","-1","1","-1","0","0","0","4","4","4","2","4","3","4","4","4","4","6","7","5","6","4","6","6","7","7","3","3","3","3","3","3","5","3","3","3","3","2","5","3","3","3","3","3","3","3","3","5","2","3","3","5","2","5","3","3","5","5","3","5","2","5","3","6","3","4","703157170715230208","张","Female","[""坏我"",""好她"",""好我"",""坏她""]","[""弱我"",""强她"",""强我"",""弱她""]","","","","","","","","yes","","","","","","","","","SRET","EW_formal","","key","f","16.750242424242472","683","380","朋友","智慧","Positive","ability","","","","","","","","","",""
"1724","","j","psychophysics","98","442163","0.0-7.0-3.0-0.84","4","3","3","4","3","4","2","2","4","4","4","0","1","-1","1","-1","0","0","0","4","4","4","2","4","3","4","4","4","4","6","7","5","6","4","6","6","7","7","3","3","3","3","3","3","5","3","3","3","3","2","5","3","3","3","3","3","3","3","3","5","2","3","3","5","2","5","3","3","5","5","3","5","2","5","3","6","3","4","703157170715230208","张","Female","[""坏我"",""好她"",""好我"",""坏她""]","[""弱我"",""强她"",""强我"",""弱她""]","","","","","","","","no","","","","","","","","","SRET","EW_formal","","key","j","17.066433962263933","683","380","自己","主见","Positive","ability","","","","","","","","","",""
"1767","","f","psychophysics","99","444934","0.0-7.0-3.0-0.85","4","3","3","4","3","4","2","2","4","4","4","0","1","-1","1","-1","0","0","0","4","4","4","2","4","3","4","4","4","4","6","7","5","6","4","6","6","7","7","3","3","3","3","3","3","5","3","3","3","3","2","5","3","3","3","3","3","3","3","3","5","2","3","3","5","2","5","3","3","5","5","3","5","2","5","3","6","3","4","703157170715230208","张","Female","[""坏我"",""好她"",""好我"",""坏她""]","[""弱我"",""强她"",""强我"",""弱她""]","","","","","","","","yes","","","","","","","","","SRET","EW_formal","","key","f","22.197911290322796","683","380","自己","缓慢","Negative","ability","","","","","","","","","",""
"1328","","f","psychophysics","100","447274","0.0-7.0-3.0-0.86","4","3","3","4","3","4","2","2","4","4","4","0","1","-1","1","-1","0","0","0","4","4","4","2","4","3","4","4","4","4","6","7","5","6","4","6","6","7","7","3","3","3","3","3","3","5","3","3","3","3","2","5","3","3","3","3","3","3","3","3","5","2","3","3","5","2","5","3","3","5","5","3","5","2","5","3","6","3","4","703157170715230208","张","Female","[""坏我"",""好她"",""好我"",""坏她""]","[""弱我"",""强她"",""强我"",""弱她""]","","","","","","","","yes","","","","","","","","","SRET","EW_formal","","key","f","21.00668181818169","683","380","朋友","素养","Positive","morality","","","","","","","","","",""
"842","","j","psychophysics","101","449121","0.0-7.0-3.0-0.87","4","3","3","4","3","4","2","2","4","4","4","0","1","-1","1","-1","0","0","0","4","4","4","2","4","3","4","4","4","4","6","7","5","6","4","6","6","7","7","3","3","3","3","3","3","5","3","3","3","3","2","5","3","3","3","3","3","3","3","3","5","2","3","3","5","2","5","3","3","5","5","3","5","2","5","3","6","3","4","703157170715230208","张","Female","[""坏我"",""好她"",""好我"",""坏她""]","[""弱我"",""强她"",""强我"",""弱她""]","","","","","","","","no","","","","","","","","","SRET","EW_formal","","key","j","21.931819277107913","683","380","朋友","低俗","Negative","morality","","","","","","","","","",""
"5761","
    <p><div style='color:white;font-size:35px; line-height:20px;'>计算任务</div></p><br>
    <p><div style='color:red;font-size:25px; line-height:20px;'>接下来，您将看到一些四则运算题，<b>请从键盘选择 0-9 进行反应。</b></div></p>
    <p><div class='footer' style='color:white;font-size:25px; line-height:20px;'>如果对本实验还有不清楚之处，请立即向实验员咨询。</p><p style='color:white;font-size:25px; line-height:20px;'>如果您明白了规则：</p><p style='color:white;font-size:22px; line-height:20px;'>请按 继续 进入练习</p>
    </div>
    ","0","html-button-response","102","454887","0.0-7.0-4.0","4","3","3","4","3","4","2","2","4","4","4","0","1","-1","1","-1","0","0","0","4","4","4","2","4","3","4","4","4","4","6","7","5","6","4","6","6","7","7","3","3","3","3","3","3","5","3","3","3","3","2","5","3","3","3","3","3","3","3","3","5","2","3","3","5","2","5","3","3","5","5","3","5","2","5","3","6","3","4","703157170715230208","张","Female","[""坏我"",""好她"",""好我"",""坏她""]","[""弱我"",""强她"",""强我"",""弱她""]","","","","","","","","","","","","","","","","","SRET_math","math_instructions","Sat Sep 16 2023 23:28:50 GMT+0800 (中国标准时间)","","","","","","","","","","","","","","","","","","",""
"2238","","3","psychophysics","103","457140","0.0-7.0-5.0-0.0","4","3","3","4","3","4","2","2","4","4","4","0","1","-1","1","-1","0","0","0","4","4","4","2","4","3","4","4","4","4","6","7","5","6","4","6","6","7","7","3","3","3","3","3","3","5","3","3","3","3","2","5","3","3","3","3","3","3","3","3","5","2","3","3","5","2","5","3","3","5","5","3","5","2","5","3","6","3","4","703157170715230208","张","Female","[""坏我"",""好她"",""好我"",""坏她""]","[""弱我"",""强她"",""强我"",""弱她""]","","","","","","","","3","","","","","","","","","SRET","SRET_math_calculate","","key","3","16.750214814815102","683","380","","","","","3*1= ?","3","1","","","","","","",""
"2330","","9","psychophysics","104","459477","0.0-7.0-5.0-0.1","4","3","3","4","3","4","2","2","4","4","4","0","1","-1","1","-1","0","0","0","4","4","4","2","4","3","4","4","4","4","6","7","5","6","4","6","6","7","7","3","3","3","3","3","3","5","3","3","3","3","2","5","3","3","3","3","3","3","3","3","5","2","3","3","5","2","5","3","3","5","5","3","5","2","5","3","6","3","4","703157170715230208","张","Female","[""坏我"",""好她"",""好我"",""坏她""]","[""弱我"",""强她"",""强我"",""弱她""]","","","","","","","","9","","","","","","","","","SRET","SRET_math_calculate","","key","9","16.750294964028967","683","380","","","","","8+1= ?","9","1","","","","","","",""
"2849","","8","psychophysics","105","462330","0.0-7.0-5.0-0.2","4","3","3","4","3","4","2","2","4","4","4","0","1","-1","1","-1","0","0","0","4","4","4","2","4","3","4","4","4","4","6","7","5","6","4","6","6","7","7","3","3","3","3","3","3","5","3","3","3","3","2","5","3","3","3","3","3","3","3","3","5","2","3","3","5","2","5","3","3","5","5","3","5","2","5","3","6","3","4","703157170715230208","张","Female","[""坏我"",""好她"",""好我"",""坏她""]","[""弱我"",""强她"",""强我"",""弱她""]","","","","","","","","8","","","","","","","","","SRET","SRET_math_calculate","","key","8","16.849970238095143","683","380","","","","","4*2= ?","8","1","","","","","","",""
"2333","","8","psychophysics","106","464669","0.0-7.0-5.0-0.3","4","3","3","4","3","4","2","2","4","4","4","0","1","-1","1","-1","0","0","0","4","4","4","2","4","3","4","4","4","4","6","7","5","6","4","6","6","7","7","3","3","3","3","3","3","5","3","3","3","3","2","5","3","3","3","3","3","3","3","3","5","2","3","3","5","2","5","3","3","5","5","3","5","2","5","3","6","3","4","703157170715230208","张","Female","[""坏我"",""好她"",""好我"",""坏她""]","[""弱我"",""强她"",""强我"",""弱她""]","","","","","","","","8","","","","","","","","","SRET","SRET_math_calculate","","key","8","16.75033812949655","683","380","","","","","5+3= ?","8","1","","","","","","",""
"2417","","0","psychophysics","107","467091","0.0-7.0-5.0-0.4","4","3","3","4","3","4","2","2","4","4","4","0","1","-1","1","-1","0","0","0","4","4","4","2","4","3","4","4","4","4","6","7","5","6","4","6","6","7","7","3","3","3","3","3","3","5","3","3","3","3","2","5","3","3","3","3","3","3","3","3","5","2","3","3","5","2","5","3","3","5","5","3","5","2","5","3","6","3","4","703157170715230208","张","Female","[""坏我"",""好她"",""好我"",""坏她""]","[""弱我"",""强她"",""强我"",""弱她""]","","","","","","","","0","","","","","","","","","SRET","SRET_math_calculate","","key","0","16.750041958041916","683","380","","","","","6*0= ?","0","1","","","","","","",""
"2339","","8","psychophysics","108","469435","0.0-7.0-5.0-0.5","4","3","3","4","3","4","2","2","4","4","4","0","1","-1","1","-1","0","0","0","4","4","4","2","4","3","4","4","4","4","6","7","5","6","4","6","6","7","7","3","3","3","3","3","3","5","3","3","3","3","2","5","3","3","3","3","3","3","3","3","5","2","3","3","5","2","5","3","3","5","5","3","5","2","5","3","6","3","4","703157170715230208","张","Female","[""坏我"",""好她"",""好我"",""坏她""]","[""弱我"",""强她"",""强我"",""弱她""]","","","","","","","","8","","","","","","","","","SRET","SRET_math_calculate","","key","8","16.75004316546758","683","380","","","","","2+6= ?","8","1","","","","","","",""
"2162","","7","psychophysics","109","471642","0.0-7.0-5.0-0.6","4","3","3","4","3","4","2","2","4","4","4","0","1","-1","1","-1","0","0","0","4","4","4","2","4","3","4","4","4","4","6","7","5","6","4","6","6","7","7","3","3","3","3","3","3","5","3","3","3","3","2","5","3","3","3","3","3","3","3","3","5","2","3","3","5","2","5","3","3","5","5","3","5","2","5","3","6","3","4","703157170715230208","张","Female","[""坏我"",""好她"",""好我"",""坏她""]","[""弱我"",""强她"",""强我"",""弱她""]","","","","","","","","7","","","","","","","","","SRET","SRET_math_calculate","","key","7","16.879153846153685","683","380","","","","","2+5= ?","7","1","","","","","","",""
"2601","","2","psychophysics","110","474250","0.0-7.0-5.0-0.7","4","3","3","4","3","4","2","2","4","4","4","0","1","-1","1","-1","0","0","0","4","4","4","2","4","3","4","4","4","4","6","7","5","6","4","6","6","7","7","3","3","3","3","3","3","5","3","3","3","3","2","5","3","3","3","3","3","3","3","3","5","2","3","3","5","2","5","3","3","5","5","3","5","2","5","3","6","3","4","703157170715230208","张","Female","[""坏我"",""好她"",""好我"",""坏她""]","[""弱我"",""强她"",""强我"",""弱她""]","","","","","","","","2","","","","","","","","","SRET","SRET_math_calculate","","key","2","16.750283870967706","683","380","","","","","12/6= ?","2","1","","","","","","",""
"2284","","6","psychophysics","111","476571","0.0-7.0-5.0-0.8","4","3","3","4","3","4","2","2","4","4","4","0","1","-1","1","-1","0","0","0","4","4","4","2","4","3","4","4","4","4","6","7","5","6","4","6","6","7","7","3","3","3","3","3","3","5","3","3","3","3","2","5","3","3","3","3","3","3","3","3","5","2","3","3","5","2","5","3","3","5","5","3","5","2","5","3","6","3","4","703157170715230208","张","Female","[""坏我"",""好她"",""好我"",""坏她""]","[""弱我"",""强她"",""强我"",""弱她""]","","","","","","","","6","","","","","","","","","SRET","SRET_math_calculate","","key","6","16.750299270072762","683","380","","","","","11-5= ?","6","1","","","","","","",""
"3993","","9","psychophysics","112","480570","0.0-7.0-5.0-0.9","4","3","3","4","3","4","2","2","4","4","4","0","1","-1","1","-1","0","0","0","4","4","4","2","4","3","4","4","4","4","6","7","5","6","4","6","6","7","7","3","3","3","3","3","3","5","3","3","3","3","2","5","3","3","3","3","3","3","3","3","5","2","3","3","5","2","5","3","3","5","5","3","5","2","5","3","6","3","4","703157170715230208","张","Female","[""坏我"",""好她"",""好我"",""坏她""]","[""弱我"",""强她"",""强我"",""弱她""]","","","","","","","","9","","","","","","","","","SRET","SRET_math_calculate","","key","9","16.821092827004165","683","380","","","","","32-23= ?","9","1","","","","","","",""
"2307","","5","psychophysics","113","482882","0.0-7.0-5.0-0.10","4","3","3","4","3","4","2","2","4","4","4","0","1","-1","1","-1","0","0","0","4","4","4","2","4","3","4","4","4","4","6","7","5","6","4","6","6","7","7","3","3","3","3","3","3","5","3","3","3","3","2","5","3","3","3","3","3","3","3","3","5","2","3","3","5","2","5","3","3","5","5","3","5","2","5","3","6","3","4","703157170715230208","张","Female","[""坏我"",""好她"",""好我"",""坏她""]","[""弱我"",""强她"",""强我"",""弱她""]","","","","","","","","5","","","","","","","","","SRET","SRET_math_calculate","","key","5","18.965173553718707","683","380","","","","","9-4= ?","5","1","","","","","","",""
"2233","","6","psychophysics","114","485121","0.0-7.0-5.0-0.11","4","3","3","4","3","4","2","2","4","4","4","0","1","-1","1","-1","0","0","0","4","4","4","2","4","3","4","4","4","4","6","7","5","6","4","6","6","7","7","3","3","3","3","3","3","5","3","3","3","3","2","5","3","3","3","3","3","3","3","3","5","2","3","3","5","2","5","3","3","5","5","3","5","2","5","3","6","3","4","703157170715230208","张","Female","[""坏我"",""好她"",""好我"",""坏她""]","[""弱我"",""强她"",""强我"",""弱她""]","","","","","","","","6","","","","","","","","","SRET","SRET_math_calculate","","key","6","21.36805769230761","683","380","","","","","5+1= ?","6","1","","","","","","",""
"2262","","9","psychophysics","115","487385","0.0-7.0-5.0-0.12","4","3","3","4","3","4","2","2","4","4","4","0","1","-1","1","-1","0","0","0","4","4","4","2","4","3","4","4","4","4","6","7","5","6","4","6","6","7","7","3","3","3","3","3","3","5","3","3","3","3","2","5","3","3","3","3","3","3","3","3","5","2","3","3","5","2","5","3","3","5","5","3","5","2","5","3","6","3","4","703157170715230208","张","Female","[""坏我"",""好她"",""好我"",""坏她""]","[""弱我"",""强她"",""强我"",""弱她""]","","","","","","","","9","","","","","","","","","SRET","SRET_math_calculate","","key","9","17.399658914728995","683","380","","","","","4+5= ?","9","1","","","","","","",""
"3183","","3","psychophysics","116","490570","0.0-7.0-5.0-0.13","4","3","3","4","3","4","2","2","4","4","4","0","1","-1","1","-1","0","0","0","4","4","4","2","4","3","4","4","4","4","6","7","5","6","4","6","6","7","7","3","3","3","3","3","3","5","3","3","3","3","2","5","3","3","3","3","3","3","3","3","5","2","3","3","5","2","5","3","3","5","5","3","5","2","5","3","6","3","4","703157170715230208","张","Female","[""坏我"",""好她"",""好我"",""坏她""]","[""弱我"",""强她"",""强我"",""弱她""]","","","","","","","","3","","","","","","","","","SRET","SRET_math_calculate","","key","3","21.942769230769578","683","380","","","","","3+0= ?","3","1","","","","","","",""
"2285","","7","psychophysics","117","492875","0.0-7.0-5.0-0.14","4","3","3","4","3","4","2","2","4","4","4","0","1","-1","1","-1","0","0","0","4","4","4","2","4","3","4","4","4","4","6","7","5","6","4","6","6","7","7","3","3","3","3","3","3","5","3","3","3","3","2","5","3","3","3","3","3","3","3","3","5","2","3","3","5","2","5","3","3","5","5","3","5","2","5","3","6","3","4","703157170715230208","张","Female","[""坏我"",""好她"",""好我"",""坏她""]","[""弱我"",""强她"",""强我"",""弱她""]","","","","","","","","7","","","","","","","","","SRET","SRET_math_calculate","","key","7","22.17073786407777","683","380","","","","","8-1= ?","7","1","","","","","","",""
"3149","","7","psychophysics","118","496035","0.0-7.0-5.0-0.15","4","3","3","4","3","4","2","2","4","4","4","0","1","-1","1","-1","0","0","0","4","4","4","2","4","3","4","4","4","4","6","7","5","6","4","6","6","7","7","3","3","3","3","3","3","5","3","3","3","3","2","5","3","3","3","3","3","3","3","3","5","2","3","3","5","2","5","3","3","5","5","3","5","2","5","3","6","3","4","703157170715230208","张","Female","[""坏我"",""好她"",""好我"",""坏她""]","[""弱我"",""强她"",""强我"",""弱她""]","","","","","","","","7","","","","","","","","","SRET","SRET_math_calculate","","key","7","19.80537735849052","683","380","","","","","49/7 = ?","7","1","","","","","","",""
"2185","","5","psychophysics","119","498226","0.0-7.0-5.0-0.16","4","3","3","4","3","4","2","2","4","4","4","0","1","-1","1","-1","0","0","0","4","4","4","2","4","3","4","4","4","4","6","7","5","6","4","6","6","7","7","3","3","3","3","3","3","5","3","3","3","3","2","5","3","3","3","3","3","3","3","3","5","2","3","3","5","2","5","3","3","5","5","3","5","2","5","3","6","3","4","703157170715230208","张","Female","[""坏我"",""好她"",""好我"",""坏她""]","[""弱我"",""强她"",""强我"",""弱她""]","","","","","","","","5","","","","","","","","","SRET","SRET_math_calculate","","key","5","22.050282828282857","683","380","","","","","10-5= ?","5","1","","","","","","",""
"2673","","6","psychophysics","120","500905","0.0-7.0-5.0-0.17","4","3","3","4","3","4","2","2","4","4","4","0","1","-1","1","-1","0","0","0","4","4","4","2","4","3","4","4","4","4","6","7","5","6","4","6","6","7","7","3","3","3","3","3","3","5","3","3","3","3","2","5","3","3","3","3","3","3","3","3","5","2","3","3","5","2","5","3","3","5","5","3","5","2","5","3","6","3","4","703157170715230208","张","Female","[""坏我"",""好她"",""好我"",""坏她""]","[""弱我"",""强她"",""强我"",""弱她""]","","","","","","","","6","","","","","","","","","SRET","SRET_math_calculate","","key","6","22.333110169491285","683","380","","","","","2+4= ?","6","1","","","","","","",""
"3491","","8","psychophysics","121","504401","0.0-7.0-5.0-0.18","4","3","3","4","3","4","2","2","4","4","4","0","1","-1","1","-1","0","0","0","4","4","4","2","4","3","4","4","4","4","6","7","5","6","4","6","6","7","7","3","3","3","3","3","3","5","3","3","3","3","2","5","3","3","3","3","3","3","3","3","5","2","3","3","5","2","5","3","3","5","5","3","5","2","5","3","6","3","4","703157170715230208","张","Female","[""坏我"",""好她"",""好我"",""坏她""]","[""弱我"",""强她"",""强我"",""弱她""]","","","","","","","","8","","","","","","","","","SRET","SRET_math_calculate","","key","8","22.40464516129014","683","380","","","","","72/9= ?","8","1","","","","","","",""
"3524","","7","psychophysics","122","507929","0.0-7.0-5.0-0.19","4","3","3","4","3","4","2","2","4","4","4","0","1","-1","1","-1","0","0","0","4","4","4","2","4","3","4","4","4","4","6","7","5","6","4","6","6","7","7","3","3","3","3","3","3","5","3","3","3","3","2","5","3","3","3","3","3","3","3","3","5","2","3","3","5","2","5","3","3","5","5","3","5","2","5","3","6","3","4","703157170715230208","张","Female","[""坏我"",""好她"",""好我"",""坏她""]","[""弱我"",""强她"",""强我"",""弱她""]","","","","","","","","7","","","","","","","","","SRET","SRET_math_calculate","","key","7","19.05779891304353","683","380","","","","","11-4= ?","7","1","","","","","","",""
"2273","","0","psychophysics","123","510208","0.0-7.0-5.0-0.20","4","3","3","4","3","4","2","2","4","4","4","0","1","-1","1","-1","0","0","0","4","4","4","2","4","3","4","4","4","4","6","7","5","6","4","6","6","7","7","3","3","3","3","3","3","5","3","3","3","3","2","5","3","3","3","3","3","3","3","3","5","2","3","3","5","2","5","3","3","5","5","3","5","2","5","3","6","3","4","703157170715230208","张","Female","[""坏我"",""好她"",""好我"",""坏她""]","[""弱我"",""强她"",""强我"",""弱她""]","","","","","","","","0","","","","","","","","","SRET","SRET_math_calculate","","key","0","16.750503703703483","683","380","","","","","12-12= ?","0","1","","","","","","",""
"4464","","8","psychophysics","124","514680","0.0-7.0-5.0-0.21","4","3","3","4","3","4","2","2","4","4","4","0","1","-1","1","-1","0","0","0","4","4","4","2","4","3","4","4","4","4","6","7","5","6","4","6","6","7","7","3","3","3","3","3","3","5","3","3","3","3","2","5","3","3","3","3","3","3","3","3","5","2","3","3","5","2","5","3","3","5","5","3","5","2","5","3","6","3","4","703157170715230208","张","Female","[""坏我"",""好她"",""好我"",""坏她""]","[""弱我"",""强她"",""强我"",""弱她""]","","","","","","","","8","","","","","","","","","SRET","SRET_math_calculate","","key","8","16.75024812030072","683","380","","","","","11-3= ?","8","1","","","","","","",""
"2016","","4","psychophysics","125","516709","0.0-7.0-5.0-0.22","4","3","3","4","3","4","2","2","4","4","4","0","1","-1","1","-1","0","0","0","4","4","4","2","4","3","4","4","4","4","6","7","5","6","4","6","6","7","7","3","3","3","3","3","3","5","3","3","3","3","2","5","3","3","3","3","3","3","3","3","5","2","3","3","5","2","5","3","3","5","5","3","5","2","5","3","6","3","4","703157170715230208","张","Female","[""坏我"",""好她"",""好我"",""坏她""]","[""弱我"",""强她"",""强我"",""弱她""]","","","","","","","","4","","","","","","","","","SRET","SRET_math_calculate","","key","4","16.75040000000008","683","380","","","","","2+2= ?","4","1","","","","","","",""
"2286","","8","psychophysics","126","519003","0.0-7.0-5.0-0.23","4","3","3","4","3","4","2","2","4","4","4","0","1","-1","1","-1","0","0","0","4","4","4","2","4","3","4","4","4","4","6","7","5","6","4","6","6","7","7","3","3","3","3","3","3","5","3","3","3","3","2","5","3","3","3","3","3","3","3","3","5","2","3","3","5","2","5","3","3","5","5","3","5","2","5","3","6","3","4","703157170715230208","张","Female","[""坏我"",""好她"",""好我"",""坏她""]","[""弱我"",""强她"",""强我"",""弱她""]","","","","","","","","8","","","","","","","","","SRET","SRET_math_calculate","","key","8","16.75030147058843","683","380","","","","","1+7= ?","8","1","","","","","","",""
"2239","","5","psychophysics","127","521251","0.0-7.0-5.0-0.24","4","3","3","4","3","4","2","2","4","4","4","0","1","-1","1","-1","0","0","0","4","4","4","2","4","3","4","4","4","4","6","7","5","6","4","6","6","7","7","3","3","3","3","3","3","5","3","3","3","3","2","5","3","3","3","3","3","3","3","3","5","2","3","3","5","2","5","3","3","5","5","3","5","2","5","3","6","3","4","703157170715230208","张","Female","[""坏我"",""好她"",""好我"",""坏她""]","[""弱我"",""强她"",""强我"",""弱她""]","","","","","","","","5","","","","","","","","","SRET","SRET_math_calculate","","key","5","16.750105263157643","683","380","","","","","15-10= ?","5","1","","","","","","",""
"2343","","5","psychophysics","128","523602","0.0-7.0-5.0-0.25","4","3","3","4","3","4","2","2","4","4","4","0","1","-1","1","-1","0","0","0","4","4","4","2","4","3","4","4","4","4","6","7","5","6","4","6","6","7","7","3","3","3","3","3","3","5","3","3","3","3","2","5","3","3","3","3","3","3","3","3","5","2","3","3","5","2","5","3","3","5","5","3","5","2","5","3","6","3","4","703157170715230208","张","Female","[""坏我"",""好她"",""好我"",""坏她""]","[""弱我"",""强她"",""强我"",""弱她""]","","","","","","","","5","","","","","","","","","SRET","SRET_math_calculate","","key","5","16.7502785714285","683","380","","","","","16-11= ?","5","1","","","","","","",""
"2314","","9","psychophysics","129","525922","0.0-7.0-5.0-0.26","4","3","3","4","3","4","2","2","4","4","4","0","1","-1","1","-1","0","0","0","4","4","4","2","4","3","4","4","4","4","6","7","5","6","4","6","6","7","7","3","3","3","3","3","3","5","3","3","3","3","2","5","3","3","3","3","3","3","3","3","5","2","3","3","5","2","5","3","3","5","5","3","5","2","5","3","6","3","4","703157170715230208","张","Female","[""坏我"",""好她"",""好我"",""坏她""]","[""弱我"",""强她"",""强我"",""弱她""]","","","","","","","","9","","","","","","","","","SRET","SRET_math_calculate","","key","9","16.750518248175155","683","380","","","","","3*3= ?","9","1","","","","","","",""
"2702","","2","psychophysics","130","528634","0.0-7.0-5.0-0.27","4","3","3","4","3","4","2","2","4","4","4","0","1","-1","1","-1","0","0","0","4","4","4","2","4","3","4","4","4","4","6","7","5","6","4","6","6","7","7","3","3","3","3","3","3","5","3","3","3","3","2","5","3","3","3","3","3","3","3","3","5","2","3","3","5","2","5","3","3","5","5","3","5","2","5","3","6","3","4","703157170715230208","张","Female","[""坏我"",""好她"",""好我"",""坏她""]","[""弱我"",""强她"",""强我"",""弱她""]","","","","","","","","2","","","","","","","","","SRET","SRET_math_calculate","","key","2","16.750260869565317","683","380","","","","","8/4= ?","2","1","","","","","","",""
"2148","","3","psychophysics","131","530827","0.0-7.0-5.0-0.28","4","3","3","4","3","4","2","2","4","4","4","0","1","-1","1","-1","0","0","0","4","4","4","2","4","3","4","4","4","4","6","7","5","6","4","6","6","7","7","3","3","3","3","3","3","5","3","3","3","3","2","5","3","3","3","3","3","3","3","3","5","2","3","3","5","2","5","3","3","5","5","3","5","2","5","3","6","3","4","703157170715230208","张","Female","[""坏我"",""好她"",""好我"",""坏她""]","[""弱我"",""强她"",""强我"",""弱她""]","","","","","","","","3","","","","","","","","","SRET","SRET_math_calculate","","key","3","16.880147286821625","683","380","","","","","8-5= ?","3","1","","","","","","",""
"2139","","9","psychophysics","132","532970","0.0-7.0-5.0-0.29","4","3","3","4","3","4","2","2","4","4","4","0","1","-1","1","-1","0","0","0","4","4","4","2","4","3","4","4","4","4","6","7","5","6","4","6","6","7","7","3","3","3","3","3","3","5","3","3","3","3","2","5","3","3","3","3","3","3","3","3","5","2","3","3","5","2","5","3","3","5","5","3","5","2","5","3","6","3","4","703157170715230208","张","Female","[""坏我"",""好她"",""好我"",""坏她""]","[""弱我"",""强她"",""强我"",""弱她""]","","","","","","","","9","","","","","","","","","SRET","SRET_math_calculate","","key","9","22.21635416666686","683","380","","","","","7+2= ?","9","1","","","","","","",""
"2709","","1","psychophysics","133","535683","0.0-7.0-5.0-0.30","4","3","3","4","3","4","2","2","4","4","4","0","1","-1","1","-1","0","0","0","4","4","4","2","4","3","4","4","4","4","6","7","5","6","4","6","6","7","7","3","3","3","3","3","3","5","3","3","3","3","2","5","3","3","3","3","3","3","3","3","5","2","3","3","5","2","5","3","3","5","5","3","5","2","5","3","6","3","4","703157170715230208","张","Female","[""坏我"",""好她"",""好我"",""坏她""]","[""弱我"",""强她"",""强我"",""弱她""]","","","","","","","","1","","","","","","","","","SRET","SRET_math_calculate","","key","1","22.242454545455022","683","380","","","","","10-9= ?","1","1","","","","","","",""
"2539","","7","psychophysics","134","538226","0.0-7.0-5.0-0.31","4","3","3","4","3","4","2","2","4","4","4","0","1","-1","1","-1","0","0","0","4","4","4","2","4","3","4","4","4","4","6","7","5","6","4","6","6","7","7","3","3","3","3","3","3","5","3","3","3","3","2","5","3","3","3","3","3","3","3","3","5","2","3","3","5","2","5","3","3","5","5","3","5","2","5","3","6","3","4","703157170715230208","张","Female","[""坏我"",""好她"",""好我"",""坏她""]","[""弱我"",""强她"",""强我"",""弱她""]","","","","","","","","7","","","","","","","","","SRET","SRET_math_calculate","","key","7","22.431389380530742","683","380","","","","","7*1=  ?","7","1","","","","","","",""
"2047","","7","psychophysics","135","540281","0.0-7.0-5.0-0.32","4","3","3","4","3","4","2","2","4","4","4","0","1","-1","1","-1","0","0","0","4","4","4","2","4","3","4","4","4","4","6","7","5","6","4","6","6","7","7","3","3","3","3","3","3","5","3","3","3","3","2","5","3","3","3","3","3","3","3","3","5","2","3","3","5","2","5","3","3","5","5","3","5","2","5","3","6","3","4","703157170715230208","张","Female","[""坏我"",""好她"",""好我"",""坏她""]","[""弱我"",""强她"",""强我"",""弱她""]","","","","","","","","7","","","","","","","","","SRET","SRET_math_calculate","","key","7","22.454888888888267","683","380","","","","","4+3= ?","7","1","","","","","","",""
"2078","","4","psychophysics","136","542362","0.0-7.0-5.0-0.33","4","3","3","4","3","4","2","2","4","4","4","0","1","-1","1","-1","0","0","0","4","4","4","2","4","3","4","4","4","4","6","7","5","6","4","6","6","7","7","3","3","3","3","3","3","5","3","3","3","3","2","5","3","3","3","3","3","3","3","3","5","2","3","3","5","2","5","3","3","5","5","3","5","2","5","3","6","3","4","703157170715230208","张","Female","[""坏我"",""好她"",""好我"",""坏她""]","[""弱我"",""强她"",""强我"",""弱她""]","","","","","","","","4","","","","","","","","","SRET","SRET_math_calculate","","key","4","20.641262626262485","683","380","","","","","3+1= ?","4","1","","","","","","",""
"3236","","1","psychophysics","137","545602","0.0-7.0-5.0-0.34","4","3","3","4","3","4","2","2","4","4","4","0","1","-1","1","-1","0","0","0","4","4","4","2","4","3","4","4","4","4","6","7","5","6","4","6","6","7","7","3","3","3","3","3","3","5","3","3","3","3","2","5","3","3","3","3","3","3","3","3","5","2","3","3","5","2","5","3","3","5","5","3","5","2","5","3","6","3","4","703157170715230208","张","Female","[""坏我"",""好她"",""好我"",""坏她""]","[""弱我"",""强她"",""强我"",""弱她""]","","","","","","","","1","","","","","","","","","SRET","SRET_math_calculate","","key","1","17.768171270718174","683","380","","","","","12/12= ?","1","1","","","","","","",""
"2186","","9","psychophysics","138","547794","0.0-7.0-5.0-0.35","4","3","3","4","3","4","2","2","4","4","4","0","1","-1","1","-1","0","0","0","4","4","4","2","4","3","4","4","4","4","6","7","5","6","4","6","6","7","7","3","3","3","3","3","3","5","3","3","3","3","2","5","3","3","3","3","3","3","3","3","5","2","3","3","5","2","5","3","3","5","5","3","5","2","5","3","6","3","4","703157170715230208","张","Female","[""坏我"",""好她"",""好我"",""坏她""]","[""弱我"",""强她"",""强我"",""弱她""]","","","","","","","","9","","","","","","","","","SRET","SRET_math_calculate","","key","9","16.880162790698332","683","380","","","","","3+6= ?","9","1","","","","","","",""
"3755","","5","psychophysics","139","551554","0.0-7.0-5.0-0.36","4","3","3","4","3","4","2","2","4","4","4","0","1","-1","1","-1","0","0","0","4","4","4","2","4","3","4","4","4","4","6","7","5","6","4","6","6","7","7","3","3","3","3","3","3","5","3","3","3","3","2","5","3","3","3","3","3","3","3","3","5","2","3","3","5","2","5","3","3","5","5","3","5","2","5","3","6","3","4","703157170715230208","张","Female","[""坏我"",""好她"",""好我"",""坏她""]","[""弱我"",""强她"",""强我"",""弱她""]","","","","","","","","5","","","","","","","","","SRET","SRET_math_calculate","","key","5","16.901216216215985","683","380","","","","","12-7= ?","5","1","","","","","","",""
"2676","","8","psychophysics","140","554235","0.0-7.0-5.0-0.37","4","3","3","4","3","4","2","2","4","4","4","0","1","-1","1","-1","0","0","0","4","4","4","2","4","3","4","4","4","4","6","7","5","6","4","6","6","7","7","3","3","3","3","3","3","5","3","3","3","3","2","5","3","3","3","3","3","3","3","3","5","2","3","3","5","2","5","3","3","5","5","3","5","2","5","3","6","3","4","703157170715230208","张","Female","[""坏我"",""好她"",""好我"",""坏她""]","[""弱我"",""强她"",""强我"",""弱她""]","","","","","","","","8","","","","","","","","","SRET","SRET_math_calculate","","key","8","17.07242948717948","683","380","","","","","7+1= ?","8","1","","","","","","",""
"2560","","0","psychophysics","141","556801","0.0-7.0-5.0-0.38","4","3","3","4","3","4","2","2","4","4","4","0","1","-1","1","-1","0","0","0","4","4","4","2","4","3","4","4","4","4","6","7","5","6","4","6","6","7","7","3","3","3","3","3","3","5","3","3","3","3","2","5","3","3","3","3","3","3","3","3","5","2","3","3","5","2","5","3","3","5","5","3","5","2","5","3","6","3","4","703157170715230208","张","Female","[""坏我"",""好她"",""好我"",""坏她""]","[""弱我"",""强她"",""强我"",""弱她""]","","","","","","","","0","","","","","","","","","SRET","SRET_math_calculate","","key","0","16.75030263157877","683","380","","","","","32-32= ?","0","1","","","","","","",""
"2563","","2","psychophysics","142","559370","0.0-7.0-5.0-0.39","4","3","3","4","3","4","2","2","4","4","4","0","1","-1","1","-1","0","0","0","4","4","4","2","4","3","4","4","4","4","6","7","5","6","4","6","6","7","7","3","3","3","3","3","3","5","3","3","3","3","2","5","3","3","3","3","3","3","3","3","5","2","3","3","5","2","5","3","3","5","5","3","5","2","5","3","6","3","4","703157170715230208","张","Female","[""坏我"",""好她"",""好我"",""坏她""]","[""弱我"",""强她"",""强我"",""弱她""]","","","","","","","","2","","","","","","","","","SRET","SRET_math_calculate","","key","2","16.7502565789473","683","380","","","","","9-7= ?","2","1","","","","","","",""
"2449","","5","psychophysics","143","561824","0.0-7.0-5.0-0.40","4","3","3","4","3","4","2","2","4","4","4","0","1","-1","1","-1","0","0","0","4","4","4","2","4","3","4","4","4","4","6","7","5","6","4","6","6","7","7","3","3","3","3","3","3","5","3","3","3","3","2","5","3","3","3","3","3","3","3","3","5","2","3","3","5","2","5","3","3","5","5","3","5","2","5","3","6","3","4","703157170715230208","张","Female","[""坏我"",""好她"",""好我"",""坏她""]","[""弱我"",""强她"",""强我"",""弱她""]","","","","","","","","5","","","","","","","","","SRET","SRET_math_calculate","","key","5","16.865537931034662","683","380","","","","","14-9= ?","5","1","","","","","","",""
"3414","","6","psychophysics","144","565243","0.0-7.0-5.0-0.41","4","3","3","4","3","4","2","2","4","4","4","0","1","-1","1","-1","0","0","0","4","4","4","2","4","3","4","4","4","4","6","7","5","6","4","6","6","7","7","3","3","3","3","3","3","5","3","3","3","3","2","5","3","3","3","3","3","3","3","3","5","2","3","3","5","2","5","3","3","5","5","3","5","2","5","3","6","3","4","703157170715230208","张","Female","[""坏我"",""好她"",""好我"",""坏她""]","[""弱我"",""强她"",""强我"",""弱她""]","","","","","","","","6","","","","","","","","","SRET","SRET_math_calculate","","key","6","21.971415584415574","683","380","","","","","9-3= ?","6","1","","","","","","",""
