"rt","stimulus","response","trial_type","trial_index","time_elapsed","internal_node_id","swb_1","swb_2","swb_3","swb_4","swb_5","LOT_1","LOT_2","LOT_3","LOT_4","LOT_5","LOT_6","IPC_1","IPC_2","IPC_3","IPC_4","IPC_5","IPC_6","IPC_7","IPC_8","MorIden_1","MorIden_2","MorIden_3","MorIden_4","MorIden_5","MorIden_6","MorIden_7","MorIden_8","MorIden_9","MorIden_10","moralSeImag_1","moralSeImag_2","moralSeImag_3","moralSeImag_4","moralSeImag_5","moralSeImag_6","moralSeImag_7","moralSeImag_8","moralSeImag_9","sde_1","sde_2","sde_3","sde_4","sde_5","sde_6","sde_7","sde_8","sde_9","sde_10","sde_11","sde_12","sde_13","sde_14","sde_15","sde_16","sde_17","sde_18","sde_19","sde_20","IM_1","IM_2","IM_3","IM_4","IM_5","IM_6","IM_7","IM_8","IM_9","IM_10","IM_11","IM_12","IM_13","IM_14","IM_15","IM_16","IM_17","IM_18","IM_19","IM_20","subj_idx","friend_name","Sex","Word","Word2","value","success","timeout","failed_images","failed_audio","failed_video","user_agent","responses","item_order","radio_event_ids","radio_event_times","key_event_times","mouse_event_times","straightlining","zigzagging","honeypot","task_id","screen_id","time_stamp","response_type","key_press","avg_frame_time","center_x","center_y","person","word","valence","domain","math","correct_response","correct","status","view_history","identity","duration","Image","condition","question_order"
"1623","
   <p><div style='color:white; font-size: 25px'>您好，欢迎参加本次实验。</div></p>
   <p><div style='color:white; font-size: 25px'>为充分保障您的权利，请确保您已经知晓并同意《参与实验同意书》以及《数据公开知情同意书》。</div></p>
   <p><div style='color:white; font-size: 25px'>如果您未见过上述内容，请咨询实验员。</div></p>
   <p style='color:white; font-size: 25px'>如果您选择继续实验，则表示您已经清楚两份知情同意书的内容并同意。</p>
   <p> <div style = ""color: green""><按空格键至下页></div> </p>
   "," ","html-keyboard-response","0","1626","0.0-0.0","2","3","2","1","1","3","3","4","5","5","4","1","0","-1","0","-3","0","1","0","4","3","5","3","3","4","2","4","2","3","3","5","4","4","2","3","2","2","4","2","4","3","2","3","3","4","5","4","2","1","1","4","2","1","5","3","3","2","3","1","1","1","1","2","3","6","6","7","3","3","1","3","1","1","3","1","7","2","3","735606541780258817","谢","Female","[""好她"",""坏她"",""好我"",""坏我""]","[""强她"",""弱她"",""强我"",""弱我""]","","","","","","","","","","","","","","","","","","","","","","","","","","","","","","","","","","","","","",""
"","","","call-function","1","1627","0.0-1.0-0.0","2","3","2","1","1","3","3","4","5","5","4","1","0","-1","0","-3","0","1","0","4","3","5","3","3","4","2","4","2","3","3","5","4","4","2","3","2","2","4","2","4","3","2","3","3","4","5","4","2","1","1","4","2","1","5","3","3","2","3","1","1","1","1","2","3","6","6","7","3","3","1","3","1","1","3","1","7","2","3","735606541780258817","谢","Female","[""好她"",""坏她"",""好我"",""坏我""]","[""强她"",""弱她"",""强我"",""弱我""]","","","","","","","","","","","","","","","","","","","","","","","","","","","","","","","","","","","","","",""
"21460","","[{""name"":""Sex"",""value"":""1""},{""name"":""friend_name"",""value"":""谢""}]","survey-html-form","2","23089","0.0-1.0-1.0","2","3","2","1","1","3","3","4","5","5","4","1","0","-1","0","-3","0","1","0","4","3","5","3","3","4","2","4","2","3","3","5","4","4","2","3","2","2","4","2","4","3","2","3","3","4","5","4","2","1","1","4","2","1","5","3","3","2","3","1","1","1","1","2","3","6","6","7","3","3","1","3","1","1","3","1","7","2","3","735606541780258817","谢","Female","[""好她"",""坏她"",""好我"",""坏我""]","[""强她"",""弱她"",""强我"",""弱我""]","","","","","","","","","","","","","","","","","","","","","","","","","","","","","","","","","","","","","",""
"","","","preload","3","23150","0.0-2.0","2","3","2","1","1","3","3","4","5","5","4","1","0","-1","0","-3","0","1","0","4","3","5","3","3","4","2","4","2","3","3","5","4","4","2","3","2","2","4","2","4","3","2","3","3","4","5","4","2","1","1","4","2","1","5","3","3","2","3","1","1","1","1","2","3","6","6","7","3","3","1","3","1","1","3","1","7","2","3","735606541780258817","谢","Female","[""好她"",""坏她"",""好我"",""坏我""]","[""强她"",""弱她"",""强我"",""弱我""]","","true","false","[]","[]","[]","","","","","","","","","","","","","","","","","","","","","","","","","","","","","","","",""
"","","","fullscreen","4","39106","0.0-3.0","2","3","2","1","1","3","3","4","5","5","4","1","0","-1","0","-3","0","1","0","4","3","5","3","3","4","2","4","2","3","3","5","4","4","2","3","2","2","4","2","4","3","2","3","3","4","5","4","2","1","1","4","2","1","5","3","3","2","3","1","1","1","1","2","3","6","6","7","3","3","1","3","1","1","3","1","7","2","3","735606541780258817","谢","Female","[""好她"",""坏她"",""好我"",""坏我""]","[""强她"",""弱她"",""强我"",""弱我""]","","true","","","","","{}","","","","","","","","","","","","","","","","","","","","","","","","","","","","","","",""
"21870.400000095367","","{""Q01"":""2"",""Q02"":""3"",""Q03"":""2"",""Q04"":""1"",""Q05"":""1""}","survey-template","5","60981","0.0-4.0","2","3","2","1","1","3","3","4","5","5","4","1","0","-1","0","-3","0","1","0","4","3","5","3","3","4","2","4","2","3","3","5","4","4","2","3","2","2","4","2","4","3","2","3","3","4","5","4","2","1","1","4","2","1","5","3","3","2","3","1","1","1","1","2","3","6","6","7","3","3","1","3","1","1","3","1","7","2","3","735606541780258817","谢","Female","[""好她"",""坏她"",""好我"",""坏我""]","[""强她"",""弱她"",""强我"",""弱我""]","","","","","","","","{""Q01"":""2"",""Q02"":""3"",""Q03"":""2"",""Q04"":""1"",""Q05"":""1""}","[0,1,2,3,4]","[""Q01"",""Q02"",""Q03"",""Q04"",""Q05"",""Q05"",""Q03""]","[2583.4000000953674,3689,7763.5,8722.100000143051,15733.600000143051,19544.400000095367,20607.299999952316]","[]","[2583.4000000953674,3689,6689.100000143051,7763.5,8388.100000143051,8722.100000143051,15733.600000143051,19544.400000095367,20607.299999952316,21868.5]","0.4","0.75","0","","","","","","","","","","","","","","","","","","","","","",""
"24937.700000047684","","{""Q01"":""3"",""Q02"":""3"",""Q03"":""4"",""Q04"":""5"",""Q05"":""5"",""Q06"":""4""}","survey-template","6","85924","0.0-5.0","2","3","2","1","1","3","3","4","5","5","4","1","0","-1","0","-3","0","1","0","4","3","5","3","3","4","2","4","2","3","3","5","4","4","2","3","2","2","4","2","4","3","2","3","3","4","5","4","2","1","1","4","2","1","5","3","3","2","3","1","1","1","1","2","3","6","6","7","3","3","1","3","1","1","3","1","7","2","3","735606541780258817","谢","Female","[""好她"",""坏她"",""好我"",""坏我""]","[""强她"",""弱她"",""强我"",""弱我""]","","","","","","","","{""Q01"":""3"",""Q02"":""3"",""Q03"":""4"",""Q04"":""5"",""Q05"":""5"",""Q06"":""4""}","[0,1,2,3,4,5]","[""Q01"",""Q03"",""Q04"",""Q05"",""Q06"",""Q02""]","[5525.800000190735,8416.800000190735,12014.800000190735,12566.800000190735,18021.200000047684,23792]","[]","[5525.800000190735,6945,8416.800000190735,9972.600000143051,11046.900000095367,11510.400000095367,12014.800000190735,12566.800000190735,18021.200000047684,18728.900000095367,21728.900000095367,23792,24936.60000014305]","0.3333333333333333","0.2","0","","","","","","","","","","","","","","","","","","","","","",""
"22810.5","","{""Q01"":""1"",""Q02"":""0"",""Q03"":""-1"",""Q04"":""0"",""Q05"":""-3"",""Q06"":""0"",""Q07"":""1"",""Q08"":""0""}","survey-template","7","108738","0.0-6.0","2","3","2","1","1","3","3","4","5","5","4","1","0","-1","0","-3","0","1","0","4","3","5","3","3","4","2","4","2","3","3","5","4","4","2","3","2","2","4","2","4","3","2","3","3","4","5","4","2","1","1","4","2","1","5","3","3","2","3","1","1","1","1","2","3","6","6","7","3","3","1","3","1","1","3","1","7","2","3","735606541780258817","谢","Female","[""好她"",""坏她"",""好我"",""坏我""]","[""强她"",""弱她"",""强我"",""弱我""]","","","","","","","","{""Q01"":""1"",""Q02"":""0"",""Q03"":""-1"",""Q04"":""0"",""Q05"":""-3"",""Q06"":""0"",""Q07"":""1"",""Q08"":""0""}","[0,1,2,3,4,5,6,7]","[""Q01"",""Q02"",""Q01"",""Q03"",""Q05"",""Q04"",""Q06"",""Q07"",""Q08""]","[2152.7000000476837,3766.4000000953674,4731.200000047684,9016.5,11211.5,13359.300000190735,15459.5,19354.400000095367,22000.60000014305]","[]","[2152.7000000476837,3766.4000000953674,4731.200000047684,9016.5,11211.5,12809.200000047684,13359.300000190735,15459.5,19354.400000095367,22000.60000014305,22808.700000047684]","0.5","0.7142857142857143","0","","","","","","","","","","","","","","","","","","","","","",""
"6787","
    <p><div style='color:white;font-size:35px; line-height:20px;'>词汇评估任务</div></p><br>
    <p><div style='color:white;font-size:25px; line-height:20px;'>请再次回忆该亲密的朋友，你们至少2年前就认识了，并且最近2年经常见面。</div></p>
    <p><div style='color:white;font-size:25px; line-height:20px;'>在本实验中，您将会看到一些形容词。</div></p>
    <p><div style='color:yellow;font-size:25px; line-height:20px;'>您的任务是判断这些形容词是否符合对您自己或您的朋友的描述。</div></p><p style='font-size:35px'>符合按<span style=""color:lightgreen""> f 键</span>，不符合按<span style=""color:red""> j 键</span></p>","0","html-button-response","8","115531","0.0-7.0-0.0","2","3","2","1","1","3","3","4","5","5","4","1","0","-1","0","-3","0","1","0","4","3","5","3","3","4","2","4","2","3","3","5","4","4","2","3","2","2","4","2","4","3","2","3","3","4","5","4","2","1","1","4","2","1","5","3","3","2","3","1","1","1","1","2","3","6","6","7","3","3","1","3","1","1","3","1","7","2","3","735606541780258817","谢","Female","[""好她"",""坏她"",""好我"",""坏我""]","[""强她"",""弱她"",""强我"",""弱我""]","","","","","","","","","","","","","","","","","SRET_EW","EW_instructions","Sat Sep 16 2023 22:23:04 GMT+0800 (中国标准时间)","","","","","","","","","","","","","","","","","","",""
"2042","","j","psychophysics","9","118584","0.0-7.0-1.0-0.0","2","3","2","1","1","3","3","4","5","5","4","1","0","-1","0","-3","0","1","0","4","3","5","3","3","4","2","4","2","3","3","5","4","4","2","3","2","2","4","2","4","3","2","3","3","4","5","4","2","1","1","4","2","1","5","3","3","2","3","1","1","1","1","2","3","6","6","7","3","3","1","3","1","1","3","1","7","2","3","735606541780258817","谢","Female","[""好她"",""坏她"",""好我"",""坏我""]","[""强她"",""弱她"",""强我"",""弱我""]","","","","","","","","no","","","","","","","","","SRET_EW","EW_practice","","key","j","16.664032786885226","853.3333333333334","476","朋友","徇私","Negative","morality","","","","","","","","","",""
"2347","","j","psychophysics","10","121934","0.0-7.0-1.0-0.1","2","3","2","1","1","3","3","4","5","5","4","1","0","-1","0","-3","0","1","0","4","3","5","3","3","4","2","4","2","3","3","5","4","4","2","3","2","2","4","2","4","3","2","3","3","4","5","4","2","1","1","4","2","1","5","3","3","2","3","1","1","1","1","2","3","6","6","7","3","3","1","3","1","1","3","1","7","2","3","735606541780258817","谢","Female","[""好她"",""坏她"",""好我"",""坏我""]","[""强她"",""弱她"",""强我"",""弱我""]","","","","","","","","no","","","","","","","","","SRET_EW","EW_practice","","key","j","16.666515","853.3333333333334","476","自己","刻板","Negative","ability","","","","","","","","","",""
"898","","f","psychophysics","11","123835","0.0-7.0-1.0-0.2","2","3","2","1","1","3","3","4","5","5","4","1","0","-1","0","-3","0","1","0","4","3","5","3","3","4","2","4","2","3","3","5","4","4","2","3","2","2","4","2","4","3","2","3","3","4","5","4","2","1","1","4","2","1","5","3","3","2","3","1","1","1","1","2","3","6","6","7","3","3","1","3","1","1","3","1","7","2","3","735606541780258817","谢","Female","[""好她"",""坏她"",""好我"",""坏我""]","[""强她"",""弱她"",""强我"",""弱我""]","","","","","","","","yes","","","","","","","","","SRET_EW","EW_practice","","key","f","16.66568141592928","853.3333333333334","476","朋友","忠实","Positive","morality","","","","","","","","","",""
"11151","","f","psychophysics","12","135988","0.0-7.0-1.0-0.3","2","3","2","1","1","3","3","4","5","5","4","1","0","-1","0","-3","0","1","0","4","3","5","3","3","4","2","4","2","3","3","5","4","4","2","3","2","2","4","2","4","3","2","3","3","4","5","4","2","1","1","4","2","1","5","3","3","2","3","1","1","1","1","2","3","6","6","7","3","3","1","3","1","1","3","1","7","2","3","735606541780258817","谢","Female","[""好她"",""坏她"",""好我"",""坏我""]","[""强她"",""弱她"",""强我"",""弱我""]","","","","","","","","yes","","","","","","","","","SRET_EW","EW_practice","","key","f","16.66520741758243","853.3333333333334","476","自己","严谨","Positive","ability","","","","","","","","","",""
"2609","
    <p><div style='color:white;font-size:35px; line-height:20px;'>请您再次阅读实验要求</div></p><br>
    <p><div style='color:white;font-size:25px; line-height:20px;'>请回忆某一个亲密的朋友，你们至少2年前就认识了，并且最近2年经常见面。</div></p>
    <p><div style='color:white;font-size:25px; line-height:20px;'>在本实验中，您将会看到一些形容词。</div></p>
    <p><div style='color:yellow;font-size:25px; line-height:20px;'>您的任务是判断这些形容词是否符合对您自己或您的朋友的描述。</div></p>
    <p><div class='footer' style='font-size:25px; line-height:20px;'>如果对本实验还有不清楚之处，请立即向实验员咨询。</p><p style='font-size:25px; line-height:20px;'>如果您明白了规则：</p><p style='font-size:22px; line-height:20px;'>请按 继续 进入正式实验</p>
    </div>
    <p style='font-size:35px'>符合按<span style=""color:lightgreen""> f 键</span>，不符合按<span style=""color:red""> j 键</span></p>","0","html-button-response","13","138599","0.0-7.0-2.0","2","3","2","1","1","3","3","4","5","5","4","1","0","-1","0","-3","0","1","0","4","3","5","3","3","4","2","4","2","3","3","5","4","4","2","3","2","2","4","2","4","3","2","3","3","4","5","4","2","1","1","4","2","1","5","3","3","2","3","1","1","1","1","2","3","6","6","7","3","3","1","3","1","1","3","1","7","2","3","735606541780258817","谢","Female","[""好她"",""坏她"",""好我"",""坏我""]","[""强她"",""弱她"",""强我"",""弱我""]","","","","","","","","","","","","","","","","","SRET_EW","prac_instructions","Sat Sep 16 2023 22:23:04 GMT+0800 (中国标准时间)","","","","","","","","","","","","","","","","","","",""
"1263","","j","psychophysics","14","140865","0.0-7.0-3.0-0.0","2","3","2","1","1","3","3","4","5","5","4","1","0","-1","0","-3","0","1","0","4","3","5","3","3","4","2","4","2","3","3","5","4","4","2","3","2","2","4","2","4","3","2","3","3","4","5","4","2","1","1","4","2","1","5","3","3","2","3","1","1","1","1","2","3","6","6","7","3","3","1","3","1","1","3","1","7","2","3","735606541780258817","谢","Female","[""好她"",""坏她"",""好我"",""坏我""]","[""强她"",""弱她"",""强我"",""弱我""]","","","","","","","","no","","","","","","","","","SRET","EW_formal","","key","j","16.666279411764716","853.3333333333334","476","朋友","迷糊","Negative","ability","","","","","","","","","",""
"1689","","f","psychophysics","15","143569","0.0-7.0-3.0-0.1","2","3","2","1","1","3","3","4","5","5","4","1","0","-1","0","-3","0","1","0","4","3","5","3","3","4","2","4","2","3","3","5","4","4","2","3","2","2","4","2","4","3","2","3","3","4","5","4","2","1","1","4","2","1","5","3","3","2","3","1","1","1","1","2","3","6","6","7","3","3","1","3","1","1","3","1","7","2","3","735606541780258817","谢","Female","[""好她"",""坏她"",""好我"",""坏我""]","[""强她"",""弱她"",""强我"",""弱我""]","","","","","","","","yes","","","","","","","","","SRET","EW_formal","","key","f","16.666397515528","853.3333333333334","476","自己","坚贞","Positive","morality","","","","","","","","","",""
"2349","","f","psychophysics","16","146920","0.0-7.0-3.0-0.2","2","3","2","1","1","3","3","4","5","5","4","1","0","-1","0","-3","0","1","0","4","3","5","3","3","4","2","4","2","3","3","5","4","4","2","3","2","2","4","2","4","3","2","3","3","4","5","4","2","1","1","4","2","1","5","3","3","2","3","1","1","1","1","2","3","6","6","7","3","3","1","3","1","1","3","1","7","2","3","735606541780258817","谢","Female","[""好她"",""坏她"",""好我"",""坏我""]","[""强她"",""弱她"",""强我"",""弱我""]","","","","","","","","yes","","","","","","","","","SRET","EW_formal","","key","f","16.62543000000005","853.3333333333334","476","朋友","务实","Positive","ability","","","","","","","","","",""
"868","","f","psychophysics","17","148789","0.0-7.0-3.0-0.3","2","3","2","1","1","3","3","4","5","5","4","1","0","-1","0","-3","0","1","0","4","3","5","3","3","4","2","4","2","3","3","5","4","4","2","3","2","2","4","2","4","3","2","3","3","4","5","4","2","1","1","4","2","1","5","3","3","2","3","1","1","1","1","2","3","6","6","7","3","3","1","3","1","1","3","1","7","2","3","735606541780258817","谢","Female","[""好她"",""坏她"",""好我"",""坏我""]","[""强她"",""弱她"",""强我"",""弱我""]","","","","","","","","yes","","","","","","","","","SRET","EW_formal","","key","f","16.669414414414614","853.3333333333334","476","自己","说谎","Negative","morality","","","","","","","","","",""
"873","","j","psychophysics","18","150664","0.0-7.0-3.0-0.4","2","3","2","1","1","3","3","4","5","5","4","1","0","-1","0","-3","0","1","0","4","3","5","3","3","4","2","4","2","3","3","5","4","4","2","3","2","2","4","2","4","3","2","3","3","4","5","4","2","1","1","4","2","1","5","3","3","2","3","1","1","1","1","2","3","6","6","7","3","3","1","3","1","1","3","1","7","2","3","735606541780258817","谢","Female","[""好她"",""坏她"",""好我"",""坏我""]","[""强她"",""弱她"",""强我"",""弱我""]","","","","","","","","no","","","","","","","","","SRET","EW_formal","","key","j","16.664696428571396","853.3333333333334","476","朋友","盲目","Negative","ability","","","","","","","","","",""
"977","","f","psychophysics","19","152646","0.0-7.0-3.0-0.5","2","3","2","1","1","3","3","4","5","5","4","1","0","-1","0","-3","0","1","0","4","3","5","3","3","4","2","4","2","3","3","5","4","4","2","3","2","2","4","2","4","3","2","3","3","4","5","4","2","1","1","4","2","1","5","3","3","2","3","1","1","1","1","2","3","6","6","7","3","3","1","3","1","1","3","1","7","2","3","735606541780258817","谢","Female","[""好她"",""坏她"",""好我"",""坏我""]","[""强她"",""弱她"",""强我"",""弱我""]","","","","","","","","yes","","","","","","","","","SRET","EW_formal","","key","f","16.663347457627317","853.3333333333334","476","朋友","淡泊","Positive","morality","","","","","","","","","",""
"945","","f","psychophysics","20","154595","0.0-7.0-3.0-0.6","2","3","2","1","1","3","3","4","5","5","4","1","0","-1","0","-3","0","1","0","4","3","5","3","3","4","2","4","2","3","3","5","4","4","2","3","2","2","4","2","4","3","2","3","3","4","5","4","2","1","1","4","2","1","5","3","3","2","3","1","1","1","1","2","3","6","6","7","3","3","1","3","1","1","3","1","7","2","3","735606541780258817","谢","Female","[""好她"",""坏她"",""好我"",""坏我""]","[""强她"",""弱她"",""强我"",""弱我""]","","","","","","","","yes","","","","","","","","","SRET","EW_formal","","key","f","16.665474137931096","853.3333333333334","476","自己","畏难","Negative","ability","","","","","","","","","",""
"920","","f","psychophysics","21","156518","0.0-7.0-3.0-0.7","2","3","2","1","1","3","3","4","5","5","4","1","0","-1","0","-3","0","1","0","4","3","5","3","3","4","2","4","2","3","3","5","4","4","2","3","2","2","4","2","4","3","2","3","3","4","5","4","2","1","1","4","2","1","5","3","3","2","3","1","1","1","1","2","3","6","6","7","3","3","1","3","1","1","3","1","7","2","3","735606541780258817","谢","Female","[""好她"",""坏她"",""好我"",""坏我""]","[""强她"",""弱她"",""强我"",""弱我""]","","","","","","","","yes","","","","","","","","","SRET","EW_formal","","key","f","16.66003508771935","853.3333333333334","476","朋友","谦逊","Positive","morality","","","","","","","","","",""
"776","","j","psychophysics","22","158296","0.0-7.0-3.0-0.8","2","3","2","1","1","3","3","4","5","5","4","1","0","-1","0","-3","0","1","0","4","3","5","3","3","4","2","4","2","3","3","5","4","4","2","3","2","2","4","2","4","3","2","3","3","4","5","4","2","1","1","4","2","1","5","3","3","2","3","1","1","1","1","2","3","6","6","7","3","3","1","3","1","1","3","1","7","2","3","735606541780258817","谢","Female","[""好她"",""坏她"",""好我"",""坏我""]","[""强她"",""弱她"",""强我"",""弱我""]","","","","","","","","no","","","","","","","","","SRET","EW_formal","","key","j","16.802285714285624","853.3333333333334","476","自己","无能","Negative","ability","","","","","","","","","",""
"1436","","f","psychophysics","23","160734","0.0-7.0-3.0-0.9","2","3","2","1","1","3","3","4","5","5","4","1","0","-1","0","-3","0","1","0","4","3","5","3","3","4","2","4","2","3","3","5","4","4","2","3","2","2","4","2","4","3","2","3","3","4","5","4","2","1","1","4","2","1","5","3","3","2","3","1","1","1","1","2","3","6","6","7","3","3","1","3","1","1","3","1","7","2","3","735606541780258817","谢","Female","[""好她"",""坏她"",""好我"",""坏我""]","[""强她"",""弱她"",""强我"",""弱我""]","","","","","","","","yes","","","","","","","","","SRET","EW_formal","","key","f","16.66444137931043","853.3333333333334","476","朋友","廉正","Positive","morality","","","","","","","","","",""
"809","","j","psychophysics","24","162547","0.0-7.0-3.0-0.10","2","3","2","1","1","3","3","4","5","5","4","1","0","-1","0","-3","0","1","0","4","3","5","3","3","4","2","4","2","3","3","5","4","4","2","3","2","2","4","2","4","3","2","3","3","4","5","4","2","1","1","4","2","1","5","3","3","2","3","1","1","1","1","2","3","6","6","7","3","3","1","3","1","1","3","1","7","2","3","735606541780258817","谢","Female","[""好她"",""坏她"",""好我"",""坏我""]","[""强她"",""弱她"",""强我"",""弱我""]","","","","","","","","no","","","","","","","","","SRET","EW_formal","","key","j","17.6454901960784","853.3333333333334","476","朋友","奸诈","Negative","morality","","","","","","","","","",""
"1752","","j","psychophysics","25","165301","0.0-7.0-3.0-0.11","2","3","2","1","1","3","3","4","5","5","4","1","0","-1","0","-3","0","1","0","4","3","5","3","3","4","2","4","2","3","3","5","4","4","2","3","2","2","4","2","4","3","2","3","3","4","5","4","2","1","1","4","2","1","5","3","3","2","3","1","1","1","1","2","3","6","6","7","3","3","1","3","1","1","3","1","7","2","3","735606541780258817","谢","Female","[""好她"",""坏她"",""好我"",""坏我""]","[""强她"",""弱她"",""强我"",""弱我""]","","","","","","","","no","","","","","","","","","SRET","EW_formal","","key","j","16.664676829268192","853.3333333333334","476","朋友","迂拙","Negative","ability","","","","","","","","","",""
"3791","","j","psychophysics","26","170120","0.0-7.0-3.0-0.12","2","3","2","1","1","3","3","4","5","5","4","1","0","-1","0","-3","0","1","0","4","3","5","3","3","4","2","4","2","3","3","5","4","4","2","3","2","2","4","2","4","3","2","3","3","4","5","4","2","1","1","4","2","1","5","3","3","2","3","1","1","1","1","2","3","6","6","7","3","3","1","3","1","1","3","1","7","2","3","735606541780258817","谢","Female","[""好她"",""坏她"",""好我"",""坏我""]","[""强她"",""弱她"",""强我"",""弱我""]","","","","","","","","no","","","","","","","","","SRET","EW_formal","","key","j","16.694874564459944","853.3333333333334","476","朋友","浅薄","Negative","ability","","","","","","","","","",""
"1062","","f","psychophysics","27","172185","0.0-7.0-3.0-0.13","2","3","2","1","1","3","3","4","5","5","4","1","0","-1","0","-3","0","1","0","4","3","5","3","3","4","2","4","2","3","3","5","4","4","2","3","2","2","4","2","4","3","2","3","3","4","5","4","2","1","1","4","2","1","5","3","3","2","3","1","1","1","1","2","3","6","6","7","3","3","1","3","1","1","3","1","7","2","3","735606541780258817","谢","Female","[""好她"",""坏她"",""好我"",""坏我""]","[""强她"",""弱她"",""强我"",""弱我""]","","","","","","","","yes","","","","","","","","","SRET","EW_formal","","key","f","16.665252032520332","853.3333333333334","476","朋友","守法","Positive","morality","","","","","","","","","",""
"859","","j","psychophysics","28","174046","0.0-7.0-3.0-0.14","2","3","2","1","1","3","3","4","5","5","4","1","0","-1","0","-3","0","1","0","4","3","5","3","3","4","2","4","2","3","3","5","4","4","2","3","2","2","4","2","4","3","2","3","3","4","5","4","2","1","1","4","2","1","5","3","3","2","3","1","1","1","1","2","3","6","6","7","3","3","1","3","1","1","3","1","7","2","3","735606541780258817","谢","Female","[""好她"",""坏她"",""好我"",""坏我""]","[""强她"",""弱她"",""强我"",""弱我""]","","","","","","","","no","","","","","","","","","SRET","EW_formal","","key","j","16.664396396396327","853.3333333333334","476","朋友","蛇蝎","Negative","morality","","","","","","","","","",""
"2294","","f","psychophysics","29","177342","0.0-7.0-3.0-0.15","2","3","2","1","1","3","3","4","5","5","4","1","0","-1","0","-3","0","1","0","4","3","5","3","3","4","2","4","2","3","3","5","4","4","2","3","2","2","4","2","4","3","2","3","3","4","5","4","2","1","1","4","2","1","5","3","3","2","3","1","1","1","1","2","3","6","6","7","3","3","1","3","1","1","3","1","7","2","3","735606541780258817","谢","Female","[""好她"",""坏她"",""好我"",""坏我""]","[""强她"",""弱她"",""强我"",""弱我""]","","","","","","","","yes","","","","","","","","","SRET","EW_formal","","key","f","16.75013775510205","853.3333333333334","476","自己","正气","Positive","morality","","","","","","","","","",""
"916","","j","psychophysics","30","179260","0.0-7.0-3.0-0.16","2","3","2","1","1","3","3","4","5","5","4","1","0","-1","0","-3","0","1","0","4","3","5","3","3","4","2","4","2","3","3","5","4","4","2","3","2","2","4","2","4","3","2","3","3","4","5","4","2","1","1","4","2","1","5","3","3","2","3","1","1","1","1","2","3","6","6","7","3","3","1","3","1","1","3","1","7","2","3","735606541780258817","谢","Female","[""好她"",""坏她"",""好我"",""坏我""]","[""强她"",""弱她"",""强我"",""弱我""]","","","","","","","","no","","","","","","","","","SRET","EW_formal","","key","j","16.664552631578868","853.3333333333334","476","自己","无知","Negative","ability","","","","","","","","","",""
"7036","","f","psychophysics","31","187299","0.0-7.0-3.0-0.17","2","3","2","1","1","3","3","4","5","5","4","1","0","-1","0","-3","0","1","0","4","3","5","3","3","4","2","4","2","3","3","5","4","4","2","3","2","2","4","2","4","3","2","3","3","4","5","4","2","1","1","4","2","1","5","3","3","2","3","1","1","1","1","2","3","6","6","7","3","3","1","3","1","1","3","1","7","2","3","735606541780258817","谢","Female","[""好她"",""坏她"",""好我"",""坏我""]","[""强她"",""弱她"",""强我"",""弱我""]","","","","","","","","yes","","","","","","","","","SRET","EW_formal","","key","f","16.699410416666677","853.3333333333334","476","朋友","敏捷","Positive","ability","","","","","","","","","",""
"806","","j","psychophysics","32","189107","0.0-7.0-3.0-0.18","2","3","2","1","1","3","3","4","5","5","4","1","0","-1","0","-3","0","1","0","4","3","5","3","3","4","2","4","2","3","3","5","4","4","2","3","2","2","4","2","4","3","2","3","3","4","5","4","2","1","1","4","2","1","5","3","3","2","3","1","1","1","1","2","3","6","6","7","3","3","1","3","1","1","3","1","7","2","3","735606541780258817","谢","Female","[""好她"",""坏她"",""好我"",""坏我""]","[""强她"",""弱她"",""强我"",""弱我""]","","","","","","","","no","","","","","","","","","SRET","EW_formal","","key","j","16.66452777777778","853.3333333333334","476","朋友","失信","Negative","morality","","","","","","","","","",""
"750","","f","psychophysics","33","190859","0.0-7.0-3.0-0.19","2","3","2","1","1","3","3","4","5","5","4","1","0","-1","0","-3","0","1","0","4","3","5","3","3","4","2","4","2","3","3","5","4","4","2","3","2","2","4","2","4","3","2","3","3","4","5","4","2","1","1","4","2","1","5","3","3","2","3","1","1","1","1","2","3","6","6","7","3","3","1","3","1","1","3","1","7","2","3","735606541780258817","谢","Female","[""好她"",""坏她"",""好我"",""坏我""]","[""强她"",""弱她"",""强我"",""弱我""]","","","","","","","","yes","","","","","","","","","SRET","EW_formal","","key","f","16.664836538461643","853.3333333333334","476","朋友","扎实","Positive","ability","","","","","","","","","",""
"861","","j","psychophysics","34","192722","0.0-7.0-3.0-0.20","2","3","2","1","1","3","3","4","5","5","4","1","0","-1","0","-3","0","1","0","4","3","5","3","3","4","2","4","2","3","3","5","4","4","2","3","2","2","4","2","4","3","2","3","3","4","5","4","2","1","1","4","2","1","5","3","3","2","3","1","1","1","1","2","3","6","6","7","3","3","1","3","1","1","3","1","7","2","3","735606541780258817","谢","Female","[""好她"",""坏她"",""好我"",""坏我""]","[""强她"",""弱她"",""强我"",""弱我""]","","","","","","","","no","","","","","","","","","SRET","EW_formal","","key","j","16.633657657657487","853.3333333333334","476","朋友","差生","Negative","ability","","","","","","","","","",""
"5188","","f","psychophysics","35","198913","0.0-7.0-3.0-0.21","2","3","2","1","1","3","3","4","5","5","4","1","0","-1","0","-3","0","1","0","4","3","5","3","3","4","2","4","2","3","3","5","4","4","2","3","2","2","4","2","4","3","2","3","3","4","5","4","2","1","1","4","2","1","5","3","3","2","3","1","1","1","1","2","3","6","6","7","3","3","1","3","1","1","3","1","7","2","3","735606541780258817","谢","Female","[""好她"",""坏她"",""好我"",""坏我""]","[""强她"",""弱她"",""强我"",""弱我""]","","","","","","","","yes","","","","","","","","","SRET","EW_formal","","key","f","16.664667567567555","853.3333333333334","476","自己","坦荡","Positive","morality","","","","","","","","","",""
"891","","f","psychophysics","36","200806","0.0-7.0-3.0-0.22","2","3","2","1","1","3","3","4","5","5","4","1","0","-1","0","-3","0","1","0","4","3","5","3","3","4","2","4","2","3","3","5","4","4","2","3","2","2","4","2","4","3","2","3","3","4","5","4","2","1","1","4","2","1","5","3","3","2","3","1","1","1","1","2","3","6","6","7","3","3","1","3","1","1","3","1","7","2","3","735606541780258817","谢","Female","[""好她"",""坏她"",""好我"",""坏我""]","[""强她"",""弱她"",""强我"",""弱我""]","","","","","","","","yes","","","","","","","","","SRET","EW_formal","","key","f","16.664823008849556","853.3333333333334","476","朋友","忠良","Positive","morality","","","","","","","","","",""
"799","","j","psychophysics","37","202608","0.0-7.0-3.0-0.23","2","3","2","1","1","3","3","4","5","5","4","1","0","-1","0","-3","0","1","0","4","3","5","3","3","4","2","4","2","3","3","5","4","4","2","3","2","2","4","2","4","3","2","3","3","4","5","4","2","1","1","4","2","1","5","3","3","2","3","1","1","1","1","2","3","6","6","7","3","3","1","3","1","1","3","1","7","2","3","735606541780258817","谢","Female","[""好她"",""坏她"",""好我"",""坏我""]","[""强她"",""弱她"",""强我"",""弱我""]","","","","","","","","no","","","","","","","","","SRET","EW_formal","","key","j","16.665990654205594","853.3333333333334","476","朋友","混账","Negative","morality","","","","","","","","","",""
"1226","","f","psychophysics","38","204836","0.0-7.0-3.0-0.24","2","3","2","1","1","3","3","4","5","5","4","1","0","-1","0","-3","0","1","0","4","3","5","3","3","4","2","4","2","3","3","5","4","4","2","3","2","2","4","2","4","3","2","3","3","4","5","4","2","1","1","4","2","1","5","3","3","2","3","1","1","1","1","2","3","6","6","7","3","3","1","3","1","1","3","1","7","2","3","735606541780258817","谢","Female","[""好她"",""坏她"",""好我"",""坏我""]","[""强她"",""弱她"",""强我"",""弱我""]","","","","","","","","yes","","","","","","","","","SRET","EW_formal","","key","f","16.631451127819606","853.3333333333334","476","朋友","君子","Positive","morality","","","","","","","","","",""
"2208","","j","psychophysics","39","208047","0.0-7.0-3.0-0.25","2","3","2","1","1","3","3","4","5","5","4","1","0","-1","0","-3","0","1","0","4","3","5","3","3","4","2","4","2","3","3","5","4","4","2","3","2","2","4","2","4","3","2","3","3","4","5","4","2","1","1","4","2","1","5","3","3","2","3","1","1","1","1","2","3","6","6","7","3","3","1","3","1","1","3","1","7","2","3","735606541780258817","谢","Female","[""好她"",""坏她"",""好我"",""坏我""]","[""强她"",""弱她"",""强我"",""弱我""]","","","","","","","","no","","","","","","","","","SRET","EW_formal","","key","j","16.664764397905767","853.3333333333334","476","自己","仁厚","Positive","morality","","","","","","","","","",""
"1112","","f","psychophysics","40","210161","0.0-7.0-3.0-0.26","2","3","2","1","1","3","3","4","5","5","4","1","0","-1","0","-3","0","1","0","4","3","5","3","3","4","2","4","2","3","3","5","4","4","2","3","2","2","4","2","4","3","2","3","3","4","5","4","2","1","1","4","2","1","5","3","3","2","3","1","1","1","1","2","3","6","6","7","3","3","1","3","1","1","3","1","7","2","3","735606541780258817","谢","Female","[""好她"",""坏她"",""好我"",""坏我""]","[""强她"",""弱她"",""强我"",""弱我""]","","","","","","","","yes","","","","","","","","","SRET","EW_formal","","key","f","16.933338709677393","853.3333333333334","476","朋友","坚持","Positive","ability","","","","","","","","","",""
"952","","j","psychophysics","41","212114","0.0-7.0-3.0-0.27","2","3","2","1","1","3","3","4","5","5","4","1","0","-1","0","-3","0","1","0","4","3","5","3","3","4","2","4","2","3","3","5","4","4","2","3","2","2","4","2","4","3","2","3","3","4","5","4","2","1","1","4","2","1","5","3","3","2","3","1","1","1","1","2","3","6","6","7","3","3","1","3","1","1","3","1","7","2","3","735606541780258817","谢","Female","[""好她"",""坏她"",""好我"",""坏我""]","[""强她"",""弱她"",""强我"",""弱我""]","","","","","","","","no","","","","","","","","","SRET","EW_formal","","key","j","16.665387931034463","853.3333333333334","476","朋友","弱智","Negative","ability","","","","","","","","","",""
"774","","f","psychophysics","42","213890","0.0-7.0-3.0-0.28","2","3","2","1","1","3","3","4","5","5","4","1","0","-1","0","-3","0","1","0","4","3","5","3","3","4","2","4","2","3","3","5","4","4","2","3","2","2","4","2","4","3","2","3","3","4","5","4","2","1","1","4","2","1","5","3","3","2","3","1","1","1","1","2","3","6","6","7","3","3","1","3","1","1","3","1","7","2","3","735606541780258817","谢","Female","[""好她"",""坏她"",""好我"",""坏我""]","[""强她"",""弱她"",""强我"",""弱我""]","","","","","","","","yes","","","","","","","","","SRET","EW_formal","","key","f","16.823457142857315","853.3333333333334","476","朋友","善良","Positive","morality","","","","","","","","","",""
"1860","","j","psychophysics","43","216751","0.0-7.0-3.0-0.29","2","3","2","1","1","3","3","4","5","5","4","1","0","-1","0","-3","0","1","0","4","3","5","3","3","4","2","4","2","3","3","5","4","4","2","3","2","2","4","2","4","3","2","3","3","4","5","4","2","1","1","4","2","1","5","3","3","2","3","1","1","1","1","2","3","6","6","7","3","3","1","3","1","1","3","1","7","2","3","735606541780258817","谢","Female","[""好她"",""坏她"",""好我"",""坏我""]","[""强她"",""弱她"",""强我"",""弱我""]","","","","","","","","no","","","","","","","","","SRET","EW_formal","","key","j","16.637064327485348","853.3333333333334","476","自己","愚钝","Negative","ability","","","","","","","","","",""
"933","","f","psychophysics","44","218686","0.0-7.0-3.0-0.30","2","3","2","1","1","3","3","4","5","5","4","1","0","-1","0","-3","0","1","0","4","3","5","3","3","4","2","4","2","3","3","5","4","4","2","3","2","2","4","2","4","3","2","3","3","4","5","4","2","1","1","4","2","1","5","3","3","2","3","1","1","1","1","2","3","6","6","7","3","3","1","3","1","1","3","1","7","2","3","735606541780258817","谢","Female","[""好她"",""坏她"",""好我"",""坏我""]","[""强她"",""弱她"",""强我"",""弱我""]","","","","","","","","yes","","","","","","","","","SRET","EW_formal","","key","f","16.668173913043447","853.3333333333334","476","自己","拖拉","Negative","ability","","","","","","","","","",""
"1088","","j","psychophysics","45","220777","0.0-7.0-3.0-0.31","2","3","2","1","1","3","3","4","5","5","4","1","0","-1","0","-3","0","1","0","4","3","5","3","3","4","2","4","2","3","3","5","4","4","2","3","2","2","4","2","4","3","2","3","3","4","5","4","2","1","1","4","2","1","5","3","3","2","3","1","1","1","1","2","3","6","6","7","3","3","1","3","1","1","3","1","7","2","3","735606541780258817","谢","Female","[""好她"",""坏她"",""好我"",""坏我""]","[""强她"",""弱她"",""强我"",""弱我""]","","","","","","","","no","","","","","","","","","SRET","EW_formal","","key","j","16.66564516129039","853.3333333333334","476","自己","独断","Negative","ability","","","","","","","","","",""
"963","","j","psychophysics","46","222763","0.0-7.0-3.0-0.32","2","3","2","1","1","3","3","4","5","5","4","1","0","-1","0","-3","0","1","0","4","3","5","3","3","4","2","4","2","3","3","5","4","4","2","3","2","2","4","2","4","3","2","3","3","4","5","4","2","1","1","4","2","1","5","3","3","2","3","1","1","1","1","2","3","6","6","7","3","3","1","3","1","1","3","1","7","2","3","735606541780258817","谢","Female","[""好她"",""坏她"",""好我"",""坏我""]","[""强她"",""弱她"",""强我"",""弱我""]","","","","","","","","no","","","","","","","","","SRET","EW_formal","","key","j","16.666398305084826","853.3333333333334","476","自己","小人","Negative","morality","","","","","","","","","",""
"1275","","j","psychophysics","47","225040","0.0-7.0-3.0-0.33","2","3","2","1","1","3","3","4","5","5","4","1","0","-1","0","-3","0","1","0","4","3","5","3","3","4","2","4","2","3","3","5","4","4","2","3","2","2","4","2","4","3","2","3","3","4","5","4","2","1","1","4","2","1","5","3","3","2","3","1","1","1","1","2","3","6","6","7","3","3","1","3","1","1","3","1","7","2","3","735606541780258817","谢","Female","[""好她"",""坏她"",""好我"",""坏我""]","[""强她"",""弱她"",""强我"",""弱我""]","","","","","","","","no","","","","","","","","","SRET","EW_formal","","key","j","16.665544117647027","853.3333333333334","476","朋友","拜金","Negative","morality","","","","","","","","","",""
"777","","j","psychophysics","48","226820","0.0-7.0-3.0-0.34","2","3","2","1","1","3","3","4","5","5","4","1","0","-1","0","-3","0","1","0","4","3","5","3","3","4","2","4","2","3","3","5","4","4","2","3","2","2","4","2","4","3","2","3","3","4","5","4","2","1","1","4","2","1","5","3","3","2","3","1","1","1","1","2","3","6","6","7","3","3","1","3","1","1","3","1","7","2","3","735606541780258817","谢","Female","[""好她"",""坏她"",""好我"",""坏我""]","[""强她"",""弱她"",""强我"",""弱我""]","","","","","","","","no","","","","","","","","","SRET","EW_formal","","key","j","16.665745283019035","853.3333333333334","476","自己","无敌","Positive","ability","","","","","","","","","",""
"1475","","f","psychophysics","49","229305","0.0-7.0-3.0-0.35","2","3","2","1","1","3","3","4","5","5","4","1","0","-1","0","-3","0","1","0","4","3","5","3","3","4","2","4","2","3","3","5","4","4","2","3","2","2","4","2","4","3","2","3","3","4","5","4","2","1","1","4","2","1","5","3","3","2","3","1","1","1","1","2","3","6","6","7","3","3","1","3","1","1","3","1","7","2","3","735606541780258817","谢","Female","[""好她"",""坏她"",""好我"",""坏我""]","[""强她"",""弱她"",""强我"",""弱我""]","","","","","","","","yes","","","","","","","","","SRET","EW_formal","","key","f","16.665054054054153","853.3333333333334","476","自己","无助","Negative","ability","","","","","","","","","",""
"2028","","j","psychophysics","50","232334","0.0-7.0-3.0-0.36","2","3","2","1","1","3","3","4","5","5","4","1","0","-1","0","-3","0","1","0","4","3","5","3","3","4","2","4","2","3","3","5","4","4","2","3","2","2","4","2","4","3","2","3","3","4","5","4","2","1","1","4","2","1","5","3","3","2","3","1","1","1","1","2","3","6","6","7","3","3","1","3","1","1","3","1","7","2","3","735606541780258817","谢","Female","[""好她"",""坏她"",""好我"",""坏我""]","[""强她"",""弱她"",""强我"",""弱我""]","","","","","","","","no","","","","","","","","","SRET","EW_formal","","key","j","16.666093922651903","853.3333333333334","476","朋友","果断","Positive","ability","","","","","","","","","",""
"1800","","j","psychophysics","51","235136","0.0-7.0-3.0-0.37","2","3","2","1","1","3","3","4","5","5","4","1","0","-1","0","-3","0","1","0","4","3","5","3","3","4","2","4","2","3","3","5","4","4","2","3","2","2","4","2","4","3","2","3","3","4","5","4","2","1","1","4","2","1","5","3","3","2","3","1","1","1","1","2","3","6","6","7","3","3","1","3","1","1","3","1","7","2","3","735606541780258817","谢","Female","[""好她"",""坏她"",""好我"",""坏我""]","[""强她"",""弱她"",""强我"",""弱我""]","","","","","","","","no","","","","","","","","","SRET","EW_formal","","key","j","16.664844311377127","853.3333333333334","476","自己","热心","Positive","morality","","","","","","","","","",""
"812","","f","psychophysics","52","236951","0.0-7.0-3.0-0.38","2","3","2","1","1","3","3","4","5","5","4","1","0","-1","0","-3","0","1","0","4","3","5","3","3","4","2","4","2","3","3","5","4","4","2","3","2","2","4","2","4","3","2","3","3","4","5","4","2","1","1","4","2","1","5","3","3","2","3","1","1","1","1","2","3","6","6","7","3","3","1","3","1","1","3","1","7","2","3","735606541780258817","谢","Female","[""好她"",""坏她"",""好我"",""坏我""]","[""强她"",""弱她"",""强我"",""弱我""]","","","","","","","","yes","","","","","","","","","SRET","EW_formal","","key","f","16.66376851851857","853.3333333333334","476","自己","文明","Positive","morality","","","","","","","","","",""
"1264","","f","psychophysics","53","239216","0.0-7.0-3.0-0.39","2","3","2","1","1","3","3","4","5","5","4","1","0","-1","0","-3","0","1","0","4","3","5","3","3","4","2","4","2","3","3","5","4","4","2","3","2","2","4","2","4","3","2","3","3","4","5","4","2","1","1","4","2","1","5","3","3","2","3","1","1","1","1","2","3","6","6","7","3","3","1","3","1","1","3","1","7","2","3","735606541780258817","谢","Female","[""好她"",""坏她"",""好我"",""坏我""]","[""强她"",""弱她"",""强我"",""弱我""]","","","","","","","","yes","","","","","","","","","SRET","EW_formal","","key","f","16.66455555555553","853.3333333333334","476","朋友","上进","Positive","ability","","","","","","","","","",""
"988","","j","psychophysics","54","241207","0.0-7.0-3.0-0.40","2","3","2","1","1","3","3","4","5","5","4","1","0","-1","0","-3","0","1","0","4","3","5","3","3","4","2","4","2","3","3","5","4","4","2","3","2","2","4","2","4","3","2","3","3","4","5","4","2","1","1","4","2","1","5","3","3","2","3","1","1","1","1","2","3","6","6","7","3","3","1","3","1","1","3","1","7","2","3","735606541780258817","谢","Female","[""好她"",""坏她"",""好我"",""坏我""]","[""强她"",""弱她"",""强我"",""弱我""]","","","","","","","","no","","","","","","","","","SRET","EW_formal","","key","j","16.670983050847514","853.3333333333334","476","自己","中用","Positive","ability","","","","","","","","","",""
"758","","f","psychophysics","55","242968","0.0-7.0-3.0-0.41","2","3","2","1","1","3","3","4","5","5","4","1","0","-1","0","-3","0","1","0","4","3","5","3","3","4","2","4","2","3","3","5","4","4","2","3","2","2","4","2","4","3","2","3","3","4","5","4","2","1","1","4","2","1","5","3","3","2","3","1","1","1","1","2","3","6","6","7","3","3","1","3","1","1","3","1","7","2","3","735606541780258817","谢","Female","[""好她"",""坏她"",""好我"",""坏我""]","[""强她"",""弱她"",""强我"",""弱我""]","","","","","","","","yes","","","","","","","","","SRET","EW_formal","","key","f","16.66467619047644","853.3333333333334","476","自己","犹豫","Negative","ability","","","","","","","","","",""
"1015","","j","psychophysics","56","244985","0.0-7.0-3.0-0.42","2","3","2","1","1","3","3","4","5","5","4","1","0","-1","0","-3","0","1","0","4","3","5","3","3","4","2","4","2","3","3","5","4","4","2","3","2","2","4","2","4","3","2","3","3","4","5","4","2","1","1","4","2","1","5","3","3","2","3","1","1","1","1","2","3","6","6","7","3","3","1","3","1","1","3","1","7","2","3","735606541780258817","谢","Female","[""好她"",""坏她"",""好我"",""坏我""]","[""强她"",""弱她"",""强我"",""弱我""]","","","","","","","","no","","","","","","","","","SRET","EW_formal","","key","j","16.66524166666689","853.3333333333334","476","自己","高明","Positive","ability","","","","","","","","","",""
"779","","j","psychophysics","57","246766","0.0-7.0-3.0-0.43","2","3","2","1","1","3","3","4","5","5","4","1","0","-1","0","-3","0","1","0","4","3","5","3","3","4","2","4","2","3","3","5","4","4","2","3","2","2","4","2","4","3","2","3","3","4","5","4","2","1","1","4","2","1","5","3","3","2","3","1","1","1","1","2","3","6","6","7","3","3","1","3","1","1","3","1","7","2","3","735606541780258817","谢","Female","[""好她"",""坏她"",""好我"",""坏我""]","[""强她"",""弱她"",""强我"",""弱我""]","","","","","","","","no","","","","","","","","","SRET","EW_formal","","key","j","16.665811320754727","853.3333333333334","476","自己","狡狯","Negative","morality","","","","","","","","","",""
"655","","j","psychophysics","58","248425","0.0-7.0-3.0-0.44","2","3","2","1","1","3","3","4","5","5","4","1","0","-1","0","-3","0","1","0","4","3","5","3","3","4","2","4","2","3","3","5","4","4","2","3","2","2","4","2","4","3","2","3","3","4","5","4","2","1","1","4","2","1","5","3","3","2","3","1","1","1","1","2","3","6","6","7","3","3","1","3","1","1","3","1","7","2","3","735606541780258817","谢","Female","[""好她"",""坏她"",""好我"",""坏我""]","[""强她"",""弱她"",""强我"",""弱我""]","","","","","","","","no","","","","","","","","","SRET","EW_formal","","key","j","16.661775510204002","853.3333333333334","476","自己","骁勇","Positive","ability","","","","","","","","","",""
"873","","f","psychophysics","59","250299","0.0-7.0-3.0-0.45","2","3","2","1","1","3","3","4","5","5","4","1","0","-1","0","-3","0","1","0","4","3","5","3","3","4","2","4","2","3","3","5","4","4","2","3","2","2","4","2","4","3","2","3","3","4","5","4","2","1","1","4","2","1","5","3","3","2","3","1","1","1","1","2","3","6","6","7","3","3","1","3","1","1","3","1","7","2","3","735606541780258817","谢","Female","[""好她"",""坏她"",""好我"",""坏我""]","[""强她"",""弱她"",""强我"",""弱我""]","","","","","","","","yes","","","","","","","","","SRET","EW_formal","","key","f","16.620910714285596","853.3333333333334","476","自己","马虎","Negative","ability","","","","","","","","","",""
"697","","j","psychophysics","60","251999","0.0-7.0-3.0-0.46","2","3","2","1","1","3","3","4","5","5","4","1","0","-1","0","-3","0","1","0","4","3","5","3","3","4","2","4","2","3","3","5","4","4","2","3","2","2","4","2","4","3","2","3","3","4","5","4","2","1","1","4","2","1","5","3","3","2","3","1","1","1","1","2","3","6","6","7","3","3","1","3","1","1","3","1","7","2","3","735606541780258817","谢","Female","[""好她"",""坏她"",""好我"",""坏我""]","[""强她"",""弱她"",""强我"",""弱我""]","","","","","","","","no","","","","","","","","","SRET","EW_formal","","key","j","16.664188118811726","853.3333333333334","476","自己","背叛","Negative","morality","","","","","","","","","",""
"901","","j","psychophysics","61","253903","0.0-7.0-3.0-0.47","2","3","2","1","1","3","3","4","5","5","4","1","0","-1","0","-3","0","1","0","4","3","5","3","3","4","2","4","2","3","3","5","4","4","2","3","2","2","4","2","4","3","2","3","3","4","5","4","2","1","1","4","2","1","5","3","3","2","3","1","1","1","1","2","3","6","6","7","3","3","1","3","1","1","3","1","7","2","3","735606541780258817","谢","Female","[""好她"",""坏她"",""好我"",""坏我""]","[""强她"",""弱她"",""强我"",""弱我""]","","","","","","","","no","","","","","","","","","SRET","EW_formal","","key","j","16.666973451327323","853.3333333333334","476","朋友","愚蠢","Negative","ability","","","","","","","","","",""
"1872","","f","psychophysics","62","256776","0.0-7.0-3.0-0.48","2","3","2","1","1","3","3","4","5","5","4","1","0","-1","0","-3","0","1","0","4","3","5","3","3","4","2","4","2","3","3","5","4","4","2","3","2","2","4","2","4","3","2","3","3","4","5","4","2","1","1","4","2","1","5","3","3","2","3","1","1","1","1","2","3","6","6","7","3","3","1","3","1","1","3","1","7","2","3","735606541780258817","谢","Female","[""好她"",""坏她"",""好我"",""坏我""]","[""强她"",""弱她"",""强我"",""弱我""]","","","","","","","","yes","","","","","","","","","SRET","EW_formal","","key","f","17.482920245398685","853.3333333333334","476","自己","守信","Positive","morality","","","","","","","","","",""
"1701","","j","psychophysics","63","259502","0.0-7.0-3.0-0.49","2","3","2","1","1","3","3","4","5","5","4","1","0","-1","0","-3","0","1","0","4","3","5","3","3","4","2","4","2","3","3","5","4","4","2","3","2","2","4","2","4","3","2","3","3","4","5","4","2","1","1","4","2","1","5","3","3","2","3","1","1","1","1","2","3","6","6","7","3","3","1","3","1","1","3","1","7","2","3","735606541780258817","谢","Female","[""好她"",""坏她"",""好我"",""坏我""]","[""强她"",""弱她"",""强我"",""弱我""]","","","","","","","","no","","","","","","","","","SRET","EW_formal","","key","j","16.664785276073534","853.3333333333334","476","朋友","拖延","Negative","ability","","","","","","","","","",""
"698","","j","psychophysics","64","261202","0.0-7.0-3.0-0.50","2","3","2","1","1","3","3","4","5","5","4","1","0","-1","0","-3","0","1","0","4","3","5","3","3","4","2","4","2","3","3","5","4","4","2","3","2","2","4","2","4","3","2","3","3","4","5","4","2","1","1","4","2","1","5","3","3","2","3","1","1","1","1","2","3","6","6","7","3","3","1","3","1","1","3","1","7","2","3","735606541780258817","谢","Female","[""好她"",""坏她"",""好我"",""坏我""]","[""强她"",""弱她"",""强我"",""弱我""]","","","","","","","","no","","","","","","","","","SRET","EW_formal","","key","j","16.62496039603945","853.3333333333334","476","朋友","缺德","Negative","morality","","","","","","","","","",""
"799","","j","psychophysics","65","263005","0.0-7.0-3.0-0.51","2","3","2","1","1","3","3","4","5","5","4","1","0","-1","0","-3","0","1","0","4","3","5","3","3","4","2","4","2","3","3","5","4","4","2","3","2","2","4","2","4","3","2","3","3","4","5","4","2","1","1","4","2","1","5","3","3","2","3","1","1","1","1","2","3","6","6","7","3","3","1","3","1","1","3","1","7","2","3","735606541780258817","谢","Female","[""好她"",""坏她"",""好我"",""坏我""]","[""强她"",""弱她"",""强我"",""弱我""]","","","","","","","","no","","","","","","","","","SRET","EW_formal","","key","j","16.664663551401926","853.3333333333334","476","自己","无私","Positive","morality","","","","","","","","","",""
"872","","f","psychophysics","66","264878","0.0-7.0-3.0-0.52","2","3","2","1","1","3","3","4","5","5","4","1","0","-1","0","-3","0","1","0","4","3","5","3","3","4","2","4","2","3","3","5","4","4","2","3","2","2","4","2","4","3","2","3","3","4","5","4","2","1","1","4","2","1","5","3","3","2","3","1","1","1","1","2","3","6","6","7","3","3","1","3","1","1","3","1","7","2","3","735606541780258817","谢","Female","[""好她"",""坏她"",""好我"",""坏我""]","[""强她"",""弱她"",""强我"",""弱我""]","","","","","","","","yes","","","","","","","","","SRET","EW_formal","","key","f","16.663973214286152","853.3333333333334","476","朋友","远见","Positive","ability","","","","","","","","","",""
"857","","f","psychophysics","67","266738","0.0-7.0-3.0-0.53","2","3","2","1","1","3","3","4","5","5","4","1","0","-1","0","-3","0","1","0","4","3","5","3","3","4","2","4","2","3","3","5","4","4","2","3","2","2","4","2","4","3","2","3","3","4","5","4","2","1","1","4","2","1","5","3","3","2","3","1","1","1","1","2","3","6","6","7","3","3","1","3","1","1","3","1","7","2","3","735606541780258817","谢","Female","[""好她"",""坏她"",""好我"",""坏我""]","[""强她"",""弱她"",""强我"",""弱我""]","","","","","","","","yes","","","","","","","","","SRET","EW_formal","","key","f","16.665963636363582","853.3333333333334","476","朋友","精干","Positive","ability","","","","","","","","","",""
"825","","f","psychophysics","68","268566","0.0-7.0-3.0-0.54","2","3","2","1","1","3","3","4","5","5","4","1","0","-1","0","-3","0","1","0","4","3","5","3","3","4","2","4","2","3","3","5","4","4","2","3","2","2","4","2","4","3","2","3","3","4","5","4","2","1","1","4","2","1","5","3","3","2","3","1","1","1","1","2","3","6","6","7","3","3","1","3","1","1","3","1","7","2","3","735606541780258817","谢","Female","[""好她"",""坏她"",""好我"",""坏我""]","[""强她"",""弱她"",""强我"",""弱我""]","","","","","","","","yes","","","","","","","","","SRET","EW_formal","","key","f","16.631669724770767","853.3333333333334","476","朋友","肯干","Positive","ability","","","","","","","","","",""
"645","","f","psychophysics","69","270214","0.0-7.0-3.0-0.55","2","3","2","1","1","3","3","4","5","5","4","1","0","-1","0","-3","0","1","0","4","3","5","3","3","4","2","4","2","3","3","5","4","4","2","3","2","2","4","2","4","3","2","3","3","4","5","4","2","1","1","4","2","1","5","3","3","2","3","1","1","1","1","2","3","6","6","7","3","3","1","3","1","1","3","1","7","2","3","735606541780258817","谢","Female","[""好她"",""坏她"",""好我"",""坏我""]","[""强她"",""弱她"",""强我"",""弱我""]","","","","","","","","yes","","","","","","","","","SRET","EW_formal","","key","f","16.668908163265453","853.3333333333334","476","自己","学霸","Positive","ability","","","","","","","","","",""
"1413","","f","psychophysics","70","272628","0.0-7.0-3.0-0.56","2","3","2","1","1","3","3","4","5","5","4","1","0","-1","0","-3","0","1","0","4","3","5","3","3","4","2","4","2","3","3","5","4","4","2","3","2","2","4","2","4","3","2","3","3","4","5","4","2","1","1","4","2","1","5","3","3","2","3","1","1","1","1","2","3","6","6","7","3","3","1","3","1","1","3","1","7","2","3","735606541780258817","谢","Female","[""好她"",""坏她"",""好我"",""坏我""]","[""强她"",""弱她"",""强我"",""弱我""]","","","","","","","","yes","","","","","","","","","SRET","EW_formal","","key","f","16.661993055555488","853.3333333333334","476","朋友","高效","Positive","ability","","","","","","","","","",""
"1137","","j","psychophysics","71","274767","0.0-7.0-3.0-0.57","2","3","2","1","1","3","3","4","5","5","4","1","0","-1","0","-3","0","1","0","4","3","5","3","3","4","2","4","2","3","3","5","4","4","2","3","2","2","4","2","4","3","2","3","3","4","5","4","2","1","1","4","2","1","5","3","3","2","3","1","1","1","1","2","3","6","6","7","3","3","1","3","1","1","3","1","7","2","3","735606541780258817","谢","Female","[""好她"",""坏她"",""好我"",""坏我""]","[""强她"",""弱她"",""强我"",""弱我""]","","","","","","","","no","","","","","","","","","SRET","EW_formal","","key","j","16.655787401574603","853.3333333333334","476","自己","贪腐","Negative","morality","","","","","","","","","",""
"797","","j","psychophysics","72","276566","0.0-7.0-3.0-0.58","2","3","2","1","1","3","3","4","5","5","4","1","0","-1","0","-3","0","1","0","4","3","5","3","3","4","2","4","2","3","3","5","4","4","2","3","2","2","4","2","4","3","2","3","3","4","5","4","2","1","1","4","2","1","5","3","3","2","3","1","1","1","1","2","3","6","6","7","3","3","1","3","1","1","3","1","7","2","3","735606541780258817","谢","Female","[""好她"",""坏她"",""好我"",""坏我""]","[""强她"",""弱她"",""强我"",""弱我""]","","","","","","","","no","","","","","","","","","SRET","EW_formal","","key","j","16.66467289719622","853.3333333333334","476","自己","不良","Negative","morality","","","","","","","","","",""
"891","","j","psychophysics","73","278459","0.0-7.0-3.0-0.59","2","3","2","1","1","3","3","4","5","5","4","1","0","-1","0","-3","0","1","0","4","3","5","3","3","4","2","4","2","3","3","5","4","4","2","3","2","2","4","2","4","3","2","3","3","4","5","4","2","1","1","4","2","1","5","3","3","2","3","1","1","1","1","2","3","6","6","7","3","3","1","3","1","1","3","1","7","2","3","735606541780258817","谢","Female","[""好她"",""坏她"",""好我"",""坏我""]","[""强她"",""弱她"",""强我"",""弱我""]","","","","","","","","no","","","","","","","","","SRET","EW_formal","","key","j","16.664767857143097","853.3333333333334","476","自己","智慧","Positive","ability","","","","","","","","","",""
"993","","f","psychophysics","74","280453","0.0-7.0-3.0-0.60","2","3","2","1","1","3","3","4","5","5","4","1","0","-1","0","-3","0","1","0","4","3","5","3","3","4","2","4","2","3","3","5","4","4","2","3","2","2","4","2","4","3","2","3","3","4","5","4","2","1","1","4","2","1","5","3","3","2","3","1","1","1","1","2","3","6","6","7","3","3","1","3","1","1","3","1","7","2","3","735606541780258817","谢","Female","[""好她"",""坏她"",""好我"",""坏我""]","[""强她"",""弱她"",""强我"",""弱我""]","","","","","","","","yes","","","","","","","","","SRET","EW_formal","","key","f","16.808101694915006","853.3333333333334","476","自己","诚信","Positive","morality","","","","","","","","","",""
"6808","","j","psychophysics","75","288264","0.0-7.0-3.0-0.61","2","3","2","1","1","3","3","4","5","5","4","1","0","-1","0","-3","0","1","0","4","3","5","3","3","4","2","4","2","3","3","5","4","4","2","3","2","2","4","2","4","3","2","3","3","4","5","4","2","1","1","4","2","1","5","3","3","2","3","1","1","1","1","2","3","6","6","7","3","3","1","3","1","1","3","1","7","2","3","735606541780258817","谢","Female","[""好她"",""坏她"",""好我"",""坏我""]","[""强她"",""弱她"",""强我"",""弱我""]","","","","","","","","no","","","","","","","","","SRET","EW_formal","","key","j","16.664198717948658","853.3333333333334","476","自己","忠勇","Positive","morality","","","","","","","","","",""
"878","","j","psychophysics","76","290143","0.0-7.0-3.0-0.62","2","3","2","1","1","3","3","4","5","5","4","1","0","-1","0","-3","0","1","0","4","3","5","3","3","4","2","4","2","3","3","5","4","4","2","3","2","2","4","2","4","3","2","3","3","4","5","4","2","1","1","4","2","1","5","3","3","2","3","1","1","1","1","2","3","6","6","7","3","3","1","3","1","1","3","1","7","2","3","735606541780258817","谢","Female","[""好她"",""坏她"",""好我"",""坏我""]","[""强她"",""弱她"",""强我"",""弱我""]","","","","","","","","no","","","","","","","","","SRET","EW_formal","","key","j","16.66211607142811","853.3333333333334","476","自己","狡诈","Negative","morality","","","","","","","","","",""
"1241","","j","psychophysics","77","292387","0.0-7.0-3.0-0.63","2","3","2","1","1","3","3","4","5","5","4","1","0","-1","0","-3","0","1","0","4","3","5","3","3","4","2","4","2","3","3","5","4","4","2","3","2","2","4","2","4","3","2","3","3","4","5","4","2","1","1","4","2","1","5","3","3","2","3","1","1","1","1","2","3","6","6","7","3","3","1","3","1","1","3","1","7","2","3","735606541780258817","谢","Female","[""好她"",""坏她"",""好我"",""坏我""]","[""强她"",""弱她"",""强我"",""弱我""]","","","","","","","","no","","","","","","","","","SRET","EW_formal","","key","j","16.666563909774368","853.3333333333334","476","朋友","昏庸","Negative","ability","","","","","","","","","",""
"1032","","f","psychophysics","78","294444","0.0-7.0-3.0-0.64","2","3","2","1","1","3","3","4","5","5","4","1","0","-1","0","-3","0","1","0","4","3","5","3","3","4","2","4","2","3","3","5","4","4","2","3","2","2","4","2","4","3","2","3","3","4","5","4","2","1","1","4","2","1","5","3","3","2","3","1","1","1","1","2","3","6","6","7","3","3","1","3","1","1","3","1","7","2","3","735606541780258817","谢","Female","[""好她"",""坏她"",""好我"",""坏我""]","[""强她"",""弱她"",""强我"",""弱我""]","","","","","","","","yes","","","","","","","","","SRET","EW_formal","","key","f","16.664861788617813","853.3333333333334","476","朋友","慷慨","Positive","morality","","","","","","","","","",""
"1246","","j","psychophysics","79","296692","0.0-7.0-3.0-0.65","2","3","2","1","1","3","3","4","5","5","4","1","0","-1","0","-3","0","1","0","4","3","5","3","3","4","2","4","2","3","3","5","4","4","2","3","2","2","4","2","4","3","2","3","3","4","5","4","2","1","1","4","2","1","5","3","3","2","3","1","1","1","1","2","3","6","6","7","3","3","1","3","1","1","3","1","7","2","3","735606541780258817","谢","Female","[""好她"",""坏她"",""好我"",""坏我""]","[""强她"",""弱她"",""强我"",""弱我""]","","","","","","","","no","","","","","","","","","SRET","EW_formal","","key","j","16.665097014925532","853.3333333333334","476","自己","恶劣","Negative","morality","","","","","","","","","",""
"2376","","j","psychophysics","80","300070","0.0-7.0-3.0-0.66","2","3","2","1","1","3","3","4","5","5","4","1","0","-1","0","-3","0","1","0","4","3","5","3","3","4","2","4","2","3","3","5","4","4","2","3","2","2","4","2","4","3","2","3","3","4","5","4","2","1","1","4","2","1","5","3","3","2","3","1","1","1","1","2","3","6","6","7","3","3","1","3","1","1","3","1","7","2","3","735606541780258817","谢","Female","[""好她"",""坏她"",""好我"",""坏我""]","[""强她"",""弱她"",""强我"",""弱我""]","","","","","","","","no","","","","","","","","","SRET","EW_formal","","key","j","16.664766169154024","853.3333333333334","476","自己","虚伪","Negative","morality","","","","","","","","","",""
"691","","f","psychophysics","81","301764","0.0-7.0-3.0-0.67","2","3","2","1","1","3","3","4","5","5","4","1","0","-1","0","-3","0","1","0","4","3","5","3","3","4","2","4","2","3","3","5","4","4","2","3","2","2","4","2","4","3","2","3","3","4","5","4","2","1","1","4","2","1","5","3","3","2","3","1","1","1","1","2","3","6","6","7","3","3","1","3","1","1","3","1","7","2","3","735606541780258817","谢","Female","[""好她"",""坏她"",""好我"",""坏我""]","[""强她"",""弱她"",""强我"",""弱我""]","","","","","","","","yes","","","","","","","","","SRET","EW_formal","","key","f","16.66396039603958","853.3333333333334","476","自己","专注","Positive","ability","","","","","","","","","",""
"835","","j","psychophysics","82","303601","0.0-7.0-3.0-0.68","2","3","2","1","1","3","3","4","5","5","4","1","0","-1","0","-3","0","1","0","4","3","5","3","3","4","2","4","2","3","3","5","4","4","2","3","2","2","4","2","4","3","2","3","3","4","5","4","2","1","1","4","2","1","5","3","3","2","3","1","1","1","1","2","3","6","6","7","3","3","1","3","1","1","3","1","7","2","3","735606541780258817","谢","Female","[""好她"",""坏她"",""好我"",""坏我""]","[""强她"",""弱她"",""强我"",""弱我""]","","","","","","","","no","","","","","","","","","SRET","EW_formal","","key","j","16.66473394495418","853.3333333333334","476","朋友","废物","Negative","ability","","","","","","","","","",""
"672","","j","psychophysics","83","305277","0.0-7.0-3.0-0.69","2","3","2","1","1","3","3","4","5","5","4","1","0","-1","0","-3","0","1","0","4","3","5","3","3","4","2","4","2","3","3","5","4","4","2","3","2","2","4","2","4","3","2","3","3","4","5","4","2","1","1","4","2","1","5","3","3","2","3","1","1","1","1","2","3","6","6","7","3","3","1","3","1","1","3","1","7","2","3","735606541780258817","谢","Female","[""好她"",""坏她"",""好我"",""坏我""]","[""强她"",""弱她"",""强我"",""弱我""]","","","","","","","","no","","","","","","","","","SRET","EW_formal","","key","j","16.66027000000002","853.3333333333334","476","朋友","不孝","Negative","morality","","","","","","","","","",""
"664","","j","psychophysics","84","306943","0.0-7.0-3.0-0.70","2","3","2","1","1","3","3","4","5","5","4","1","0","-1","0","-3","0","1","0","4","3","5","3","3","4","2","4","2","3","3","5","4","4","2","3","2","2","4","2","4","3","2","3","3","4","5","4","2","1","1","4","2","1","5","3","3","2","3","1","1","1","1","2","3","6","6","7","3","3","1","3","1","1","3","1","7","2","3","735606541780258817","谢","Female","[""好她"",""坏她"",""好我"",""坏我""]","[""强她"",""弱她"",""强我"",""弱我""]","","","","","","","","no","","","","","","","","","SRET","EW_formal","","key","j","16.832040816326316","853.3333333333334","476","朋友","腐败","Negative","morality","","","","","","","","","",""
"882","","f","psychophysics","85","308826","0.0-7.0-3.0-0.71","2","3","2","1","1","3","3","4","5","5","4","1","0","-1","0","-3","0","1","0","4","3","5","3","3","4","2","4","2","3","3","5","4","4","2","3","2","2","4","2","4","3","2","3","3","4","5","4","2","1","1","4","2","1","5","3","3","2","3","1","1","1","1","2","3","6","6","7","3","3","1","3","1","1","3","1","7","2","3","735606541780258817","谢","Female","[""好她"",""坏她"",""好我"",""坏我""]","[""强她"",""弱她"",""强我"",""弱我""]","","","","","","","","yes","","","","","","","","","SRET","EW_formal","","key","f","16.81426126126154","853.3333333333334","476","朋友","清廉","Positive","morality","","","","","","","","","",""
"653","","j","psychophysics","86","310480","0.0-7.0-3.0-0.72","2","3","2","1","1","3","3","4","5","5","4","1","0","-1","0","-3","0","1","0","4","3","5","3","3","4","2","4","2","3","3","5","4","4","2","3","2","2","4","2","4","3","2","3","3","4","5","4","2","1","1","4","2","1","5","3","3","2","3","1","1","1","1","2","3","6","6","7","3","3","1","3","1","1","3","1","7","2","3","735606541780258817","谢","Female","[""好她"",""坏她"",""好我"",""坏我""]","[""强她"",""弱她"",""强我"",""弱我""]","","","","","","","","no","","","","","","","","","SRET","EW_formal","","key","j","16.665357142856717","853.3333333333334","476","朋友","歹毒","Negative","morality","","","","","","","","","",""
"779","","f","psychophysics","87","312261","0.0-7.0-3.0-0.73","2","3","2","1","1","3","3","4","5","5","4","1","0","-1","0","-3","0","1","0","4","3","5","3","3","4","2","4","2","3","3","5","4","4","2","3","2","2","4","2","4","3","2","3","3","4","5","4","2","1","1","4","2","1","5","3","3","2","3","1","1","1","1","2","3","6","6","7","3","3","1","3","1","1","3","1","7","2","3","735606541780258817","谢","Female","[""好她"",""坏她"",""好我"",""坏我""]","[""强她"",""弱她"",""强我"",""弱我""]","","","","","","","","yes","","","","","","","","","SRET","EW_formal","","key","f","16.665518867924373","853.3333333333334","476","朋友","毅力","Positive","ability","","","","","","","","","",""
"699","","j","psychophysics","88","313963","0.0-7.0-3.0-0.74","2","3","2","1","1","3","3","4","5","5","4","1","0","-1","0","-3","0","1","0","4","3","5","3","3","4","2","4","2","3","3","5","4","4","2","3","2","2","4","2","4","3","2","3","3","4","5","4","2","1","1","4","2","1","5","3","3","2","3","1","1","1","1","2","3","6","6","7","3","3","1","3","1","1","3","1","7","2","3","735606541780258817","谢","Female","[""好她"",""坏她"",""好我"",""坏我""]","[""强她"",""弱她"",""强我"",""弱我""]","","","","","","","","no","","","","","","","","","SRET","EW_formal","","key","j","16.66710891089077","853.3333333333334","476","朋友","无赖","Negative","morality","","","","","","","","","",""
"1201","","j","psychophysics","89","316167","0.0-7.0-3.0-0.75","2","3","2","1","1","3","3","4","5","5","4","1","0","-1","0","-3","0","1","0","4","3","5","3","3","4","2","4","2","3","3","5","4","4","2","3","2","2","4","2","4","3","2","3","3","4","5","4","2","1","1","4","2","1","5","3","3","2","3","1","1","1","1","2","3","6","6","7","3","3","1","3","1","1","3","1","7","2","3","735606541780258817","谢","Female","[""好她"",""坏她"",""好我"",""坏我""]","[""强她"",""弱她"",""强我"",""弱我""]","","","","","","","","no","","","","","","","","","SRET","EW_formal","","key","j","16.616916030534288","853.3333333333334","476","朋友","短浅","Negative","ability","","","","","","","","","",""
"827","","f","psychophysics","90","317997","0.0-7.0-3.0-0.76","2","3","2","1","1","3","3","4","5","5","4","1","0","-1","0","-3","0","1","0","4","3","5","3","3","4","2","4","2","3","3","5","4","4","2","3","2","2","4","2","4","3","2","3","3","4","5","4","2","1","1","4","2","1","5","3","3","2","3","1","1","1","1","2","3","6","6","7","3","3","1","3","1","1","3","1","7","2","3","735606541780258817","谢","Female","[""好她"",""坏她"",""好我"",""坏我""]","[""强她"",""弱她"",""强我"",""弱我""]","","","","","","","","yes","","","","","","","","","SRET","EW_formal","","key","f","16.817574074074166","853.3333333333334","476","自己","勤奋","Positive","ability","","","","","","","","","",""
"2277","","f","psychophysics","91","321276","0.0-7.0-3.0-0.77","2","3","2","1","1","3","3","4","5","5","4","1","0","-1","0","-3","0","1","0","4","3","5","3","3","4","2","4","2","3","3","5","4","4","2","3","2","2","4","2","4","3","2","3","3","4","5","4","2","1","1","4","2","1","5","3","3","2","3","1","1","1","1","2","3","6","6","7","3","3","1","3","1","1","3","1","7","2","3","735606541780258817","谢","Female","[""好她"",""坏她"",""好我"",""坏我""]","[""强她"",""弱她"",""强我"",""弱我""]","","","","","","","","yes","","","","","","","","","SRET","EW_formal","","key","f","16.66494387755116","853.3333333333334","476","朋友","仁爱","Positive","morality","","","","","","","","","",""
"4962","","f","psychophysics","92","327240","0.0-7.0-3.0-0.78","2","3","2","1","1","3","3","4","5","5","4","1","0","-1","0","-3","0","1","0","4","3","5","3","3","4","2","4","2","3","3","5","4","4","2","3","2","2","4","2","4","3","2","3","3","4","5","4","2","1","1","4","2","1","5","3","3","2","3","1","1","1","1","2","3","6","6","7","3","3","1","3","1","1","3","1","7","2","3","735606541780258817","谢","Female","[""好她"",""坏她"",""好我"",""坏我""]","[""强她"",""弱她"",""强我"",""弱我""]","","","","","","","","yes","","","","","","","","","SRET","EW_formal","","key","f","16.664871148459376","853.3333333333334","476","自己","变通","Positive","ability","","","","","","","","","",""
"1083","","f","psychophysics","93","329325","0.0-7.0-3.0-0.79","2","3","2","1","1","3","3","4","5","5","4","1","0","-1","0","-3","0","1","0","4","3","5","3","3","4","2","4","2","3","3","5","4","4","2","3","2","2","4","2","4","3","2","3","3","4","5","4","2","1","1","4","2","1","5","3","3","2","3","1","1","1","1","2","3","6","6","7","3","3","1","3","1","1","3","1","7","2","3","735606541780258817","谢","Female","[""好她"",""坏她"",""好我"",""坏我""]","[""强她"",""弱她"",""强我"",""弱我""]","","","","","","","","yes","","","","","","","","","SRET","EW_formal","","key","f","16.66500806451621","853.3333333333334","476","自己","自私","Negative","morality","","","","","","","","","",""
"1338","","f","psychophysics","94","331666","0.0-7.0-3.0-0.80","2","3","2","1","1","3","3","4","5","5","4","1","0","-1","0","-3","0","1","0","4","3","5","3","3","4","2","4","2","3","3","5","4","4","2","3","2","2","4","2","4","3","2","3","3","4","5","4","2","1","1","4","2","1","5","3","3","2","3","1","1","1","1","2","3","6","6","7","3","3","1","3","1","1","3","1","7","2","3","735606541780258817","谢","Female","[""好她"",""坏她"",""好我"",""坏我""]","[""强她"",""弱她"",""强我"",""弱我""]","","","","","","","","yes","","","","","","","","","SRET","EW_formal","","key","f","16.661381294964244","853.3333333333334","476","自己","爱国","Positive","morality","","","","","","","","","",""
"2023","","j","psychophysics","95","334691","0.0-7.0-3.0-0.81","2","3","2","1","1","3","3","4","5","5","4","1","0","-1","0","-3","0","1","0","4","3","5","3","3","4","2","4","2","3","3","5","4","4","2","3","2","2","4","2","4","3","2","3","3","4","5","4","2","1","1","4","2","1","5","3","3","2","3","1","1","1","1","2","3","6","6","7","3","3","1","3","1","1","3","1","7","2","3","735606541780258817","谢","Female","[""好她"",""坏她"",""好我"",""坏我""]","[""强她"",""弱她"",""强我"",""弱我""]","","","","","","","","no","","","","","","","","","SRET","EW_formal","","key","j","16.665397790055117","853.3333333333334","476","自己","周到","Positive","ability","","","","","","","","","",""
"2060","","f","psychophysics","96","337754","0.0-7.0-3.0-0.82","2","3","2","1","1","3","3","4","5","5","4","1","0","-1","0","-3","0","1","0","4","3","5","3","3","4","2","4","2","3","3","5","4","4","2","3","2","2","4","2","4","3","2","3","3","4","5","4","2","1","1","4","2","1","5","3","3","2","3","1","1","1","1","2","3","6","6","7","3","3","1","3","1","1","3","1","7","2","3","735606541780258817","谢","Female","[""好她"",""坏她"",""好我"",""坏我""]","[""强她"",""弱她"",""强我"",""弱我""]","","","","","","","","yes","","","","","","","","","SRET","EW_formal","","key","f","16.664590163934403","853.3333333333334","476","自己","依靠","Negative","ability","","","","","","","","","",""
"1729","","j","psychophysics","97","340486","0.0-7.0-3.0-0.83","2","3","2","1","1","3","3","4","5","5","4","1","0","-1","0","-3","0","1","0","4","3","5","3","3","4","2","4","2","3","3","5","4","4","2","3","2","2","4","2","4","3","2","3","3","4","5","4","2","1","1","4","2","1","5","3","3","2","3","1","1","1","1","2","3","6","6","7","3","3","1","3","1","1","3","1","7","2","3","735606541780258817","谢","Female","[""好她"",""坏她"",""好我"",""坏我""]","[""强她"",""弱她"",""强我"",""弱我""]","","","","","","","","no","","","","","","","","","SRET","EW_formal","","key","j","16.767290123457013","853.3333333333334","476","自己","势利","Negative","morality","","","","","","","","","",""
"937","","f","psychophysics","98","342425","0.0-7.0-3.0-0.84","2","3","2","1","1","3","3","4","5","5","4","1","0","-1","0","-3","0","1","0","4","3","5","3","3","4","2","4","2","3","3","5","4","4","2","3","2","2","4","2","4","3","2","3","3","4","5","4","2","1","1","4","2","1","5","3","3","2","3","1","1","1","1","2","3","6","6","7","3","3","1","3","1","1","3","1","7","2","3","735606541780258817","谢","Female","[""好她"",""坏她"",""好我"",""坏我""]","[""强她"",""弱她"",""强我"",""弱我""]","","","","","","","","yes","","","","","","","","","SRET","EW_formal","","key","f","16.664947826086806","853.3333333333334","476","朋友","素养","Positive","morality","","","","","","","","","",""
"926","","j","psychophysics","99","344375","0.0-7.0-3.0-0.85","2","3","2","1","1","3","3","4","5","5","4","1","0","-1","0","-3","0","1","0","4","3","5","3","3","4","2","4","2","3","3","5","4","4","2","3","2","2","4","2","4","3","2","3","3","4","5","4","2","1","1","4","2","1","5","3","3","2","3","1","1","1","1","2","3","6","6","7","3","3","1","3","1","1","3","1","7","2","3","735606541780258817","谢","Female","[""好她"",""坏她"",""好我"",""坏我""]","[""强她"",""弱她"",""强我"",""弱我""]","","","","","","","","no","","","","","","","","","SRET","EW_formal","","key","j","16.662646551723874","853.3333333333334","476","自己","缓慢","Negative","ability","","","","","","","","","",""
"751","","j","psychophysics","100","346129","0.0-7.0-3.0-0.86","2","3","2","1","1","3","3","4","5","5","4","1","0","-1","0","-3","0","1","0","4","3","5","3","3","4","2","4","2","3","3","5","4","4","2","3","2","2","4","2","4","3","2","3","3","4","5","4","2","1","1","4","2","1","5","3","3","2","3","1","1","1","1","2","3","6","6","7","3","3","1","3","1","1","3","1","7","2","3","735606541780258817","谢","Female","[""好她"",""坏她"",""好我"",""坏我""]","[""强她"",""弱她"",""强我"",""弱我""]","","","","","","","","no","","","","","","","","","SRET","EW_formal","","key","j","16.664644230769436","853.3333333333334","476","朋友","低俗","Negative","morality","","","","","","","","","",""
"978","","f","psychophysics","101","348110","0.0-7.0-3.0-0.87","2","3","2","1","1","3","3","4","5","5","4","1","0","-1","0","-3","0","1","0","4","3","5","3","3","4","2","4","2","3","3","5","4","4","2","3","2","2","4","2","4","3","2","3","3","4","5","4","2","1","1","4","2","1","5","3","3","2","3","1","1","1","1","2","3","6","6","7","3","3","1","3","1","1","3","1","7","2","3","735606541780258817","谢","Female","[""好她"",""坏她"",""好我"",""坏我""]","[""强她"",""弱她"",""强我"",""弱我""]","","","","","","","","yes","","","","","","","","","SRET","EW_formal","","key","f","17.49219642857185","853.3333333333334","476","自己","主见","Positive","ability","","","","","","","","","",""
"5162","
    <p><div style='color:white;font-size:35px; line-height:20px;'>计算任务</div></p><br>
    <p><div style='color:red;font-size:25px; line-height:20px;'>接下来，您将看到一些四则运算题，<b>请从键盘选择 0-9 进行反应。</b></div></p>
    <p><div class='footer' style='color:white;font-size:25px; line-height:20px;'>如果对本实验还有不清楚之处，请立即向实验员咨询。</p><p style='color:white;font-size:25px; line-height:20px;'>如果您明白了规则：</p><p style='color:white;font-size:22px; line-height:20px;'>请按 继续 进入练习</p>
    </div>
    ","0","html-button-response","102","353274","0.0-7.0-4.0","2","3","2","1","1","3","3","4","5","5","4","1","0","-1","0","-3","0","1","0","4","3","5","3","3","4","2","4","2","3","3","5","4","4","2","3","2","2","4","2","4","3","2","3","3","4","5","4","2","1","1","4","2","1","5","3","3","2","3","1","1","1","1","2","3","6","6","7","3","3","1","3","1","1","3","1","7","2","3","735606541780258817","谢","Female","[""好她"",""坏她"",""好我"",""坏我""]","[""强她"",""弱她"",""强我"",""弱我""]","","","","","","","","","","","","","","","","","SRET_math","math_instructions","Sat Sep 16 2023 22:23:04 GMT+0800 (中国标准时间)","","","","","","","","","","","","","","","","","","",""
"2083","","7","psychophysics","103","355379","0.0-7.0-5.0-0.0","2","3","2","1","1","3","3","4","5","5","4","1","0","-1","0","-3","0","1","0","4","3","5","3","3","4","2","4","2","3","3","5","4","4","2","3","2","2","4","2","4","3","2","3","3","4","5","4","2","1","1","4","2","1","5","3","3","2","3","1","1","1","1","2","3","6","6","7","3","3","1","3","1","1","3","1","7","2","3","735606541780258817","谢","Female","[""好她"",""坏她"",""好我"",""坏我""]","[""强她"",""弱她"",""强我"",""弱我""]","","","","","","","","7","","","","","","","","","SRET","SRET_math_calculate","","key","7","16.666238095238064","853.3333333333334","476","","","","","2+5= ?","7","1","","","","","","",""
"2066","","2","psychophysics","104","357451","0.0-7.0-5.0-0.1","2","3","2","1","1","3","3","4","5","5","4","1","0","-1","0","-3","0","1","0","4","3","5","3","3","4","2","4","2","3","3","5","4","4","2","3","2","2","4","2","4","3","2","3","3","4","5","4","2","1","1","4","2","1","5","3","3","2","3","1","1","1","1","2","3","6","6","7","3","3","1","3","1","1","3","1","7","2","3","735606541780258817","谢","Female","[""好她"",""坏她"",""好我"",""坏我""]","[""强她"",""弱她"",""强我"",""弱我""]","","","","","","","","2","","","","","","","","","SRET","SRET_math_calculate","","key","2","16.664451612903164","853.3333333333334","476","","","","","19-17= ?","2","1","","","","","","",""
"2172","","8","psychophysics","105","359627","0.0-7.0-5.0-0.2","2","3","2","1","1","3","3","4","5","5","4","1","0","-1","0","-3","0","1","0","4","3","5","3","3","4","2","4","2","3","3","5","4","4","2","3","2","2","4","2","4","3","2","3","3","4","5","4","2","1","1","4","2","1","5","3","3","2","3","1","1","1","1","2","3","6","6","7","3","3","1","3","1","1","3","1","7","2","3","735606541780258817","谢","Female","[""好她"",""坏她"",""好我"",""坏我""]","[""强她"",""弱她"",""强我"",""弱我""]","","","","","","","","8","","","","","","","","","SRET","SRET_math_calculate","","key","8","16.66535658914733","853.3333333333334","476","","","","","8+1= ?","9","0","","","","","","",""
"3245","","3","psychophysics","106","362874","0.0-7.0-5.0-0.3","2","3","2","1","1","3","3","4","5","5","4","1","0","-1","0","-3","0","1","0","4","3","5","3","3","4","2","4","2","3","3","5","4","4","2","3","2","2","4","2","4","3","2","3","3","4","5","4","2","1","1","4","2","1","5","3","3","2","3","1","1","1","1","2","3","6","6","7","3","3","1","3","1","1","3","1","7","2","3","735606541780258817","谢","Female","[""好她"",""坏她"",""好我"",""坏我""]","[""强她"",""弱她"",""强我"",""弱我""]","","","","","","","","3","","","","","","","","","SRET","SRET_math_calculate","","key","3","16.665350515464112","853.3333333333334","476","","","","","11-8= ?","3","1","","","","","","",""
"1946","","9","psychophysics","107","364840","0.0-7.0-5.0-0.4","2","3","2","1","1","3","3","4","5","5","4","1","0","-1","0","-3","0","1","0","4","3","5","3","3","4","2","4","2","3","3","5","4","4","2","3","2","2","4","2","4","3","2","3","3","4","5","4","2","1","1","4","2","1","5","3","3","2","3","1","1","1","1","2","3","6","6","7","3","3","1","3","1","1","3","1","7","2","3","735606541780258817","谢","Female","[""好她"",""坏她"",""好我"",""坏我""]","[""强她"",""弱她"",""强我"",""弱我""]","","","","","","","","9","","","","","","","","","SRET","SRET_math_calculate","","key","9","16.666410256410515","853.3333333333334","476","","","","","4+5= ?","9","1","","","","","","",""
"1706","","9","psychophysics","108","366564","0.0-7.0-5.0-0.5","2","3","2","1","1","3","3","4","5","5","4","1","0","-1","0","-3","0","1","0","4","3","5","3","3","4","2","4","2","3","3","5","4","4","2","3","2","2","4","2","4","3","2","3","3","4","5","4","2","1","1","4","2","1","5","3","3","2","3","1","1","1","1","2","3","6","6","7","3","3","1","3","1","1","3","1","7","2","3","735606541780258817","谢","Female","[""好她"",""坏她"",""好我"",""坏我""]","[""强她"",""弱她"",""强我"",""弱我""]","","","","","","","","9","","","","","","","","","SRET","SRET_math_calculate","","key","9","16.664784313725676","853.3333333333334","476","","","","","3+6= ?","9","1","","","","","","",""
"2223","","3","psychophysics","109","368803","0.0-7.0-5.0-0.6","2","3","2","1","1","3","3","4","5","5","4","1","0","-1","0","-3","0","1","0","4","3","5","3","3","4","2","4","2","3","3","5","4","4","2","3","2","2","4","2","4","3","2","3","3","4","5","4","2","1","1","4","2","1","5","3","3","2","3","1","1","1","1","2","3","6","6","7","3","3","1","3","1","1","3","1","7","2","3","735606541780258817","谢","Female","[""好她"",""坏她"",""好我"",""坏我""]","[""强她"",""弱她"",""强我"",""弱我""]","","","","","","","","3","","","","","","","","","SRET","SRET_math_calculate","","key","3","16.664858208955334","853.3333333333334","476","","","","","21/7=  ?","3","1","","","","","","",""
"2001","","6","psychophysics","110","370806","0.0-7.0-5.0-0.7","2","3","2","1","1","3","3","4","5","5","4","1","0","-1","0","-3","0","1","0","4","3","5","3","3","4","2","4","2","3","3","5","4","4","2","3","2","2","4","2","4","3","2","3","3","4","5","4","2","1","1","4","2","1","5","3","3","2","3","1","1","1","1","2","3","6","6","7","3","3","1","3","1","1","3","1","7","2","3","735606541780258817","谢","Female","[""好她"",""坏她"",""好我"",""坏我""]","[""强她"",""弱她"",""强我"",""弱我""]","","","","","","","","6","","","","","","","","","SRET","SRET_math_calculate","","key","6","16.66505882352935","853.3333333333334","476","","","","","4+2= ?","6","1","","","","","","",""
"1979","","7","psychophysics","111","372788","0.0-7.0-5.0-0.8","2","3","2","1","1","3","3","4","5","5","4","1","0","-1","0","-3","0","1","0","4","3","5","3","3","4","2","4","2","3","3","5","4","4","2","3","2","2","4","2","4","3","2","3","3","4","5","4","2","1","1","4","2","1","5","3","3","2","3","1","1","1","1","2","3","6","6","7","3","3","1","3","1","1","3","1","7","2","3","735606541780258817","谢","Female","[""好她"",""坏她"",""好我"",""坏我""]","[""强她"",""弱她"",""强我"",""弱我""]","","","","","","","","7","","","","","","","","","SRET","SRET_math_calculate","","key","7","16.66597457627087","853.3333333333334","476","","","","","9-2= ?","7","1","","","","","","",""
"2319","","4","psychophysics","112","375127","0.0-7.0-5.0-0.9","2","3","2","1","1","3","3","4","5","5","4","1","0","-1","0","-3","0","1","0","4","3","5","3","3","4","2","4","2","3","3","5","4","4","2","3","2","2","4","2","4","3","2","3","3","4","5","4","2","1","1","4","2","1","5","3","3","2","3","1","1","1","1","2","3","6","6","7","3","3","1","3","1","1","3","1","7","2","3","735606541780258817","谢","Female","[""好她"",""坏她"",""好我"",""坏我""]","[""强她"",""弱她"",""强我"",""弱我""]","","","","","","","","4","","","","","","","","","SRET","SRET_math_calculate","","key","4","16.628143884891916","853.3333333333334","476","","","","","8-4= ?","4","1","","","","","","",""
"2133","","0","psychophysics","113","377278","0.0-7.0-5.0-0.10","2","3","2","1","1","3","3","4","5","5","4","1","0","-1","0","-3","0","1","0","4","3","5","3","3","4","2","4","2","3","3","5","4","4","2","3","2","2","4","2","4","3","2","3","3","4","5","4","2","1","1","4","2","1","5","3","3","2","3","1","1","1","1","2","3","6","6","7","3","3","1","3","1","1","3","1","7","2","3","735606541780258817","谢","Female","[""好她"",""坏她"",""好我"",""坏我""]","[""强她"",""弱她"",""强我"",""弱我""]","","","","","","","","0","","","","","","","","","SRET","SRET_math_calculate","","key","0","16.797393700787175","853.3333333333334","476","","","","","7*0= ?","0","1","","","","","","",""
"2147","","7","psychophysics","114","379443","0.0-7.0-5.0-0.11","2","3","2","1","1","3","3","4","5","5","4","1","0","-1","0","-3","0","1","0","4","3","5","3","3","4","2","4","2","3","3","5","4","4","2","3","2","2","4","2","4","3","2","3","3","4","5","4","2","1","1","4","2","1","5","3","3","2","3","1","1","1","1","2","3","6","6","7","3","3","1","3","1","1","3","1","7","2","3","735606541780258817","谢","Female","[""好她"",""坏她"",""好我"",""坏我""]","[""强她"",""弱她"",""强我"",""弱我""]","","","","","","","","7","","","","","","","","","SRET","SRET_math_calculate","","key","7","16.665248062015355","853.3333333333334","476","","","","","11-4= ?","7","1","","","","","","",""
"2055","","2","psychophysics","115","381517","0.0-7.0-5.0-0.12","2","3","2","1","1","3","3","4","5","5","4","1","0","-1","0","-3","0","1","0","4","3","5","3","3","4","2","4","2","3","3","5","4","4","2","3","2","2","4","2","4","3","2","3","3","4","5","4","2","1","1","4","2","1","5","3","3","2","3","1","1","1","1","2","3","6","6","7","3","3","1","3","1","1","3","1","7","2","3","735606541780258817","谢","Female","[""好她"",""坏她"",""好我"",""坏我""]","[""强她"",""弱她"",""强我"",""弱我""]","","","","","","","","2","","","","","","","","","SRET","SRET_math_calculate","","key","2","16.665233870967754","853.3333333333334","476","","","","","18/9= ?","2","1","","","","","","",""
"2349","","6","psychophysics","116","383870","0.0-7.0-5.0-0.13","2","3","2","1","1","3","3","4","5","5","4","1","0","-1","0","-3","0","1","0","4","3","5","3","3","4","2","4","2","3","3","5","4","4","2","3","2","2","4","2","4","3","2","3","3","4","5","4","2","1","1","4","2","1","5","3","3","2","3","1","1","1","1","2","3","6","6","7","3","3","1","3","1","1","3","1","7","2","3","735606541780258817","谢","Female","[""好她"",""坏她"",""好我"",""坏我""]","[""强她"",""弱她"",""强我"",""弱我""]","","","","","","","","6","","","","","","","","","SRET","SRET_math_calculate","","key","6","16.665814285714546","853.3333333333334","476","","","","","2*3= ?","6","1","","","","","","",""
"2415","","5","psychophysics","117","386306","0.0-7.0-5.0-0.14","2","3","2","1","1","3","3","4","5","5","4","1","0","-1","0","-3","0","1","0","4","3","5","3","3","4","2","4","2","3","3","5","4","4","2","3","2","2","4","2","4","3","2","3","3","4","5","4","2","1","1","4","2","1","5","3","3","2","3","1","1","1","1","2","3","6","6","7","3","3","1","3","1","1","3","1","7","2","3","735606541780258817","谢","Female","[""好她"",""坏她"",""好我"",""坏我""]","[""强她"",""弱她"",""强我"",""弱我""]","","","","","","","","5","","","","","","","","","SRET","SRET_math_calculate","","key","5","16.66393793103454","853.3333333333334","476","","","","","16-11= ?","5","1","","","","","","",""
"2961","","1","psychophysics","118","389270","0.0-7.0-5.0-0.15","2","3","2","1","1","3","3","4","5","5","4","1","0","-1","0","-3","0","1","0","4","3","5","3","3","4","2","4","2","3","3","5","4","4","2","3","2","2","4","2","4","3","2","3","3","4","5","4","2","1","1","4","2","1","5","3","3","2","3","1","1","1","1","2","3","6","6","7","3","3","1","3","1","1","3","1","7","2","3","735606541780258817","谢","Female","[""好她"",""坏她"",""好我"",""坏我""]","[""强她"",""弱她"",""强我"",""弱我""]","","","","","","","","1","","","","","","","","","SRET","SRET_math_calculate","","key","1","16.659632768361607","853.3333333333334","476","","","","","12/12= ?","1","1","","","","","","",""
"2456","","3","psychophysics","119","391745","0.0-7.0-5.0-0.16","2","3","2","1","1","3","3","4","5","5","4","1","0","-1","0","-3","0","1","0","4","3","5","3","3","4","2","4","2","3","3","5","4","4","2","3","2","2","4","2","4","3","2","3","3","4","5","4","2","1","1","4","2","1","5","3","3","2","3","1","1","1","1","2","3","6","6","7","3","3","1","3","1","1","3","1","7","2","3","735606541780258817","谢","Female","[""好她"",""坏她"",""好我"",""坏我""]","[""强她"",""弱她"",""强我"",""弱我""]","","","","","","","","3","","","","","","","","","SRET","SRET_math_calculate","","key","3","16.64174149659871","853.3333333333334","476","","","","","3+0= ?","3","1","","","","","","",""
"1967","","8","psychophysics","120","393736","0.0-7.0-5.0-0.17","2","3","2","1","1","3","3","4","5","5","4","1","0","-1","0","-3","0","1","0","4","3","5","3","3","4","2","4","2","3","3","5","4","4","2","3","2","2","4","2","4","3","2","3","3","4","5","4","2","1","1","4","2","1","5","3","3","2","3","1","1","1","1","2","3","6","6","7","3","3","1","3","1","1","3","1","7","2","3","735606541780258817","谢","Female","[""好她"",""坏她"",""好我"",""坏我""]","[""强她"",""弱她"",""强我"",""弱我""]","","","","","","","","8","","","","","","","","","SRET","SRET_math_calculate","","key","8","16.66567226890729","853.3333333333334","476","","","","","5+3= ?","8","1","","","","","","",""
"2021","","6","psychophysics","121","395761","0.0-7.0-5.0-0.18","2","3","2","1","1","3","3","4","5","5","4","1","0","-1","0","-3","0","1","0","4","3","5","3","3","4","2","4","2","3","3","5","4","4","2","3","2","2","4","2","4","3","2","3","3","4","5","4","2","1","1","4","2","1","5","3","3","2","3","1","1","1","1","2","3","6","6","7","3","3","1","3","1","1","3","1","7","2","3","735606541780258817","谢","Female","[""好她"",""坏她"",""好我"",""坏我""]","[""强她"",""弱她"",""强我"",""弱我""]","","","","","","","","6","","","","","","","","","SRET","SRET_math_calculate","","key","6","16.664933333333465","853.3333333333334","476","","","","","2+4= ?","6","1","","","","","","",""
"1914","","7","psychophysics","122","397696","0.0-7.0-5.0-0.19","2","3","2","1","1","3","3","4","5","5","4","1","0","-1","0","-3","0","1","0","4","3","5","3","3","4","2","4","2","3","3","5","4","4","2","3","2","2","4","2","4","3","2","3","3","4","5","4","2","1","1","4","2","1","5","3","3","2","3","1","1","1","1","2","3","6","6","7","3","3","1","3","1","1","3","1","7","2","3","735606541780258817","谢","Female","[""好她"",""坏她"",""好我"",""坏我""]","[""强她"",""弱她"",""强我"",""弱我""]","","","","","","","","7","","","","","","","","","SRET","SRET_math_calculate","","key","7","16.664491379310395","853.3333333333334","476","","","","","4+3= ?","7","1","","","","","","",""
"2323","","8","psychophysics","123","400032","0.0-7.0-5.0-0.20","2","3","2","1","1","3","3","4","5","5","4","1","0","-1","0","-3","0","1","0","4","3","5","3","3","4","2","4","2","3","3","5","4","4","2","3","2","2","4","2","4","3","2","3","3","4","5","4","2","1","1","4","2","1","5","3","3","2","3","1","1","1","1","2","3","6","6","7","3","3","1","3","1","1","3","1","7","2","3","735606541780258817","谢","Female","[""好她"",""坏她"",""好我"",""坏我""]","[""强她"",""弱她"",""强我"",""弱我""]","","","","","","","","8","","","","","","","","","SRET","SRET_math_calculate","","key","8","16.665115107913675","853.3333333333334","476","","","","","50-42= ?","8","1","","","","","","",""
"2101","","2","psychophysics","124","402154","0.0-7.0-5.0-0.21","2","3","2","1","1","3","3","4","5","5","4","1","0","-1","0","-3","0","1","0","4","3","5","3","3","4","2","4","2","3","3","5","4","4","2","3","2","2","4","2","4","3","2","3","3","4","5","4","2","1","1","4","2","1","5","3","3","2","3","1","1","1","1","2","3","6","6","7","3","3","1","3","1","1","3","1","7","2","3","735606541780258817","谢","Female","[""好她"",""坏她"",""好我"",""坏我""]","[""强她"",""弱她"",""强我"",""弱我""]","","","","","","","","2","","","","","","","","","SRET","SRET_math_calculate","","key","2","16.642904761904713","853.3333333333334","476","","","","","8/4= ?","2","1","","","","","","",""
"1877","","8","psychophysics","125","404051","0.0-7.0-5.0-0.22","2","3","2","1","1","3","3","4","5","5","4","1","0","-1","0","-3","0","1","0","4","3","5","3","3","4","2","4","2","3","3","5","4","4","2","3","2","2","4","2","4","3","2","3","3","4","5","4","2","1","1","4","2","1","5","3","3","2","3","1","1","1","1","2","3","6","6","7","3","3","1","3","1","1","3","1","7","2","3","735606541780258817","谢","Female","[""好她"",""坏她"",""好我"",""坏我""]","[""强她"",""弱她"",""强我"",""弱我""]","","","","","","","","8","","","","","","","","","SRET","SRET_math_calculate","","key","8","16.666159292034994","853.3333333333334","476","","","","","1+7= ?","8","1","","","","","","",""
"1996","","9","psychophysics","126","406050","0.0-7.0-5.0-0.23","2","3","2","1","1","3","3","4","5","5","4","1","0","-1","0","-3","0","1","0","4","3","5","3","3","4","2","4","2","3","3","5","4","4","2","3","2","2","4","2","4","3","2","3","3","4","5","4","2","1","1","4","2","1","5","3","3","2","3","1","1","1","1","2","3","6","6","7","3","3","1","3","1","1","3","1","7","2","3","735606541780258817","谢","Female","[""好她"",""坏她"",""好我"",""坏我""]","[""强她"",""弱她"",""强我"",""弱我""]","","","","","","","","9","","","","","","","","","SRET","SRET_math_calculate","","key","9","16.665243697479394","853.3333333333334","476","","","","","7+2= ?","9","1","","","","","","",""
"2175","","5","psychophysics","127","408241","0.0-7.0-5.0-0.24","2","3","2","1","1","3","3","4","5","5","4","1","0","-1","0","-3","0","1","0","4","3","5","3","3","4","2","4","2","3","3","5","4","4","2","3","2","2","4","2","4","3","2","3","3","4","5","4","2","1","1","4","2","1","5","3","3","2","3","1","1","1","1","2","3","6","6","7","3","3","1","3","1","1","3","1","7","2","3","735606541780258817","谢","Female","[""好她"",""坏她"",""好我"",""坏我""]","[""强她"",""弱她"",""强我"",""弱我""]","","","","","","","","5","","","","","","","","","SRET","SRET_math_calculate","","key","5","16.66610769230756","853.3333333333334","476","","","","","3+2= ?","5","1","","","","","","",""
"2857","","9","psychophysics","128","411104","0.0-7.0-5.0-0.25","2","3","2","1","1","3","3","4","5","5","4","1","0","-1","0","-3","0","1","0","4","3","5","3","3","4","2","4","2","3","3","5","4","4","2","3","2","2","4","2","4","3","2","3","3","4","5","4","2","1","1","4","2","1","5","3","3","2","3","1","1","1","1","2","3","6","6","7","3","3","1","3","1","1","3","1","7","2","3","735606541780258817","谢","Female","[""好她"",""坏她"",""好我"",""坏我""]","[""强她"",""弱她"",""强我"",""弱我""]","","","","","","","","9","","","","","","","","","SRET","SRET_math_calculate","","key","9","16.664456140350726","853.3333333333334","476","","","","","32-23= ?","9","1","","","","","","",""
"2112","","2","psychophysics","129","413235","0.0-7.0-5.0-0.26","2","3","2","1","1","3","3","4","5","5","4","1","0","-1","0","-3","0","1","0","4","3","5","3","3","4","2","4","2","3","3","5","4","4","2","3","2","2","4","2","4","3","2","3","3","4","5","4","2","1","1","4","2","1","5","3","3","2","3","1","1","1","1","2","3","6","6","7","3","3","1","3","1","1","3","1","7","2","3","735606541780258817","谢","Female","[""好她"",""坏她"",""好我"",""坏我""]","[""强她"",""弱她"",""强我"",""弱我""]","","","","","","","","2","","","","","","","","","SRET","SRET_math_calculate","","key","2","16.664220472440714","853.3333333333334","476","","","","","5-3= ?","2","1","","","","","","",""
"2073","","9","psychophysics","130","415311","0.0-7.0-5.0-0.27","2","3","2","1","1","3","3","4","5","5","4","1","0","-1","0","-3","0","1","0","4","3","5","3","3","4","2","4","2","3","3","5","4","4","2","3","2","2","4","2","4","3","2","3","3","4","5","4","2","1","1","4","2","1","5","3","3","2","3","1","1","1","1","2","3","6","6","7","3","3","1","3","1","1","3","1","7","2","3","735606541780258817","谢","Female","[""好她"",""坏她"",""好我"",""坏我""]","[""强她"",""弱她"",""强我"",""弱我""]","","","","","","","","9","","","","","","","","","SRET","SRET_math_calculate","","key","9","16.798934959349832","853.3333333333334","476","","","","","2+7= ?","9","1","","","","","","",""
"1884","","8","psychophysics","131","417217","0.0-7.0-5.0-0.28","2","3","2","1","1","3","3","4","5","5","4","1","0","-1","0","-3","0","1","0","4","3","5","3","3","4","2","4","2","3","3","5","4","4","2","3","2","2","4","2","4","3","2","3","3","4","5","4","2","1","1","4","2","1","5","3","3","2","3","1","1","1","1","2","3","6","6","7","3","3","1","3","1","1","3","1","7","2","3","735606541780258817","谢","Female","[""好她"",""坏她"",""好我"",""坏我""]","[""强她"",""弱她"",""强我"",""弱我""]","","","","","","","","8","","","","","","","","","SRET","SRET_math_calculate","","key","8","16.66603539822998","853.3333333333334","476","","","","","9-1= ?","8","1","","","","","","",""
"1879","","3","psychophysics","132","419115","0.0-7.0-5.0-0.29","2","3","2","1","1","3","3","4","5","5","4","1","0","-1","0","-3","0","1","0","4","3","5","3","3","4","2","4","2","3","3","5","4","4","2","3","2","2","4","2","4","3","2","3","3","4","5","4","2","1","1","4","2","1","5","3","3","2","3","1","1","1","1","2","3","6","6","7","3","3","1","3","1","1","3","1","7","2","3","735606541780258817","谢","Female","[""好她"",""坏她"",""好我"",""坏我""]","[""强她"",""弱她"",""强我"",""弱我""]","","","","","","","","3","","","","","","","","","SRET","SRET_math_calculate","","key","3","16.66466371681432","853.3333333333334","476","","","","","2+1= ?","3","1","","","","","","",""
"1996","","1","psychophysics","133","421129","0.0-7.0-5.0-0.30","2","3","2","1","1","3","3","4","5","5","4","1","0","-1","0","-3","0","1","0","4","3","5","3","3","4","2","4","2","3","3","5","4","4","2","3","2","2","4","2","4","3","2","3","3","4","5","4","2","1","1","4","2","1","5","3","3","2","3","1","1","1","1","2","3","6","6","7","3","3","1","3","1","1","3","1","7","2","3","735606541780258817","谢","Female","[""好她"",""坏她"",""好我"",""坏我""]","[""强她"",""弱她"",""强我"",""弱我""]","","","","","","","","1","","","","","","","","","SRET","SRET_math_calculate","","key","1","16.66525833333338","853.3333333333334","476","","","","","9-8= ?","1","1","","","","","","",""
"1903","","1","psychophysics","134","423034","0.0-7.0-5.0-0.31","2","3","2","1","1","3","3","4","5","5","4","1","0","-1","0","-3","0","1","0","4","3","5","3","3","4","2","4","2","3","3","5","4","4","2","3","2","2","4","2","4","3","2","3","3","4","5","4","2","1","1","4","2","1","5","3","3","2","3","1","1","1","1","2","3","6","6","7","3","3","1","3","1","1","3","1","7","2","3","735606541780258817","谢","Female","[""好她"",""坏她"",""好我"",""坏我""]","[""强她"",""弱她"",""强我"",""弱我""]","","","","","","","","1","","","","","","","","","SRET","SRET_math_calculate","","key","1","16.665203539823054","853.3333333333334","476","","","","","10-9= ?","1","1","","","","","","",""
"2718","","8","psychophysics","135","425754","0.0-7.0-5.0-0.32","2","3","2","1","1","3","3","4","5","5","4","1","0","-1","0","-3","0","1","0","4","3","5","3","3","4","2","4","2","3","3","5","4","4","2","3","2","2","4","2","4","3","2","3","3","4","5","4","2","1","1","4","2","1","5","3","3","2","3","1","1","1","1","2","3","6","6","7","3","3","1","3","1","1","3","1","7","2","3","735606541780258817","谢","Female","[""好她"",""坏她"",""好我"",""坏我""]","[""强她"",""弱她"",""强我"",""弱我""]","","","","","","","","8","","","","","","","","","SRET","SRET_math_calculate","","key","8","16.645962962962653","853.3333333333334","476","","","","","56/7= ?","8","1","","","","","","",""
"2026","","2","psychophysics","136","427804","0.0-7.0-5.0-0.33","2","3","2","1","1","3","3","4","5","5","4","1","0","-1","0","-3","0","1","0","4","3","5","3","3","4","2","4","2","3","3","5","4","4","2","3","2","2","4","2","4","3","2","3","3","4","5","4","2","1","1","4","2","1","5","3","3","2","3","1","1","1","1","2","3","6","6","7","3","3","1","3","1","1","3","1","7","2","3","735606541780258817","谢","Female","[""好她"",""坏她"",""好我"",""坏我""]","[""强她"",""弱她"",""强我"",""弱我""]","","","","","","","","2","","","","","","","","","SRET","SRET_math_calculate","","key","2","16.66388524590169","853.3333333333334","476","","","","","90/45= ?","2","1","","","","","","",""
"2081","","6","psychophysics","137","429903","0.0-7.0-5.0-0.34","2","3","2","1","1","3","3","4","5","5","4","1","0","-1","0","-3","0","1","0","4","3","5","3","3","4","2","4","2","3","3","5","4","4","2","3","2","2","4","2","4","3","2","3","3","4","5","4","2","1","1","4","2","1","5","3","3","2","3","1","1","1","1","2","3","6","6","7","3","3","1","3","1","1","3","1","7","2","3","735606541780258817","谢","Female","[""好她"",""坏她"",""好我"",""坏我""]","[""强她"",""弱她"",""强我"",""弱我""]","","","","","","","","6","","","","","","","","","SRET","SRET_math_calculate","","key","6","16.664808000000193","853.3333333333334","476","","","","","3+3= ?","6","1","","","","","","",""
"2045","","4","psychophysics","138","431950","0.0-7.0-5.0-0.35","2","3","2","1","1","3","3","4","5","5","4","1","0","-1","0","-3","0","1","0","4","3","5","3","3","4","2","4","2","3","3","5","4","4","2","3","2","2","4","2","4","3","2","3","3","4","5","4","2","1","1","4","2","1","5","3","3","2","3","1","1","1","1","2","3","6","6","7","3","3","1","3","1","1","3","1","7","2","3","735606541780258817","谢","Female","[""好她"",""坏她"",""好我"",""坏我""]","[""强她"",""弱她"",""强我"",""弱我""]","","","","","","","","4","","","","","","","","","SRET","SRET_math_calculate","","key","4","16.664893442623175","853.3333333333334","476","","","","","3+1= ?","4","1","","","","","","",""
"2109","","3","psychophysics","139","434063","0.0-7.0-5.0-0.36","2","3","2","1","1","3","3","4","5","5","4","1","0","-1","0","-3","0","1","0","4","3","5","3","3","4","2","4","2","3","3","5","4","4","2","3","2","2","4","2","4","3","2","3","3","4","5","4","2","1","1","4","2","1","5","3","3","2","3","1","1","1","1","2","3","6","6","7","3","3","1","3","1","1","3","1","7","2","3","735606541780258817","谢","Female","[""好她"",""坏她"",""好我"",""坏我""]","[""强她"",""弱她"",""强我"",""弱我""]","","","","","","","","3","","","","","","","","","SRET","SRET_math_calculate","","key","3","16.66569841269862","853.3333333333334","476","","","","","3*1= ?","3","1","","","","","","",""
"2403","","0","psychophysics","140","436469","0.0-7.0-5.0-0.37","2","3","2","1","1","3","3","4","5","5","4","1","0","-1","0","-3","0","1","0","4","3","5","3","3","4","2","4","2","3","3","5","4","4","2","3","2","2","4","2","4","3","2","3","3","4","5","4","2","1","1","4","2","1","5","3","3","2","3","1","1","1","1","2","3","6","6","7","3","3","1","3","1","1","3","1","7","2","3","735606541780258817","谢","Female","[""好她"",""坏她"",""好我"",""坏我""]","[""强她"",""弱她"",""强我"",""弱我""]","","","","","","","","0","","","","","","","","","SRET","SRET_math_calculate","","key","0","16.665881118880847","853.3333333333334","476","","","","","32-32= ?","0","1","","","","","","",""
"2084","","9","psychophysics","141","438556","0.0-7.0-5.0-0.38","2","3","2","1","1","3","3","4","5","5","4","1","0","-1","0","-3","0","1","0","4","3","5","3","3","4","2","4","2","3","3","5","4","4","2","3","2","2","4","2","4","3","2","3","3","4","5","4","2","1","1","4","2","1","5","3","3","2","3","1","1","1","1","2","3","6","6","7","3","3","1","3","1","1","3","1","7","2","3","735606541780258817","谢","Female","[""好她"",""坏她"",""好我"",""坏我""]","[""强她"",""弱她"",""强我"",""弱我""]","","","","","","","","9","","","","","","","","","SRET","SRET_math_calculate","","key","9","16.6653790322584","853.3333333333334","476","","","","","81/9= ?","9","1","","","","","","",""
"2220","","7","psychophysics","142","440796","0.0-7.0-5.0-0.39","2","3","2","1","1","3","3","4","5","5","4","1","0","-1","0","-3","0","1","0","4","3","5","3","3","4","2","4","2","3","3","5","4","4","2","3","2","2","4","2","4","3","2","3","3","4","5","4","2","1","1","4","2","1","5","3","3","2","3","1","1","1","1","2","3","6","6","7","3","3","1","3","1","1","3","1","7","2","3","735606541780258817","谢","Female","[""好她"",""坏她"",""好我"",""坏我""]","[""强她"",""弱她"",""强我"",""弱我""]","","","","","","","","7","","","","","","","","","SRET","SRET_math_calculate","","key","7","16.66482835820895","853.3333333333334","476","","","","","49/7 = ?","7","1","","","","","","",""
