"rt","stimulus","response","trial_type","trial_index","time_elapsed","internal_node_id","swb_1","swb_2","swb_3","swb_4","swb_5","LOT_1","LOT_2","LOT_3","LOT_4","LOT_5","LOT_6","IPC_1","IPC_2","IPC_3","IPC_4","IPC_5","IPC_6","IPC_7","IPC_8","MorIden_1","MorIden_2","MorIden_3","MorIden_4","MorIden_5","MorIden_6","MorIden_7","MorIden_8","MorIden_9","MorIden_10","moralSeImag_1","moralSeImag_2","moralSeImag_3","moralSeImag_4","moralSeImag_5","moralSeImag_6","moralSeImag_7","moralSeImag_8","moralSeImag_9","sde_1","sde_2","sde_3","sde_4","sde_5","sde_6","sde_7","sde_8","sde_9","sde_10","sde_11","sde_12","sde_13","sde_14","sde_15","sde_16","sde_17","sde_18","sde_19","sde_20","IM_1","IM_2","IM_3","IM_4","IM_5","IM_6","IM_7","IM_8","IM_9","IM_10","IM_11","IM_12","IM_13","IM_14","IM_15","IM_16","IM_17","IM_18","IM_19","IM_20","subj_idx","friend_name","Sex","Word","Word2","value","success","timeout","failed_images","failed_audio","failed_video","user_agent","responses","item_order","radio_event_ids","radio_event_times","key_event_times","mouse_event_times","straightlining","zigzagging","honeypot","view_history","response_type","key_press","avg_frame_time","center_x","center_y","correct_response","correct","identity","Image","word","condition","task_id","screen_id","time_stamp","person","valence","domain","math","status","duration","question_order"
"4329","
   <p><div style='color:white; font-size: 25px'>您好，欢迎参加本次实验。</div></p>
   <p><div style='color:white; font-size: 25px'>为充分保障您的权利，请确保您已经知晓并同意《参与实验同意书》以及《数据公开知情同意书》。</div></p>
   <p><div style='color:white; font-size: 25px'>如果您未见过上述内容，请咨询实验员。</div></p>
   <p style='color:white; font-size: 25px'>如果您选择继续实验，则表示您已经清楚两份知情同意书的内容并同意。</p>
   <p> <div style = ""color: green""><按空格键至下页></div> </p>
   "," ","html-keyboard-response","0","4332","0.0-0.0","3","3","3","5","3","4","4","3","3","3","5","-2","1","0","0","-1","-1","-1","0","4","4","5","4","3","2","3","4","4","4","4","4","5","5","4","6","4","8","8","4","6","4","4","5","3","4","5","4","3","4","2","5","5","4","5","4","4","3","5","3","4","3","3","5","5","4","3","4","6","7","3","4","4","4","4","3","5","3","4","718754642447564800","贾","Male","[""好他"",""坏他"",""好我"",""坏我""]","[""强他"",""弱他"",""强我"",""弱我""]","","","","","","","","","","","","","","","","","","","","","","","","","","","","","","","","","","","","","",""
"","","","call-function","1","4333","0.0-1.0-0.0","3","3","3","5","3","4","4","3","3","3","5","-2","1","0","0","-1","-1","-1","0","4","4","5","4","3","2","3","4","4","4","4","4","5","5","4","6","4","8","8","4","6","4","4","5","3","4","5","4","3","4","2","5","5","4","5","4","4","3","5","3","4","3","3","5","5","4","3","4","6","7","3","4","4","4","4","3","5","3","4","718754642447564800","贾","Male","[""好他"",""坏他"",""好我"",""坏我""]","[""强他"",""弱他"",""强我"",""弱我""]","","","","","","","","","","","","","","","","","","","","","","","","","","","","","","","","","","","","","",""
"27075","","[{""name"":""Sex"",""value"":""0""},{""name"":""friend_name"",""value"":""贾""}]","survey-html-form","2","31408","0.0-1.0-1.0","3","3","3","5","3","4","4","3","3","3","5","-2","1","0","0","-1","-1","-1","0","4","4","5","4","3","2","3","4","4","4","4","4","5","5","4","6","4","8","8","4","6","4","4","5","3","4","5","4","3","4","2","5","5","4","5","4","4","3","5","3","4","3","3","5","5","4","3","4","6","7","3","4","4","4","4","3","5","3","4","718754642447564800","贾","Male","[""好他"",""坏他"",""好我"",""坏我""]","[""强他"",""弱他"",""强我"",""弱我""]","","","","","","","","","","","","","","","","","","","","","","","","","","","","","","","","","","","","","",""
"","","","preload","3","31783","0.0-2.0","3","3","3","5","3","4","4","3","3","3","5","-2","1","0","0","-1","-1","-1","0","4","4","5","4","3","2","3","4","4","4","4","4","5","5","4","6","4","8","8","4","6","4","4","5","3","4","5","4","3","4","2","5","5","4","5","4","4","3","5","3","4","3","3","5","5","4","3","4","6","7","3","4","4","4","4","3","5","3","4","718754642447564800","贾","Male","[""好他"",""坏他"",""好我"",""坏我""]","[""强他"",""弱他"",""强我"",""弱我""]","","true","false","[]","[]","[]","","","","","","","","","","","","","","","","","","","","","","","","","","","","","","","",""
"","","","fullscreen","4","36829","0.0-3.0","3","3","3","5","3","4","4","3","3","3","5","-2","1","0","0","-1","-1","-1","0","4","4","5","4","3","2","3","4","4","4","4","4","5","5","4","6","4","8","8","4","6","4","4","5","3","4","5","4","3","4","2","5","5","4","5","4","4","3","5","3","4","3","3","5","5","4","3","4","6","7","3","4","4","4","4","3","5","3","4","718754642447564800","贾","Male","[""好他"",""坏他"",""好我"",""坏我""]","[""强他"",""弱他"",""强我"",""弱我""]","","true","","","","","{}","","","","","","","","","","","","","","","","","","","","","","","","","","","","","","",""
"18737.200000000186","","{""Q01"":""3"",""Q02"":""3"",""Q03"":""3"",""Q04"":""5"",""Q05"":""3""}","survey-template","5","55570","0.0-4.0","3","3","3","5","3","4","4","3","3","3","5","-2","1","0","0","-1","-1","-1","0","4","4","5","4","3","2","3","4","4","4","4","4","5","5","4","6","4","8","8","4","6","4","4","5","3","4","5","4","3","4","2","5","5","4","5","4","4","3","5","3","4","3","3","5","5","4","3","4","6","7","3","4","4","4","4","3","5","3","4","718754642447564800","贾","Male","[""好他"",""坏他"",""好我"",""坏我""]","[""强他"",""弱他"",""强我"",""弱我""]","","","","","","","","{""Q01"":""3"",""Q02"":""3"",""Q03"":""3"",""Q04"":""5"",""Q05"":""3""}","[0,1,2,3,4]","[""Q01"",""Q02"",""Q03"",""Q04"",""Q05""]","[7047.700000000186,9279.700000000186,10431.700000000186,12703.400000000373,16511.5]","[]","[6543.799999999814,7047.700000000186,9279.700000000186,10431.700000000186,12703.400000000373,15327.299999999814,15879.099999999627,16511.5,18735.299999999814]","0.8","0","0","","","","","","","","","","","","","","","","","","","","","",""
"25984","","{""Q01"":""4"",""Q02"":""4"",""Q03"":""3"",""Q04"":""3"",""Q05"":""3"",""Q06"":""5""}","survey-template","6","81560","0.0-5.0","3","3","3","5","3","4","4","3","3","3","5","-2","1","0","0","-1","-1","-1","0","4","4","5","4","3","2","3","4","4","4","4","4","5","5","4","6","4","8","8","4","6","4","4","5","3","4","5","4","3","4","2","5","5","4","5","4","4","3","5","3","4","3","3","5","5","4","3","4","6","7","3","4","4","4","4","3","5","3","4","718754642447564800","贾","Male","[""好他"",""坏他"",""好我"",""坏我""]","[""强他"",""弱他"",""强我"",""弱我""]","","","","","","","","{""Q01"":""4"",""Q02"":""4"",""Q03"":""3"",""Q04"":""3"",""Q05"":""3"",""Q06"":""5""}","[0,1,2,3,4,5]","[""Q01"",""Q02"",""Q03"",""Q04"",""Q05"",""Q05"",""Q06"",""Q06""]","[5503.299999999814,12734.700000000186,14262.900000000373,15886.799999999814,18030.700000000186,19318.700000000186,20358.900000000373,23014.799999999814]","[]","[5503.299999999814,12734.700000000186,14262.900000000373,15886.799999999814,18030.700000000186,19318.700000000186,20358.900000000373,23014.799999999814,25982.700000000186]","0.5","0.2","0","","","","","","","","","","","","","","","","","","","","","",""
"32322.099999999627","","{""Q01"":""-2"",""Q02"":""1"",""Q03"":""0"",""Q04"":""0"",""Q05"":""-1"",""Q06"":""-1"",""Q07"":""-1"",""Q08"":""0""}","survey-template","7","113888","0.0-6.0","3","3","3","5","3","4","4","3","3","3","5","-2","1","0","0","-1","-1","-1","0","4","4","5","4","3","2","3","4","4","4","4","4","5","5","4","6","4","8","8","4","6","4","4","5","3","4","5","4","3","4","2","5","5","4","5","4","4","3","5","3","4","3","3","5","5","4","3","4","6","7","3","4","4","4","4","3","5","3","4","718754642447564800","贾","Male","[""好他"",""坏他"",""好我"",""坏我""]","[""强他"",""弱他"",""强我"",""弱我""]","","","","","","","","{""Q01"":""-2"",""Q02"":""1"",""Q03"":""0"",""Q04"":""0"",""Q05"":""-1"",""Q06"":""-1"",""Q07"":""-1"",""Q08"":""0""}","[0,1,2,3,4,5,6,7]","[""Q01"",""Q02"",""Q02"",""Q03"",""Q03"",""Q03"",""Q05"",""Q06"",""Q07"",""Q08"",""Q04"",""Q04""]","[3393.2999999998137,7689,8872.599999999627,13936.899999999441,15160.299999999814,15840.599999999627,22032.599999999627,22592.199999999255,24680.099999999627,26312.199999999255,29247.89999999944,31559.799999999814]","[]","[3393.2999999998137,7689,8872.599999999627,13936.899999999441,15160.299999999814,15840.599999999627,18736.39999999944,21648.199999999255,22032.599999999627,22592.199999999255,24680.099999999627,26312.199999999255,27000,29247.89999999944,31320.39999999944,31559.799999999814,32319.699999999255]","0.375","0.42857142857142855","0","","","","","","","","","","","","","","","","","","","","","",""
"21120","","","instructions","8","135013","0.0-7.0","3","3","3","5","3","4","4","3","3","3","5","-2","1","0","0","-1","-1","-1","0","4","4","5","4","3","2","3","4","4","4","4","4","5","5","4","6","4","8","8","4","6","4","4","5","3","4","5","4","3","4","2","5","5","4","5","4","4","3","5","3","4","3","3","5","5","4","3","4","6","7","3","4","4","4","4","3","5","3","4","718754642447564800","贾","Male","[""好他"",""坏他"",""好我"",""坏我""]","[""强他"",""弱他"",""强我"",""弱我""]","","","","","","","","","","","","","","","","","[{""page_index"":0,""viewing_time"":21120}]","","","","","","","","","","","","","","","","","","","","",""
"117898","","","instructions","9","252912","0.0-8.0-1.0-0.0","3","3","3","5","3","4","4","3","3","3","5","-2","1","0","0","-1","-1","-1","0","4","4","5","4","3","2","3","4","4","4","4","4","5","5","4","6","4","8","8","4","6","4","4","5","3","4","5","4","3","4","2","5","5","4","5","4","4","3","5","3","4","3","3","5","5","4","3","4","6","7","3","4","4","4","4","3","5","3","4","718754642447564800","贾","Male","[""好他"",""坏他"",""好我"",""坏我""]","[""强他"",""弱他"",""强我"",""弱我""]","","","","","","","","","","","","","","","","","[{""page_index"":0,""viewing_time"":12413},{""page_index"":1,""viewing_time"":65638},{""page_index"":2,""viewing_time"":5464},{""page_index"":1,""viewing_time"":22551},{""page_index"":2,""viewing_time"":1992},{""page_index"":1,""viewing_time"":7368},{""page_index"":2,""viewing_time"":592},{""page_index"":3,""viewing_time"":1880}]","","","","","","","","","","","","","","","","","","","","",""
"1179","","j","psychophysics","10","255096","0.0-8.0-1.0-1.0-0.0-0.0","3","3","3","5","3","4","4","3","3","3","5","-2","1","0","0","-1","-1","-1","0","4","4","5","4","3","2","3","4","4","4","4","4","5","5","4","6","4","8","8","4","6","4","4","5","3","4","5","4","3","4","2","5","5","4","5","4","4","3","5","3","4","3","3","5","5","4","3","4","6","7","3","4","4","4","4","3","5","3","4","718754642447564800","贾","Male","[""好他"",""坏他"",""好我"",""坏我""]","[""强他"",""弱他"",""强我"",""弱我""]","","","","","","","","nonmatch","","","","","","","","","","key","j","25.096870588235255","960","536","j","true","nonmatch","img/pentagon.png","弱他","弱我","prac_ALT2_ability","practice_ability","","","","","","","",""
"null","<span style='color:GreenYellow; font-size: 70px;'>正确! </span>","null","html-keyboard-response","11","255599","0.0-8.0-1.0-1.0-0.0-1.0","3","3","3","5","3","4","4","3","3","3","5","-2","1","0","0","-1","-1","-1","0","4","4","5","4","3","2","3","4","4","4","4","4","5","5","4","6","4","8","8","4","6","4","4","5","3","4","5","4","3","4","2","5","5","4","5","4","4","3","5","3","4","3","3","5","5","4","3","4","6","7","3","4","4","4","4","3","5","3","4","718754642447564800","贾","Male","[""好他"",""坏他"",""好我"",""坏我""]","[""强他"",""弱他"",""强我"",""弱我""]","","","","","","","","","","","","","","","","","","","","","","","","","","","","","","feedback_test","","","","","","","",""
"null","","null","psychophysics","12","257814","0.0-8.0-1.0-1.0-0.0-0.1","3","3","3","5","3","4","4","3","3","3","5","-2","1","0","0","-1","-1","-1","0","4","4","5","4","3","2","3","4","4","4","4","4","5","5","4","6","4","8","8","4","6","4","4","5","3","4","5","4","3","4","2","5","5","4","5","4","4","3","5","3","4","3","3","5","5","4","3","4","6","7","3","4","4","4","4","3","5","3","4","718754642447564800","贾","Male","[""好他"",""坏他"",""好我"",""坏我""]","[""强他"",""弱他"",""强我"",""弱我""]","","","","","","","","null","","","","","","","","","","key","null","24.621193181818274","960","536","j","false","nonmatch","img/diamond.png","强他","弱他","prac_ALT2_ability","practice_ability","","","","","","","",""
"null","<span class='add_' style='color:yellow; font-size: 70px;'> 太慢! </span>","null","html-keyboard-response","13","258316","0.0-8.0-1.0-1.0-0.0-1.1","3","3","3","5","3","4","4","3","3","3","5","-2","1","0","0","-1","-1","-1","0","4","4","5","4","3","2","3","4","4","4","4","4","5","5","4","6","4","8","8","4","6","4","4","5","3","4","5","4","3","4","2","5","5","4","5","4","4","3","5","3","4","3","3","5","5","4","3","4","6","7","3","4","4","4","4","3","5","3","4","718754642447564800","贾","Male","[""好他"",""坏他"",""好我"",""坏我""]","[""强他"",""弱他"",""强我"",""弱我""]","","","","","","","","","","","","","","","","","","","","","","","","","","","","","","feedback_test","","","","","","","",""
"871","","f","psychophysics","14","260194","0.0-8.0-1.0-1.0-0.0-0.2","3","3","3","5","3","4","4","3","3","3","5","-2","1","0","0","-1","-1","-1","0","4","4","5","4","3","2","3","4","4","4","4","4","5","5","4","6","4","8","8","4","6","4","4","5","3","4","5","4","3","4","2","5","5","4","5","4","4","3","5","3","4","3","3","5","5","4","3","4","6","7","3","4","4","4","4","3","5","3","4","718754642447564800","贾","Male","[""好他"",""坏他"",""好我"",""坏我""]","[""强他"",""弱他"",""强我"",""弱我""]","","","","","","","","match","","","","","","","","","","key","f","24.12103947368412","960","536","f","true","match","img/ellipse.png","强我","强我","prac_ALT2_ability","practice_ability","","","","","","","",""
"null","<span style='color:GreenYellow; font-size: 70px;'>正确! </span>","null","html-keyboard-response","15","260696","0.0-8.0-1.0-1.0-0.0-1.2","3","3","3","5","3","4","4","3","3","3","5","-2","1","0","0","-1","-1","-1","0","4","4","5","4","3","2","3","4","4","4","4","4","5","5","4","6","4","8","8","4","6","4","4","5","3","4","5","4","3","4","2","5","5","4","5","4","4","3","5","3","4","3","3","5","5","4","3","4","6","7","3","4","4","4","4","3","5","3","4","718754642447564800","贾","Male","[""好他"",""坏他"",""好我"",""坏我""]","[""强他"",""弱他"",""强我"",""弱我""]","","","","","","","","","","","","","","","","","","","","","","","","","","","","","","feedback_test","","","","","","","",""
"911","","f","psychophysics","16","262610","0.0-8.0-1.0-1.0-0.0-0.3","3","3","3","5","3","4","4","3","3","3","5","-2","1","0","0","-1","-1","-1","0","4","4","5","4","3","2","3","4","4","4","4","4","5","5","4","6","4","8","8","4","6","4","4","5","3","4","5","4","3","4","2","5","5","4","5","4","4","3","5","3","4","3","3","5","5","4","3","4","6","7","3","4","4","4","4","3","5","3","4","718754642447564800","贾","Male","[""好他"",""坏他"",""好我"",""坏我""]","[""强他"",""弱他"",""强我"",""弱我""]","","","","","","","","match","","","","","","","","","","key","f","24.14515384615366","960","536","f","true","match","img/triangle.png","强他","强他","prac_ALT2_ability","practice_ability","","","","","","","",""
"null","<span style='color:GreenYellow; font-size: 70px;'>正确! </span>","null","html-keyboard-response","17","263111","0.0-8.0-1.0-1.0-0.0-1.3","3","3","3","5","3","4","4","3","3","3","5","-2","1","0","0","-1","-1","-1","0","4","4","5","4","3","2","3","4","4","4","4","4","5","5","4","6","4","8","8","4","6","4","4","5","3","4","5","4","3","4","2","5","5","4","5","4","4","3","5","3","4","3","3","5","5","4","3","4","6","7","3","4","4","4","4","3","5","3","4","718754642447564800","贾","Male","[""好他"",""坏他"",""好我"",""坏我""]","[""强他"",""弱他"",""强我"",""弱我""]","","","","","","","","","","","","","","","","","","","","","","","","","","","","","","feedback_test","","","","","","","",""
"1053","","j","psychophysics","18","265167","0.0-8.0-1.0-1.0-0.0-0.4","3","3","3","5","3","4","4","3","3","3","5","-2","1","0","0","-1","-1","-1","0","4","4","5","4","3","2","3","4","4","4","4","4","5","5","4","6","4","8","8","4","6","4","4","5","3","4","5","4","3","4","2","5","5","4","5","4","4","3","5","3","4","3","3","5","5","4","3","4","6","7","3","4","4","4","4","3","5","3","4","718754642447564800","贾","Male","[""好他"",""坏他"",""好我"",""坏我""]","[""强他"",""弱他"",""强我"",""弱我""]","","","","","","","","nonmatch","","","","","","","","","","key","j","24.999375000000146","960","536","f","false","match","img/triangle.png","强他","强他","prac_ALT2_ability","practice_ability","","","","","","","",""
"null","<span style='color:red; font-size: 70px;'>错误! </span>","null","html-keyboard-response","19","265678","0.0-8.0-1.0-1.0-0.0-1.4","3","3","3","5","3","4","4","3","3","3","5","-2","1","0","0","-1","-1","-1","0","4","4","5","4","3","2","3","4","4","4","4","4","5","5","4","6","4","8","8","4","6","4","4","5","3","4","5","4","3","4","2","5","5","4","5","4","4","3","5","3","4","3","3","5","5","4","3","4","6","7","3","4","4","4","4","3","5","3","4","718754642447564800","贾","Male","[""好他"",""坏他"",""好我"",""坏我""]","[""强他"",""弱他"",""强我"",""弱我""]","","","","","","","","","","","","","","","","","","","","","","","","","","","","","","feedback_test","","","","","","","",""
"1165","","j","psychophysics","20","267846","0.0-8.0-1.0-1.0-0.0-0.5","3","3","3","5","3","4","4","3","3","3","5","-2","1","0","0","-1","-1","-1","0","4","4","5","4","3","2","3","4","4","4","4","4","5","5","4","6","4","8","8","4","6","4","4","5","3","4","5","4","3","4","2","5","5","4","5","4","4","3","5","3","4","3","3","5","5","4","3","4","6","7","3","4","4","4","4","3","5","3","4","718754642447564800","贾","Male","[""好他"",""坏他"",""好我"",""坏我""]","[""强他"",""弱他"",""强我"",""弱我""]","","","","","","","","nonmatch","","","","","","","","","","key","j","24.328551724137625","960","536","j","true","nonmatch","img/ellipse.png","强他","强我","prac_ALT2_ability","practice_ability","","","","","","","",""
"null","<span style='color:GreenYellow; font-size: 70px;'>正确! </span>","null","html-keyboard-response","21","268347","0.0-8.0-1.0-1.0-0.0-1.5","3","3","3","5","3","4","4","3","3","3","5","-2","1","0","0","-1","-1","-1","0","4","4","5","4","3","2","3","4","4","4","4","4","5","5","4","6","4","8","8","4","6","4","4","5","3","4","5","4","3","4","2","5","5","4","5","4","4","3","5","3","4","3","3","5","5","4","3","4","6","7","3","4","4","4","4","3","5","3","4","718754642447564800","贾","Male","[""好他"",""坏他"",""好我"",""坏我""]","[""强他"",""弱他"",""强我"",""弱我""]","","","","","","","","","","","","","","","","","","","","","","","","","","","","","","feedback_test","","","","","","","",""
"null","","null","psychophysics","22","270563","0.0-8.0-1.0-1.0-0.0-0.6","3","3","3","5","3","4","4","3","3","3","5","-2","1","0","0","-1","-1","-1","0","4","4","5","4","3","2","3","4","4","4","4","4","5","5","4","6","4","8","8","4","6","4","4","5","3","4","5","4","3","4","2","5","5","4","5","4","4","3","5","3","4","3","3","5","5","4","3","4","6","7","3","4","4","4","4","3","5","3","4","718754642447564800","贾","Male","[""好他"",""坏他"",""好我"",""坏我""]","[""强他"",""弱他"",""强我"",""弱我""]","","","","","","","","null","","","","","","","","","","key","null","24.717966292135213","960","536","j","false","nonmatch","img/pentagon.png","强我","弱我","prac_ALT2_ability","practice_ability","","","","","","","",""
"null","<span class='add_' style='color:yellow; font-size: 70px;'> 太慢! </span>","null","html-keyboard-response","23","271065","0.0-8.0-1.0-1.0-0.0-1.6","3","3","3","5","3","4","4","3","3","3","5","-2","1","0","0","-1","-1","-1","0","4","4","5","4","3","2","3","4","4","4","4","4","5","5","4","6","4","8","8","4","6","4","4","5","3","4","5","4","3","4","2","5","5","4","5","4","4","3","5","3","4","3","3","5","5","4","3","4","6","7","3","4","4","4","4","3","5","3","4","718754642447564800","贾","Male","[""好他"",""坏他"",""好我"",""坏我""]","[""强他"",""弱他"",""强我"",""弱我""]","","","","","","","","","","","","","","","","","","","","","","","","","","","","","","feedback_test","","","","","","","",""
"972","","j","psychophysics","24","273053","0.0-8.0-1.0-1.0-0.0-0.7","3","3","3","5","3","4","4","3","3","3","5","-2","1","0","0","-1","-1","-1","0","4","4","5","4","3","2","3","4","4","4","4","4","5","5","4","6","4","8","8","4","6","4","4","5","3","4","5","4","3","4","2","5","5","4","5","4","4","3","5","3","4","3","3","5","5","4","3","4","6","7","3","4","4","4","4","3","5","3","4","718754642447564800","贾","Male","[""好他"",""坏他"",""好我"",""坏我""]","[""强他"",""弱他"",""强我"",""弱我""]","","","","","","","","nonmatch","","","","","","","","","","key","j","24.073320987654483","960","536","j","true","nonmatch","img/diamond.png","弱我","弱他","prac_ALT2_ability","practice_ability","","","","","","","",""
"null","<span style='color:GreenYellow; font-size: 70px;'>正确! </span>","null","html-keyboard-response","25","273556","0.0-8.0-1.0-1.0-0.0-1.7","3","3","3","5","3","4","4","3","3","3","5","-2","1","0","0","-1","-1","-1","0","4","4","5","4","3","2","3","4","4","4","4","4","5","5","4","6","4","8","8","4","6","4","4","5","3","4","5","4","3","4","2","5","5","4","5","4","4","3","5","3","4","3","3","5","5","4","3","4","6","7","3","4","4","4","4","3","5","3","4","718754642447564800","贾","Male","[""好他"",""坏他"",""好我"",""坏我""]","[""强他"",""弱他"",""强我"",""弱我""]","","","","","","","","","","","","","","","","","","","","","","","","","","","","","","feedback_test","","","","","","","",""
"802","","f","psychophysics","26","275360","0.0-8.0-1.0-1.0-0.0-0.8","3","3","3","5","3","4","4","3","3","3","5","-2","1","0","0","-1","-1","-1","0","4","4","5","4","3","2","3","4","4","4","4","4","5","5","4","6","4","8","8","4","6","4","4","5","3","4","5","4","3","4","2","5","5","4","5","4","4","3","5","3","4","3","3","5","5","4","3","4","6","7","3","4","4","4","4","3","5","3","4","718754642447564800","贾","Male","[""好他"",""坏他"",""好我"",""坏我""]","[""强他"",""弱他"",""强我"",""弱我""]","","","","","","","","match","","","","","","","","","","key","f","25.235799999999912","960","536","f","true","match","img/pentagon.png","弱我","弱我","prac_ALT2_ability","practice_ability","","","","","","","",""
"null","<span style='color:GreenYellow; font-size: 70px;'>正确! </span>","null","html-keyboard-response","27","275863","0.0-8.0-1.0-1.0-0.0-1.8","3","3","3","5","3","4","4","3","3","3","5","-2","1","0","0","-1","-1","-1","0","4","4","5","4","3","2","3","4","4","4","4","4","5","5","4","6","4","8","8","4","6","4","4","5","3","4","5","4","3","4","2","5","5","4","5","4","4","3","5","3","4","3","3","5","5","4","3","4","6","7","3","4","4","4","4","3","5","3","4","718754642447564800","贾","Male","[""好他"",""坏他"",""好我"",""坏我""]","[""强他"",""弱他"",""强我"",""弱我""]","","","","","","","","","","","","","","","","","","","","","","","","","","","","","","feedback_test","","","","","","","",""
"926","","f","psychophysics","28","277797","0.0-8.0-1.0-1.0-0.0-0.9","3","3","3","5","3","4","4","3","3","3","5","-2","1","0","0","-1","-1","-1","0","4","4","5","4","3","2","3","4","4","4","4","4","5","5","4","6","4","8","8","4","6","4","4","5","3","4","5","4","3","4","2","5","5","4","5","4","4","3","5","3","4","3","3","5","5","4","3","4","6","7","3","4","4","4","4","3","5","3","4","718754642447564800","贾","Male","[""好他"",""坏他"",""好我"",""坏我""]","[""强他"",""弱他"",""强我"",""弱我""]","","","","","","","","match","","","","","","","","","","key","f","24.673766233766294","960","536","f","true","match","img/triangle.png","强他","强他","prac_ALT2_ability","practice_ability","","","","","","","",""
"null","<span style='color:GreenYellow; font-size: 70px;'>正确! </span>","null","html-keyboard-response","29","278300","0.0-8.0-1.0-1.0-0.0-1.9","3","3","3","5","3","4","4","3","3","3","5","-2","1","0","0","-1","-1","-1","0","4","4","5","4","3","2","3","4","4","4","4","4","5","5","4","6","4","8","8","4","6","4","4","5","3","4","5","4","3","4","2","5","5","4","5","4","4","3","5","3","4","3","3","5","5","4","3","4","6","7","3","4","4","4","4","3","5","3","4","718754642447564800","贾","Male","[""好他"",""坏他"",""好我"",""坏我""]","[""强他"",""弱他"",""强我"",""弱我""]","","","","","","","","","","","","","","","","","","","","","","","","","","","","","","feedback_test","","","","","","","",""
"1054","","j","psychophysics","30","280356","0.0-8.0-1.0-1.0-0.0-0.10","3","3","3","5","3","4","4","3","3","3","5","-2","1","0","0","-1","-1","-1","0","4","4","5","4","3","2","3","4","4","4","4","4","5","5","4","6","4","8","8","4","6","4","4","5","3","4","5","4","3","4","2","5","5","4","5","4","4","3","5","3","4","3","3","5","5","4","3","4","6","7","3","4","4","4","4","3","5","3","4","718754642447564800","贾","Male","[""好他"",""坏他"",""好我"",""坏我""]","[""强他"",""弱他"",""强我"",""弱我""]","","","","","","","","nonmatch","","","","","","","","","","key","j","25.206587500000023","960","536","f","false","match","img/diamond.png","弱他","弱他","prac_ALT2_ability","practice_ability","","","","","","","",""
"null","<span style='color:red; font-size: 70px;'>错误! </span>","null","html-keyboard-response","31","280857","0.0-8.0-1.0-1.0-0.0-1.10","3","3","3","5","3","4","4","3","3","3","5","-2","1","0","0","-1","-1","-1","0","4","4","5","4","3","2","3","4","4","4","4","4","5","5","4","6","4","8","8","4","6","4","4","5","3","4","5","4","3","4","2","5","5","4","5","4","4","3","5","3","4","3","3","5","5","4","3","4","6","7","3","4","4","4","4","3","5","3","4","718754642447564800","贾","Male","[""好他"",""坏他"",""好我"",""坏我""]","[""强他"",""弱他"",""强我"",""弱我""]","","","","","","","","","","","","","","","","","","","","","","","","","","","","","","feedback_test","","","","","","","",""
"912","","j","psychophysics","32","282781","0.0-8.0-1.0-1.0-0.0-0.11","3","3","3","5","3","4","4","3","3","3","5","-2","1","0","0","-1","-1","-1","0","4","4","5","4","3","2","3","4","4","4","4","4","5","5","4","6","4","8","8","4","6","4","4","5","3","4","5","4","3","4","2","5","5","4","5","4","4","3","5","3","4","3","3","5","5","4","3","4","6","7","3","4","4","4","4","3","5","3","4","718754642447564800","贾","Male","[""好他"",""坏他"",""好我"",""坏我""]","[""强他"",""弱他"",""强我"",""弱我""]","","","","","","","","nonmatch","","","","","","","","","","key","j","24.92952631578986","960","536","j","true","nonmatch","img/ellipse.png","弱我","强我","prac_ALT2_ability","practice_ability","","","","","","","",""
"null","<span style='color:GreenYellow; font-size: 70px;'>正确! </span>","null","html-keyboard-response","33","283283","0.0-8.0-1.0-1.0-0.0-1.11","3","3","3","5","3","4","4","3","3","3","5","-2","1","0","0","-1","-1","-1","0","4","4","5","4","3","2","3","4","4","4","4","4","5","5","4","6","4","8","8","4","6","4","4","5","3","4","5","4","3","4","2","5","5","4","5","4","4","3","5","3","4","3","3","5","5","4","3","4","6","7","3","4","4","4","4","3","5","3","4","718754642447564800","贾","Male","[""好他"",""坏他"",""好我"",""坏我""]","[""强他"",""弱他"",""强我"",""弱我""]","","","","","","","","","","","","","","","","","","","","","","","","","","","","","","feedback_test","","","","","","","",""
"862","","j","psychophysics","34","285166","0.0-8.0-1.0-1.0-0.0-0.12","3","3","3","5","3","4","4","3","3","3","5","-2","1","0","0","-1","-1","-1","0","4","4","5","4","3","2","3","4","4","4","4","4","5","5","4","6","4","8","8","4","6","4","4","5","3","4","5","4","3","4","2","5","5","4","5","4","4","3","5","3","4","3","3","5","5","4","3","4","6","7","3","4","4","4","4","3","5","3","4","718754642447564800","贾","Male","[""好他"",""坏他"",""好我"",""坏我""]","[""强他"",""弱他"",""强我"",""弱我""]","","","","","","","","nonmatch","","","","","","","","","","key","j","24.122907894736272","960","536","f","false","match","img/pentagon.png","弱我","弱我","prac_ALT2_ability","practice_ability","","","","","","","",""
"null","<span style='color:red; font-size: 70px;'>错误! </span>","null","html-keyboard-response","35","285670","0.0-8.0-1.0-1.0-0.0-1.12","3","3","3","5","3","4","4","3","3","3","5","-2","1","0","0","-1","-1","-1","0","4","4","5","4","3","2","3","4","4","4","4","4","5","5","4","6","4","8","8","4","6","4","4","5","3","4","5","4","3","4","2","5","5","4","5","4","4","3","5","3","4","3","3","5","5","4","3","4","6","7","3","4","4","4","4","3","5","3","4","718754642447564800","贾","Male","[""好他"",""坏他"",""好我"",""坏我""]","[""强他"",""弱他"",""强我"",""弱我""]","","","","","","","","","","","","","","","","","","","","","","","","","","","","","","feedback_test","","","","","","","",""
"821","","j","psychophysics","36","287494","0.0-8.0-1.0-1.0-0.0-0.13","3","3","3","5","3","4","4","3","3","3","5","-2","1","0","0","-1","-1","-1","0","4","4","5","4","3","2","3","4","4","4","4","4","5","5","4","6","4","8","8","4","6","4","4","5","3","4","5","4","3","4","2","5","5","4","5","4","4","3","5","3","4","3","3","5","5","4","3","4","6","7","3","4","4","4","4","3","5","3","4","718754642447564800","贾","Male","[""好他"",""坏他"",""好我"",""坏我""]","[""强他"",""弱他"",""强我"",""弱我""]","","","","","","","","nonmatch","","","","","","","","","","key","j","25.116619718310254","960","536","f","false","match","img/pentagon.png","弱我","弱我","prac_ALT2_ability","practice_ability","","","","","","","",""
"null","<span style='color:red; font-size: 70px;'>错误! </span>","null","html-keyboard-response","37","287996","0.0-8.0-1.0-1.0-0.0-1.13","3","3","3","5","3","4","4","3","3","3","5","-2","1","0","0","-1","-1","-1","0","4","4","5","4","3","2","3","4","4","4","4","4","5","5","4","6","4","8","8","4","6","4","4","5","3","4","5","4","3","4","2","5","5","4","5","4","4","3","5","3","4","3","3","5","5","4","3","4","6","7","3","4","4","4","4","3","5","3","4","718754642447564800","贾","Male","[""好他"",""坏他"",""好我"",""坏我""]","[""强他"",""弱他"",""强我"",""弱我""]","","","","","","","","","","","","","","","","","","","","","","","","","","","","","","feedback_test","","","","","","","",""
"966","","j","psychophysics","38","289963","0.0-8.0-1.0-1.0-0.0-0.14","3","3","3","5","3","4","4","3","3","3","5","-2","1","0","0","-1","-1","-1","0","4","4","5","4","3","2","3","4","4","4","4","4","5","5","4","6","4","8","8","4","6","4","4","5","3","4","5","4","3","4","2","5","5","4","5","4","4","3","5","3","4","3","3","5","5","4","3","4","6","7","3","4","4","4","4","3","5","3","4","718754642447564800","贾","Male","[""好他"",""坏他"",""好我"",""坏我""]","[""强他"",""弱他"",""强我"",""弱我""]","","","","","","","","nonmatch","","","","","","","","","","key","j","24.16666250000053","960","536","j","true","nonmatch","img/ellipse.png","弱他","强我","prac_ALT2_ability","practice_ability","","","","","","","",""
"null","<span style='color:GreenYellow; font-size: 70px;'>正确! </span>","null","html-keyboard-response","39","290464","0.0-8.0-1.0-1.0-0.0-1.14","3","3","3","5","3","4","4","3","3","3","5","-2","1","0","0","-1","-1","-1","0","4","4","5","4","3","2","3","4","4","4","4","4","5","5","4","6","4","8","8","4","6","4","4","5","3","4","5","4","3","4","2","5","5","4","5","4","4","3","5","3","4","3","3","5","5","4","3","4","6","7","3","4","4","4","4","3","5","3","4","718754642447564800","贾","Male","[""好他"",""坏他"",""好我"",""坏我""]","[""强他"",""弱他"",""强我"",""弱我""]","","","","","","","","","","","","","","","","","","","","","","","","","","","","","","feedback_test","","","","","","","",""
"753","","f","psychophysics","40","292227","0.0-8.0-1.0-1.0-0.0-0.15","3","3","3","5","3","4","4","3","3","3","5","-2","1","0","0","-1","-1","-1","0","4","4","5","4","3","2","3","4","4","4","4","4","5","5","4","6","4","8","8","4","6","4","4","5","3","4","5","4","3","4","2","5","5","4","5","4","4","3","5","3","4","3","3","5","5","4","3","4","6","7","3","4","4","4","4","3","5","3","4","718754642447564800","贾","Male","[""好他"",""坏他"",""好我"",""坏我""]","[""强他"",""弱他"",""强我"",""弱我""]","","","","","","","","match","","","","","","","","","","key","f","24.879318840579852","960","536","f","true","match","img/ellipse.png","强我","强我","prac_ALT2_ability","practice_ability","","","","","","","",""
"null","<span style='color:GreenYellow; font-size: 70px;'>正确! </span>","null","html-keyboard-response","41","292730","0.0-8.0-1.0-1.0-0.0-1.15","3","3","3","5","3","4","4","3","3","3","5","-2","1","0","0","-1","-1","-1","0","4","4","5","4","3","2","3","4","4","4","4","4","5","5","4","6","4","8","8","4","6","4","4","5","3","4","5","4","3","4","2","5","5","4","5","4","4","3","5","3","4","3","3","5","5","4","3","4","6","7","3","4","4","4","4","3","5","3","4","718754642447564800","贾","Male","[""好他"",""坏他"",""好我"",""坏我""]","[""强他"",""弱他"",""强我"",""弱我""]","","","","","","","","","","","","","","","","","","","","","","","","","","","","","","feedback_test","","","","","","","",""
"1052","","f","psychophysics","42","294791","0.0-8.0-1.0-1.0-0.0-0.16","3","3","3","5","3","4","4","3","3","3","5","-2","1","0","0","-1","-1","-1","0","4","4","5","4","3","2","3","4","4","4","4","4","5","5","4","6","4","8","8","4","6","4","4","5","3","4","5","4","3","4","2","5","5","4","5","4","4","3","5","3","4","3","3","5","5","4","3","4","6","7","3","4","4","4","4","3","5","3","4","718754642447564800","贾","Male","[""好他"",""坏他"",""好我"",""坏我""]","[""强他"",""弱他"",""强我"",""弱我""]","","","","","","","","match","","","","","","","","","","key","f","24.794731707317137","960","536","j","false","nonmatch","img/pentagon.png","强他","弱我","prac_ALT2_ability","practice_ability","","","","","","","",""
"null","<span style='color:red; font-size: 70px;'>错误! </span>","null","html-keyboard-response","43","295292","0.0-8.0-1.0-1.0-0.0-1.16","3","3","3","5","3","4","4","3","3","3","5","-2","1","0","0","-1","-1","-1","0","4","4","5","4","3","2","3","4","4","4","4","4","5","5","4","6","4","8","8","4","6","4","4","5","3","4","5","4","3","4","2","5","5","4","5","4","4","3","5","3","4","3","3","5","5","4","3","4","6","7","3","4","4","4","4","3","5","3","4","718754642447564800","贾","Male","[""好他"",""坏他"",""好我"",""坏我""]","[""强他"",""弱他"",""强我"",""弱我""]","","","","","","","","","","","","","","","","","","","","","","","","","","","","","","feedback_test","","","","","","","",""
"972","","j","psychophysics","44","297275","0.0-8.0-1.0-1.0-0.0-0.17","3","3","3","5","3","4","4","3","3","3","5","-2","1","0","0","-1","-1","-1","0","4","4","5","4","3","2","3","4","4","4","4","4","5","5","4","6","4","8","8","4","6","4","4","5","3","4","5","4","3","4","2","5","5","4","5","4","4","3","5","3","4","3","3","5","5","4","3","4","6","7","3","4","4","4","4","3","5","3","4","718754642447564800","贾","Male","[""好他"",""坏他"",""好我"",""坏我""]","[""强他"",""弱他"",""强我"",""弱我""]","","","","","","","","nonmatch","","","","","","","","","","key","j","24.47229113924034","960","536","j","true","nonmatch","img/triangle.png","弱他","强他","prac_ALT2_ability","practice_ability","","","","","","","",""
"null","<span style='color:GreenYellow; font-size: 70px;'>正确! </span>","null","html-keyboard-response","45","297790","0.0-8.0-1.0-1.0-0.0-1.17","3","3","3","5","3","4","4","3","3","3","5","-2","1","0","0","-1","-1","-1","0","4","4","5","4","3","2","3","4","4","4","4","4","5","5","4","6","4","8","8","4","6","4","4","5","3","4","5","4","3","4","2","5","5","4","5","4","4","3","5","3","4","3","3","5","5","4","3","4","6","7","3","4","4","4","4","3","5","3","4","718754642447564800","贾","Male","[""好他"",""坏他"",""好我"",""坏我""]","[""强他"",""弱他"",""强我"",""弱我""]","","","","","","","","","","","","","","","","","","","","","","","","","","","","","","feedback_test","","","","","","","",""
"1101","","j","psychophysics","46","299894","0.0-8.0-1.0-1.0-0.0-0.18","3","3","3","5","3","4","4","3","3","3","5","-2","1","0","0","-1","-1","-1","0","4","4","5","4","3","2","3","4","4","4","4","4","5","5","4","6","4","8","8","4","6","4","4","5","3","4","5","4","3","4","2","5","5","4","5","4","4","3","5","3","4","3","3","5","5","4","3","4","6","7","3","4","4","4","4","3","5","3","4","718754642447564800","贾","Male","[""好他"",""坏他"",""好我"",""坏我""]","[""强他"",""弱他"",""强我"",""弱我""]","","","","","","","","nonmatch","","","","","","","","","","key","j","24.030953488371548","960","536","j","true","nonmatch","img/triangle.png","强我","强他","prac_ALT2_ability","practice_ability","","","","","","","",""
"null","<span style='color:GreenYellow; font-size: 70px;'>正确! </span>","null","html-keyboard-response","47","300395","0.0-8.0-1.0-1.0-0.0-1.18","3","3","3","5","3","4","4","3","3","3","5","-2","1","0","0","-1","-1","-1","0","4","4","5","4","3","2","3","4","4","4","4","4","5","5","4","6","4","8","8","4","6","4","4","5","3","4","5","4","3","4","2","5","5","4","5","4","4","3","5","3","4","3","3","5","5","4","3","4","6","7","3","4","4","4","4","3","5","3","4","718754642447564800","贾","Male","[""好他"",""坏他"",""好我"",""坏我""]","[""强他"",""弱他"",""强我"",""弱我""]","","","","","","","","","","","","","","","","","","","","","","","","","","","","","","feedback_test","","","","","","","",""
"null","","null","psychophysics","48","302628","0.0-8.0-1.0-1.0-0.0-0.19","3","3","3","5","3","4","4","3","3","3","5","-2","1","0","0","-1","-1","-1","0","4","4","5","4","3","2","3","4","4","4","4","4","5","5","4","6","4","8","8","4","6","4","4","5","3","4","5","4","3","4","2","5","5","4","5","4","4","3","5","3","4","3","3","5","5","4","3","4","6","7","3","4","4","4","4","3","5","3","4","718754642447564800","贾","Male","[""好他"",""坏他"",""好我"",""坏我""]","[""强他"",""弱他"",""强我"",""弱我""]","","","","","","","","null","","","","","","","","","","key","null","24.718224719101354","960","536","j","false","nonmatch","img/diamond.png","强我","弱他","prac_ALT2_ability","practice_ability","","","","","","","",""
"null","<span class='add_' style='color:yellow; font-size: 70px;'> 太慢! </span>","null","html-keyboard-response","49","303131","0.0-8.0-1.0-1.0-0.0-1.19","3","3","3","5","3","4","4","3","3","3","5","-2","1","0","0","-1","-1","-1","0","4","4","5","4","3","2","3","4","4","4","4","4","5","5","4","6","4","8","8","4","6","4","4","5","3","4","5","4","3","4","2","5","5","4","5","4","4","3","5","3","4","3","3","5","5","4","3","4","6","7","3","4","4","4","4","3","5","3","4","718754642447564800","贾","Male","[""好他"",""坏他"",""好我"",""坏我""]","[""强他"",""弱他"",""强我"",""弱我""]","","","","","","","","","","","","","","","","","","","","","","","","","","","","","","feedback_test","","","","","","","",""
"856","","f","psychophysics","50","304998","0.0-8.0-1.0-1.0-0.0-0.20","3","3","3","5","3","4","4","3","3","3","5","-2","1","0","0","-1","-1","-1","0","4","4","5","4","3","2","3","4","4","4","4","4","5","5","4","6","4","8","8","4","6","4","4","5","3","4","5","4","3","4","2","5","5","4","5","4","4","3","5","3","4","3","3","5","5","4","3","4","6","7","3","4","4","4","4","3","5","3","4","718754642447564800","贾","Male","[""好他"",""坏他"",""好我"",""坏我""]","[""强他"",""弱他"",""强我"",""弱我""]","","","","","","","","match","","","","","","","","","","key","f","24.88327397260263","960","536","f","true","match","img/ellipse.png","强我","强我","prac_ALT2_ability","practice_ability","","","","","","","",""
"null","<span style='color:GreenYellow; font-size: 70px;'>正确! </span>","null","html-keyboard-response","51","305501","0.0-8.0-1.0-1.0-0.0-1.20","3","3","3","5","3","4","4","3","3","3","5","-2","1","0","0","-1","-1","-1","0","4","4","5","4","3","2","3","4","4","4","4","4","5","5","4","6","4","8","8","4","6","4","4","5","3","4","5","4","3","4","2","5","5","4","5","4","4","3","5","3","4","3","3","5","5","4","3","4","6","7","3","4","4","4","4","3","5","3","4","718754642447564800","贾","Male","[""好他"",""坏他"",""好我"",""坏我""]","[""强他"",""弱他"",""强我"",""弱我""]","","","","","","","","","","","","","","","","","","","","","","","","","","","","","","feedback_test","","","","","","","",""
"1105","","f","psychophysics","52","307606","0.0-8.0-1.0-1.0-0.0-0.21","3","3","3","5","3","4","4","3","3","3","5","-2","1","0","0","-1","-1","-1","0","4","4","5","4","3","2","3","4","4","4","4","4","5","5","4","6","4","8","8","4","6","4","4","5","3","4","5","4","3","4","2","5","5","4","5","4","4","3","5","3","4","3","3","5","5","4","3","4","6","7","3","4","4","4","4","3","5","3","4","718754642447564800","贾","Male","[""好他"",""坏他"",""好我"",""坏我""]","[""强他"",""弱他"",""强我"",""弱我""]","","","","","","","","match","","","","","","","","","","key","f","25.202804878048838","960","536","j","false","nonmatch","img/triangle.png","弱我","强他","prac_ALT2_ability","practice_ability","","","","","","","",""
"null","<span style='color:red; font-size: 70px;'>错误! </span>","null","html-keyboard-response","53","308109","0.0-8.0-1.0-1.0-0.0-1.21","3","3","3","5","3","4","4","3","3","3","5","-2","1","0","0","-1","-1","-1","0","4","4","5","4","3","2","3","4","4","4","4","4","5","5","4","6","4","8","8","4","6","4","4","5","3","4","5","4","3","4","2","5","5","4","5","4","4","3","5","3","4","3","3","5","5","4","3","4","6","7","3","4","4","4","4","3","5","3","4","718754642447564800","贾","Male","[""好他"",""坏他"",""好我"",""坏我""]","[""强他"",""弱他"",""强我"",""弱我""]","","","","","","","","","","","","","","","","","","","","","","","","","","","","","","feedback_test","","","","","","","",""
"948","","j","psychophysics","54","310059","0.0-8.0-1.0-1.0-0.0-0.22","3","3","3","5","3","4","4","3","3","3","5","-2","1","0","0","-1","-1","-1","0","4","4","5","4","3","2","3","4","4","4","4","4","5","5","4","6","4","8","8","4","6","4","4","5","3","4","5","4","3","4","2","5","5","4","5","4","4","3","5","3","4","3","3","5","5","4","3","4","6","7","3","4","4","4","4","3","5","3","4","718754642447564800","贾","Male","[""好他"",""坏他"",""好我"",""坏我""]","[""强他"",""弱他"",""强我"",""弱我""]","","","","","","","","nonmatch","","","","","","","","","","key","j","24.890870129870244","960","536","f","false","match","img/diamond.png","弱他","弱他","prac_ALT2_ability","practice_ability","","","","","","","",""
"null","<span style='color:red; font-size: 70px;'>错误! </span>","null","html-keyboard-response","55","310560","0.0-8.0-1.0-1.0-0.0-1.22","3","3","3","5","3","4","4","3","3","3","5","-2","1","0","0","-1","-1","-1","0","4","4","5","4","3","2","3","4","4","4","4","4","5","5","4","6","4","8","8","4","6","4","4","5","3","4","5","4","3","4","2","5","5","4","5","4","4","3","5","3","4","3","3","5","5","4","3","4","6","7","3","4","4","4","4","3","5","3","4","718754642447564800","贾","Male","[""好他"",""坏他"",""好我"",""坏我""]","[""强他"",""弱他"",""强我"",""弱我""]","","","","","","","","","","","","","","","","","","","","","","","","","","","","","","feedback_test","","","","","","","",""
"773","","j","psychophysics","56","312345","0.0-8.0-1.0-1.0-0.0-0.23","3","3","3","5","3","4","4","3","3","3","5","-2","1","0","0","-1","-1","-1","0","4","4","5","4","3","2","3","4","4","4","4","4","5","5","4","6","4","8","8","4","6","4","4","5","3","4","5","4","3","4","2","5","5","4","5","4","4","3","5","3","4","3","3","5","5","4","3","4","6","7","3","4","4","4","4","3","5","3","4","718754642447564800","贾","Male","[""好他"",""坏他"",""好我"",""坏我""]","[""强他"",""弱他"",""强我"",""弱我""]","","","","","","","","nonmatch","","","","","","","","","","key","j","24.999514285714497","960","536","f","false","match","img/diamond.png","弱他","弱他","prac_ALT2_ability","practice_ability","","","","","","","",""
"null","<span style='color:red; font-size: 70px;'>错误! </span>","null","html-keyboard-response","57","312862","0.0-8.0-1.0-1.0-0.0-1.23","3","3","3","5","3","4","4","3","3","3","5","-2","1","0","0","-1","-1","-1","0","4","4","5","4","3","2","3","4","4","4","4","4","5","5","4","6","4","8","8","4","6","4","4","5","3","4","5","4","3","4","2","5","5","4","5","4","4","3","5","3","4","3","3","5","5","4","3","4","6","7","3","4","4","4","4","3","5","3","4","718754642447564800","贾","Male","[""好他"",""坏他"",""好我"",""坏我""]","[""强他"",""弱他"",""强我"",""弱我""]","","","","","","","","","","","","","","","","","","","","","","","","","","","","","","feedback_test","","","","","","","",""
"786","","j","psychophysics","58","314665","0.0-8.0-1.0-1.0-0.0-0.24","3","3","3","5","3","4","4","3","3","3","5","-2","1","0","0","-1","-1","-1","0","4","4","5","4","3","2","3","4","4","4","4","4","5","5","4","6","4","8","8","4","6","4","4","5","3","4","5","4","3","4","2","5","5","4","5","4","4","3","5","3","4","3","3","5","5","4","3","4","6","7","3","4","4","4","4","3","5","3","4","718754642447564800","贾","Male","[""好他"",""坏他"",""好我"",""坏我""]","[""强他"",""弱他"",""强我"",""弱我""]","","","","","","","","nonmatch","","","","","","","","","","key","j","24.20209589041052","960","536","f","false","match","img/pentagon.png","弱我","弱我","prac_ALT2_ability","practice_ability","","","","","","","",""
"null","<span style='color:red; font-size: 70px;'>错误! </span>","null","html-keyboard-response","59","315166","0.0-8.0-1.0-1.0-0.0-1.24","3","3","3","5","3","4","4","3","3","3","5","-2","1","0","0","-1","-1","-1","0","4","4","5","4","3","2","3","4","4","4","4","4","5","5","4","6","4","8","8","4","6","4","4","5","3","4","5","4","3","4","2","5","5","4","5","4","4","3","5","3","4","3","3","5","5","4","3","4","6","7","3","4","4","4","4","3","5","3","4","718754642447564800","贾","Male","[""好他"",""坏他"",""好我"",""坏我""]","[""强他"",""弱他"",""强我"",""弱我""]","","","","","","","","","","","","","","","","","","","","","","","","","","","","","","feedback_test","","","","","","","",""
"771","","f","psychophysics","60","316939","0.0-8.0-1.0-1.0-0.0-0.25","3","3","3","5","3","4","4","3","3","3","5","-2","1","0","0","-1","-1","-1","0","4","4","5","4","3","2","3","4","4","4","4","4","5","5","4","6","4","8","8","4","6","4","4","5","3","4","5","4","3","4","2","5","5","4","5","4","4","3","5","3","4","3","3","5","5","4","3","4","6","7","3","4","4","4","4","3","5","3","4","718754642447564800","贾","Male","[""好他"",""坏他"",""好我"",""坏我""]","[""强他"",""弱他"",""强我"",""弱我""]","","","","","","","","match","","","","","","","","","","key","f","24.073305555555432","960","536","f","true","match","img/ellipse.png","强我","强我","prac_ALT2_ability","practice_ability","","","","","","","",""
"null","<span style='color:GreenYellow; font-size: 70px;'>正确! </span>","null","html-keyboard-response","61","317441","0.0-8.0-1.0-1.0-0.0-1.25","3","3","3","5","3","4","4","3","3","3","5","-2","1","0","0","-1","-1","-1","0","4","4","5","4","3","2","3","4","4","4","4","4","5","5","4","6","4","8","8","4","6","4","4","5","3","4","5","4","3","4","2","5","5","4","5","4","4","3","5","3","4","3","3","5","5","4","3","4","6","7","3","4","4","4","4","3","5","3","4","718754642447564800","贾","Male","[""好他"",""坏他"",""好我"",""坏我""]","[""强他"",""弱他"",""强我"",""弱我""]","","","","","","","","","","","","","","","","","","","","","","","","","","","","","","feedback_test","","","","","","","",""
"1092","","j","psychophysics","62","319538","0.0-8.0-1.0-1.0-0.0-0.26","3","3","3","5","3","4","4","3","3","3","5","-2","1","0","0","-1","-1","-1","0","4","4","5","4","3","2","3","4","4","4","4","4","5","5","4","6","4","8","8","4","6","4","4","5","3","4","5","4","3","4","2","5","5","4","5","4","4","3","5","3","4","3","3","5","5","4","3","4","6","7","3","4","4","4","4","3","5","3","4","718754642447564800","贾","Male","[""好他"",""坏他"",""好我"",""坏我""]","[""强他"",""弱他"",""强我"",""弱我""]","","","","","","","","nonmatch","","","","","","","","","","key","j","24.898084337349015","960","536","j","true","nonmatch","img/triangle.png","强我","强他","prac_ALT2_ability","practice_ability","","","","","","","",""
"null","<span style='color:GreenYellow; font-size: 70px;'>正确! </span>","null","html-keyboard-response","63","320040","0.0-8.0-1.0-1.0-0.0-1.26","3","3","3","5","3","4","4","3","3","3","5","-2","1","0","0","-1","-1","-1","0","4","4","5","4","3","2","3","4","4","4","4","4","5","5","4","6","4","8","8","4","6","4","4","5","3","4","5","4","3","4","2","5","5","4","5","4","4","3","5","3","4","3","3","5","5","4","3","4","6","7","3","4","4","4","4","3","5","3","4","718754642447564800","贾","Male","[""好他"",""坏他"",""好我"",""坏我""]","[""强他"",""弱他"",""强我"",""弱我""]","","","","","","","","","","","","","","","","","","","","","","","","","","","","","","feedback_test","","","","","","","",""
"981","","j","psychophysics","64","322025","0.0-8.0-1.0-1.0-0.0-0.27","3","3","3","5","3","4","4","3","3","3","5","-2","1","0","0","-1","-1","-1","0","4","4","5","4","3","2","3","4","4","4","4","4","5","5","4","6","4","8","8","4","6","4","4","5","3","4","5","4","3","4","2","5","5","4","5","4","4","3","5","3","4","3","3","5","5","4","3","4","6","7","3","4","4","4","4","3","5","3","4","718754642447564800","贾","Male","[""好他"",""坏他"",""好我"",""坏我""]","[""强他"",""弱他"",""强我"",""弱我""]","","","","","","","","nonmatch","","","","","","","","","","key","j","24.374337499999818","960","536","j","true","nonmatch","img/ellipse.png","弱我","强我","prac_ALT2_ability","practice_ability","","","","","","","",""
"null","<span style='color:GreenYellow; font-size: 70px;'>正确! </span>","null","html-keyboard-response","65","322526","0.0-8.0-1.0-1.0-0.0-1.27","3","3","3","5","3","4","4","3","3","3","5","-2","1","0","0","-1","-1","-1","0","4","4","5","4","3","2","3","4","4","4","4","4","5","5","4","6","4","8","8","4","6","4","4","5","3","4","5","4","3","4","2","5","5","4","5","4","4","3","5","3","4","3","3","5","5","4","3","4","6","7","3","4","4","4","4","3","5","3","4","718754642447564800","贾","Male","[""好他"",""坏他"",""好我"",""坏我""]","[""强他"",""弱他"",""强我"",""弱我""]","","","","","","","","","","","","","","","","","","","","","","","","","","","","","","feedback_test","","","","","","","",""
"968","","j","psychophysics","66","324501","0.0-8.0-1.0-1.0-0.0-0.28","3","3","3","5","3","4","4","3","3","3","5","-2","1","0","0","-1","-1","-1","0","4","4","5","4","3","2","3","4","4","4","4","4","5","5","4","6","4","8","8","4","6","4","4","5","3","4","5","4","3","4","2","5","5","4","5","4","4","3","5","3","4","3","3","5","5","4","3","4","6","7","3","4","4","4","4","3","5","3","4","718754642447564800","贾","Male","[""好他"",""坏他"",""好我"",""坏我""]","[""强他"",""弱他"",""强我"",""弱我""]","","","","","","","","nonmatch","","","","","","","","","","key","j","25.656644736842473","960","536","j","true","nonmatch","img/pentagon.png","强他","弱我","prac_ALT2_ability","practice_ability","","","","","","","",""
"null","<span style='color:GreenYellow; font-size: 70px;'>正确! </span>","null","html-keyboard-response","67","325004","0.0-8.0-1.0-1.0-0.0-1.28","3","3","3","5","3","4","4","3","3","3","5","-2","1","0","0","-1","-1","-1","0","4","4","5","4","3","2","3","4","4","4","4","4","5","5","4","6","4","8","8","4","6","4","4","5","3","4","5","4","3","4","2","5","5","4","5","4","4","3","5","3","4","3","3","5","5","4","3","4","6","7","3","4","4","4","4","3","5","3","4","718754642447564800","贾","Male","[""好他"",""坏他"",""好我"",""坏我""]","[""强他"",""弱他"",""强我"",""弱我""]","","","","","","","","","","","","","","","","","","","","","","","","","","","","","","feedback_test","","","","","","","",""
"932","","j","psychophysics","68","326938","0.0-8.0-1.0-1.0-0.0-0.29","3","3","3","5","3","4","4","3","3","3","5","-2","1","0","0","-1","-1","-1","0","4","4","5","4","3","2","3","4","4","4","4","4","5","5","4","6","4","8","8","4","6","4","4","5","3","4","5","4","3","4","2","5","5","4","5","4","4","3","5","3","4","3","3","5","5","4","3","4","6","7","3","4","4","4","4","3","5","3","4","718754642447564800","贾","Male","[""好他"",""坏他"",""好我"",""坏我""]","[""强他"",""弱他"",""强我"",""弱我""]","","","","","","","","nonmatch","","","","","","","","","","key","j","24.999868421052508","960","536","j","true","nonmatch","img/ellipse.png","强他","强我","prac_ALT2_ability","practice_ability","","","","","","","",""
"null","<span style='color:GreenYellow; font-size: 70px;'>正确! </span>","null","html-keyboard-response","69","327441","0.0-8.0-1.0-1.0-0.0-1.29","3","3","3","5","3","4","4","3","3","3","5","-2","1","0","0","-1","-1","-1","0","4","4","5","4","3","2","3","4","4","4","4","4","5","5","4","6","4","8","8","4","6","4","4","5","3","4","5","4","3","4","2","5","5","4","5","4","4","3","5","3","4","3","3","5","5","4","3","4","6","7","3","4","4","4","4","3","5","3","4","718754642447564800","贾","Male","[""好他"",""坏他"",""好我"",""坏我""]","[""强他"",""弱他"",""强我"",""弱我""]","","","","","","","","","","","","","","","","","","","","","","","","","","","","","","feedback_test","","","","","","","",""
"945","","j","psychophysics","70","329396","0.0-8.0-1.0-1.0-0.0-0.30","3","3","3","5","3","4","4","3","3","3","5","-2","1","0","0","-1","-1","-1","0","4","4","5","4","3","2","3","4","4","4","4","4","5","5","4","6","4","8","8","4","6","4","4","5","3","4","5","4","3","4","2","5","5","4","5","4","4","3","5","3","4","3","3","5","5","4","3","4","6","7","3","4","4","4","4","3","5","3","4","718754642447564800","贾","Male","[""好他"",""坏他"",""好我"",""坏我""]","[""强他"",""弱他"",""强我"",""弱我""]","","","","","","","","nonmatch","","","","","","","","","","key","j","24.999118421052884","960","536","f","false","match","img/diamond.png","弱他","弱他","prac_ALT2_ability","practice_ability","","","","","","","",""
"null","<span style='color:red; font-size: 70px;'>错误! </span>","null","html-keyboard-response","71","329907","0.0-8.0-1.0-1.0-0.0-1.30","3","3","3","5","3","4","4","3","3","3","5","-2","1","0","0","-1","-1","-1","0","4","4","5","4","3","2","3","4","4","4","4","4","5","5","4","6","4","8","8","4","6","4","4","5","3","4","5","4","3","4","2","5","5","4","5","4","4","3","5","3","4","3","3","5","5","4","3","4","6","7","3","4","4","4","4","3","5","3","4","718754642447564800","贾","Male","[""好他"",""坏他"",""好我"",""坏我""]","[""强他"",""弱他"",""强我"",""弱我""]","","","","","","","","","","","","","","","","","","","","","","","","","","","","","","feedback_test","","","","","","","",""
"892","","f","psychophysics","72","331801","0.0-8.0-1.0-1.0-0.0-0.31","3","3","3","5","3","4","4","3","3","3","5","-2","1","0","0","-1","-1","-1","0","4","4","5","4","3","2","3","4","4","4","4","4","5","5","4","6","4","8","8","4","6","4","4","5","3","4","5","4","3","4","2","5","5","4","5","4","4","3","5","3","4","3","3","5","5","4","3","4","6","7","3","4","4","4","4","3","5","3","4","718754642447564800","贾","Male","[""好他"",""坏他"",""好我"",""坏我""]","[""强他"",""弱他"",""强我"",""弱我""]","","","","","","","","match","","","","","","","","","","key","f","24.81131999999983","960","536","f","true","match","img/ellipse.png","强我","强我","prac_ALT2_ability","practice_ability","","","","","","","",""
"null","<span style='color:GreenYellow; font-size: 70px;'>正确! </span>","null","html-keyboard-response","73","332303","0.0-8.0-1.0-1.0-0.0-1.31","3","3","3","5","3","4","4","3","3","3","5","-2","1","0","0","-1","-1","-1","0","4","4","5","4","3","2","3","4","4","4","4","4","5","5","4","6","4","8","8","4","6","4","4","5","3","4","5","4","3","4","2","5","5","4","5","4","4","3","5","3","4","3","3","5","5","4","3","4","6","7","3","4","4","4","4","3","5","3","4","718754642447564800","贾","Male","[""好他"",""坏他"",""好我"",""坏我""]","[""强他"",""弱他"",""强我"",""弱我""]","","","","","","","","","","","","","","","","","","","","","","","","","","","","","","feedback_test","","","","","","","",""
"959","","j","psychophysics","74","334270","0.0-8.0-1.0-1.0-0.0-0.32","3","3","3","5","3","4","4","3","3","3","5","-2","1","0","0","-1","-1","-1","0","4","4","5","4","3","2","3","4","4","4","4","4","5","5","4","6","4","8","8","4","6","4","4","5","3","4","5","4","3","4","2","5","5","4","5","4","4","3","5","3","4","3","3","5","5","4","3","4","6","7","3","4","4","4","4","3","5","3","4","718754642447564800","贾","Male","[""好他"",""坏他"",""好我"",""坏我""]","[""强他"",""弱他"",""强我"",""弱我""]","","","","","","","","nonmatch","","","","","","","","","","key","j","24.473265822784523","960","536","f","false","match","img/triangle.png","强他","强他","prac_ALT2_ability","practice_ability","","","","","","","",""
"null","<span style='color:red; font-size: 70px;'>错误! </span>","null","html-keyboard-response","75","334772","0.0-8.0-1.0-1.0-0.0-1.32","3","3","3","5","3","4","4","3","3","3","5","-2","1","0","0","-1","-1","-1","0","4","4","5","4","3","2","3","4","4","4","4","4","5","5","4","6","4","8","8","4","6","4","4","5","3","4","5","4","3","4","2","5","5","4","5","4","4","3","5","3","4","3","3","5","5","4","3","4","6","7","3","4","4","4","4","3","5","3","4","718754642447564800","贾","Male","[""好他"",""坏他"",""好我"",""坏我""]","[""强他"",""弱他"",""强我"",""弱我""]","","","","","","","","","","","","","","","","","","","","","","","","","","","","","","feedback_test","","","","","","","",""
"955","","j","psychophysics","76","336743","0.0-8.0-1.0-1.0-0.0-0.33","3","3","3","5","3","4","4","3","3","3","5","-2","1","0","0","-1","-1","-1","0","4","4","5","4","3","2","3","4","4","4","4","4","5","5","4","6","4","8","8","4","6","4","4","5","3","4","5","4","3","4","2","5","5","4","5","4","4","3","5","3","4","3","3","5","5","4","3","4","6","7","3","4","4","4","4","3","5","3","4","718754642447564800","贾","Male","[""好他"",""坏他"",""好我"",""坏我""]","[""强他"",""弱他"",""强我"",""弱我""]","","","","","","","","nonmatch","","","","","","","","","","key","j","24.074987654320545","960","536","f","false","match","img/diamond.png","弱他","弱他","prac_ALT2_ability","practice_ability","","","","","","","",""
"null","<span style='color:red; font-size: 70px;'>错误! </span>","null","html-keyboard-response","77","337245","0.0-8.0-1.0-1.0-0.0-1.33","3","3","3","5","3","4","4","3","3","3","5","-2","1","0","0","-1","-1","-1","0","4","4","5","4","3","2","3","4","4","4","4","4","5","5","4","6","4","8","8","4","6","4","4","5","3","4","5","4","3","4","2","5","5","4","5","4","4","3","5","3","4","3","3","5","5","4","3","4","6","7","3","4","4","4","4","3","5","3","4","718754642447564800","贾","Male","[""好他"",""坏他"",""好我"",""坏我""]","[""强他"",""弱他"",""强我"",""弱我""]","","","","","","","","","","","","","","","","","","","","","","","","","","","","","","feedback_test","","","","","","","",""
"864","","f","psychophysics","78","339130","0.0-8.0-1.0-1.0-0.0-0.34","3","3","3","5","3","4","4","3","3","3","5","-2","1","0","0","-1","-1","-1","0","4","4","5","4","3","2","3","4","4","4","4","4","5","5","4","6","4","8","8","4","6","4","4","5","3","4","5","4","3","4","2","5","5","4","5","4","4","3","5","3","4","3","3","5","5","4","3","4","6","7","3","4","4","4","4","3","5","3","4","718754642447564800","贾","Male","[""好他"",""坏他"",""好我"",""坏我""]","[""强他"",""弱他"",""强我"",""弱我""]","","","","","","","","match","","","","","","","","","","key","f","24.48280263157932","960","536","j","false","nonmatch","img/diamond.png","强我","弱他","prac_ALT2_ability","practice_ability","","","","","","","",""
"null","<span style='color:red; font-size: 70px;'>错误! </span>","null","html-keyboard-response","79","339632","0.0-8.0-1.0-1.0-0.0-1.34","3","3","3","5","3","4","4","3","3","3","5","-2","1","0","0","-1","-1","-1","0","4","4","5","4","3","2","3","4","4","4","4","4","5","5","4","6","4","8","8","4","6","4","4","5","3","4","5","4","3","4","2","5","5","4","5","4","4","3","5","3","4","3","3","5","5","4","3","4","6","7","3","4","4","4","4","3","5","3","4","718754642447564800","贾","Male","[""好他"",""坏他"",""好我"",""坏我""]","[""强他"",""弱他"",""强我"",""弱我""]","","","","","","","","","","","","","","","","","","","","","","","","","","","","","","feedback_test","","","","","","","",""
"827","","j","psychophysics","80","341468","0.0-8.0-1.0-1.0-0.0-0.35","3","3","3","5","3","4","4","3","3","3","5","-2","1","0","0","-1","-1","-1","0","4","4","5","4","3","2","3","4","4","4","4","4","5","5","4","6","4","8","8","4","6","4","4","5","3","4","5","4","3","4","2","5","5","4","5","4","4","3","5","3","4","3","3","5","5","4","3","4","6","7","3","4","4","4","4","3","5","3","4","718754642447564800","贾","Male","[""好他"",""坏他"",""好我"",""坏我""]","[""强他"",""弱他"",""强我"",""弱我""]","","","","","","","","nonmatch","","","","","","","","","","key","j","25.000569444444814","960","536","j","true","nonmatch","img/triangle.png","弱他","强他","prac_ALT2_ability","practice_ability","","","","","","","",""
"null","<span style='color:GreenYellow; font-size: 70px;'>正确! </span>","null","html-keyboard-response","81","341969","0.0-8.0-1.0-1.0-0.0-1.35","3","3","3","5","3","4","4","3","3","3","5","-2","1","0","0","-1","-1","-1","0","4","4","5","4","3","2","3","4","4","4","4","4","5","5","4","6","4","8","8","4","6","4","4","5","3","4","5","4","3","4","2","5","5","4","5","4","4","3","5","3","4","3","3","5","5","4","3","4","6","7","3","4","4","4","4","3","5","3","4","718754642447564800","贾","Male","[""好他"",""坏他"",""好我"",""坏我""]","[""强他"",""弱他"",""强我"",""弱我""]","","","","","","","","","","","","","","","","","","","","","","","","","","","","","","feedback_test","","","","","","","",""
"913","","j","psychophysics","82","343893","0.0-8.0-1.0-1.0-0.0-0.36","3","3","3","5","3","4","4","3","3","3","5","-2","1","0","0","-1","-1","-1","0","4","4","5","4","3","2","3","4","4","4","4","4","5","5","4","6","4","8","8","4","6","4","4","5","3","4","5","4","3","4","2","5","5","4","5","4","4","3","5","3","4","3","3","5","5","4","3","4","6","7","3","4","4","4","4","3","5","3","4","718754642447564800","贾","Male","[""好他"",""坏他"",""好我"",""坏我""]","[""强他"",""弱他"",""强我"",""弱我""]","","","","","","","","nonmatch","","","","","","","","","","key","j","24.457675324675822","960","536","f","false","match","img/triangle.png","强他","强他","prac_ALT2_ability","practice_ability","","","","","","","",""
"null","<span style='color:red; font-size: 70px;'>错误! </span>","null","html-keyboard-response","83","344396","0.0-8.0-1.0-1.0-0.0-1.36","3","3","3","5","3","4","4","3","3","3","5","-2","1","0","0","-1","-1","-1","0","4","4","5","4","3","2","3","4","4","4","4","4","5","5","4","6","4","8","8","4","6","4","4","5","3","4","5","4","3","4","2","5","5","4","5","4","4","3","5","3","4","3","3","5","5","4","3","4","6","7","3","4","4","4","4","3","5","3","4","718754642447564800","贾","Male","[""好他"",""坏他"",""好我"",""坏我""]","[""强他"",""弱他"",""强我"",""弱我""]","","","","","","","","","","","","","","","","","","","","","","","","","","","","","","feedback_test","","","","","","","",""
"1146","","j","psychophysics","84","346553","0.0-8.0-1.0-1.0-0.0-0.37","3","3","3","5","3","4","4","3","3","3","5","-2","1","0","0","-1","-1","-1","0","4","4","5","4","3","2","3","4","4","4","4","4","5","5","4","6","4","8","8","4","6","4","4","5","3","4","5","4","3","4","2","5","5","4","5","4","4","3","5","3","4","3","3","5","5","4","3","4","6","7","3","4","4","4","4","3","5","3","4","718754642447564800","贾","Male","[""好他"",""坏他"",""好我"",""坏我""]","[""强他"",""弱他"",""强我"",""弱我""]","","","","","","","","nonmatch","","","","","","","","","","key","j","24.611186046512028","960","536","j","true","nonmatch","img/pentagon.png","强我","弱我","prac_ALT2_ability","practice_ability","","","","","","","",""
"null","<span style='color:GreenYellow; font-size: 70px;'>正确! </span>","null","html-keyboard-response","85","347055","0.0-8.0-1.0-1.0-0.0-1.37","3","3","3","5","3","4","4","3","3","3","5","-2","1","0","0","-1","-1","-1","0","4","4","5","4","3","2","3","4","4","4","4","4","5","5","4","6","4","8","8","4","6","4","4","5","3","4","5","4","3","4","2","5","5","4","5","4","4","3","5","3","4","3","3","5","5","4","3","4","6","7","3","4","4","4","4","3","5","3","4","718754642447564800","贾","Male","[""好他"",""坏他"",""好我"",""坏我""]","[""强他"",""弱他"",""强我"",""弱我""]","","","","","","","","","","","","","","","","","","","","","","","","","","","","","","feedback_test","","","","","","","",""
"951","","f","psychophysics","86","349019","0.0-8.0-1.0-1.0-0.0-0.38","3","3","3","5","3","4","4","3","3","3","5","-2","1","0","0","-1","-1","-1","0","4","4","5","4","3","2","3","4","4","4","4","4","5","5","4","6","4","8","8","4","6","4","4","5","3","4","5","4","3","4","2","5","5","4","5","4","4","3","5","3","4","3","3","5","5","4","3","4","6","7","3","4","4","4","4","3","5","3","4","718754642447564800","贾","Male","[""好他"",""坏他"",""好我"",""坏我""]","[""强他"",""弱他"",""强我"",""弱我""]","","","","","","","","match","","","","","","","","","","key","f","24.166300000000046","960","536","f","true","match","img/pentagon.png","弱我","弱我","prac_ALT2_ability","practice_ability","","","","","","","",""
"null","<span style='color:GreenYellow; font-size: 70px;'>正确! </span>","null","html-keyboard-response","87","349522","0.0-8.0-1.0-1.0-0.0-1.38","3","3","3","5","3","4","4","3","3","3","5","-2","1","0","0","-1","-1","-1","0","4","4","5","4","3","2","3","4","4","4","4","4","5","5","4","6","4","8","8","4","6","4","4","5","3","4","5","4","3","4","2","5","5","4","5","4","4","3","5","3","4","3","3","5","5","4","3","4","6","7","3","4","4","4","4","3","5","3","4","718754642447564800","贾","Male","[""好他"",""坏他"",""好我"",""坏我""]","[""强他"",""弱他"",""强我"",""弱我""]","","","","","","","","","","","","","","","","","","","","","","","","","","","","","","feedback_test","","","","","","","",""
"918","","j","psychophysics","88","351443","0.0-8.0-1.0-1.0-0.0-0.39","3","3","3","5","3","4","4","3","3","3","5","-2","1","0","0","-1","-1","-1","0","4","4","5","4","3","2","3","4","4","4","4","4","5","5","4","6","4","8","8","4","6","4","4","5","3","4","5","4","3","4","2","5","5","4","5","4","4","3","5","3","4","3","3","5","5","4","3","4","6","7","3","4","4","4","4","3","5","3","4","718754642447564800","贾","Male","[""好他"",""坏他"",""好我"",""坏我""]","[""强他"",""弱他"",""强我"",""弱我""]","","","","","","","","nonmatch","","","","","","","","","","key","j","24.04968354430365","960","536","f","false","match","img/diamond.png","弱他","弱他","prac_ALT2_ability","practice_ability","","","","","","","",""
"null","<span style='color:red; font-size: 70px;'>错误! </span>","null","html-keyboard-response","89","351946","0.0-8.0-1.0-1.0-0.0-1.39","3","3","3","5","3","4","4","3","3","3","5","-2","1","0","0","-1","-1","-1","0","4","4","5","4","3","2","3","4","4","4","4","4","5","5","4","6","4","8","8","4","6","4","4","5","3","4","5","4","3","4","2","5","5","4","5","4","4","3","5","3","4","3","3","5","5","4","3","4","6","7","3","4","4","4","4","3","5","3","4","718754642447564800","贾","Male","[""好他"",""坏他"",""好我"",""坏我""]","[""强他"",""弱他"",""强我"",""弱我""]","","","","","","","","","","","","","","","","","","","","","","","","","","","","","","feedback_test","","","","","","","",""
"698","","f","psychophysics","90","353648","0.0-8.0-1.0-1.0-0.0-0.40","3","3","3","5","3","4","4","3","3","3","5","-2","1","0","0","-1","-1","-1","0","4","4","5","4","3","2","3","4","4","4","4","4","5","5","4","6","4","8","8","4","6","4","4","5","3","4","5","4","3","4","2","5","5","4","5","4","4","3","5","3","4","3","3","5","5","4","3","4","6","7","3","4","4","4","4","3","5","3","4","718754642447564800","贾","Male","[""好他"",""坏他"",""好我"",""坏我""]","[""强他"",""弱他"",""强我"",""弱我""]","","","","","","","","match","","","","","","","","","","key","f","25.167772727273228","960","536","f","true","match","img/ellipse.png","强我","强我","prac_ALT2_ability","practice_ability","","","","","","","",""
"null","<span style='color:GreenYellow; font-size: 70px;'>正确! </span>","null","html-keyboard-response","91","354151","0.0-8.0-1.0-1.0-0.0-1.40","3","3","3","5","3","4","4","3","3","3","5","-2","1","0","0","-1","-1","-1","0","4","4","5","4","3","2","3","4","4","4","4","4","5","5","4","6","4","8","8","4","6","4","4","5","3","4","5","4","3","4","2","5","5","4","5","4","4","3","5","3","4","3","3","5","5","4","3","4","6","7","3","4","4","4","4","3","5","3","4","718754642447564800","贾","Male","[""好他"",""坏他"",""好我"",""坏我""]","[""强他"",""弱他"",""强我"",""弱我""]","","","","","","","","","","","","","","","","","","","","","","","","","","","","","","feedback_test","","","","","","","",""
"882","","f","psychophysics","92","356041","0.0-8.0-1.0-1.0-0.0-0.41","3","3","3","5","3","4","4","3","3","3","5","-2","1","0","0","-1","-1","-1","0","4","4","5","4","3","2","3","4","4","4","4","4","5","5","4","6","4","8","8","4","6","4","4","5","3","4","5","4","3","4","2","5","5","4","5","4","4","3","5","3","4","3","3","5","5","4","3","4","6","7","3","4","4","4","4","3","5","3","4","718754642447564800","贾","Male","[""好他"",""坏他"",""好我"",""坏我""]","[""强他"",""弱他"",""强我"",""弱我""]","","","","","","","","match","","","","","","","","","","key","f","24.342881578946713","960","536","j","false","nonmatch","img/diamond.png","弱我","弱他","prac_ALT2_ability","practice_ability","","","","","","","",""
"null","<span style='color:red; font-size: 70px;'>错误! </span>","null","html-keyboard-response","93","356544","0.0-8.0-1.0-1.0-0.0-1.41","3","3","3","5","3","4","4","3","3","3","5","-2","1","0","0","-1","-1","-1","0","4","4","5","4","3","2","3","4","4","4","4","4","5","5","4","6","4","8","8","4","6","4","4","5","3","4","5","4","3","4","2","5","5","4","5","4","4","3","5","3","4","3","3","5","5","4","3","4","6","7","3","4","4","4","4","3","5","3","4","718754642447564800","贾","Male","[""好他"",""坏他"",""好我"",""坏我""]","[""强他"",""弱他"",""强我"",""弱我""]","","","","","","","","","","","","","","","","","","","","","","","","","","","","","","feedback_test","","","","","","","",""
"1074","","f","psychophysics","94","358626","0.0-8.0-1.0-1.0-0.0-0.42","3","3","3","5","3","4","4","3","3","3","5","-2","1","0","0","-1","-1","-1","0","4","4","5","4","3","2","3","4","4","4","4","4","5","5","4","6","4","8","8","4","6","4","4","5","3","4","5","4","3","4","2","5","5","4","5","4","4","3","5","3","4","3","3","5","5","4","3","4","6","7","3","4","4","4","4","3","5","3","4","718754642447564800","贾","Male","[""好他"",""坏他"",""好我"",""坏我""]","[""强他"",""弱他"",""强我"",""弱我""]","","","","","","","","match","","","","","","","","","","key","f","24.29479518072281","960","536","f","true","match","img/triangle.png","强他","强他","prac_ALT2_ability","practice_ability","","","","","","","",""
"null","<span style='color:GreenYellow; font-size: 70px;'>正确! </span>","null","html-keyboard-response","95","359128","0.0-8.0-1.0-1.0-0.0-1.42","3","3","3","5","3","4","4","3","3","3","5","-2","1","0","0","-1","-1","-1","0","4","4","5","4","3","2","3","4","4","4","4","4","5","5","4","6","4","8","8","4","6","4","4","5","3","4","5","4","3","4","2","5","5","4","5","4","4","3","5","3","4","3","3","5","5","4","3","4","6","7","3","4","4","4","4","3","5","3","4","718754642447564800","贾","Male","[""好他"",""坏他"",""好我"",""坏我""]","[""强他"",""弱他"",""强我"",""弱我""]","","","","","","","","","","","","","","","","","","","","","","","","","","","","","","feedback_test","","","","","","","",""
"1024","","j","psychophysics","96","361154","0.0-8.0-1.0-1.0-0.0-0.43","3","3","3","5","3","4","4","3","3","3","5","-2","1","0","0","-1","-1","-1","0","4","4","5","4","3","2","3","4","4","4","4","4","5","5","4","6","4","8","8","4","6","4","4","5","3","4","5","4","3","4","2","5","5","4","5","4","4","3","5","3","4","3","3","5","5","4","3","4","6","7","3","4","4","4","4","3","5","3","4","718754642447564800","贾","Male","[""好他"",""坏他"",""好我"",""坏我""]","[""强他"",""弱他"",""强我"",""弱我""]","","","","","","","","nonmatch","","","","","","","","","","key","j","23.89563855421673","960","536","j","true","nonmatch","img/triangle.png","弱我","强他","prac_ALT2_ability","practice_ability","","","","","","","",""
"null","<span style='color:GreenYellow; font-size: 70px;'>正确! </span>","null","html-keyboard-response","97","361656","0.0-8.0-1.0-1.0-0.0-1.43","3","3","3","5","3","4","4","3","3","3","5","-2","1","0","0","-1","-1","-1","0","4","4","5","4","3","2","3","4","4","4","4","4","5","5","4","6","4","8","8","4","6","4","4","5","3","4","5","4","3","4","2","5","5","4","5","4","4","3","5","3","4","3","3","5","5","4","3","4","6","7","3","4","4","4","4","3","5","3","4","718754642447564800","贾","Male","[""好他"",""坏他"",""好我"",""坏我""]","[""强他"",""弱他"",""强我"",""弱我""]","","","","","","","","","","","","","","","","","","","","","","","","","","","","","","feedback_test","","","","","","","",""
"1013","","j","psychophysics","98","363671","0.0-8.0-1.0-1.0-0.0-0.44","3","3","3","5","3","4","4","3","3","3","5","-2","1","0","0","-1","-1","-1","0","4","4","5","4","3","2","3","4","4","4","4","4","5","5","4","6","4","8","8","4","6","4","4","5","3","4","5","4","3","4","2","5","5","4","5","4","4","3","5","3","4","3","3","5","5","4","3","4","6","7","3","4","4","4","4","3","5","3","4","718754642447564800","贾","Male","[""好他"",""坏他"",""好我"",""坏我""]","[""强他"",""弱他"",""强我"",""弱我""]","","","","","","","","nonmatch","","","","","","","","","","key","j","24.791124999999738","960","536","j","true","nonmatch","img/pentagon.png","弱他","弱我","prac_ALT2_ability","practice_ability","","","","","","","",""
"null","<span style='color:GreenYellow; font-size: 70px;'>正确! </span>","null","html-keyboard-response","99","364172","0.0-8.0-1.0-1.0-0.0-1.44","3","3","3","5","3","4","4","3","3","3","5","-2","1","0","0","-1","-1","-1","0","4","4","5","4","3","2","3","4","4","4","4","4","5","5","4","6","4","8","8","4","6","4","4","5","3","4","5","4","3","4","2","5","5","4","5","4","4","3","5","3","4","3","3","5","5","4","3","4","6","7","3","4","4","4","4","3","5","3","4","718754642447564800","贾","Male","[""好他"",""坏他"",""好我"",""坏我""]","[""强他"",""弱他"",""强我"",""弱我""]","","","","","","","","","","","","","","","","","","","","","","","","","","","","","","feedback_test","","","","","","","",""
"974","","j","psychophysics","100","366153","0.0-8.0-1.0-1.0-0.0-0.45","3","3","3","5","3","4","4","3","3","3","5","-2","1","0","0","-1","-1","-1","0","4","4","5","4","3","2","3","4","4","4","4","4","5","5","4","6","4","8","8","4","6","4","4","5","3","4","5","4","3","4","2","5","5","4","5","4","4","3","5","3","4","3","3","5","5","4","3","4","6","7","3","4","4","4","4","3","5","3","4","718754642447564800","贾","Male","[""好他"",""坏他"",""好我"",""坏我""]","[""强他"",""弱他"",""强我"",""弱我""]","","","","","","","","nonmatch","","","","","","","","","","key","j","24.073185185185363","960","536","f","false","match","img/pentagon.png","弱我","弱我","prac_ALT2_ability","practice_ability","","","","","","","",""
"null","<span style='color:red; font-size: 70px;'>错误! </span>","null","html-keyboard-response","101","366654","0.0-8.0-1.0-1.0-0.0-1.45","3","3","3","5","3","4","4","3","3","3","5","-2","1","0","0","-1","-1","-1","0","4","4","5","4","3","2","3","4","4","4","4","4","5","5","4","6","4","8","8","4","6","4","4","5","3","4","5","4","3","4","2","5","5","4","5","4","4","3","5","3","4","3","3","5","5","4","3","4","6","7","3","4","4","4","4","3","5","3","4","718754642447564800","贾","Male","[""好他"",""坏他"",""好我"",""坏我""]","[""强他"",""弱他"",""强我"",""弱我""]","","","","","","","","","","","","","","","","","","","","","","","","","","","","","","feedback_test","","","","","","","",""
"949","","j","psychophysics","102","368607","0.0-8.0-1.0-1.0-0.0-0.46","3","3","3","5","3","4","4","3","3","3","5","-2","1","0","0","-1","-1","-1","0","4","4","5","4","3","2","3","4","4","4","4","4","5","5","4","6","4","8","8","4","6","4","4","5","3","4","5","4","3","4","2","5","5","4","5","4","4","3","5","3","4","3","3","5","5","4","3","4","6","7","3","4","4","4","4","3","5","3","4","718754642447564800","贾","Male","[""好他"",""坏他"",""好我"",""坏我""]","[""强他"",""弱他"",""强我"",""弱我""]","","","","","","","","nonmatch","","","","","","","","","","key","j","24.892220779220793","960","536","j","true","nonmatch","img/ellipse.png","弱他","强我","prac_ALT2_ability","practice_ability","","","","","","","",""
"null","<span style='color:GreenYellow; font-size: 70px;'>正确! </span>","null","html-keyboard-response","103","369110","0.0-8.0-1.0-1.0-0.0-1.46","3","3","3","5","3","4","4","3","3","3","5","-2","1","0","0","-1","-1","-1","0","4","4","5","4","3","2","3","4","4","4","4","4","5","5","4","6","4","8","8","4","6","4","4","5","3","4","5","4","3","4","2","5","5","4","5","4","4","3","5","3","4","3","3","5","5","4","3","4","6","7","3","4","4","4","4","3","5","3","4","718754642447564800","贾","Male","[""好他"",""坏他"",""好我"",""坏我""]","[""强他"",""弱他"",""强我"",""弱我""]","","","","","","","","","","","","","","","","","","","","","","","","","","","","","","feedback_test","","","","","","","",""
"null","","null","psychophysics","104","371324","0.0-8.0-1.0-1.0-0.0-0.47","3","3","3","5","3","4","4","3","3","3","5","-2","1","0","0","-1","-1","-1","0","4","4","5","4","3","2","3","4","4","4","4","4","5","5","4","6","4","8","8","4","6","4","4","5","3","4","5","4","3","4","2","5","5","4","5","4","4","3","5","3","4","3","3","5","5","4","3","4","6","7","3","4","4","4","4","3","5","3","4","718754642447564800","贾","Male","[""好他"",""坏他"",""好我"",""坏我""]","[""强他"",""弱他"",""强我"",""弱我""]","","","","","","","","null","","","","","","","","","","key","null","24.621215909091088","960","536","j","false","nonmatch","img/diamond.png","强他","弱他","prac_ALT2_ability","practice_ability","","","","","","","",""
"null","<span class='add_' style='color:yellow; font-size: 70px;'> 太慢! </span>","null","html-keyboard-response","105","371827","0.0-8.0-1.0-1.0-0.0-1.47","3","3","3","5","3","4","4","3","3","3","5","-2","1","0","0","-1","-1","-1","0","4","4","5","4","3","2","3","4","4","4","4","4","5","5","4","6","4","8","8","4","6","4","4","5","3","4","5","4","3","4","2","5","5","4","5","4","4","3","5","3","4","3","3","5","5","4","3","4","6","7","3","4","4","4","4","3","5","3","4","718754642447564800","贾","Male","[""好他"",""坏他"",""好我"",""坏我""]","[""强他"",""弱他"",""强我"",""弱我""]","","","","","","","","","","","","","","","","","","","","","","","","","","","","","","feedback_test","","","","","","","",""
"4651","<style>.context{color:white; font-size: 35px; line-height:40px}</style>                          <div><p class='context'>您正确回答了56% 的试次。</p><p class='context'>您的平均反应时为952毫秒。</p><p class='context'>恭喜您完成练习。按空格键继续。</p></div>"," ","html-keyboard-response","106","376481","0.0-8.0-1.0-1.0-1.0-0.0","3","3","3","5","3","4","4","3","3","3","5","-2","1","0","0","-1","-1","-1","0","4","4","5","4","3","2","3","4","4","4","4","4","5","5","4","6","4","8","8","4","6","4","4","5","3","4","5","4","3","4","2","5","5","4","5","4","4","3","5","3","4","3","3","5","5","4","3","4","6","7","3","4","4","4","4","3","5","3","4","718754642447564800","贾","Male","[""好他"",""坏他"",""好我"",""坏我""]","[""强他"",""弱他"",""强我"",""弱我""]","","","","","","","","","","","","","","","","","","","","","","","","","","","","","","","","","","","","","",""
"79614","","","instructions","107","456097","0.0-8.0-1.0-1.0-1.0-1.0","3","3","3","5","3","4","4","3","3","3","5","-2","1","0","0","-1","-1","-1","0","4","4","5","4","3","2","3","4","4","4","4","4","5","5","4","6","4","8","8","4","6","4","4","5","3","4","5","4","3","4","2","5","5","4","5","4","4","3","5","3","4","3","3","5","5","4","3","4","6","7","3","4","4","4","4","3","5","3","4","718754642447564800","贾","Male","[""好他"",""坏他"",""好我"",""坏我""]","[""强他"",""弱他"",""强我"",""弱我""]","","","","","","","","","","","","","","","","","[{""page_index"":0,""viewing_time"":5512},{""page_index"":1,""viewing_time"":72597},{""page_index"":2,""viewing_time"":1505}]","","","","","","","","","","","","","","","","","","","","",""
"828","","j","psychophysics","108","457928","0.0-8.0-1.0-1.1-0.1-0.48","3","3","3","5","3","4","4","3","3","3","5","-2","1","0","0","-1","-1","-1","0","4","4","5","4","3","2","3","4","4","4","4","4","5","5","4","6","4","8","8","4","6","4","4","5","3","4","5","4","3","4","2","5","5","4","5","4","4","3","5","3","4","3","3","5","5","4","3","4","6","7","3","4","4","4","4","3","5","3","4","718754642447564800","贾","Male","[""好他"",""坏他"",""好我"",""坏我""]","[""强他"",""弱他"",""强我"",""弱我""]","","","","","","","","nonmatch","","","","","","","","","","key","j","24.537263888888347","960","536","j","true","nonmatch","img/pentagon.png","弱他","弱我","prac_ALT2_ability","practice_ability","","","","","","","",""
"null","<span style='color:GreenYellow; font-size: 70px;'>正确! </span>","null","html-keyboard-response","109","458429","0.0-8.0-1.0-1.1-0.1-1.48","3","3","3","5","3","4","4","3","3","3","5","-2","1","0","0","-1","-1","-1","0","4","4","5","4","3","2","3","4","4","4","4","4","5","5","4","6","4","8","8","4","6","4","4","5","3","4","5","4","3","4","2","5","5","4","5","4","4","3","5","3","4","3","3","5","5","4","3","4","6","7","3","4","4","4","4","3","5","3","4","718754642447564800","贾","Male","[""好他"",""坏他"",""好我"",""坏我""]","[""强他"",""弱他"",""强我"",""弱我""]","","","","","","","","","","","","","","","","","","","","","","","","","","","","","","feedback_test","","","","","","","",""
"961","","j","psychophysics","110","460392","0.0-8.0-1.0-1.1-0.1-0.49","3","3","3","5","3","4","4","3","3","3","5","-2","1","0","0","-1","-1","-1","0","4","4","5","4","3","2","3","4","4","4","4","4","5","5","4","6","4","8","8","4","6","4","4","5","3","4","5","4","3","4","2","5","5","4","5","4","4","3","5","3","4","3","3","5","5","4","3","4","6","7","3","4","4","4","4","3","5","3","4","718754642447564800","贾","Male","[""好他"",""坏他"",""好我"",""坏我""]","[""强他"",""弱他"",""强我"",""弱我""]","","","","","","","","nonmatch","","","","","","","","","","key","j","24.89141558441515","960","536","j","true","nonmatch","img/pentagon.png","强我","弱我","prac_ALT2_ability","practice_ability","","","","","","","",""
"null","<span style='color:GreenYellow; font-size: 70px;'>正确! </span>","null","html-keyboard-response","111","460893","0.0-8.0-1.0-1.1-0.1-1.49","3","3","3","5","3","4","4","3","3","3","5","-2","1","0","0","-1","-1","-1","0","4","4","5","4","3","2","3","4","4","4","4","4","5","5","4","6","4","8","8","4","6","4","4","5","3","4","5","4","3","4","2","5","5","4","5","4","4","3","5","3","4","3","3","5","5","4","3","4","6","7","3","4","4","4","4","3","5","3","4","718754642447564800","贾","Male","[""好他"",""坏他"",""好我"",""坏我""]","[""强他"",""弱他"",""强我"",""弱我""]","","","","","","","","","","","","","","","","","","","","","","","","","","","","","","feedback_test","","","","","","","",""
"836","","j","psychophysics","112","462731","0.0-8.0-1.0-1.1-0.1-0.50","3","3","3","5","3","4","4","3","3","3","5","-2","1","0","0","-1","-1","-1","0","4","4","5","4","3","2","3","4","4","4","4","4","5","5","4","6","4","8","8","4","6","4","4","5","3","4","5","4","3","4","2","5","5","4","5","4","4","3","5","3","4","3","3","5","5","4","3","4","6","7","3","4","4","4","4","3","5","3","4","718754642447564800","贾","Male","[""好他"",""坏他"",""好我"",""坏我""]","[""强他"",""弱他"",""强我"",""弱我""]","","","","","","","","nonmatch","","","","","","","","","","key","j","24.99918055555544","960","536","j","true","nonmatch","img/ellipse.png","弱我","强我","prac_ALT2_ability","practice_ability","","","","","","","",""
"null","<span style='color:GreenYellow; font-size: 70px;'>正确! </span>","null","html-keyboard-response","113","463234","0.0-8.0-1.0-1.1-0.1-1.50","3","3","3","5","3","4","4","3","3","3","5","-2","1","0","0","-1","-1","-1","0","4","4","5","4","3","2","3","4","4","4","4","4","5","5","4","6","4","8","8","4","6","4","4","5","3","4","5","4","3","4","2","5","5","4","5","4","4","3","5","3","4","3","3","5","5","4","3","4","6","7","3","4","4","4","4","3","5","3","4","718754642447564800","贾","Male","[""好他"",""坏他"",""好我"",""坏我""]","[""强他"",""弱他"",""强我"",""弱我""]","","","","","","","","","","","","","","","","","","","","","","","","","","","","","","feedback_test","","","","","","","",""
"765","","j","psychophysics","114","465001","0.0-8.0-1.0-1.1-0.1-0.51","3","3","3","5","3","4","4","3","3","3","5","-2","1","0","0","-1","-1","-1","0","4","4","5","4","3","2","3","4","4","4","4","4","5","5","4","6","4","8","8","4","6","4","4","5","3","4","5","4","3","4","2","5","5","4","5","4","4","3","5","3","4","3","3","5","5","4","3","4","6","7","3","4","4","4","4","3","5","3","4","718754642447564800","贾","Male","[""好他"",""坏他"",""好我"",""坏我""]","[""强他"",""弱他"",""强我"",""弱我""]","","","","","","","","nonmatch","","","","","","","","","","key","j","24.76115714285739","960","536","j","true","nonmatch","img/triangle.png","弱我","强他","prac_ALT2_ability","practice_ability","","","","","","","",""
"null","<span style='color:GreenYellow; font-size: 70px;'>正确! </span>","null","html-keyboard-response","115","465502","0.0-8.0-1.0-1.1-0.1-1.51","3","3","3","5","3","4","4","3","3","3","5","-2","1","0","0","-1","-1","-1","0","4","4","5","4","3","2","3","4","4","4","4","4","5","5","4","6","4","8","8","4","6","4","4","5","3","4","5","4","3","4","2","5","5","4","5","4","4","3","5","3","4","3","3","5","5","4","3","4","6","7","3","4","4","4","4","3","5","3","4","718754642447564800","贾","Male","[""好他"",""坏他"",""好我"",""坏我""]","[""强他"",""弱他"",""强我"",""弱我""]","","","","","","","","","","","","","","","","","","","","","","","","","","","","","","feedback_test","","","","","","","",""
"1190","","f","psychophysics","116","467696","0.0-8.0-1.0-1.1-0.1-0.52","3","3","3","5","3","4","4","3","3","3","5","-2","1","0","0","-1","-1","-1","0","4","4","5","4","3","2","3","4","4","4","4","4","5","5","4","6","4","8","8","4","6","4","4","5","3","4","5","4","3","4","2","5","5","4","5","4","4","3","5","3","4","3","3","5","5","4","3","4","6","7","3","4","4","4","4","3","5","3","4","718754642447564800","贾","Male","[""好他"",""坏他"",""好我"",""坏我""]","[""强他"",""弱他"",""强我"",""弱我""]","","","","","","","","match","","","","","","","","","","key","f","24.71132183908057","960","536","j","false","nonmatch","img/diamond.png","强他","弱他","prac_ALT2_ability","practice_ability","","","","","","","",""
"null","<span style='color:red; font-size: 70px;'>错误! </span>","null","html-keyboard-response","117","468198","0.0-8.0-1.0-1.1-0.1-1.52","3","3","3","5","3","4","4","3","3","3","5","-2","1","0","0","-1","-1","-1","0","4","4","5","4","3","2","3","4","4","4","4","4","5","5","4","6","4","8","8","4","6","4","4","5","3","4","5","4","3","4","2","5","5","4","5","4","4","3","5","3","4","3","3","5","5","4","3","4","6","7","3","4","4","4","4","3","5","3","4","718754642447564800","贾","Male","[""好他"",""坏他"",""好我"",""坏我""]","[""强他"",""弱他"",""强我"",""弱我""]","","","","","","","","","","","","","","","","","","","","","","","","","","","","","","feedback_test","","","","","","","",""
"843","","j","psychophysics","118","470044","0.0-8.0-1.0-1.1-0.1-0.53","3","3","3","5","3","4","4","3","3","3","5","-2","1","0","0","-1","-1","-1","0","4","4","5","4","3","2","3","4","4","4","4","4","5","5","4","6","4","8","8","4","6","4","4","5","3","4","5","4","3","4","2","5","5","4","5","4","4","3","5","3","4","3","3","5","5","4","3","4","6","7","3","4","4","4","4","3","5","3","4","718754642447564800","贾","Male","[""好他"",""坏他"",""好我"",""坏我""]","[""强他"",""弱他"",""强我"",""弱我""]","","","","","","","","nonmatch","","","","","","","","","","key","j","23.902157894737012","960","536","f","false","match","img/pentagon.png","弱我","弱我","prac_ALT2_ability","practice_ability","","","","","","","",""
"null","<span style='color:red; font-size: 70px;'>错误! </span>","null","html-keyboard-response","119","470546","0.0-8.0-1.0-1.1-0.1-1.53","3","3","3","5","3","4","4","3","3","3","5","-2","1","0","0","-1","-1","-1","0","4","4","5","4","3","2","3","4","4","4","4","4","5","5","4","6","4","8","8","4","6","4","4","5","3","4","5","4","3","4","2","5","5","4","5","4","4","3","5","3","4","3","3","5","5","4","3","4","6","7","3","4","4","4","4","3","5","3","4","718754642447564800","贾","Male","[""好他"",""坏他"",""好我"",""坏我""]","[""强他"",""弱他"",""强我"",""弱我""]","","","","","","","","","","","","","","","","","","","","","","","","","","","","","","feedback_test","","","","","","","",""
"993","","f","psychophysics","120","472542","0.0-8.0-1.0-1.1-0.1-0.54","3","3","3","5","3","4","4","3","3","3","5","-2","1","0","0","-1","-1","-1","0","4","4","5","4","3","2","3","4","4","4","4","4","5","5","4","6","4","8","8","4","6","4","4","5","3","4","5","4","3","4","2","5","5","4","5","4","4","3","5","3","4","3","3","5","5","4","3","4","6","7","3","4","4","4","4","3","5","3","4","718754642447564800","贾","Male","[""好他"",""坏他"",""好我"",""坏我""]","[""强他"",""弱他"",""强我"",""弱我""]","","","","","","","","match","","","","","","","","","","key","f","24.683278481013296","960","536","f","true","match","img/triangle.png","强他","强他","prac_ALT2_ability","practice_ability","","","","","","","",""
"null","<span style='color:GreenYellow; font-size: 70px;'>正确! </span>","null","html-keyboard-response","121","473043","0.0-8.0-1.0-1.1-0.1-1.54","3","3","3","5","3","4","4","3","3","3","5","-2","1","0","0","-1","-1","-1","0","4","4","5","4","3","2","3","4","4","4","4","4","5","5","4","6","4","8","8","4","6","4","4","5","3","4","5","4","3","4","2","5","5","4","5","4","4","3","5","3","4","3","3","5","5","4","3","4","6","7","3","4","4","4","4","3","5","3","4","718754642447564800","贾","Male","[""好他"",""坏他"",""好我"",""坏我""]","[""强他"",""弱他"",""强我"",""弱我""]","","","","","","","","","","","","","","","","","","","","","","","","","","","","","","feedback_test","","","","","","","",""
"973","","f","psychophysics","122","475018","0.0-8.0-1.0-1.1-0.1-0.55","3","3","3","5","3","4","4","3","3","3","5","-2","1","0","0","-1","-1","-1","0","4","4","5","4","3","2","3","4","4","4","4","4","5","5","4","6","4","8","8","4","6","4","4","5","3","4","5","4","3","4","2","5","5","4","5","4","4","3","5","3","4","3","3","5","5","4","3","4","6","7","3","4","4","4","4","3","5","3","4","718754642447564800","贾","Male","[""好他"",""坏他"",""好我"",""坏我""]","[""强他"",""弱他"",""强我"",""弱我""]","","","","","","","","match","","","","","","","","","","key","f","24.785974358974133","960","536","f","true","match","img/pentagon.png","弱我","弱我","prac_ALT2_ability","practice_ability","","","","","","","",""
"null","<span style='color:GreenYellow; font-size: 70px;'>正确! </span>","null","html-keyboard-response","123","475519","0.0-8.0-1.0-1.1-0.1-1.55","3","3","3","5","3","4","4","3","3","3","5","-2","1","0","0","-1","-1","-1","0","4","4","5","4","3","2","3","4","4","4","4","4","5","5","4","6","4","8","8","4","6","4","4","5","3","4","5","4","3","4","2","5","5","4","5","4","4","3","5","3","4","3","3","5","5","4","3","4","6","7","3","4","4","4","4","3","5","3","4","718754642447564800","贾","Male","[""好他"",""坏他"",""好我"",""坏我""]","[""强他"",""弱他"",""强我"",""弱我""]","","","","","","","","","","","","","","","","","","","","","","","","","","","","","","feedback_test","","","","","","","",""
"746","","f","psychophysics","124","477287","0.0-8.0-1.0-1.1-0.1-0.56","3","3","3","5","3","4","4","3","3","3","5","-2","1","0","0","-1","-1","-1","0","4","4","5","4","3","2","3","4","4","4","4","4","5","5","4","6","4","8","8","4","6","4","4","5","3","4","5","4","3","4","2","5","5","4","5","4","4","3","5","3","4","3","3","5","5","4","3","4","6","7","3","4","4","4","4","3","5","3","4","718754642447564800","贾","Male","[""好他"",""坏他"",""好我"",""坏我""]","[""强他"",""弱他"",""强我"",""弱我""]","","","","","","","","match","","","","","","","","","","key","f","24.876826086956367","960","536","f","true","match","img/ellipse.png","强我","强我","prac_ALT2_ability","practice_ability","","","","","","","",""
"null","<span style='color:GreenYellow; font-size: 70px;'>正确! </span>","null","html-keyboard-response","125","477789","0.0-8.0-1.0-1.1-0.1-1.56","3","3","3","5","3","4","4","3","3","3","5","-2","1","0","0","-1","-1","-1","0","4","4","5","4","3","2","3","4","4","4","4","4","5","5","4","6","4","8","8","4","6","4","4","5","3","4","5","4","3","4","2","5","5","4","5","4","4","3","5","3","4","3","3","5","5","4","3","4","6","7","3","4","4","4","4","3","5","3","4","718754642447564800","贾","Male","[""好他"",""坏他"",""好我"",""坏我""]","[""强他"",""弱他"",""强我"",""弱我""]","","","","","","","","","","","","","","","","","","","","","","","","","","","","","","feedback_test","","","","","","","",""
"840","","j","psychophysics","126","479632","0.0-8.0-1.0-1.1-0.1-0.57","3","3","3","5","3","4","4","3","3","3","5","-2","1","0","0","-1","-1","-1","0","4","4","5","4","3","2","3","4","4","4","4","4","5","5","4","6","4","8","8","4","6","4","4","5","3","4","5","4","3","4","2","5","5","4","5","4","4","3","5","3","4","3","3","5","5","4","3","4","6","7","3","4","4","4","4","3","5","3","4","718754642447564800","贾","Male","[""好他"",""坏他"",""好我"",""坏我""]","[""强他"",""弱他"",""强我"",""弱我""]","","","","","","","","nonmatch","","","","","","","","","","key","j","24.99844444444413","960","536","j","true","nonmatch","img/ellipse.png","弱他","强我","prac_ALT2_ability","practice_ability","","","","","","","",""
"null","<span style='color:GreenYellow; font-size: 70px;'>正确! </span>","null","html-keyboard-response","127","480133","0.0-8.0-1.0-1.1-0.1-1.57","3","3","3","5","3","4","4","3","3","3","5","-2","1","0","0","-1","-1","-1","0","4","4","5","4","3","2","3","4","4","4","4","4","5","5","4","6","4","8","8","4","6","4","4","5","3","4","5","4","3","4","2","5","5","4","5","4","4","3","5","3","4","3","3","5","5","4","3","4","6","7","3","4","4","4","4","3","5","3","4","718754642447564800","贾","Male","[""好他"",""坏他"",""好我"",""坏我""]","[""强他"",""弱他"",""强我"",""弱我""]","","","","","","","","","","","","","","","","","","","","","","","","","","","","","","feedback_test","","","","","","","",""
"906","","j","psychophysics","128","482043","0.0-8.0-1.0-1.1-0.1-0.58","3","3","3","5","3","4","4","3","3","3","5","-2","1","0","0","-1","-1","-1","0","4","4","5","4","3","2","3","4","4","4","4","4","5","5","4","6","4","8","8","4","6","4","4","5","3","4","5","4","3","4","2","5","5","4","5","4","4","3","5","3","4","3","3","5","5","4","3","4","6","7","3","4","4","4","4","3","5","3","4","718754642447564800","贾","Male","[""好他"",""坏他"",""好我"",""坏我""]","[""强他"",""弱他"",""强我"",""弱我""]","","","","","","","","nonmatch","","","","","","","","","","key","j","24.14484615384628","960","536","j","true","nonmatch","img/triangle.png","弱他","强他","prac_ALT2_ability","practice_ability","","","","","","","",""
"null","<span style='color:GreenYellow; font-size: 70px;'>正确! </span>","null","html-keyboard-response","129","482544","0.0-8.0-1.0-1.1-0.1-1.58","3","3","3","5","3","4","4","3","3","3","5","-2","1","0","0","-1","-1","-1","0","4","4","5","4","3","2","3","4","4","4","4","4","5","5","4","6","4","8","8","4","6","4","4","5","3","4","5","4","3","4","2","5","5","4","5","4","4","3","5","3","4","3","3","5","5","4","3","4","6","7","3","4","4","4","4","3","5","3","4","718754642447564800","贾","Male","[""好他"",""坏他"",""好我"",""坏我""]","[""强他"",""弱他"",""强我"",""弱我""]","","","","","","","","","","","","","","","","","","","","","","","","","","","","","","feedback_test","","","","","","","",""
"891","","j","psychophysics","130","484445","0.0-8.0-1.0-1.1-0.1-0.59","3","3","3","5","3","4","4","3","3","3","5","-2","1","0","0","-1","-1","-1","0","4","4","5","4","3","2","3","4","4","4","4","4","5","5","4","6","4","8","8","4","6","4","4","5","3","4","5","4","3","4","2","5","5","4","5","4","4","3","5","3","4","3","3","5","5","4","3","4","6","7","3","4","4","4","4","3","5","3","4","718754642447564800","贾","Male","[""好他"",""坏他"",""好我"",""坏我""]","[""强他"",""弱他"",""强我"",""弱我""]","","","","","","","","nonmatch","","","","","","","","","","key","j","24.559842105263286","960","536","f","false","match","img/diamond.png","弱他","弱他","prac_ALT2_ability","practice_ability","","","","","","","",""
"null","<span style='color:red; font-size: 70px;'>错误! </span>","null","html-keyboard-response","131","484948","0.0-8.0-1.0-1.1-0.1-1.59","3","3","3","5","3","4","4","3","3","3","5","-2","1","0","0","-1","-1","-1","0","4","4","5","4","3","2","3","4","4","4","4","4","5","5","4","6","4","8","8","4","6","4","4","5","3","4","5","4","3","4","2","5","5","4","5","4","4","3","5","3","4","3","3","5","5","4","3","4","6","7","3","4","4","4","4","3","5","3","4","718754642447564800","贾","Male","[""好他"",""坏他"",""好我"",""坏我""]","[""强他"",""弱他"",""强我"",""弱我""]","","","","","","","","","","","","","","","","","","","","","","","","","","","","","","feedback_test","","","","","","","",""
"831","","j","psychophysics","132","486781","0.0-8.0-1.0-1.1-0.1-0.60","3","3","3","5","3","4","4","3","3","3","5","-2","1","0","0","-1","-1","-1","0","4","4","5","4","3","2","3","4","4","4","4","4","5","5","4","6","4","8","8","4","6","4","4","5","3","4","5","4","3","4","2","5","5","4","5","4","4","3","5","3","4","3","3","5","5","4","3","4","6","7","3","4","4","4","4","3","5","3","4","718754642447564800","贾","Male","[""好他"",""坏他"",""好我"",""坏我""]","[""强他"",""弱他"",""强我"",""弱我""]","","","","","","","","nonmatch","","","","","","","","","","key","j","24.768638888888947","960","536","f","false","match","img/diamond.png","弱他","弱他","prac_ALT2_ability","practice_ability","","","","","","","",""
"null","<span style='color:red; font-size: 70px;'>错误! </span>","null","html-keyboard-response","133","487282","0.0-8.0-1.0-1.1-0.1-1.60","3","3","3","5","3","4","4","3","3","3","5","-2","1","0","0","-1","-1","-1","0","4","4","5","4","3","2","3","4","4","4","4","4","5","5","4","6","4","8","8","4","6","4","4","5","3","4","5","4","3","4","2","5","5","4","5","4","4","3","5","3","4","3","3","5","5","4","3","4","6","7","3","4","4","4","4","3","5","3","4","718754642447564800","贾","Male","[""好他"",""坏他"",""好我"",""坏我""]","[""强他"",""弱他"",""强我"",""弱我""]","","","","","","","","","","","","","","","","","","","","","","","","","","","","","","feedback_test","","","","","","","",""
"902","","j","psychophysics","134","489190","0.0-8.0-1.0-1.1-0.1-0.61","3","3","3","5","3","4","4","3","3","3","5","-2","1","0","0","-1","-1","-1","0","4","4","5","4","3","2","3","4","4","4","4","4","5","5","4","6","4","8","8","4","6","4","4","5","3","4","5","4","3","4","2","5","5","4","5","4","4","3","5","3","4","3","3","5","5","4","3","4","6","7","3","4","4","4","4","3","5","3","4","718754642447564800","贾","Male","[""好他"",""坏他"",""好我"",""坏我""]","[""强他"",""弱他"",""强我"",""弱我""]","","","","","","","","nonmatch","","","","","","","","","","key","j","24.888093333333575","960","536","j","true","nonmatch","img/ellipse.png","强他","强我","prac_ALT2_ability","practice_ability","","","","","","","",""
"null","<span style='color:GreenYellow; font-size: 70px;'>正确! </span>","null","html-keyboard-response","135","489693","0.0-8.0-1.0-1.1-0.1-1.61","3","3","3","5","3","4","4","3","3","3","5","-2","1","0","0","-1","-1","-1","0","4","4","5","4","3","2","3","4","4","4","4","4","5","5","4","6","4","8","8","4","6","4","4","5","3","4","5","4","3","4","2","5","5","4","5","4","4","3","5","3","4","3","3","5","5","4","3","4","6","7","3","4","4","4","4","3","5","3","4","718754642447564800","贾","Male","[""好他"",""坏他"",""好我"",""坏我""]","[""强他"",""弱他"",""强我"",""弱我""]","","","","","","","","","","","","","","","","","","","","","","","","","","","","","","feedback_test","","","","","","","",""
"951","","f","psychophysics","136","491656","0.0-8.0-1.0-1.1-0.1-0.62","3","3","3","5","3","4","4","3","3","3","5","-2","1","0","0","-1","-1","-1","0","4","4","5","4","3","2","3","4","4","4","4","4","5","5","4","6","4","8","8","4","6","4","4","5","3","4","5","4","3","4","2","5","5","4","5","4","4","3","5","3","4","3","3","5","5","4","3","4","6","7","3","4","4","4","4","3","5","3","4","718754642447564800","贾","Male","[""好他"",""坏他"",""好我"",""坏我""]","[""强他"",""弱他"",""强我"",""弱我""]","","","","","","","","match","","","","","","","","","","key","f","24.260620253165015","960","536","f","true","match","img/triangle.png","强他","强他","prac_ALT2_ability","practice_ability","","","","","","","",""
"null","<span style='color:GreenYellow; font-size: 70px;'>正确! </span>","null","html-keyboard-response","137","492157","0.0-8.0-1.0-1.1-0.1-1.62","3","3","3","5","3","4","4","3","3","3","5","-2","1","0","0","-1","-1","-1","0","4","4","5","4","3","2","3","4","4","4","4","4","5","5","4","6","4","8","8","4","6","4","4","5","3","4","5","4","3","4","2","5","5","4","5","4","4","3","5","3","4","3","3","5","5","4","3","4","6","7","3","4","4","4","4","3","5","3","4","718754642447564800","贾","Male","[""好他"",""坏他"",""好我"",""坏我""]","[""强他"",""弱他"",""强我"",""弱我""]","","","","","","","","","","","","","","","","","","","","","","","","","","","","","","feedback_test","","","","","","","",""
"1053","","f","psychophysics","138","494220","0.0-8.0-1.0-1.1-0.1-0.63","3","3","3","5","3","4","4","3","3","3","5","-2","1","0","0","-1","-1","-1","0","4","4","5","4","3","2","3","4","4","4","4","4","5","5","4","6","4","8","8","4","6","4","4","5","3","4","5","4","3","4","2","5","5","4","5","4","4","3","5","3","4","3","3","5","5","4","3","4","6","7","3","4","4","4","4","3","5","3","4","718754642447564800","贾","Male","[""好他"",""坏他"",""好我"",""坏我""]","[""强他"",""弱他"",""强我"",""弱我""]","","","","","","","","match","","","","","","","","","","key","f","24.49837349397579","960","536","f","true","match","img/triangle.png","强他","强他","prac_ALT2_ability","practice_ability","","","","","","","",""
"null","<span style='color:GreenYellow; font-size: 70px;'>正确! </span>","null","html-keyboard-response","139","494722","0.0-8.0-1.0-1.1-0.1-1.63","3","3","3","5","3","4","4","3","3","3","5","-2","1","0","0","-1","-1","-1","0","4","4","5","4","3","2","3","4","4","4","4","4","5","5","4","6","4","8","8","4","6","4","4","5","3","4","5","4","3","4","2","5","5","4","5","4","4","3","5","3","4","3","3","5","5","4","3","4","6","7","3","4","4","4","4","3","5","3","4","718754642447564800","贾","Male","[""好他"",""坏他"",""好我"",""坏我""]","[""强他"",""弱他"",""强我"",""弱我""]","","","","","","","","","","","","","","","","","","","","","","","","","","","","","","feedback_test","","","","","","","",""
