"rt","stimulus","response","trial_type","trial_index","time_elapsed","internal_node_id","swb_1","swb_2","swb_3","swb_4","swb_5","LOT_1","LOT_2","LOT_3","LOT_4","LOT_5","LOT_6","IPC_1","IPC_2","IPC_3","IPC_4","IPC_5","IPC_6","IPC_7","IPC_8","MorIden_1","MorIden_2","MorIden_3","MorIden_4","MorIden_5","MorIden_6","MorIden_7","MorIden_8","MorIden_9","MorIden_10","moralSeImag_1","moralSeImag_2","moralSeImag_3","moralSeImag_4","moralSeImag_5","moralSeImag_6","moralSeImag_7","moralSeImag_8","moralSeImag_9","sde_1","sde_2","sde_3","sde_4","sde_5","sde_6","sde_7","sde_8","sde_9","sde_10","sde_11","sde_12","sde_13","sde_14","sde_15","sde_16","sde_17","sde_18","sde_19","sde_20","IM_1","IM_2","IM_3","IM_4","IM_5","IM_6","IM_7","IM_8","IM_9","IM_10","IM_11","IM_12","IM_13","IM_14","IM_15","IM_16","IM_17","IM_18","IM_19","IM_20","subj_idx","friend_name","Sex","Word","Word2","value","success","timeout","failed_images","failed_audio","failed_video","user_agent","responses","item_order","radio_event_ids","radio_event_times","key_event_times","mouse_event_times","straightlining","zigzagging","honeypot","task_id","screen_id","time_stamp","response_type","key_press","avg_frame_time","center_x","center_y","person","word","valence","domain","math","correct_response","correct","status","identity","view_history","duration","Image","condition","question_order"
"2403","
   <p><div style='color:white; font-size: 25px'>您好，欢迎参加本次实验。</div></p>
   <p><div style='color:white; font-size: 25px'>为充分保障您的权利，请确保您已经知晓并同意《参与实验同意书》以及《数据公开知情同意书》。</div></p>
   <p><div style='color:white; font-size: 25px'>如果您未见过上述内容，请咨询实验员。</div></p>
   <p style='color:white; font-size: 25px'>如果您选择继续实验，则表示您已经清楚两份知情同意书的内容并同意。</p>
   <p> <div style = ""color: green""><按空格键至下页></div> </p>
   "," ","html-keyboard-response","0","2408","0.0-0.0","5","5","6","4","5","4","3","4","5","4","5","1","2","1","1","2","1","2","1","4","4","5","2","4","3","4","4","5","4","6","8","7","8","5","6","6","8","8","6","4","6","6","6","4","4","2","7","3","6","4","4","2","6","6","6","5","6","3","2","7","4","5","2","7","6","6","7","7","7","7","6","7","4","6","3","6","4","7","613040465838604288","庄","Female","[""好她"",""坏她"",""好我"",""坏我""]","[""强她"",""弱她"",""强我"",""弱我""]","","","","","","","","","","","","","","","","","","","","","","","","","","","","","","","","","","","","","",""
"","","","call-function","1","2409","0.0-1.0-0.0","5","5","6","4","5","4","3","4","5","4","5","1","2","1","1","2","1","2","1","4","4","5","2","4","3","4","4","5","4","6","8","7","8","5","6","6","8","8","6","4","6","6","6","4","4","2","7","3","6","4","4","2","6","6","6","5","6","3","2","7","4","5","2","7","6","6","7","7","7","7","6","7","4","6","3","6","4","7","613040465838604288","庄","Female","[""好她"",""坏她"",""好我"",""坏我""]","[""强她"",""弱她"",""强我"",""弱我""]","","","","","","","","","","","","","","","","","","","","","","","","","","","","","","","","","","","","","",""
"271829","","[{""name"":""Sex"",""value"":""1""},{""name"":""friend_name"",""value"":""庄""}]","survey-html-form","2","274238","0.0-1.0-1.0","5","5","6","4","5","4","3","4","5","4","5","1","2","1","1","2","1","2","1","4","4","5","2","4","3","4","4","5","4","6","8","7","8","5","6","6","8","8","6","4","6","6","6","4","4","2","7","3","6","4","4","2","6","6","6","5","6","3","2","7","4","5","2","7","6","6","7","7","7","7","6","7","4","6","3","6","4","7","613040465838604288","庄","Female","[""好她"",""坏她"",""好我"",""坏我""]","[""强她"",""弱她"",""强我"",""弱我""]","","","","","","","","","","","","","","","","","","","","","","","","","","","","","","","","","","","","","",""
"","","","preload","3","274670","0.0-2.0","5","5","6","4","5","4","3","4","5","4","5","1","2","1","1","2","1","2","1","4","4","5","2","4","3","4","4","5","4","6","8","7","8","5","6","6","8","8","6","4","6","6","6","4","4","2","7","3","6","4","4","2","6","6","6","5","6","3","2","7","4","5","2","7","6","6","7","7","7","7","6","7","4","6","3","6","4","7","613040465838604288","庄","Female","[""好她"",""坏她"",""好我"",""坏我""]","[""强她"",""弱她"",""强我"",""弱我""]","","true","false","[]","[]","[]","","","","","","","","","","","","","","","","","","","","","","","","","","","","","","","",""
"","","","fullscreen","4","277002","0.0-3.0","5","5","6","4","5","4","3","4","5","4","5","1","2","1","1","2","1","2","1","4","4","5","2","4","3","4","4","5","4","6","8","7","8","5","6","6","8","8","6","4","6","6","6","4","4","2","7","3","6","4","4","2","6","6","6","5","6","3","2","7","4","5","2","7","6","6","7","7","7","7","6","7","4","6","3","6","4","7","613040465838604288","庄","Female","[""好她"",""坏她"",""好我"",""坏我""]","[""强她"",""弱她"",""强我"",""弱我""]","","true","","","","","{}","","","","","","","","","","","","","","","","","","","","","","","","","","","","","","",""
"9037.800000190735","","{""Q01"":""5"",""Q02"":""5"",""Q03"":""6"",""Q04"":""4"",""Q05"":""5""}","survey-template","5","286043","0.0-4.0","5","5","6","4","5","4","3","4","5","4","5","1","2","1","1","2","1","2","1","4","4","5","2","4","3","4","4","5","4","6","8","7","8","5","6","6","8","8","6","4","6","6","6","4","4","2","7","3","6","4","4","2","6","6","6","5","6","3","2","7","4","5","2","7","6","6","7","7","7","7","6","7","4","6","3","6","4","7","613040465838604288","庄","Female","[""好她"",""坏她"",""好我"",""坏我""]","[""强她"",""弱她"",""强我"",""弱我""]","","","","","","","","{""Q01"":""5"",""Q02"":""5"",""Q03"":""6"",""Q04"":""4"",""Q05"":""5""}","[0,1,2,3,4]","[""Q01"",""Q02"",""Q03"",""Q04"",""Q05""]","[2133.0999999046326,3444.9000000953674,4156.800000190735,7381.199999809265,8268.800000190735]","[]","[2133.0999999046326,3444.9000000953674,4156.800000190735,5237.099999904633,7381.199999809265,8268.800000190735,9036.800000190735]","0.6","0.5","0","","","","","","","","","","","","","","","","","","","","","",""
"27371.700000286102","","{""Q01"":""4"",""Q02"":""3"",""Q03"":""4"",""Q04"":""5"",""Q05"":""4"",""Q06"":""5""}","survey-template","6","313419","0.0-5.0","5","5","6","4","5","4","3","4","5","4","5","1","2","1","1","2","1","2","1","4","4","5","2","4","3","4","4","5","4","6","8","7","8","5","6","6","8","8","6","4","6","6","6","4","4","2","7","3","6","4","4","2","6","6","6","5","6","3","2","7","4","5","2","7","6","6","7","7","7","7","6","7","4","6","3","6","4","7","613040465838604288","庄","Female","[""好她"",""坏她"",""好我"",""坏我""]","[""强她"",""弱她"",""强我"",""弱我""]","","","","","","","","{""Q01"":""4"",""Q02"":""3"",""Q03"":""4"",""Q04"":""5"",""Q05"":""4"",""Q06"":""5""}","[0,1,2,3,4,5]","[""Q01"",""Q02"",""Q03"",""Q04"",""Q05"",""Q06""]","[4858.5,6818.200000286102,7642.300000190735,22458.300000190735,23562.300000190735,26818.200000286102]","[]","[2018.8000001907349,4858.5,5618.200000286102,6818.200000286102,7642.300000190735,21354.10000038147,22458.300000190735,23562.300000190735,26818.200000286102,27370.800000190735]","0.3333333333333333","0.6","0","","","","","","","","","","","","","","","","","","","","","",""
"17812.099999904633","","{""Q01"":""1"",""Q02"":""2"",""Q03"":""1"",""Q04"":""1"",""Q05"":""2"",""Q06"":""1"",""Q07"":""2"",""Q08"":""1""}","survey-template","7","331234","0.0-6.0","5","5","6","4","5","4","3","4","5","4","5","1","2","1","1","2","1","2","1","4","4","5","2","4","3","4","4","5","4","6","8","7","8","5","6","6","8","8","6","4","6","6","6","4","4","2","7","3","6","4","4","2","6","6","6","5","6","3","2","7","4","5","2","7","6","6","7","7","7","7","6","7","4","6","3","6","4","7","613040465838604288","庄","Female","[""好她"",""坏她"",""好我"",""坏我""]","[""强她"",""弱她"",""强我"",""弱我""]","","","","","","","","{""Q01"":""1"",""Q02"":""2"",""Q03"":""1"",""Q04"":""1"",""Q05"":""2"",""Q06"":""1"",""Q07"":""2"",""Q08"":""1""}","[0,1,2,3,4,5,6,7]","[""Q01"",""Q02"",""Q03"",""Q04"",""Q05"",""Q06"",""Q07"",""Q08""]","[2579.199999809265,6363,8115.099999904633,9747.099999904633,10963.199999809265,12219.099999904633,16595.39999961853,17346.89999961853]","[]","[2579.199999809265,6363,7419.199999809265,8115.099999904633,9747.099999904633,10963.199999809265,12219.099999904633,15763,16595.39999961853,17346.89999961853,17810.799999713898]","0.625","0.8571428571428571","0","","","","","","","","","","","","","","","","","","","","","",""
"12396","
    <p><div style='color:white;font-size:35px; line-height:20px;'>词汇评估任务</div></p><br>
    <p><div style='color:white;font-size:25px; line-height:20px;'>请再次回忆该亲密的朋友，你们至少2年前就认识了，并且最近2年经常见面。</div></p>
    <p><div style='color:white;font-size:25px; line-height:20px;'>在本实验中，您将会看到一些形容词。</div></p>
    <p><div style='color:yellow;font-size:25px; line-height:20px;'>您的任务是判断这些形容词是否符合对您自己或您的朋友的描述。</div></p><p style='font-size:35px'>符合按<span style=""color:lightgreen""> f 键</span>，不符合按<span style=""color:red""> j 键</span></p>","0","html-button-response","8","343634","0.0-7.0-0.0","5","5","6","4","5","4","3","4","5","4","5","1","2","1","1","2","1","2","1","4","4","5","2","4","3","4","4","5","4","6","8","7","8","5","6","6","8","8","6","4","6","6","6","4","4","2","7","3","6","4","4","2","6","6","6","5","6","3","2","7","4","5","2","7","6","6","7","7","7","7","6","7","4","6","3","6","4","7","613040465838604288","庄","Female","[""好她"",""坏她"",""好我"",""坏我""]","[""强她"",""弱她"",""强我"",""弱我""]","","","","","","","","","","","","","","","","","SRET_EW","EW_instructions","Sat Sep 16 2023 20:35:49 GMT+0800 (中国标准时间)","","","","","","","","","","","","","","","","","","",""
"1736","","f","psychophysics","9","346376","0.0-7.0-1.0-0.0","5","5","6","4","5","4","3","4","5","4","5","1","2","1","1","2","1","2","1","4","4","5","2","4","3","4","4","5","4","6","8","7","8","5","6","6","8","8","6","4","6","6","6","4","4","2","7","3","6","4","4","2","6","6","6","5","6","3","2","7","4","5","2","7","6","6","7","7","7","7","6","7","4","6","3","6","4","7","613040465838604288","庄","Female","[""好她"",""坏她"",""好我"",""坏我""]","[""强她"",""弱她"",""强我"",""弱我""]","","","","","","","","yes","","","","","","","","","SRET_EW","EW_practice","","key","f","16.667424242424243","800","446","自己","严谨","Positive","ability","","","","","","","","","",""
"996","","j","psychophysics","10","348374","0.0-7.0-1.0-0.1","5","5","6","4","5","4","3","4","5","4","5","1","2","1","1","2","1","2","1","4","4","5","2","4","3","4","4","5","4","6","8","7","8","5","6","6","8","8","6","4","6","6","6","4","4","2","7","3","6","4","4","2","6","6","6","5","6","3","2","7","4","5","2","7","6","6","7","7","7","7","6","7","4","6","3","6","4","7","613040465838604288","庄","Female","[""好她"",""坏她"",""好我"",""坏我""]","[""强她"",""弱她"",""强我"",""弱我""]","","","","","","","","no","","","","","","","","","SRET_EW","EW_practice","","key","j","16.66615126050418","800","446","自己","刻板","Negative","ability","","","","","","","","","",""
"661","","f","psychophysics","11","350038","0.0-7.0-1.0-0.2","5","5","6","4","5","4","3","4","5","4","5","1","2","1","1","2","1","2","1","4","4","5","2","4","3","4","4","5","4","6","8","7","8","5","6","6","8","8","6","4","6","6","6","4","4","2","7","3","6","4","4","2","6","6","6","5","6","3","2","7","4","5","2","7","6","6","7","7","7","7","6","7","4","6","3","6","4","7","613040465838604288","庄","Female","[""好她"",""坏她"",""好我"",""坏我""]","[""强她"",""弱她"",""强我"",""弱我""]","","","","","","","","yes","","","","","","","","","SRET_EW","EW_practice","","key","f","16.66699999999996","800","446","朋友","忠实","Positive","morality","","","","","","","","","",""
"2853","","f","psychophysics","12","353895","0.0-7.0-1.0-0.3","5","5","6","4","5","4","3","4","5","4","5","1","2","1","1","2","1","2","1","4","4","5","2","4","3","4","4","5","4","6","8","7","8","5","6","6","8","8","6","4","6","6","6","4","4","2","7","3","6","4","4","2","6","6","6","5","6","3","2","7","4","5","2","7","6","6","7","7","7","7","6","7","4","6","3","6","4","7","613040465838604288","庄","Female","[""好她"",""坏她"",""好我"",""坏我""]","[""强她"",""弱她"",""强我"",""弱我""]","","","","","","","","yes","","","","","","","","","SRET_EW","EW_practice","","key","f","16.666821739130462","800","446","朋友","徇私","Negative","morality","","","","","","","","","",""
"8345","
    <p><div style='color:white;font-size:35px; line-height:20px;'>请您再次阅读实验要求</div></p><br>
    <p><div style='color:white;font-size:25px; line-height:20px;'>请回忆某一个亲密的朋友，你们至少2年前就认识了，并且最近2年经常见面。</div></p>
    <p><div style='color:white;font-size:25px; line-height:20px;'>在本实验中，您将会看到一些形容词。</div></p>
    <p><div style='color:yellow;font-size:25px; line-height:20px;'>您的任务是判断这些形容词是否符合对您自己或您的朋友的描述。</div></p>
    <p><div class='footer' style='font-size:25px; line-height:20px;'>如果对本实验还有不清楚之处，请立即向实验员咨询。</p><p style='font-size:25px; line-height:20px;'>如果您明白了规则：</p><p style='font-size:22px; line-height:20px;'>请按 继续 进入正式实验</p>
    </div>
    <p style='font-size:35px'>符合按<span style=""color:lightgreen""> f 键</span>，不符合按<span style=""color:red""> j 键</span></p>","0","html-button-response","13","362241","0.0-7.0-2.0","5","5","6","4","5","4","3","4","5","4","5","1","2","1","1","2","1","2","1","4","4","5","2","4","3","4","4","5","4","6","8","7","8","5","6","6","8","8","6","4","6","6","6","4","4","2","7","3","6","4","4","2","6","6","6","5","6","3","2","7","4","5","2","7","6","6","7","7","7","7","6","7","4","6","3","6","4","7","613040465838604288","庄","Female","[""好她"",""坏她"",""好我"",""坏我""]","[""强她"",""弱她"",""强我"",""弱我""]","","","","","","","","","","","","","","","","","SRET_EW","prac_instructions","Sat Sep 16 2023 20:35:49 GMT+0800 (中国标准时间)","","","","","","","","","","","","","","","","","","",""
"1623","","j","psychophysics","14","364874","0.0-7.0-3.0-0.0","5","5","6","4","5","4","3","4","5","4","5","1","2","1","1","2","1","2","1","4","4","5","2","4","3","4","4","5","4","6","8","7","8","5","6","6","8","8","6","4","6","6","6","4","4","2","7","3","6","4","4","2","6","6","6","5","6","3","2","7","4","5","2","7","6","6","7","7","7","7","6","7","4","6","3","6","4","7","613040465838604288","庄","Female","[""好她"",""坏她"",""好我"",""坏我""]","[""强她"",""弱她"",""强我"",""弱我""]","","","","","","","","no","","","","","","","","","SRET","EW_formal","","key","j","16.666917721518754","800","446","朋友","迷糊","Negative","ability","","","","","","","","","",""
"1574","","j","psychophysics","15","367456","0.0-7.0-3.0-0.1","5","5","6","4","5","4","3","4","5","4","5","1","2","1","1","2","1","2","1","4","4","5","2","4","3","4","4","5","4","6","8","7","8","5","6","6","8","8","6","4","6","6","6","4","4","2","7","3","6","4","4","2","6","6","6","5","6","3","2","7","4","5","2","7","6","6","7","7","7","7","6","7","4","6","3","6","4","7","613040465838604288","庄","Female","[""好她"",""坏她"",""好我"",""坏我""]","[""强她"",""弱她"",""强我"",""弱我""]","","","","","","","","no","","","","","","","","","SRET","EW_formal","","key","j","16.666675324675357","800","446","自己","说谎","Negative","morality","","","","","","","","","",""
"941","","f","psychophysics","16","369399","0.0-7.0-3.0-0.2","5","5","6","4","5","4","3","4","5","4","5","1","2","1","1","2","1","2","1","4","4","5","2","4","3","4","4","5","4","6","8","7","8","5","6","6","8","8","6","4","6","6","6","4","4","2","7","3","6","4","4","2","6","6","6","5","6","3","2","7","4","5","2","7","6","6","7","7","7","7","6","7","4","6","3","6","4","7","613040465838604288","庄","Female","[""好她"",""坏她"",""好我"",""坏我""]","[""强她"",""弱她"",""强我"",""弱我""]","","","","","","","","yes","","","","","","","","","SRET","EW_formal","","key","f","16.66669565217377","800","446","自己","坚贞","Positive","morality","","","","","","","","","",""
"982","","f","psychophysics","17","371385","0.0-7.0-3.0-0.3","5","5","6","4","5","4","3","4","5","4","5","1","2","1","1","2","1","2","1","4","4","5","2","4","3","4","4","5","4","6","8","7","8","5","6","6","8","8","6","4","6","6","6","4","4","2","7","3","6","4","4","2","6","6","6","5","6","3","2","7","4","5","2","7","6","6","7","7","7","7","6","7","4","6","3","6","4","7","613040465838604288","庄","Female","[""好她"",""坏她"",""好我"",""坏我""]","[""强她"",""弱她"",""强我"",""弱我""]","","","","","","","","yes","","","","","","","","","SRET","EW_formal","","key","f","16.666737288135494","800","446","朋友","务实","Positive","ability","","","","","","","","","",""
"743","","f","psychophysics","18","373129","0.0-7.0-3.0-0.4","5","5","6","4","5","4","3","4","5","4","5","1","2","1","1","2","1","2","1","4","4","5","2","4","3","4","4","5","4","6","8","7","8","5","6","6","8","8","6","4","6","6","6","4","4","2","7","3","6","4","4","2","6","6","6","5","6","3","2","7","4","5","2","7","6","6","7","7","7","7","6","7","4","6","3","6","4","7","613040465838604288","庄","Female","[""好她"",""坏她"",""好我"",""坏我""]","[""强她"",""弱她"",""强我"",""弱我""]","","","","","","","","yes","","","","","","","","","SRET","EW_formal","","key","f","16.66731730769243","800","446","自己","独立","Positive","ability","","","","","","","","","",""
"713","","f","psychophysics","19","374849","0.0-7.0-3.0-0.5","5","5","6","4","5","4","3","4","5","4","5","1","2","1","1","2","1","2","1","4","4","5","2","4","3","4","4","5","4","6","8","7","8","5","6","6","8","8","6","4","6","6","6","4","4","2","7","3","6","4","4","2","6","6","6","5","6","3","2","7","4","5","2","7","6","6","7","7","7","7","6","7","4","6","3","6","4","7","613040465838604288","庄","Female","[""好她"",""坏她"",""好我"",""坏我""]","[""强她"",""弱她"",""强我"",""弱我""]","","","","","","","","yes","","","","","","","","","SRET","EW_formal","","key","f","16.66675490196098","800","446","朋友","自律","Positive","ability","","","","","","","","","",""
"890","","f","psychophysics","20","376741","0.0-7.0-3.0-0.6","5","5","6","4","5","4","3","4","5","4","5","1","2","1","1","2","1","2","1","4","4","5","2","4","3","4","4","5","4","6","8","7","8","5","6","6","8","8","6","4","6","6","6","4","4","2","7","3","6","4","4","2","6","6","6","5","6","3","2","7","4","5","2","7","6","6","7","7","7","7","6","7","4","6","3","6","4","7","613040465838604288","庄","Female","[""好她"",""坏她"",""好我"",""坏我""]","[""强她"",""弱她"",""强我"",""弱我""]","","","","","","","","yes","","","","","","","","","SRET","EW_formal","","key","f","16.666176991150365","800","446","自己","娴熟","Positive","ability","","","","","","","","","",""
"1233","","j","psychophysics","21","378979","0.0-7.0-3.0-0.7","5","5","6","4","5","4","3","4","5","4","5","1","2","1","1","2","1","2","1","4","4","5","2","4","3","4","4","5","4","6","8","7","8","5","6","6","8","8","6","4","6","6","6","4","4","2","7","3","6","4","4","2","6","6","6","5","6","3","2","7","4","5","2","7","6","6","7","7","7","7","6","7","4","6","3","6","4","7","613040465838604288","庄","Female","[""好她"",""坏她"",""好我"",""坏我""]","[""强她"",""弱她"",""强我"",""弱我""]","","","","","","","","no","","","","","","","","","SRET","EW_formal","","key","j","16.666548872180545","800","446","朋友","贪污","Negative","morality","","","","","","","","","",""
"1430","","j","psychophysics","22","381416","0.0-7.0-3.0-0.8","5","5","6","4","5","4","3","4","5","4","5","1","2","1","1","2","1","2","1","4","4","5","2","4","3","4","4","5","4","6","8","7","8","5","6","6","8","8","6","4","6","6","6","4","4","2","7","3","6","4","4","2","6","6","6","5","6","3","2","7","4","5","2","7","6","6","7","7","7","7","6","7","4","6","3","6","4","7","613040465838604288","庄","Female","[""好她"",""坏她"",""好我"",""坏我""]","[""强她"",""弱她"",""强我"",""弱我""]","","","","","","","","no","","","","","","","","","SRET","EW_formal","","key","j","16.66677931034456","800","446","自己","逞强","Negative","ability","","","","","","","","","",""
"1485","","f","psychophysics","23","383905","0.0-7.0-3.0-0.9","5","5","6","4","5","4","3","4","5","4","5","1","2","1","1","2","1","2","1","4","4","5","2","4","3","4","4","5","4","6","8","7","8","5","6","6","8","8","6","4","6","6","6","4","4","2","7","3","6","4","4","2","6","6","6","5","6","3","2","7","4","5","2","7","6","6","7","7","7","7","6","7","4","6","3","6","4","7","613040465838604288","庄","Female","[""好她"",""坏她"",""好我"",""坏我""]","[""强她"",""弱她"",""强我"",""弱我""]","","","","","","","","yes","","","","","","","","","SRET","EW_formal","","key","f","16.666771812080842","800","446","朋友","全才","Positive","ability","","","","","","","","","",""
"793","","j","psychophysics","24","385706","0.0-7.0-3.0-0.10","5","5","6","4","5","4","3","4","5","4","5","1","2","1","1","2","1","2","1","4","4","5","2","4","3","4","4","5","4","6","8","7","8","5","6","6","8","8","6","4","6","6","6","4","4","2","7","3","6","4","4","2","6","6","6","5","6","3","2","7","4","5","2","7","6","6","7","7","7","7","6","7","4","6","3","6","4","7","613040465838604288","庄","Female","[""好她"",""坏她"",""好我"",""坏我""]","[""强她"",""弱她"",""强我"",""弱我""]","","","","","","","","no","","","","","","","","","SRET","EW_formal","","key","j","16.666345794392516","800","446","朋友","蛇蝎","Negative","morality","","","","","","","","","",""
"815","","f","psychophysics","25","387530","0.0-7.0-3.0-0.11","5","5","6","4","5","4","3","4","5","4","5","1","2","1","1","2","1","2","1","4","4","5","2","4","3","4","4","5","4","6","8","7","8","5","6","6","8","8","6","4","6","6","6","4","4","2","7","3","6","4","4","2","6","6","6","5","6","3","2","7","4","5","2","7","6","6","7","7","7","7","6","7","4","6","3","6","4","7","613040465838604288","庄","Female","[""好她"",""坏她"",""好我"",""坏我""]","[""强她"",""弱她"",""强我"",""弱我""]","","","","","","","","yes","","","","","","","","","SRET","EW_formal","","key","f","16.666703703703845","800","446","朋友","毅力","Positive","ability","","","","","","","","","",""
"793","","f","psychophysics","26","389327","0.0-7.0-3.0-0.12","5","5","6","4","5","4","3","4","5","4","5","1","2","1","1","2","1","2","1","4","4","5","2","4","3","4","4","5","4","6","8","7","8","5","6","6","8","8","6","4","6","6","6","4","4","2","7","3","6","4","4","2","6","6","6","5","6","3","2","7","4","5","2","7","6","6","7","7","7","7","6","7","4","6","3","6","4","7","613040465838604288","庄","Female","[""好她"",""坏她"",""好我"",""坏我""]","[""强她"",""弱她"",""强我"",""弱我""]","","","","","","","","yes","","","","","","","","","SRET","EW_formal","","key","f","16.66662616822455","800","446","朋友","犹豫","Negative","ability","","","","","","","","","",""
"1129","","f","psychophysics","27","391460","0.0-7.0-3.0-0.13","5","5","6","4","5","4","3","4","5","4","5","1","2","1","1","2","1","2","1","4","4","5","2","4","3","4","4","5","4","6","8","7","8","5","6","6","8","8","6","4","6","6","6","4","4","2","7","3","6","4","4","2","6","6","6","5","6","3","2","7","4","5","2","7","6","6","7","7","7","7","6","7","4","6","3","6","4","7","613040465838604288","庄","Female","[""好她"",""坏她"",""好我"",""坏我""]","[""强她"",""弱她"",""强我"",""弱我""]","","","","","","","","yes","","","","","","","","","SRET","EW_formal","","key","f","16.666622047244267","800","446","自己","才尽","Negative","ability","","","","","","","","","",""
"1334","","j","psychophysics","28","393801","0.0-7.0-3.0-0.14","5","5","6","4","5","4","3","4","5","4","5","1","2","1","1","2","1","2","1","4","4","5","2","4","3","4","4","5","4","6","8","7","8","5","6","6","8","8","6","4","6","6","6","4","4","2","7","3","6","4","4","2","6","6","6","5","6","3","2","7","4","5","2","7","6","6","7","7","7","7","6","7","4","6","3","6","4","7","613040465838604288","庄","Female","[""好她"",""坏她"",""好我"",""坏我""]","[""强她"",""弱她"",""强我"",""弱我""]","","","","","","","","no","","","","","","","","","SRET","EW_formal","","key","j","16.66660431654673","800","446","朋友","缺德","Negative","morality","","","","","","","","","",""
"2630","","f","psychophysics","29","397437","0.0-7.0-3.0-0.15","5","5","6","4","5","4","3","4","5","4","5","1","2","1","1","2","1","2","1","4","4","5","2","4","3","4","4","5","4","6","8","7","8","5","6","6","8","8","6","4","6","6","6","4","4","2","7","3","6","4","4","2","6","6","6","5","6","3","2","7","4","5","2","7","6","6","7","7","7","7","6","7","4","6","3","6","4","7","613040465838604288","庄","Female","[""好她"",""坏她"",""好我"",""坏我""]","[""强她"",""弱她"",""强我"",""弱我""]","","","","","","","","yes","","","","","","","","","SRET","EW_formal","","key","f","16.666761467889874","800","446","朋友","远见","Positive","ability","","","","","","","","","",""
"862","","j","psychophysics","30","399304","0.0-7.0-3.0-0.16","5","5","6","4","5","4","3","4","5","4","5","1","2","1","1","2","1","2","1","4","4","5","2","4","3","4","4","5","4","6","8","7","8","5","6","6","8","8","6","4","6","6","6","4","4","2","7","3","6","4","4","2","6","6","6","5","6","3","2","7","4","5","2","7","6","6","7","7","7","7","6","7","4","6","3","6","4","7","613040465838604288","庄","Female","[""好她"",""坏她"",""好我"",""坏我""]","[""强她"",""弱她"",""强我"",""弱我""]","","","","","","","","no","","","","","","","","","SRET","EW_formal","","key","j","16.6669459459461","800","446","朋友","盲目","Negative","ability","","","","","","","","","",""
"923","","j","psychophysics","31","401228","0.0-7.0-3.0-0.17","5","5","6","4","5","4","3","4","5","4","5","1","2","1","1","2","1","2","1","4","4","5","2","4","3","4","4","5","4","6","8","7","8","5","6","6","8","8","6","4","6","6","6","4","4","2","7","3","6","4","4","2","6","6","6","5","6","3","2","7","4","5","2","7","6","6","7","7","7","7","6","7","4","6","3","6","4","7","613040465838604288","庄","Female","[""好她"",""坏她"",""好我"",""坏我""]","[""强她"",""弱她"",""强我"",""弱我""]","","","","","","","","no","","","","","","","","","SRET","EW_formal","","key","j","16.66692982456165","800","446","自己","拙笨","Negative","ability","","","","","","","","","",""
"1207","","j","psychophysics","32","403441","0.0-7.0-3.0-0.18","5","5","6","4","5","4","3","4","5","4","5","1","2","1","1","2","1","2","1","4","4","5","2","4","3","4","4","5","4","6","8","7","8","5","6","6","8","8","6","4","6","6","6","4","4","2","7","3","6","4","4","2","6","6","6","5","6","3","2","7","4","5","2","7","6","6","7","7","7","7","6","7","4","6","3","6","4","7","613040465838604288","庄","Female","[""好她"",""坏她"",""好我"",""坏我""]","[""强她"",""弱她"",""强我"",""弱我""]","","","","","","","","no","","","","","","","","","SRET","EW_formal","","key","j","16.66659090909128","800","446","自己","自私","Negative","morality","","","","","","","","","",""
"846","","j","psychophysics","33","405296","0.0-7.0-3.0-0.19","5","5","6","4","5","4","3","4","5","4","5","1","2","1","1","2","1","2","1","4","4","5","2","4","3","4","4","5","4","6","8","7","8","5","6","6","8","8","6","4","6","6","6","4","4","2","7","3","6","4","4","2","6","6","6","5","6","3","2","7","4","5","2","7","6","6","7","7","7","7","6","7","4","6","3","6","4","7","613040465838604288","庄","Female","[""好她"",""坏她"",""好我"",""坏我""]","[""强她"",""弱她"",""强我"",""弱我""]","","","","","","","","no","","","","","","","","","SRET","EW_formal","","key","j","16.667172727272423","800","446","自己","差生","Negative","ability","","","","","","","","","",""
"3074","","f","psychophysics","34","409372","0.0-7.0-3.0-0.20","5","5","6","4","5","4","3","4","5","4","5","1","2","1","1","2","1","2","1","4","4","5","2","4","3","4","4","5","4","6","8","7","8","5","6","6","8","8","6","4","6","6","6","4","4","2","7","3","6","4","4","2","6","6","6","5","6","3","2","7","4","5","2","7","6","6","7","7","7","7","6","7","4","6","3","6","4","7","613040465838604288","庄","Female","[""好她"",""坏她"",""好我"",""坏我""]","[""强她"",""弱她"",""强我"",""弱我""]","","","","","","","","yes","","","","","","","","","SRET","EW_formal","","key","f","16.66658606557376","800","446","朋友","变通","Positive","ability","","","","","","","","","",""
"1133","","f","psychophysics","35","411512","0.0-7.0-3.0-0.21","5","5","6","4","5","4","3","4","5","4","5","1","2","1","1","2","1","2","1","4","4","5","2","4","3","4","4","5","4","6","8","7","8","5","6","6","8","8","6","4","6","6","6","4","4","2","7","3","6","4","4","2","6","6","6","5","6","3","2","7","4","5","2","7","6","6","7","7","7","7","6","7","4","6","3","6","4","7","613040465838604288","庄","Female","[""好她"",""坏她"",""好我"",""坏我""]","[""强她"",""弱她"",""强我"",""弱我""]","","","","","","","","yes","","","","","","","","","SRET","EW_formal","","key","f","16.666590551181155","800","446","自己","有力","Positive","ability","","","","","","","","","",""
"938","","f","psychophysics","36","413457","0.0-7.0-3.0-0.22","5","5","6","4","5","4","3","4","5","4","5","1","2","1","1","2","1","2","1","4","4","5","2","4","3","4","4","5","4","6","8","7","8","5","6","6","8","8","6","4","6","6","6","4","4","2","7","3","6","4","4","2","6","6","6","5","6","3","2","7","4","5","2","7","6","6","7","7","7","7","6","7","4","6","3","6","4","7","613040465838604288","庄","Female","[""好她"",""坏她"",""好我"",""坏我""]","[""强她"",""弱她"",""强我"",""弱我""]","","","","","","","","yes","","","","","","","","","SRET","EW_formal","","key","f","16.6673448275863","800","446","自己","聪明","Positive","ability","","","","","","","","","",""
"883","","f","psychophysics","37","415340","0.0-7.0-3.0-0.23","5","5","6","4","5","4","3","4","5","4","5","1","2","1","1","2","1","2","1","4","4","5","2","4","3","4","4","5","4","6","8","7","8","5","6","6","8","8","6","4","6","6","6","4","4","2","7","3","6","4","4","2","6","6","6","5","6","3","2","7","4","5","2","7","6","6","7","7","7","7","6","7","4","6","3","6","4","7","613040465838604288","庄","Female","[""好她"",""坏她"",""好我"",""坏我""]","[""强她"",""弱她"",""强我"",""弱我""]","","","","","","","","yes","","","","","","","","","SRET","EW_formal","","key","f","16.66607142857174","800","446","自己","廉明","Positive","morality","","","","","","","","","",""
"1141","","j","psychophysics","38","417487","0.0-7.0-3.0-0.24","5","5","6","4","5","4","3","4","5","4","5","1","2","1","1","2","1","2","1","4","4","5","2","4","3","4","4","5","4","6","8","7","8","5","6","6","8","8","6","4","6","6","6","4","4","2","7","3","6","4","4","2","6","6","6","5","6","3","2","7","4","5","2","7","6","6","7","7","7","7","6","7","4","6","3","6","4","7","613040465838604288","庄","Female","[""好她"",""坏她"",""好我"",""坏我""]","[""强她"",""弱她"",""强我"",""弱我""]","","","","","","","","no","","","","","","","","","SRET","EW_formal","","key","j","16.666710937500284","800","446","自己","偏私","Negative","morality","","","","","","","","","",""
"1332","","j","psychophysics","39","419823","0.0-7.0-3.0-0.25","5","5","6","4","5","4","3","4","5","4","5","1","2","1","1","2","1","2","1","4","4","5","2","4","3","4","4","5","4","6","8","7","8","5","6","6","8","8","6","4","6","6","6","4","4","2","7","3","6","4","4","2","6","6","6","5","6","3","2","7","4","5","2","7","6","6","7","7","7","7","6","7","4","6","3","6","4","7","613040465838604288","庄","Female","[""好她"",""坏她"",""好我"",""坏我""]","[""强她"",""弱她"",""强我"",""弱我""]","","","","","","","","no","","","","","","","","","SRET","EW_formal","","key","j","16.66660431654673","800","446","自己","卑鄙","Negative","morality","","","","","","","","","",""
"2623","","f","psychophysics","40","423449","0.0-7.0-3.0-0.26","5","5","6","4","5","4","3","4","5","4","5","1","2","1","1","2","1","2","1","4","4","5","2","4","3","4","4","5","4","6","8","7","8","5","6","6","8","8","6","4","6","6","6","4","4","2","7","3","6","4","4","2","6","6","6","5","6","3","2","7","4","5","2","7","6","6","7","7","7","7","6","7","4","6","3","6","4","7","613040465838604288","庄","Female","[""好她"",""坏她"",""好我"",""坏我""]","[""强她"",""弱她"",""强我"",""弱我""]","","","","","","","","yes","","","","","","","","","SRET","EW_formal","","key","f","16.666759259259077","800","446","自己","周到","Positive","ability","","","","","","","","","",""
"797","","f","psychophysics","41","425249","0.0-7.0-3.0-0.27","5","5","6","4","5","4","3","4","5","4","5","1","2","1","1","2","1","2","1","4","4","5","2","4","3","4","4","5","4","6","8","7","8","5","6","6","8","8","6","4","6","6","6","4","4","2","7","3","6","4","4","2","6","6","6","5","6","3","2","7","4","5","2","7","6","6","7","7","7","7","6","7","4","6","3","6","4","7","613040465838604288","庄","Female","[""好她"",""坏她"",""好我"",""坏我""]","[""强她"",""弱她"",""强我"",""弱我""]","","","","","","","","yes","","","","","","","","","SRET","EW_formal","","key","f","16.66739252336469","800","446","自己","专注","Positive","ability","","","","","","","","","",""
"790","","j","psychophysics","42","427042","0.0-7.0-3.0-0.28","5","5","6","4","5","4","3","4","5","4","5","1","2","1","1","2","1","2","1","4","4","5","2","4","3","4","4","5","4","6","8","7","8","5","6","6","8","8","6","4","6","6","6","4","4","2","7","3","6","4","4","2","6","6","6","5","6","3","2","7","4","5","2","7","6","6","7","7","7","7","6","7","4","6","3","6","4","7","613040465838604288","庄","Female","[""好她"",""坏她"",""好我"",""坏我""]","[""强她"",""弱她"",""强我"",""弱我""]","","","","","","","","no","","","","","","","","","SRET","EW_formal","","key","j","16.666130841121614","800","446","朋友","阴毒","Negative","morality","","","","","","","","","",""
"2892","","f","psychophysics","43","430942","0.0-7.0-3.0-0.29","5","5","6","4","5","4","3","4","5","4","5","1","2","1","1","2","1","2","1","4","4","5","2","4","3","4","4","5","4","6","8","7","8","5","6","6","8","8","6","4","6","6","6","4","4","2","7","3","6","4","4","2","6","6","6","5","6","3","2","7","4","5","2","7","6","6","7","7","7","7","6","7","4","6","3","6","4","7","613040465838604288","庄","Female","[""好她"",""坏她"",""好我"",""坏我""]","[""强她"",""弱她"",""强我"",""弱我""]","","","","","","","","yes","","","","","","","","","SRET","EW_formal","","key","f","16.666497854077228","800","446","朋友","无私","Positive","morality","","","","","","","","","",""
"1748","","f","psychophysics","44","433695","0.0-7.0-3.0-0.30","5","5","6","4","5","4","3","4","5","4","5","1","2","1","1","2","1","2","1","4","4","5","2","4","3","4","4","5","4","6","8","7","8","5","6","6","8","8","6","4","6","6","6","4","4","2","7","3","6","4","4","2","6","6","6","5","6","3","2","7","4","5","2","7","6","6","7","7","7","7","6","7","4","6","3","6","4","7","613040465838604288","庄","Female","[""好她"",""坏她"",""好我"",""坏我""]","[""强她"",""弱她"",""强我"",""弱我""]","","","","","","","","yes","","","","","","","","","SRET","EW_formal","","key","f","16.666420731707348","800","446","自己","守信","Positive","morality","","","","","","","","","",""
"2849","","f","psychophysics","45","437547","0.0-7.0-3.0-0.31","5","5","6","4","5","4","3","4","5","4","5","1","2","1","1","2","1","2","1","4","4","5","2","4","3","4","4","5","4","6","8","7","8","5","6","6","8","8","6","4","6","6","6","4","4","2","7","3","6","4","4","2","6","6","6","5","6","3","2","7","4","5","2","7","6","6","7","7","7","7","6","7","4","6","3","6","4","7","613040465838604288","庄","Female","[""好她"",""坏她"",""好我"",""坏我""]","[""强她"",""弱她"",""强我"",""弱我""]","","","","","","","","yes","","","","","","","","","SRET","EW_formal","","key","f","16.666852173912996","800","446","自己","淡泊","Positive","morality","","","","","","","","","",""
"865","","j","psychophysics","46","439416","0.0-7.0-3.0-0.32","5","5","6","4","5","4","3","4","5","4","5","1","2","1","1","2","1","2","1","4","4","5","2","4","3","4","4","5","4","6","8","7","8","5","6","6","8","8","6","4","6","6","6","4","4","2","7","3","6","4","4","2","6","6","6","5","6","3","2","7","4","5","2","7","6","6","7","7","7","7","6","7","4","6","3","6","4","7","613040465838604288","庄","Female","[""好她"",""坏她"",""好我"",""坏我""]","[""强她"",""弱她"",""强我"",""弱我""]","","","","","","","","no","","","","","","","","","SRET","EW_formal","","key","j","16.666702702702317","800","446","朋友","诡诈","Negative","morality","","","","","","","","","",""
"1552","","f","psychophysics","47","441970","0.0-7.0-3.0-0.33","5","5","6","4","5","4","3","4","5","4","5","1","2","1","1","2","1","2","1","4","4","5","2","4","3","4","4","5","4","6","8","7","8","5","6","6","8","8","6","4","6","6","6","4","4","2","7","3","6","4","4","2","6","6","6","5","6","3","2","7","4","5","2","7","6","6","7","7","7","7","6","7","4","6","3","6","4","7","613040465838604288","庄","Female","[""好她"",""坏她"",""好我"",""坏我""]","[""强她"",""弱她"",""强我"",""弱我""]","","","","","","","","yes","","","","","","","","","SRET","EW_formal","","key","f","16.666738562091496","800","446","自己","宽容","Positive","morality","","","","","","","","","",""
"1039","","f","psychophysics","48","444017","0.0-7.0-3.0-0.34","5","5","6","4","5","4","3","4","5","4","5","1","2","1","1","2","1","2","1","4","4","5","2","4","3","4","4","5","4","6","8","7","8","5","6","6","8","8","6","4","6","6","6","4","4","2","7","3","6","4","4","2","6","6","6","5","6","3","2","7","4","5","2","7","6","6","7","7","7","7","6","7","4","6","3","6","4","7","613040465838604288","庄","Female","[""好她"",""坏她"",""好我"",""坏我""]","[""强她"",""弱她"",""强我"",""弱我""]","","","","","","","","yes","","","","","","","","","SRET","EW_formal","","key","f","16.66717355371903","800","446","自己","顶事","Positive","ability","","","","","","","","","",""
"1158","","f","psychophysics","49","446178","0.0-7.0-3.0-0.35","5","5","6","4","5","4","3","4","5","4","5","1","2","1","1","2","1","2","1","4","4","5","2","4","3","4","4","5","4","6","8","7","8","5","6","6","8","8","6","4","6","6","6","4","4","2","7","3","6","4","4","2","6","6","6","5","6","3","2","7","4","5","2","7","6","6","7","7","7","7","6","7","4","6","3","6","4","7","613040465838604288","庄","Female","[""好她"",""坏她"",""好我"",""坏我""]","[""强她"",""弱她"",""强我"",""弱我""]","","","","","","","","yes","","","","","","","","","SRET","EW_formal","","key","f","16.666007751938274","800","446","朋友","果断","Positive","ability","","","","","","","","","",""
"1486","","f","psychophysics","50","448672","0.0-7.0-3.0-0.36","5","5","6","4","5","4","3","4","5","4","5","1","2","1","1","2","1","2","1","4","4","5","2","4","3","4","4","5","4","6","8","7","8","5","6","6","8","8","6","4","6","6","6","4","4","2","7","3","6","4","4","2","6","6","6","5","6","3","2","7","4","5","2","7","6","6","7","7","7","7","6","7","4","6","3","6","4","7","613040465838604288","庄","Female","[""好她"",""坏她"",""好我"",""坏我""]","[""强她"",""弱她"",""强我"",""弱我""]","","","","","","","","yes","","","","","","","","","SRET","EW_formal","","key","f","16.66685906040284","800","446","朋友","坚持","Positive","ability","","","","","","","","","",""
"1562","","j","psychophysics","51","451236","0.0-7.0-3.0-0.37","5","5","6","4","5","4","3","4","5","4","5","1","2","1","1","2","1","2","1","4","4","5","2","4","3","4","4","5","4","6","8","7","8","5","6","6","8","8","6","4","6","6","6","4","4","2","7","3","6","4","4","2","6","6","6","5","6","3","2","7","4","5","2","7","6","6","7","7","7","7","6","7","4","6","3","6","4","7","613040465838604288","庄","Female","[""好她"",""坏她"",""好我"",""坏我""]","[""强她"",""弱她"",""强我"",""弱我""]","","","","","","","","no","","","","","","","","","SRET","EW_formal","","key","j","16.666631578947232","800","446","朋友","无为","Negative","ability","","","","","","","","","",""
"1251","","j","psychophysics","52","453494","0.0-7.0-3.0-0.38","5","5","6","4","5","4","3","4","5","4","5","1","2","1","1","2","1","2","1","4","4","5","2","4","3","4","4","5","4","6","8","7","8","5","6","6","8","8","6","4","6","6","6","4","4","2","7","3","6","4","4","2","6","6","6","5","6","3","2","7","4","5","2","7","6","6","7","7","7","7","6","7","4","6","3","6","4","7","613040465838604288","庄","Female","[""好她"",""坏她"",""好我"",""坏我""]","[""强她"",""弱她"",""强我"",""弱我""]","","","","","","","","no","","","","","","","","","SRET","EW_formal","","key","j","16.667051851852037","800","446","自己","刻薄","Negative","morality","","","","","","","","","",""
"2358","","f","psychophysics","53","456856","0.0-7.0-3.0-0.39","5","5","6","4","5","4","3","4","5","4","5","1","2","1","1","2","1","2","1","4","4","5","2","4","3","4","4","5","4","6","8","7","8","5","6","6","8","8","6","4","6","6","6","4","4","2","7","3","6","4","4","2","6","6","6","5","6","3","2","7","4","5","2","7","6","6","7","7","7","7","6","7","4","6","3","6","4","7","613040465838604288","庄","Female","[""好她"",""坏她"",""好我"",""坏我""]","[""强她"",""弱她"",""强我"",""弱我""]","","","","","","","","yes","","","","","","","","","SRET","EW_formal","","key","f","16.666676616915606","800","446","自己","努力","Positive","ability","","","","","","","","","",""
"714","","j","psychophysics","54","458573","0.0-7.0-3.0-0.40","5","5","6","4","5","4","3","4","5","4","5","1","2","1","1","2","1","2","1","4","4","5","2","4","3","4","4","5","4","6","8","7","8","5","6","6","8","8","6","4","6","6","6","4","4","2","7","3","6","4","4","2","6","6","6","5","6","3","2","7","4","5","2","7","6","6","7","7","7","7","6","7","4","6","3","6","4","7","613040465838604288","庄","Female","[""好她"",""坏她"",""好我"",""坏我""]","[""强她"",""弱她"",""强我"",""弱我""]","","","","","","","","no","","","","","","","","","SRET","EW_formal","","key","j","16.66678431372594","800","446","朋友","愚钝","Negative","ability","","","","","","","","","",""
"1562","","j","psychophysics","55","461142","0.0-7.0-3.0-0.41","5","5","6","4","5","4","3","4","5","4","5","1","2","1","1","2","1","2","1","4","4","5","2","4","3","4","4","5","4","6","8","7","8","5","6","6","8","8","6","4","6","6","6","4","4","2","7","3","6","4","4","2","6","6","6","5","6","3","2","7","4","5","2","7","6","6","7","7","7","7","6","7","4","6","3","6","4","7","613040465838604288","庄","Female","[""好她"",""坏她"",""好我"",""坏我""]","[""强她"",""弱她"",""强我"",""弱我""]","","","","","","","","no","","","","","","","","","SRET","EW_formal","","key","j","16.66656862745089","800","446","朋友","逞能","Negative","ability","","","","","","","","","",""
"2212","","f","psychophysics","56","464358","0.0-7.0-3.0-0.42","5","5","6","4","5","4","3","4","5","4","5","1","2","1","1","2","1","2","1","4","4","5","2","4","3","4","4","5","4","6","8","7","8","5","6","6","8","8","6","4","6","6","6","4","4","2","7","3","6","4","4","2","6","6","6","5","6","3","2","7","4","5","2","7","6","6","7","7","7","7","6","7","4","6","3","6","4","7","613040465838604288","庄","Female","[""好她"",""坏她"",""好我"",""坏我""]","[""强她"",""弱她"",""强我"",""弱我""]","","","","","","","","yes","","","","","","","","","SRET","EW_formal","","key","f","16.666598958333452","800","446","朋友","廉正","Positive","morality","","","","","","","","","",""
"722","","j","psychophysics","57","466084","0.0-7.0-3.0-0.43","5","5","6","4","5","4","3","4","5","4","5","1","2","1","1","2","1","2","1","4","4","5","2","4","3","4","4","5","4","6","8","7","8","5","6","6","8","8","6","4","6","6","6","4","4","2","7","3","6","4","4","2","6","6","6","5","6","3","2","7","4","5","2","7","6","6","7","7","7","7","6","7","4","6","3","6","4","7","613040465838604288","庄","Female","[""好她"",""坏她"",""好我"",""坏我""]","[""强她"",""弱她"",""强我"",""弱我""]","","","","","","","","no","","","","","","","","","SRET","EW_formal","","key","j","16.66667647058813","800","446","朋友","昏庸","Negative","ability","","","","","","","","","",""
"693","","f","psychophysics","58","467783","0.0-7.0-3.0-0.44","5","5","6","4","5","4","3","4","5","4","5","1","2","1","1","2","1","2","1","4","4","5","2","4","3","4","4","5","4","6","8","7","8","5","6","6","8","8","6","4","6","6","6","4","4","2","7","3","6","4","4","2","6","6","6","5","6","3","2","7","4","5","2","7","6","6","7","7","7","7","6","7","4","6","3","6","4","7","613040465838604288","庄","Female","[""好她"",""坏她"",""好我"",""坏我""]","[""强她"",""弱她"",""强我"",""弱我""]","","","","","","","","yes","","","","","","","","","SRET","EW_formal","","key","f","16.66718811881187","800","446","自己","高效","Positive","ability","","","","","","","","","",""
"904","","j","psychophysics","59","469689","0.0-7.0-3.0-0.45","5","5","6","4","5","4","3","4","5","4","5","1","2","1","1","2","1","2","1","4","4","5","2","4","3","4","4","5","4","6","8","7","8","5","6","6","8","8","6","4","6","6","6","4","4","2","7","3","6","4","4","2","6","6","6","5","6","3","2","7","4","5","2","7","6","6","7","7","7","7","6","7","4","6","3","6","4","7","613040465838604288","庄","Female","[""好她"",""坏她"",""好我"",""坏我""]","[""强她"",""弱她"",""强我"",""弱我""]","","","","","","","","no","","","","","","","","","SRET","EW_formal","","key","j","16.66692982456165","800","446","自己","无能","Negative","ability","","","","","","","","","",""
"1211","","j","psychophysics","60","471909","0.0-7.0-3.0-0.46","5","5","6","4","5","4","3","4","5","4","5","1","2","1","1","2","1","2","1","4","4","5","2","4","3","4","4","5","4","6","8","7","8","5","6","6","8","8","6","4","6","6","6","4","4","2","7","3","6","4","4","2","6","6","6","5","6","3","2","7","4","5","2","7","6","6","7","7","7","7","6","7","4","6","3","6","4","7","613040465838604288","庄","Female","[""好她"",""坏她"",""好我"",""坏我""]","[""强她"",""弱她"",""强我"",""弱我""]","","","","","","","","no","","","","","","","","","SRET","EW_formal","","key","j","16.666219696970074","800","446","自己","粗心","Negative","ability","","","","","","","","","",""
"776","","j","psychophysics","61","473690","0.0-7.0-3.0-0.47","5","5","6","4","5","4","3","4","5","4","5","1","2","1","1","2","1","2","1","4","4","5","2","4","3","4","4","5","4","6","8","7","8","5","6","6","8","8","6","4","6","6","6","4","4","2","7","3","6","4","4","2","6","6","6","5","6","3","2","7","4","5","2","7","6","6","7","7","7","7","6","7","4","6","3","6","4","7","613040465838604288","庄","Female","[""好她"",""坏她"",""好我"",""坏我""]","[""强她"",""弱她"",""强我"",""弱我""]","","","","","","","","no","","","","","","","","","SRET","EW_formal","","key","j","16.667179245283204","800","446","朋友","狡狯","Negative","morality","","","","","","","","","",""
"2248","","f","psychophysics","62","476946","0.0-7.0-3.0-0.48","5","5","6","4","5","4","3","4","5","4","5","1","2","1","1","2","1","2","1","4","4","5","2","4","3","4","4","5","4","6","8","7","8","5","6","6","8","8","6","4","6","6","6","4","4","2","7","3","6","4","4","2","6","6","6","5","6","3","2","7","4","5","2","7","6","6","7","7","7","7","6","7","4","6","3","6","4","7","613040465838604288","庄","Female","[""好她"",""坏她"",""好我"",""坏我""]","[""强她"",""弱她"",""强我"",""弱我""]","","","","","","","","yes","","","","","","","","","SRET","EW_formal","","key","f","16.666515463917545","800","446","朋友","侠义","Positive","morality","","","","","","","","","",""
"726","","f","psychophysics","63","478679","0.0-7.0-3.0-0.49","5","5","6","4","5","4","3","4","5","4","5","1","2","1","1","2","1","2","1","4","4","5","2","4","3","4","4","5","4","6","8","7","8","5","6","6","8","8","6","4","6","6","6","4","4","2","7","3","6","4","4","2","6","6","6","5","6","3","2","7","4","5","2","7","6","6","7","7","7","7","6","7","4","6","3","6","4","7","613040465838604288","庄","Female","[""好她"",""坏她"",""好我"",""坏我""]","[""强她"",""弱她"",""强我"",""弱我""]","","","","","","","","yes","","","","","","","","","SRET","EW_formal","","key","f","16.66626213592233","800","446","朋友","高尚","Positive","morality","","","","","","","","","",""
"1046","","f","psychophysics","64","480728","0.0-7.0-3.0-0.50","5","5","6","4","5","4","3","4","5","4","5","1","2","1","1","2","1","2","1","4","4","5","2","4","3","4","4","5","4","6","8","7","8","5","6","6","8","8","6","4","6","6","6","4","4","2","7","3","6","4","4","2","6","6","6","5","6","3","2","7","4","5","2","7","6","6","7","7","7","7","6","7","4","6","3","6","4","7","613040465838604288","庄","Female","[""好她"",""坏她"",""好我"",""坏我""]","[""强她"",""弱她"",""强我"",""弱我""]","","","","","","","","yes","","","","","","","","","SRET","EW_formal","","key","f","16.66713934426232","800","446","自己","敬业","Positive","morality","","","","","","","","","",""
"894","","f","psychophysics","65","482624","0.0-7.0-3.0-0.51","5","5","6","4","5","4","3","4","5","4","5","1","2","1","1","2","1","2","1","4","4","5","2","4","3","4","4","5","4","6","8","7","8","5","6","6","8","8","6","4","6","6","6","4","4","2","7","3","6","4","4","2","6","6","6","5","6","3","2","7","4","5","2","7","6","6","7","7","7","7","6","7","4","6","3","6","4","7","613040465838604288","庄","Female","[""好她"",""坏她"",""好我"",""坏我""]","[""强她"",""弱她"",""强我"",""弱我""]","","","","","","","","yes","","","","","","","","","SRET","EW_formal","","key","f","16.667008849557806","800","446","朋友","博识","Positive","ability","","","","","","","","","",""
"1568","","f","psychophysics","66","485195","0.0-7.0-3.0-0.52","5","5","6","4","5","4","3","4","5","4","5","1","2","1","1","2","1","2","1","4","4","5","2","4","3","4","4","5","4","6","8","7","8","5","6","6","8","8","6","4","6","6","6","4","4","2","7","3","6","4","4","2","6","6","6","5","6","3","2","7","4","5","2","7","6","6","7","7","7","7","6","7","4","6","3","6","4","7","613040465838604288","庄","Female","[""好她"",""坏她"",""好我"",""坏我""]","[""强她"",""弱她"",""强我"",""弱我""]","","","","","","","","yes","","","","","","","","","SRET","EW_formal","","key","f","16.66619607843147","800","446","自己","清廉","Positive","morality","","","","","","","","","",""
"799","","f","psychophysics","67","487000","0.0-7.0-3.0-0.53","5","5","6","4","5","4","3","4","5","4","5","1","2","1","1","2","1","2","1","4","4","5","2","4","3","4","4","5","4","6","8","7","8","5","6","6","8","8","6","4","6","6","6","4","4","2","7","3","6","4","4","2","6","6","6","5","6","3","2","7","4","5","2","7","6","6","7","7","7","7","6","7","4","6","3","6","4","7","613040465838604288","庄","Female","[""好她"",""坏她"",""好我"",""坏我""]","[""强她"",""弱她"",""强我"",""弱我""]","","","","","","","","yes","","","","","","","","","SRET","EW_formal","","key","f","16.666560747663418","800","446","朋友","慈悲","Positive","morality","","","","","","","","","",""
"611","","f","psychophysics","68","488613","0.0-7.0-3.0-0.54","5","5","6","4","5","4","3","4","5","4","5","1","2","1","1","2","1","2","1","4","4","5","2","4","3","4","4","5","4","6","8","7","8","5","6","6","8","8","6","4","6","6","6","4","4","2","7","3","6","4","4","2","6","6","6","5","6","3","2","7","4","5","2","7","6","6","7","7","7","7","6","7","4","6","3","6","4","7","613040465838604288","庄","Female","[""好她"",""坏她"",""好我"",""坏我""]","[""强她"",""弱她"",""强我"",""弱我""]","","","","","","","","yes","","","","","","","","","SRET","EW_formal","","key","f","16.667312499999753","800","446","自己","爱国","Positive","morality","","","","","","","","","",""
"831","","j","psychophysics","69","490449","0.0-7.0-3.0-0.55","5","5","6","4","5","4","3","4","5","4","5","1","2","1","1","2","1","2","1","4","4","5","2","4","3","4","4","5","4","6","8","7","8","5","6","6","8","8","6","4","6","6","6","4","4","2","7","3","6","4","4","2","6","6","6","5","6","3","2","7","4","5","2","7","6","6","7","7","7","7","6","7","4","6","3","6","4","7","613040465838604288","庄","Female","[""好她"",""坏她"",""好我"",""坏我""]","[""强她"",""弱她"",""强我"",""弱我""]","","","","","","","","no","","","","","","","","","SRET","EW_formal","","key","j","16.666376146789077","800","446","朋友","伪善","Negative","morality","","","","","","","","","",""
"698","","j","psychophysics","70","492149","0.0-7.0-3.0-0.56","5","5","6","4","5","4","3","4","5","4","5","1","2","1","1","2","1","2","1","4","4","5","2","4","3","4","4","5","4","6","8","7","8","5","6","6","8","8","6","4","6","6","6","4","4","2","7","3","6","4","4","2","6","6","6","5","6","3","2","7","4","5","2","7","6","6","7","7","7","7","6","7","4","6","3","6","4","7","613040465838604288","庄","Female","[""好她"",""坏她"",""好我"",""坏我""]","[""强她"",""弱她"",""强我"",""弱我""]","","","","","","","","no","","","","","","","","","SRET","EW_formal","","key","j","16.66694059405974","800","446","自己","弱智","Negative","ability","","","","","","","","","",""
"1089","","j","psychophysics","71","494241","0.0-7.0-3.0-0.57","5","5","6","4","5","4","3","4","5","4","5","1","2","1","1","2","1","2","1","4","4","5","2","4","3","4","4","5","4","6","8","7","8","5","6","6","8","8","6","4","6","6","6","4","4","2","7","3","6","4","4","2","6","6","6","5","6","3","2","7","4","5","2","7","6","6","7","7","7","7","6","7","4","6","3","6","4","7","613040465838604288","庄","Female","[""好她"",""坏她"",""好我"",""坏我""]","[""强她"",""弱她"",""强我"",""弱我""]","","","","","","","","no","","","","","","","","","SRET","EW_formal","","key","j","16.666544000000226","800","446","朋友","无助","Negative","ability","","","","","","","","","",""
"942","","j","psychophysics","72","496192","0.0-7.0-3.0-0.58","5","5","6","4","5","4","3","4","5","4","5","1","2","1","1","2","1","2","1","4","4","5","2","4","3","4","4","5","4","6","8","7","8","5","6","6","8","8","6","4","6","6","6","4","4","2","7","3","6","4","4","2","6","6","6","5","6","3","2","7","4","5","2","7","6","6","7","7","7","7","6","7","4","6","3","6","4","7","613040465838604288","庄","Female","[""好她"",""坏她"",""好我"",""坏我""]","[""强她"",""弱她"",""强我"",""弱我""]","","","","","","","","no","","","","","","","","","SRET","EW_formal","","key","j","16.666827586207013","800","446","自己","新手","Negative","ability","","","","","","","","","",""
"655","","f","psychophysics","73","497856","0.0-7.0-3.0-0.59","5","5","6","4","5","4","3","4","5","4","5","1","2","1","1","2","1","2","1","4","4","5","2","4","3","4","4","5","4","6","8","7","8","5","6","6","8","8","6","4","6","6","6","4","4","2","7","3","6","4","4","2","6","6","6","5","6","3","2","7","4","5","2","7","6","6","7","7","7","7","6","7","4","6","3","6","4","7","613040465838604288","庄","Female","[""好她"",""坏她"",""好我"",""坏我""]","[""强她"",""弱她"",""强我"",""弱我""]","","","","","","","","yes","","","","","","","","","SRET","EW_formal","","key","f","16.666646464646092","800","446","朋友","守法","Positive","morality","","","","","","","","","",""
"665","","f","psychophysics","74","499523","0.0-7.0-3.0-0.60","5","5","6","4","5","4","3","4","5","4","5","1","2","1","1","2","1","2","1","4","4","5","2","4","3","4","4","5","4","6","8","7","8","5","6","6","8","8","6","4","6","6","6","4","4","2","7","3","6","4","4","2","6","6","6","5","6","3","2","7","4","5","2","7","6","6","7","7","7","7","6","7","4","6","3","6","4","7","613040465838604288","庄","Female","[""好她"",""坏她"",""好我"",""坏我""]","[""强她"",""弱她"",""强我"",""弱我""]","","","","","","","","yes","","","","","","","","","SRET","EW_formal","","key","f","16.667080808080488","800","446","朋友","谦逊","Positive","morality","","","","","","","","","",""
"760","","j","psychophysics","75","501290","0.0-7.0-3.0-0.61","5","5","6","4","5","4","3","4","5","4","5","1","2","1","1","2","1","2","1","4","4","5","2","4","3","4","4","5","4","6","8","7","8","5","6","6","8","8","6","4","6","6","6","4","4","2","7","3","6","4","4","2","6","6","6","5","6","3","2","7","4","5","2","7","6","6","7","7","7","7","6","7","4","6","3","6","4","7","613040465838604288","庄","Female","[""好她"",""坏她"",""好我"",""坏我""]","[""强她"",""弱她"",""强我"",""弱我""]","","","","","","","","no","","","","","","","","","SRET","EW_formal","","key","j","16.66690476190443","800","446","自己","拜金","Negative","morality","","","","","","","","","",""
"978","","f","psychophysics","76","503277","0.0-7.0-3.0-0.62","5","5","6","4","5","4","3","4","5","4","5","1","2","1","1","2","1","2","1","4","4","5","2","4","3","4","4","5","4","6","8","7","8","5","6","6","8","8","6","4","6","6","6","4","4","2","7","3","6","4","4","2","6","6","6","5","6","3","2","7","4","5","2","7","6","6","7","7","7","7","6","7","4","6","3","6","4","7","613040465838604288","庄","Female","[""好她"",""坏她"",""好我"",""坏我""]","[""强她"",""弱她"",""强我"",""弱我""]","","","","","","","","yes","","","","","","","","","SRET","EW_formal","","key","f","16.666389830508646","800","446","自己","利己","Negative","morality","","","","","","","","","",""
"1130","","f","psychophysics","77","505413","0.0-7.0-3.0-0.63","5","5","6","4","5","4","3","4","5","4","5","1","2","1","1","2","1","2","1","4","4","5","2","4","3","4","4","5","4","6","8","7","8","5","6","6","8","8","6","4","6","6","6","4","4","2","7","3","6","4","4","2","6","6","6","5","6","3","2","7","4","5","2","7","6","6","7","7","7","7","6","7","4","6","3","6","4","7","613040465838604288","庄","Female","[""好她"",""坏她"",""好我"",""坏我""]","[""强她"",""弱她"",""强我"",""弱我""]","","","","","","","","yes","","","","","","","","","SRET","EW_formal","","key","f","16.66685826771647","800","446","朋友","畏难","Negative","ability","","","","","","","","","",""
"640","","j","psychophysics","78","507058","0.0-7.0-3.0-0.64","5","5","6","4","5","4","3","4","5","4","5","1","2","1","1","2","1","2","1","4","4","5","2","4","3","4","4","5","4","6","8","7","8","5","6","6","8","8","6","4","6","6","6","4","4","2","7","3","6","4","4","2","6","6","6","5","6","3","2","7","4","5","2","7","6","6","7","7","7","7","6","7","4","6","3","6","4","7","613040465838604288","庄","Female","[""好她"",""坏她"",""好我"",""坏我""]","[""强她"",""弱她"",""强我"",""弱我""]","","","","","","","","no","","","","","","","","","SRET","EW_formal","","key","j","16.66605102040862","800","446","自己","淫乱","Negative","morality","","","","","","","","","",""
"1200","","j","psychophysics","79","509267","0.0-7.0-3.0-0.65","5","5","6","4","5","4","3","4","5","4","5","1","2","1","1","2","1","2","1","4","4","5","2","4","3","4","4","5","4","6","8","7","8","5","6","6","8","8","6","4","6","6","6","4","4","2","7","3","6","4","4","2","6","6","6","5","6","3","2","7","4","5","2","7","6","6","7","7","7","7","6","7","4","6","3","6","4","7","613040465838604288","庄","Female","[""好她"",""坏她"",""好我"",""坏我""]","[""强她"",""弱她"",""强我"",""弱我""]","","","","","","","","no","","","","","","","","","SRET","EW_formal","","key","j","16.66668702290084","800","446","朋友","屈才","Negative","ability","","","","","","","","","",""
"927","","f","psychophysics","80","511198","0.0-7.0-3.0-0.66","5","5","6","4","5","4","3","4","5","4","5","1","2","1","1","2","1","2","1","4","4","5","2","4","3","4","4","5","4","6","8","7","8","5","6","6","8","8","6","4","6","6","6","4","4","2","7","3","6","4","4","2","6","6","6","5","6","3","2","7","4","5","2","7","6","6","7","7","7","7","6","7","4","6","3","6","4","7","613040465838604288","庄","Female","[""好她"",""坏她"",""好我"",""坏我""]","[""强她"",""弱她"",""强我"",""弱我""]","","","","","","","","yes","","","","","","","","","SRET","EW_formal","","key","f","16.666643478261285","800","446","朋友","好心","Positive","morality","","","","","","","","","",""
"845","","j","psychophysics","81","513046","0.0-7.0-3.0-0.67","5","5","6","4","5","4","3","4","5","4","5","1","2","1","1","2","1","2","1","4","4","5","2","4","3","4","4","5","4","6","8","7","8","5","6","6","8","8","6","4","6","6","6","4","4","2","7","3","6","4","4","2","6","6","6","5","6","3","2","7","4","5","2","7","6","6","7","7","7","7","6","7","4","6","3","6","4","7","613040465838604288","庄","Female","[""好她"",""坏她"",""好我"",""坏我""]","[""强她"",""弱她"",""强我"",""弱我""]","","","","","","","","no","","","","","","","","","SRET","EW_formal","","key","j","16.666690909091002","800","446","自己","龌龊","Negative","morality","","","","","","","","","",""
"757","","f","psychophysics","82","514806","0.0-7.0-3.0-0.68","5","5","6","4","5","4","3","4","5","4","5","1","2","1","1","2","1","2","1","4","4","5","2","4","3","4","4","5","4","6","8","7","8","5","6","6","8","8","6","4","6","6","6","4","4","2","7","3","6","4","4","2","6","6","6","5","6","3","2","7","4","5","2","7","6","6","7","7","7","7","6","7","4","6","3","6","4","7","613040465838604288","庄","Female","[""好她"",""坏她"",""好我"",""坏我""]","[""强她"",""弱她"",""强我"",""弱我""]","","","","","","","","yes","","","","","","","","","SRET","EW_formal","","key","f","16.666657142857243","800","446","朋友","智慧","Positive","ability","","","","","","","","","",""
"777","","j","psychophysics","83","516587","0.0-7.0-3.0-0.69","5","5","6","4","5","4","3","4","5","4","5","1","2","1","1","2","1","2","1","4","4","5","2","4","3","4","4","5","4","6","8","7","8","5","6","6","8","8","6","4","6","6","6","4","4","2","7","3","6","4","4","2","6","6","6","5","6","3","2","7","4","5","2","7","6","6","7","7","7","7","6","7","4","6","3","6","4","7","613040465838604288","庄","Female","[""好她"",""坏她"",""好我"",""坏我""]","[""强她"",""弱她"",""强我"",""弱我""]","","","","","","","","no","","","","","","","","","SRET","EW_formal","","key","j","16.666896226415016","800","446","自己","势利","Negative","morality","","","","","","","","","",""
"798","","f","psychophysics","84","518392","0.0-7.0-3.0-0.70","5","5","6","4","5","4","3","4","5","4","5","1","2","1","1","2","1","2","1","4","4","5","2","4","3","4","4","5","4","6","8","7","8","5","6","6","8","8","6","4","6","6","6","4","4","2","7","3","6","4","4","2","6","6","6","5","6","3","2","7","4","5","2","7","6","6","7","7","7","7","6","7","4","6","3","6","4","7","613040465838604288","庄","Female","[""好她"",""坏她"",""好我"",""坏我""]","[""强她"",""弱她"",""强我"",""弱我""]","","","","","","","","yes","","","","","","","","","SRET","EW_formal","","key","f","16.66695327102805","800","446","自己","独断","Negative","ability","","","","","","","","","",""
"657","","j","psychophysics","85","520051","0.0-7.0-3.0-0.71","5","5","6","4","5","4","3","4","5","4","5","1","2","1","1","2","1","2","1","4","4","5","2","4","3","4","4","5","4","6","8","7","8","5","6","6","8","8","6","4","6","6","6","4","4","2","7","3","6","4","4","2","6","6","6","5","6","3","2","7","4","5","2","7","6","6","7","7","7","7","6","7","4","6","3","6","4","7","613040465838604288","庄","Female","[""好她"",""坏她"",""好我"",""坏我""]","[""强她"",""弱她"",""强我"",""弱我""]","","","","","","","","no","","","","","","","","","SRET","EW_formal","","key","j","16.666316326530602","800","446","朋友","笨蛋","Negative","ability","","","","","","","","","",""
"657","","f","psychophysics","86","521709","0.0-7.0-3.0-0.72","5","5","6","4","5","4","3","4","5","4","5","1","2","1","1","2","1","2","1","4","4","5","2","4","3","4","4","5","4","6","8","7","8","5","6","6","8","8","6","4","6","6","6","4","4","2","7","3","6","4","4","2","6","6","6","5","6","3","2","7","4","5","2","7","6","6","7","7","7","7","6","7","4","6","3","6","4","7","613040465838604288","庄","Female","[""好她"",""坏她"",""好我"",""坏我""]","[""强她"",""弱她"",""强我"",""弱我""]","","","","","","","","yes","","","","","","","","","SRET","EW_formal","","key","f","16.66655555555557","800","446","自己","仁厚","Positive","morality","","","","","","","","","",""
"654","","j","psychophysics","87","523373","0.0-7.0-3.0-0.73","5","5","6","4","5","4","3","4","5","4","5","1","2","1","1","2","1","2","1","4","4","5","2","4","3","4","4","5","4","6","8","7","8","5","6","6","8","8","6","4","6","6","6","4","4","2","7","3","6","4","4","2","6","6","6","5","6","3","2","7","4","5","2","7","6","6","7","7","7","7","6","7","4","6","3","6","4","7","613040465838604288","庄","Female","[""好她"",""坏她"",""好我"",""坏我""]","[""强她"",""弱她"",""强我"",""弱我""]","","","","","","","","no","","","","","","","","","SRET","EW_formal","","key","j","16.66659595959613","800","446","自己","不良","Negative","morality","","","","","","","","","",""
"792","","j","psychophysics","88","525172","0.0-7.0-3.0-0.74","5","5","6","4","5","4","3","4","5","4","5","1","2","1","1","2","1","2","1","4","4","5","2","4","3","4","4","5","4","6","8","7","8","5","6","6","8","8","6","4","6","6","6","4","4","2","7","3","6","4","4","2","6","6","6","5","6","3","2","7","4","5","2","7","6","6","7","7","7","7","6","7","4","6","3","6","4","7","613040465838604288","庄","Female","[""好她"",""坏她"",""好我"",""坏我""]","[""强她"",""弱她"",""强我"",""弱我""]","","","","","","","","no","","","","","","","","","SRET","EW_formal","","key","j","16.666373831775935","800","446","朋友","罪恶","Negative","morality","","","","","","","","","",""
"679","","f","psychophysics","89","526857","0.0-7.0-3.0-0.75","5","5","6","4","5","4","3","4","5","4","5","1","2","1","1","2","1","2","1","4","4","5","2","4","3","4","4","5","4","6","8","7","8","5","6","6","8","8","6","4","6","6","6","4","4","2","7","3","6","4","4","2","6","6","6","5","6","3","2","7","4","5","2","7","6","6","7","7","7","7","6","7","4","6","3","6","4","7","613040465838604288","庄","Female","[""好她"",""坏她"",""好我"",""坏我""]","[""强她"",""弱她"",""强我"",""弱我""]","","","","","","","","yes","","","","","","","","","SRET","EW_formal","","key","f","16.666530000000492","800","446","朋友","上进","Positive","ability","","","","","","","","","",""
"672","","j","psychophysics","90","528539","0.0-7.0-3.0-0.76","5","5","6","4","5","4","3","4","5","4","5","1","2","1","1","2","1","2","1","4","4","5","2","4","3","4","4","5","4","6","8","7","8","5","6","6","8","8","6","4","6","6","6","4","4","2","7","3","6","4","4","2","6","6","6","5","6","3","2","7","4","5","2","7","6","6","7","7","7","7","6","7","4","6","3","6","4","7","613040465838604288","庄","Female","[""好她"",""坏她"",""好我"",""坏我""]","[""强她"",""弱她"",""强我"",""弱我""]","","","","","","","","no","","","","","","","","","SRET","EW_formal","","key","j","16.667080000001008","800","446","朋友","下流","Negative","morality","","","","","","","","","",""
"863","","j","psychophysics","91","530410","0.0-7.0-3.0-0.77","5","5","6","4","5","4","3","4","5","4","5","1","2","1","1","2","1","2","1","4","4","5","2","4","3","4","4","5","4","6","8","7","8","5","6","6","8","8","6","4","6","6","6","4","4","2","7","3","6","4","4","2","6","6","6","5","6","3","2","7","4","5","2","7","6","6","7","7","7","7","6","7","4","6","3","6","4","7","613040465838604288","庄","Female","[""好她"",""坏她"",""好我"",""坏我""]","[""强她"",""弱她"",""强我"",""弱我""]","","","","","","","","no","","","","","","","","","SRET","EW_formal","","key","j","16.666180180180145","800","446","自己","业余","Negative","ability","","","","","","","","","",""
"661","","f","psychophysics","92","532080","0.0-7.0-3.0-0.78","5","5","6","4","5","4","3","4","5","4","5","1","2","1","1","2","1","2","1","4","4","5","2","4","3","4","4","5","4","6","8","7","8","5","6","6","8","8","6","4","6","6","6","4","4","2","7","3","6","4","4","2","6","6","6","5","6","3","2","7","4","5","2","7","6","6","7","7","7","7","6","7","4","6","3","6","4","7","613040465838604288","庄","Female","[""好她"",""坏她"",""好我"",""坏我""]","[""强她"",""弱她"",""强我"",""弱我""]","","","","","","","","yes","","","","","","","","","SRET","EW_formal","","key","f","16.666575757576144","800","446","朋友","孝顺","Positive","morality","","","","","","","","","",""
"625","","j","psychophysics","93","533706","0.0-7.0-3.0-0.79","5","5","6","4","5","4","3","4","5","4","5","1","2","1","1","2","1","2","1","4","4","5","2","4","3","4","4","5","4","6","8","7","8","5","6","6","8","8","6","4","6","6","6","4","4","2","7","3","6","4","4","2","6","6","6","5","6","3","2","7","4","5","2","7","6","6","7","7","7","7","6","7","4","6","3","6","4","7","613040465838604288","庄","Female","[""好她"",""坏她"",""好我"",""坏我""]","[""强她"",""弱她"",""强我"",""弱我""]","","","","","","","","no","","","","","","","","","SRET","EW_formal","","key","j","16.66682474226835","800","446","朋友","低劣","Negative","morality","","","","","","","","","",""
"897","","f","psychophysics","94","535610","0.0-7.0-3.0-0.80","5","5","6","4","5","4","3","4","5","4","5","1","2","1","1","2","1","2","1","4","4","5","2","4","3","4","4","5","4","6","8","7","8","5","6","6","8","8","6","4","6","6","6","4","4","2","7","3","6","4","4","2","6","6","6","5","6","3","2","7","4","5","2","7","6","6","7","7","7","7","6","7","4","6","3","6","4","7","613040465838604288","庄","Female","[""好她"",""坏她"",""好我"",""坏我""]","[""强她"",""弱她"",""强我"",""弱我""]","","","","","","","","yes","","","","","","","","","SRET","EW_formal","","key","f","16.66670796460167","800","446","自己","仗义","Positive","morality","","","","","","","","","",""
"756","","f","psychophysics","95","537375","0.0-7.0-3.0-0.81","5","5","6","4","5","4","3","4","5","4","5","1","2","1","1","2","1","2","1","4","4","5","2","4","3","4","4","5","4","6","8","7","8","5","6","6","8","8","6","4","6","6","6","4","4","2","7","3","6","4","4","2","6","6","6","5","6","3","2","7","4","5","2","7","6","6","7","7","7","7","6","7","4","6","3","6","4","7","613040465838604288","庄","Female","[""好她"",""坏她"",""好我"",""坏我""]","[""强她"",""弱她"",""强我"",""弱我""]","","","","","","","","yes","","","","","","","","","SRET","EW_formal","","key","f","16.666819047618525","800","446","自己","慷慨","Positive","morality","","","","","","","","","",""
"1083","","f","psychophysics","96","539462","0.0-7.0-3.0-0.82","5","5","6","4","5","4","3","4","5","4","5","1","2","1","1","2","1","2","1","4","4","5","2","4","3","4","4","5","4","6","8","7","8","5","6","6","8","8","6","4","6","6","6","4","4","2","7","3","6","4","4","2","6","6","6","5","6","3","2","7","4","5","2","7","6","6","7","7","7","7","6","7","4","6","3","6","4","7","613040465838604288","庄","Female","[""好她"",""坏她"",""好我"",""坏我""]","[""强她"",""弱她"",""强我"",""弱我""]","","","","","","","","yes","","","","","","","","","SRET","EW_formal","","key","f","16.66658870967653","800","446","朋友","勤恳","Positive","morality","","","","","","","","","",""
"816","","f","psychophysics","97","541283","0.0-7.0-3.0-0.83","5","5","6","4","5","4","3","4","5","4","5","1","2","1","1","2","1","2","1","4","4","5","2","4","3","4","4","5","4","6","8","7","8","5","6","6","8","8","6","4","6","6","6","4","4","2","7","3","6","4","4","2","6","6","6","5","6","3","2","7","4","5","2","7","6","6","7","7","7","7","6","7","4","6","3","6","4","7","613040465838604288","庄","Female","[""好她"",""坏她"",""好我"",""坏我""]","[""强她"",""弱她"",""强我"",""弱我""]","","","","","","","","yes","","","","","","","","","SRET","EW_formal","","key","f","16.666824074074004","800","446","自己","懂行","Positive","ability","","","","","","","","","",""
"704","","j","psychophysics","98","542990","0.0-7.0-3.0-0.84","5","5","6","4","5","4","3","4","5","4","5","1","2","1","1","2","1","2","1","4","4","5","2","4","3","4","4","5","4","6","8","7","8","5","6","6","8","8","6","4","6","6","6","4","4","2","7","3","6","4","4","2","6","6","6","5","6","3","2","7","4","5","2","7","6","6","7","7","7","7","6","7","4","6","3","6","4","7","613040465838604288","庄","Female","[""好她"",""坏她"",""好我"",""坏我""]","[""强她"",""弱她"",""强我"",""弱我""]","","","","","","","","no","","","","","","","","","SRET","EW_formal","","key","j","16.6666764705887","800","446","朋友","低俗","Negative","morality","","","","","","","","","",""
"1416","","f","psychophysics","99","545411","0.0-7.0-3.0-0.85","5","5","6","4","5","4","3","4","5","4","5","1","2","1","1","2","1","2","1","4","4","5","2","4","3","4","4","5","4","6","8","7","8","5","6","6","8","8","6","4","6","6","6","4","4","2","7","3","6","4","4","2","6","6","6","5","6","3","2","7","4","5","2","7","6","6","7","7","7","7","6","7","4","6","3","6","4","7","613040465838604288","庄","Female","[""好她"",""坏她"",""好我"",""坏我""]","[""强她"",""弱她"",""强我"",""弱我""]","","","","","","","","yes","","","","","","","","","SRET","EW_formal","","key","f","16.666618055555674","800","446","自己","主见","Positive","ability","","","","","","","","","",""
"1196","","j","psychophysics","100","547614","0.0-7.0-3.0-0.86","5","5","6","4","5","4","3","4","5","4","5","1","2","1","1","2","1","2","1","4","4","5","2","4","3","4","4","5","4","6","8","7","8","5","6","6","8","8","6","4","6","6","6","4","4","2","7","3","6","4","4","2","6","6","6","5","6","3","2","7","4","5","2","7","6","6","7","7","7","7","6","7","4","6","3","6","4","7","613040465838604288","庄","Female","[""好她"",""坏她"",""好我"",""坏我""]","[""强她"",""弱她"",""强我"",""弱我""]","","","","","","","","no","","","","","","","","","SRET","EW_formal","","key","j","16.667022900763396","800","446","自己","缓慢","Negative","ability","","","","","","","","","",""
"1270","","f","psychophysics","101","549889","0.0-7.0-3.0-0.87","5","5","6","4","5","4","3","4","5","4","5","1","2","1","1","2","1","2","1","4","4","5","2","4","3","4","4","5","4","6","8","7","8","5","6","6","8","8","6","4","6","6","6","4","4","2","7","3","6","4","4","2","6","6","6","5","6","3","2","7","4","5","2","7","6","6","7","7","7","7","6","7","4","6","3","6","4","7","613040465838604288","庄","Female","[""好她"",""坏她"",""好我"",""坏我""]","[""强她"",""弱她"",""强我"",""弱我""]","","","","","","","","yes","","","","","","","","","SRET","EW_formal","","key","f","16.666757352941204","800","446","朋友","素养","Positive","morality","","","","","","","","","",""
"24097","
    <p><div style='color:white;font-size:35px; line-height:20px;'>计算任务</div></p><br>
    <p><div style='color:red;font-size:25px; line-height:20px;'>接下来，您将看到一些四则运算题，<b>请从键盘选择 0-9 进行反应。</b></div></p>
    <p><div class='footer' style='color:white;font-size:25px; line-height:20px;'>如果对本实验还有不清楚之处，请立即向实验员咨询。</p><p style='color:white;font-size:25px; line-height:20px;'>如果您明白了规则：</p><p style='color:white;font-size:22px; line-height:20px;'>请按 继续 进入练习</p>
    </div>
    ","0","html-button-response","102","573986","0.0-7.0-4.0","5","5","6","4","5","4","3","4","5","4","5","1","2","1","1","2","1","2","1","4","4","5","2","4","3","4","4","5","4","6","8","7","8","5","6","6","8","8","6","4","6","6","6","4","4","2","7","3","6","4","4","2","6","6","6","5","6","3","2","7","4","5","2","7","6","6","7","7","7","7","6","7","4","6","3","6","4","7","613040465838604288","庄","Female","[""好她"",""坏她"",""好我"",""坏我""]","[""强她"",""弱她"",""强我"",""弱我""]","","","","","","","","","","","","","","","","","SRET_math","math_instructions","Sat Sep 16 2023 20:35:49 GMT+0800 (中国标准时间)","","","","","","","","","","","","","","","","","","",""
"1978","","3","psychophysics","103","575966","0.0-7.0-5.0-0.0","5","5","6","4","5","4","3","4","5","4","5","1","2","1","1","2","1","2","1","4","4","5","2","4","3","4","4","5","4","6","8","7","8","5","6","6","8","8","6","4","6","6","6","4","4","2","7","3","6","4","4","2","6","6","6","5","6","3","2","7","4","5","2","7","6","6","7","7","7","7","6","7","4","6","3","6","4","7","613040465838604288","庄","Female","[""好她"",""坏她"",""好我"",""坏我""]","[""强她"",""弱她"",""强我"",""弱我""]","","","","","","","","3","","","","","","","","","SRET","SRET_math_calculate","","key","3","16.666762711865022","800","446","","","","","2+1= ?","3","1","","","","","","",""
"1952","","6","psychophysics","104","577920","0.0-7.0-5.0-0.1","5","5","6","4","5","4","3","4","5","4","5","1","2","1","1","2","1","2","1","4","4","5","2","4","3","4","4","5","4","6","8","7","8","5","6","6","8","8","6","4","6","6","6","4","4","2","7","3","6","4","4","2","6","6","6","5","6","3","2","7","4","5","2","7","6","6","7","7","7","7","6","7","4","6","3","6","4","7","613040465838604288","庄","Female","[""好她"",""坏她"",""好我"",""坏我""]","[""强她"",""弱她"",""强我"",""弱我""]","","","","","","","","6","","","","","","","","","SRET","SRET_math_calculate","","key","6","16.667256410256563","800","446","","","","","8-2= ?","6","1","","","","","","",""
"2680","","3","psychophysics","105","580603","0.0-7.0-5.0-0.2","5","5","6","4","5","4","3","4","5","4","5","1","2","1","1","2","1","2","1","4","4","5","2","4","3","4","4","5","4","6","8","7","8","5","6","6","8","8","6","4","6","6","6","4","4","2","7","3","6","4","4","2","6","6","6","5","6","3","2","7","4","5","2","7","6","6","7","7","7","7","6","7","4","6","3","6","4","7","613040465838604288","庄","Female","[""好她"",""坏她"",""好我"",""坏我""]","[""强她"",""弱她"",""强我"",""弱我""]","","","","","","","","3","","","","","","","","","SRET","SRET_math_calculate","","key","3","16.666662499999802","800","446","","","","","9-6= ?","3","1","","","","","","",""
"1888","","2","psychophysics","106","582494","0.0-7.0-5.0-0.3","5","5","6","4","5","4","3","4","5","4","5","1","2","1","1","2","1","2","1","4","4","5","2","4","3","4","4","5","4","6","8","7","8","5","6","6","8","8","6","4","6","6","6","4","4","2","7","3","6","4","4","2","6","6","6","5","6","3","2","7","4","5","2","7","6","6","7","7","7","7","6","7","4","6","3","6","4","7","613040465838604288","庄","Female","[""好她"",""坏她"",""好我"",""坏我""]","[""强她"",""弱她"",""强我"",""弱我""]","","","","","","","","2","","","","","","","","","SRET","SRET_math_calculate","","key","2","16.666767857142467","800","446","","","","","1+1= ?","2","1","","","","","","",""
"2709","","1","psychophysics","107","585205","0.0-7.0-5.0-0.4","5","5","6","4","5","4","3","4","5","4","5","1","2","1","1","2","1","2","1","4","4","5","2","4","3","4","4","5","4","6","8","7","8","5","6","6","8","8","6","4","6","6","6","4","4","2","7","3","6","4","4","2","6","6","6","5","6","3","2","7","4","5","2","7","6","6","7","7","7","7","6","7","4","6","3","6","4","7","613040465838604288","庄","Female","[""好她"",""坏她"",""好我"",""坏我""]","[""强她"",""弱她"",""强我"",""弱我""]","","","","","","","","1","","","","","","","","","SRET","SRET_math_calculate","","key","1","16.666709876543106","800","446","","","","","4/4= ?","1","1","","","","","","",""
"6572","","9","psychophysics","108","591809","0.0-7.0-5.0-0.5","5","5","6","4","5","4","3","4","5","4","5","1","2","1","1","2","1","2","1","4","4","5","2","4","3","4","4","5","4","6","8","7","8","5","6","6","8","8","6","4","6","6","6","4","4","2","7","3","6","4","4","2","6","6","6","5","6","3","2","7","4","5","2","7","6","6","7","7","7","7","6","7","4","6","3","6","4","7","613040465838604288","庄","Female","[""好她"",""坏她"",""好我"",""坏我""]","[""强她"",""弱她"",""强我"",""弱我""]","","","","","","","","9","","","","","","","","","SRET","SRET_math_calculate","","key","9","16.66669113924049","800","446","","","","","32-23= ?","9","1","","","","","","",""
"2339","","4","psychophysics","109","594149","0.0-7.0-5.0-0.6","5","5","6","4","5","4","3","4","5","4","5","1","2","1","1","2","1","2","1","4","4","5","2","4","3","4","4","5","4","6","8","7","8","5","6","6","8","8","6","4","6","6","6","4","4","2","7","3","6","4","4","2","6","6","6","5","6","3","2","7","4","5","2","7","6","6","7","7","7","7","6","7","4","6","3","6","4","7","613040465838604288","庄","Female","[""好她"",""坏她"",""好我"",""坏我""]","[""强她"",""弱她"",""强我"",""弱我""]","","","","","","","","4","","","","","","","","","SRET","SRET_math_calculate","","key","4","16.66668345323737","800","446","","","","","9-5= ?","4","1","","","","","","",""
"4277","","2","psychophysics","110","598428","0.0-7.0-5.0-0.7","5","5","6","4","5","4","3","4","5","4","5","1","2","1","1","2","1","2","1","4","4","5","2","4","3","4","4","5","4","6","8","7","8","5","6","6","8","8","6","4","6","6","6","4","4","2","7","3","6","4","4","2","6","6","6","5","6","3","2","7","4","5","2","7","6","6","7","7","7","7","6","7","4","6","3","6","4","7","613040465838604288","庄","Female","[""好她"",""坏她"",""好我"",""坏我""]","[""强她"",""弱她"",""强我"",""弱我""]","","","","","","","","2","","","","","","","","","SRET","SRET_math_calculate","","key","2","16.66671093749983","800","446","","","","","8/4= ?","2","1","","","","","","",""
"3015","","0","psychophysics","111","601446","0.0-7.0-5.0-0.8","5","5","6","4","5","4","3","4","5","4","5","1","2","1","1","2","1","2","1","4","4","5","2","4","3","4","4","5","4","6","8","7","8","5","6","6","8","8","6","4","6","6","6","4","4","2","7","3","6","4","4","2","6","6","6","5","6","3","2","7","4","5","2","7","6","6","7","7","7","7","6","7","4","6","3","6","4","7","613040465838604288","庄","Female","[""好她"",""坏她"",""好我"",""坏我""]","[""强她"",""弱她"",""强我"",""弱我""]","","","","","","","","0","","","","","","","","","SRET","SRET_math_calculate","","key","0","16.666683333333477","800","446","","","","","12-12= ?","0","1","","","","","","",""
"2510","","8","psychophysics","112","603958","0.0-7.0-5.0-0.9","5","5","6","4","5","4","3","4","5","4","5","1","2","1","1","2","1","2","1","4","4","5","2","4","3","4","4","5","4","6","8","7","8","5","6","6","8","8","6","4","6","6","6","4","4","2","7","3","6","4","4","2","6","6","6","5","6","3","2","7","4","5","2","7","6","6","7","7","7","7","6","7","4","6","3","6","4","7","613040465838604288","庄","Female","[""好她"",""坏她"",""好我"",""坏我""]","[""强她"",""弱她"",""强我"",""弱我""]","","","","","","","","8","","","","","","","","","SRET","SRET_math_calculate","","key","8","16.66718666666653","800","446","","","","","11-5= ?","6","0","","","","","","",""
"2156","","8","psychophysics","113","606115","0.0-7.0-5.0-0.10","5","5","6","4","5","4","3","4","5","4","5","1","2","1","1","2","1","2","1","4","4","5","2","4","3","4","4","5","4","6","8","7","8","5","6","6","8","8","6","4","6","6","6","4","4","2","7","3","6","4","4","2","6","6","6","5","6","3","2","7","4","5","2","7","6","6","7","7","7","7","6","7","4","6","3","6","4","7","613040465838604288","庄","Female","[""好她"",""坏她"",""好我"",""坏我""]","[""强她"",""弱她"",""强我"",""弱我""]","","","","","","","","8","","","","","","","","","SRET","SRET_math_calculate","","key","8","16.66717968750072","800","446","","","","","6+2= ?","8","1","","","","","","",""
"2374","","7","psychophysics","114","608490","0.0-7.0-5.0-0.11","5","5","6","4","5","4","3","4","5","4","5","1","2","1","1","2","1","2","1","4","4","5","2","4","3","4","4","5","4","6","8","7","8","5","6","6","8","8","6","4","6","6","6","4","4","2","7","3","6","4","4","2","6","6","6","5","6","3","2","7","4","5","2","7","6","6","7","7","7","7","6","7","4","6","3","6","4","7","613040465838604288","庄","Female","[""好她"",""坏她"",""好我"",""坏我""]","[""强她"",""弱她"",""强我"",""弱我""]","","","","","","","","7","","","","","","","","","SRET","SRET_math_calculate","","key","7","16.666253521126812","800","446","","","","","4+3= ?","7","1","","","","","","",""
"1909","","4","psychophysics","115","610403","0.0-7.0-5.0-0.12","5","5","6","4","5","4","3","4","5","4","5","1","2","1","1","2","1","2","1","4","4","5","2","4","3","4","4","5","4","6","8","7","8","5","6","6","8","8","6","4","6","6","6","4","4","2","7","3","6","4","4","2","6","6","6","5","6","3","2","7","4","5","2","7","6","6","7","7","7","7","6","7","4","6","3","6","4","7","613040465838604288","庄","Female","[""好她"",""坏她"",""好我"",""坏我""]","[""强她"",""弱她"",""强我"",""弱我""]","","","","","","","","4","","","","","","","","","SRET","SRET_math_calculate","","key","4","16.666807017543377","800","446","","","","","2+2= ?","4","1","","","","","","",""
"5056","","4","psychophysics","116","615463","0.0-7.0-5.0-0.13","5","5","6","4","5","4","3","4","5","4","5","1","2","1","1","2","1","2","1","4","4","5","2","4","3","4","4","5","4","6","8","7","8","5","6","6","8","8","6","4","6","6","6","4","4","2","7","3","6","4","4","2","6","6","6","5","6","3","2","7","4","5","2","7","6","6","7","7","7","7","6","7","4","6","3","6","4","7","613040465838604288","庄","Female","[""好她"",""坏她"",""好我"",""坏我""]","[""强她"",""弱她"",""强我"",""弱我""]","","","","","","","","4","","","","","","","","","SRET","SRET_math_calculate","","key","4","16.66693046357597","800","446","","","","","3+1= ?","4","1","","","","","","",""
"2477","","9","psychophysics","117","617941","0.0-7.0-5.0-0.14","5","5","6","4","5","4","3","4","5","4","5","1","2","1","1","2","1","2","1","4","4","5","2","4","3","4","4","5","4","6","8","7","8","5","6","6","8","8","6","4","6","6","6","4","4","2","7","3","6","4","4","2","6","6","6","5","6","3","2","7","4","5","2","7","6","6","7","7","7","7","6","7","4","6","3","6","4","7","613040465838604288","庄","Female","[""好她"",""坏她"",""好我"",""坏我""]","[""强她"",""弱她"",""强我"",""弱我""]","","","","","","","","9","","","","","","","","","SRET","SRET_math_calculate","","key","9","16.66666216216195","800","446","","","","","3*3= ?","9","1","","","","","","",""
"1833","","7","psychophysics","118","619775","0.0-7.0-5.0-0.15","5","5","6","4","5","4","3","4","5","4","5","1","2","1","1","2","1","2","1","4","4","5","2","4","3","4","4","5","4","6","8","7","8","5","6","6","8","8","6","4","6","6","6","4","4","2","7","3","6","4","4","2","6","6","6","5","6","3","2","7","4","5","2","7","6","6","7","7","7","7","6","7","4","6","3","6","4","7","613040465838604288","庄","Female","[""好她"",""坏她"",""好我"",""坏我""]","[""强她"",""弱她"",""强我"",""弱我""]","","","","","","","","7","","","","","","","","","SRET","SRET_math_calculate","","key","7","16.666807339449814","800","446","","","","","2+5= ?","7","1","","","","","","",""
"2433","","8","psychophysics","119","622210","0.0-7.0-5.0-0.16","5","5","6","4","5","4","3","4","5","4","5","1","2","1","1","2","1","2","1","4","4","5","2","4","3","4","4","5","4","6","8","7","8","5","6","6","8","8","6","4","6","6","6","4","4","2","7","3","6","4","4","2","6","6","6","5","6","3","2","7","4","5","2","7","6","6","7","7","7","7","6","7","4","6","3","6","4","7","613040465838604288","庄","Female","[""好她"",""坏她"",""好我"",""坏我""]","[""强她"",""弱她"",""强我"",""弱我""]","","","","","","","","8","","","","","","","","","SRET","SRET_math_calculate","","key","8","16.66679310344786","800","446","","","","","8*1= ?","8","1","","","","","","",""
"2329","","7","psychophysics","120","624543","0.0-7.0-5.0-0.17","5","5","6","4","5","4","3","4","5","4","5","1","2","1","1","2","1","2","1","4","4","5","2","4","3","4","4","5","4","6","8","7","8","5","6","6","8","8","6","4","6","6","6","4","4","2","7","3","6","4","4","2","6","6","6","5","6","3","2","7","4","5","2","7","6","6","7","7","7","7","6","7","4","6","3","6","4","7","613040465838604288","庄","Female","[""好她"",""坏她"",""好我"",""坏我""]","[""强她"",""弱她"",""强我"",""弱我""]","","","","","","","","7","","","","","","","","","SRET","SRET_math_calculate","","key","7","16.66679856115148","800","446","","","","","21/3= ? ","7","1","","","","","","",""
"1804","","9","psychophysics","121","626350","0.0-7.0-5.0-0.18","5","5","6","4","5","4","3","4","5","4","5","1","2","1","1","2","1","2","1","4","4","5","2","4","3","4","4","5","4","6","8","7","8","5","6","6","8","8","6","4","6","6","6","4","4","2","7","3","6","4","4","2","6","6","6","5","6","3","2","7","4","5","2","7","6","6","7","7","7","7","6","7","4","6","3","6","4","7","613040465838604288","庄","Female","[""好她"",""坏她"",""好我"",""坏我""]","[""强她"",""弱她"",""强我"",""弱我""]","","","","","","","","9","","","","","","","","","SRET","SRET_math_calculate","","key","9","16.666719626168565","800","446","","","","","1+8= ?","9","1","","","","","","",""
"1966","","0","psychophysics","122","628320","0.0-7.0-5.0-0.19","5","5","6","4","5","4","3","4","5","4","5","1","2","1","1","2","1","2","1","4","4","5","2","4","3","4","4","5","4","6","8","7","8","5","6","6","8","8","6","4","6","6","6","4","4","2","7","3","6","4","4","2","6","6","6","5","6","3","2","7","4","5","2","7","6","6","7","7","7","7","6","7","4","6","3","6","4","7","613040465838604288","庄","Female","[""好她"",""坏她"",""好我"",""坏我""]","[""强她"",""弱她"",""强我"",""弱我""]","","","","","","","","0","","","","","","","","","SRET","SRET_math_calculate","","key","0","16.666728813559313","800","446","","","","","22-22= ?","0","1","","","","","","",""
"2774","","3","psychophysics","123","631098","0.0-7.0-5.0-0.20","5","5","6","4","5","4","3","4","5","4","5","1","2","1","1","2","1","2","1","4","4","5","2","4","3","4","4","5","4","6","8","7","8","5","6","6","8","8","6","4","6","6","6","4","4","2","7","3","6","4","4","2","6","6","6","5","6","3","2","7","4","5","2","7","6","6","7","7","7","7","6","7","4","6","3","6","4","7","613040465838604288","庄","Female","[""好她"",""坏她"",""好我"",""坏我""]","[""强她"",""弱她"",""强我"",""弱我""]","","","","","","","","3","","","","","","","","","SRET","SRET_math_calculate","","key","3","16.66700000000031","800","446","","","","","21/7=  ?","3","1","","","","","","",""
"2559","","8","psychophysics","124","633659","0.0-7.0-5.0-0.21","5","5","6","4","5","4","3","4","5","4","5","1","2","1","1","2","1","2","1","4","4","5","2","4","3","4","4","5","4","6","8","7","8","5","6","6","8","8","6","4","6","6","6","4","4","2","7","3","6","4","4","2","6","6","6","5","6","3","2","7","4","5","2","7","6","6","7","7","7","7","6","7","4","6","3","6","4","7","613040465838604288","庄","Female","[""好她"",""坏她"",""好我"",""坏我""]","[""强她"",""弱她"",""强我"",""弱我""]","","","","","","","","8","","","","","","","","","SRET","SRET_math_calculate","","key","8","16.666790849673774","800","446","","","","","50-42= ?","8","1","","","","","","",""
"2185","","8","psychophysics","125","635845","0.0-7.0-5.0-0.22","5","5","6","4","5","4","3","4","5","4","5","1","2","1","1","2","1","2","1","4","4","5","2","4","3","4","4","5","4","6","8","7","8","5","6","6","8","8","6","4","6","6","6","4","4","2","7","3","6","4","4","2","6","6","6","5","6","3","2","7","4","5","2","7","6","6","7","7","7","7","6","7","4","6","3","6","4","7","613040465838604288","庄","Female","[""好她"",""坏她"",""好我"",""坏我""]","[""强她"",""弱她"",""强我"",""弱我""]","","","","","","","","8","","","","","","","","","SRET","SRET_math_calculate","","key","8","16.666246153845883","800","446","","","","","2+6= ?","8","1","","","","","","",""
"1841","","0","psychophysics","126","637688","0.0-7.0-5.0-0.23","5","5","6","4","5","4","3","4","5","4","5","1","2","1","1","2","1","2","1","4","4","5","2","4","3","4","4","5","4","6","8","7","8","5","6","6","8","8","6","4","6","6","6","4","4","2","7","3","6","4","4","2","6","6","6","5","6","3","2","7","4","5","2","7","6","6","7","7","7","7","6","7","4","6","3","6","4","7","613040465838604288","庄","Female","[""好她"",""坏她"",""好我"",""坏我""]","[""强她"",""弱她"",""强我"",""弱我""]","","","","","","","","0","","","","","","","","","SRET","SRET_math_calculate","","key","0","16.666509090909013","800","446","","","","","1-1= ?","0","1","","","","","","",""
"1826","","3","psychophysics","127","639516","0.0-7.0-5.0-0.24","5","5","6","4","5","4","3","4","5","4","5","1","2","1","1","2","1","2","1","4","4","5","2","4","3","4","4","5","4","6","8","7","8","5","6","6","8","8","6","4","6","6","6","4","4","2","7","3","6","4","4","2","6","6","6","5","6","3","2","7","4","5","2","7","6","6","7","7","7","7","6","7","4","6","3","6","4","7","613040465838604288","庄","Female","[""好她"",""坏她"",""好我"",""坏我""]","[""强她"",""弱她"",""强我"",""弱我""]","","","","","","","","3","","","","","","","","","SRET","SRET_math_calculate","","key","3","16.666601851852008","800","446","","","","","1+2= ?","3","1","","","","","","",""
"1708","","9","psychophysics","128","641227","0.0-7.0-5.0-0.25","5","5","6","4","5","4","3","4","5","4","5","1","2","1","1","2","1","2","1","4","4","5","2","4","3","4","4","5","4","6","8","7","8","5","6","6","8","8","6","4","6","6","6","4","4","2","7","3","6","4","4","2","6","6","6","5","6","3","2","7","4","5","2","7","6","6","7","7","7","7","6","7","4","6","3","6","4","7","613040465838604288","庄","Female","[""好她"",""坏她"",""好我"",""坏我""]","[""强她"",""弱她"",""强我"",""弱我""]","","","","","","","","9","","","","","","","","","SRET","SRET_math_calculate","","key","9","16.666931372549037","800","446","","","","","3+6= ?","9","1","","","","","","",""
"5088","","5","psychophysics","129","646316","0.0-7.0-5.0-0.26","5","5","6","4","5","4","3","4","5","4","5","1","2","1","1","2","1","2","1","4","4","5","2","4","3","4","4","5","4","6","8","7","8","5","6","6","8","8","6","4","6","6","6","4","4","2","7","3","6","4","4","2","6","6","6","5","6","3","2","7","4","5","2","7","6","6","7","7","7","7","6","7","4","6","3","6","4","7","613040465838604288","庄","Female","[""好她"",""坏她"",""好我"",""坏我""]","[""强她"",""弱她"",""强我"",""弱我""]","","","","","","","","5","","","","","","","","","SRET","SRET_math_calculate","","key","5","16.666743421052832","800","446","","","","","14-9= ?","5","1","","","","","","",""
"3703","","2","psychophysics","130","650020","0.0-7.0-5.0-0.27","5","5","6","4","5","4","3","4","5","4","5","1","2","1","1","2","1","2","1","4","4","5","2","4","3","4","4","5","4","6","8","7","8","5","6","6","8","8","6","4","6","6","6","4","4","2","7","3","6","4","4","2","6","6","6","5","6","3","2","7","4","5","2","7","6","6","7","7","7","7","6","7","4","6","3","6","4","7","613040465838604288","庄","Female","[""好她"",""坏她"",""好我"",""坏我""]","[""强她"",""弱她"",""强我"",""弱我""]","","","","","","","","2","","","","","","","","","SRET","SRET_math_calculate","","key","2","16.666319819820124","800","446","","","","","22/11= ?","2","1","","","","","","",""
"1927","","9","psychophysics","131","651951","0.0-7.0-5.0-0.28","5","5","6","4","5","4","3","4","5","4","5","1","2","1","1","2","1","2","1","4","4","5","2","4","3","4","4","5","4","6","8","7","8","5","6","6","8","8","6","4","6","6","6","4","4","2","7","3","6","4","4","2","6","6","6","5","6","3","2","7","4","5","2","7","6","6","7","7","7","7","6","7","4","6","3","6","4","7","613040465838604288","庄","Female","[""好她"",""坏她"",""好我"",""坏我""]","[""强她"",""弱她"",""强我"",""弱我""]","","","","","","","","9","","","","","","","","","SRET","SRET_math_calculate","","key","9","16.666543859649416","800","446","","","","","6+3= ?","9","1","","","","","","",""
"2349","","0","psychophysics","132","654323","0.0-7.0-5.0-0.29","5","5","6","4","5","4","3","4","5","4","5","1","2","1","1","2","1","2","1","4","4","5","2","4","3","4","4","5","4","6","8","7","8","5","6","6","8","8","6","4","6","6","6","4","4","2","7","3","6","4","4","2","6","6","6","5","6","3","2","7","4","5","2","7","6","6","7","7","7","7","6","7","4","6","3","6","4","7","613040465838604288","庄","Female","[""好她"",""坏她"",""好我"",""坏我""]","[""强她"",""弱她"",""强我"",""弱我""]","","","","","","","","0","","","","","","","","","SRET","SRET_math_calculate","","key","0","16.666823943662063","800","446","","","","","5*0= ?","0","1","","","","","","",""
"2248","","4","psychophysics","133","656573","0.0-7.0-5.0-0.30","5","5","6","4","5","4","3","4","5","4","5","1","2","1","1","2","1","2","1","4","4","5","2","4","3","4","4","5","4","6","8","7","8","5","6","6","8","8","6","4","6","6","6","4","4","2","7","3","6","4","4","2","6","6","6","5","6","3","2","7","4","5","2","7","6","6","7","7","7","7","6","7","4","6","3","6","4","7","613040465838604288","庄","Female","[""好她"",""坏她"",""好我"",""坏我""]","[""强她"",""弱她"",""强我"",""弱我""]","","","","","","","","4","","","","","","","","","SRET","SRET_math_calculate","","key","4","16.66663432835841","800","446","","","","","13-9= ?","4","1","","","","","","",""
"1918","","7","psychophysics","134","658492","0.0-7.0-5.0-0.31","5","5","6","4","5","4","3","4","5","4","5","1","2","1","1","2","1","2","1","4","4","5","2","4","3","4","4","5","4","6","8","7","8","5","6","6","8","8","6","4","6","6","6","4","4","2","7","3","6","4","4","2","6","6","6","5","6","3","2","7","4","5","2","7","6","6","7","7","7","7","6","7","4","6","3","6","4","7","613040465838604288","庄","Female","[""好她"",""坏她"",""好我"",""坏我""]","[""强她"",""弱她"",""强我"",""弱我""]","","","","","","","","7","","","","","","","","","SRET","SRET_math_calculate","","key","7","16.666763157895236","800","446","","","","","5+2= ?","7","1","","","","","","",""
"2011","","3","psychophysics","135","660505","0.0-7.0-5.0-0.32","5","5","6","4","5","4","3","4","5","4","5","1","2","1","1","2","1","2","1","4","4","5","2","4","3","4","4","5","4","6","8","7","8","5","6","6","8","8","6","4","6","6","6","4","4","2","7","3","6","4","4","2","6","6","6","5","6","3","2","7","4","5","2","7","6","6","7","7","7","7","6","7","4","6","3","6","4","7","613040465838604288","庄","Female","[""好她"",""坏她"",""好我"",""坏我""]","[""强她"",""弱她"",""强我"",""弱我""]","","","","","","","","3","","","","","","","","","SRET","SRET_math_calculate","","key","3","16.666599999999743","800","446","","","","","8-5= ?","3","1","","","","","","",""
"2106","","0","psychophysics","136","662613","0.0-7.0-5.0-0.33","5","5","6","4","5","4","3","4","5","4","5","1","2","1","1","2","1","2","1","4","4","5","2","4","3","4","4","5","4","6","8","7","8","5","6","6","8","8","6","4","6","6","6","4","4","2","7","3","6","4","4","2","6","6","6","5","6","3","2","7","4","5","2","7","6","6","7","7","7","7","6","7","4","6","3","6","4","7","613040465838604288","庄","Female","[""好她"",""坏她"",""好我"",""坏我""]","[""强她"",""弱她"",""强我"",""弱我""]","","","","","","","","0","","","","","","","","","SRET","SRET_math_calculate","","key","0","16.66669599999953","800","446","","","","","6*0= ?","0","1","","","","","","",""
"1742","","8","psychophysics","137","664357","0.0-7.0-5.0-0.34","5","5","6","4","5","4","3","4","5","4","5","1","2","1","1","2","1","2","1","4","4","5","2","4","3","4","4","5","4","6","8","7","8","5","6","6","8","8","6","4","6","6","6","4","4","2","7","3","6","4","4","2","6","6","6","5","6","3","2","7","4","5","2","7","6","6","7","7","7","7","6","7","4","6","3","6","4","7","613040465838604288","庄","Female","[""好她"",""坏她"",""好我"",""坏我""]","[""强她"",""弱她"",""强我"",""弱我""]","","","","","","","","8","","","","","","","","","SRET","SRET_math_calculate","","key","8","16.828495145630708","800","446","","","","","5+3= ?","8","1","","","","","","",""
"1829","","6","psychophysics","138","666190","0.0-7.0-5.0-0.35","5","5","6","4","5","4","3","4","5","4","5","1","2","1","1","2","1","2","1","4","4","5","2","4","3","4","4","5","4","6","8","7","8","5","6","6","8","8","6","4","6","6","6","4","4","2","7","3","6","4","4","2","6","6","6","5","6","3","2","7","4","5","2","7","6","6","7","7","7","7","6","7","4","6","3","6","4","7","613040465838604288","庄","Female","[""好她"",""坏她"",""好我"",""坏我""]","[""强她"",""弱她"",""强我"",""弱我""]","","","","","","","","6","","","","","","","","","SRET","SRET_math_calculate","","key","6","16.66655963302778","800","446","","","","","9-3= ?","6","1","","","","","","",""
"4155","","7","psychophysics","139","670346","0.0-7.0-5.0-0.36","5","5","6","4","5","4","3","4","5","4","5","1","2","1","1","2","1","2","1","4","4","5","2","4","3","4","4","5","4","6","8","7","8","5","6","6","8","8","6","4","6","6","6","4","4","2","7","3","6","4","4","2","6","6","6","5","6","3","2","7","4","5","2","7","6","6","7","7","7","7","6","7","4","6","3","6","4","7","613040465838604288","庄","Female","[""好她"",""坏她"",""好我"",""坏我""]","[""强她"",""弱她"",""强我"",""弱我""]","","","","","","","","7","","","","","","","","","SRET","SRET_math_calculate","","key","7","16.66668548387092","800","446","","","","","49/7 = ?","7","1","","","","","","",""
"2887","","7","psychophysics","140","673236","0.0-7.0-5.0-0.37","5","5","6","4","5","4","3","4","5","4","5","1","2","1","1","2","1","2","1","4","4","5","2","4","3","4","4","5","4","6","8","7","8","5","6","6","8","8","6","4","6","6","6","4","4","2","7","3","6","4","4","2","6","6","6","5","6","3","2","7","4","5","2","7","6","6","7","7","7","7","6","7","4","6","3","6","4","7","613040465838604288","庄","Female","[""好她"",""坏她"",""好我"",""坏我""]","[""强她"",""弱她"",""强我"",""弱我""]","","","","","","","","7","","","","","","","","","SRET","SRET_math_calculate","","key","7","16.66657803468191","800","446","","","","","9-2= ?","7","1","","","","","","",""
"1888","","1","psychophysics","141","675128","0.0-7.0-5.0-0.38","5","5","6","4","5","4","3","4","5","4","5","1","2","1","1","2","1","2","1","4","4","5","2","4","3","4","4","5","4","6","8","7","8","5","6","6","8","8","6","4","6","6","6","4","4","2","7","3","6","4","4","2","6","6","6","5","6","3","2","7","4","5","2","7","6","6","7","7","7","7","6","7","4","6","3","6","4","7","613040465838604288","庄","Female","[""好她"",""坏她"",""好我"",""坏我""]","[""强她"",""弱她"",""强我"",""弱我""]","","","","","","","","1","","","","","","","","","SRET","SRET_math_calculate","","key","1","16.666741071427946","800","446","","","","","9-8= ?","1","1","","","","","","",""
"1914","","5","psychophysics","142","677043","0.0-7.0-5.0-0.39","5","5","6","4","5","4","3","4","5","4","5","1","2","1","1","2","1","2","1","4","4","5","2","4","3","4","4","5","4","6","8","7","8","5","6","6","8","8","6","4","6","6","6","4","4","2","7","3","6","4","4","2","6","6","6","5","6","3","2","7","4","5","2","7","6","6","7","7","7","7","6","7","4","6","3","6","4","7","613040465838604288","庄","Female","[""好她"",""坏她"",""好我"",""坏我""]","[""强她"",""弱她"",""强我"",""弱我""]","","","","","","","","5","","","","","","","","","SRET","SRET_math_calculate","","key","5","16.666754385964992","800","446","","","","","8-3= ? ","5","1","","","","","","",""
"1830","","8","psychophysics","143","678874","0.0-7.0-5.0-0.40","5","5","6","4","5","4","3","4","5","4","5","1","2","1","1","2","1","2","1","4","4","5","2","4","3","4","4","5","4","6","8","7","8","5","6","6","8","8","6","4","6","6","6","4","4","2","7","3","6","4","4","2","6","6","6","5","6","3","2","7","4","5","2","7","6","6","7","7","7","7","6","7","4","6","3","6","4","7","613040465838604288","庄","Female","[""好她"",""坏她"",""好我"",""坏我""]","[""强她"",""弱她"",""强我"",""弱我""]","","","","","","","","8","","","","","","","","","SRET","SRET_math_calculate","","key","8","16.666889908256802","800","446","","","","","4+4= ?","8","1","","","","","","",""
"2865","","9","psychophysics","144","681741","0.0-7.0-5.0-0.41","5","5","6","4","5","4","3","4","5","4","5","1","2","1","1","2","1","2","1","4","4","5","2","4","3","4","4","5","4","6","8","7","8","5","6","6","8","8","6","4","6","6","6","4","4","2","7","3","6","4","4","2","6","6","6","5","6","3","2","7","4","5","2","7","6","6","7","7","7","7","6","7","4","6","3","6","4","7","613040465838604288","庄","Female","[""好她"",""坏她"",""好我"",""坏我""]","[""强她"",""弱她"",""强我"",""弱我""]","","","","","","","","9","","","","","","","","","SRET","SRET_math_calculate","","key","9","16.666666666666668","800","446","","","","","18/2= ?","9","1","","","","","","",""
"1784","","0","psychophysics","145","683526","0.0-7.0-5.0-0.42","5","5","6","4","5","4","3","4","5","4","5","1","2","1","1","2","1","2","1","4","4","5","2","4","3","4","4","5","4","6","8","7","8","5","6","6","8","8","6","4","6","6","6","4","4","2","7","3","6","4","4","2","6","6","6","5","6","3","2","7","4","5","2","7","6","6","7","7","7","7","6","7","4","6","3","6","4","7","613040465838604288","庄","Female","[""好她"",""坏她"",""好我"",""坏我""]","[""强她"",""弱她"",""强我"",""弱我""]","","","","","","","","0","","","","","","","","","SRET","SRET_math_calculate","","key","0","16.66663207547225","800","446","","","","","9-9= ?","0","1","","","","","","",""
