"rt","stimulus","response","trial_type","trial_index","time_elapsed","internal_node_id","swb_1","swb_2","swb_3","swb_4","swb_5","LOT_1","LOT_2","LOT_3","LOT_4","LOT_5","LOT_6","IPC_1","IPC_2","IPC_3","IPC_4","IPC_5","IPC_6","IPC_7","IPC_8","MorIden_1","MorIden_2","MorIden_3","MorIden_4","MorIden_5","MorIden_6","MorIden_7","MorIden_8","MorIden_9","MorIden_10","moralSeImag_1","moralSeImag_2","moralSeImag_3","moralSeImag_4","moralSeImag_5","moralSeImag_6","moralSeImag_7","moralSeImag_8","moralSeImag_9","sde_1","sde_2","sde_3","sde_4","sde_5","sde_6","sde_7","sde_8","sde_9","sde_10","sde_11","sde_12","sde_13","sde_14","sde_15","sde_16","sde_17","sde_18","sde_19","sde_20","IM_1","IM_2","IM_3","IM_4","IM_5","IM_6","IM_7","IM_8","IM_9","IM_10","IM_11","IM_12","IM_13","IM_14","IM_15","IM_16","IM_17","IM_18","IM_19","IM_20","subj_idx","friend_name","Sex","Word","Word2","value","success","timeout","failed_images","failed_audio","failed_video","user_agent","responses","item_order","radio_event_ids","radio_event_times","key_event_times","mouse_event_times","straightlining","zigzagging","honeypot","task_id","screen_id","time_stamp","response_type","key_press","avg_frame_time","center_x","center_y","person","word","valence","domain","math","correct_response","correct","status","view_history","identity","duration","Image","condition","question_order"
"6262","
   <p><div style='color:white; font-size: 25px'>您好，欢迎参加本次实验。</div></p>
   <p><div style='color:white; font-size: 25px'>为充分保障您的权利，请确保您已经知晓并同意《参与实验同意书》以及《数据公开知情同意书》。</div></p>
   <p><div style='color:white; font-size: 25px'>如果您未见过上述内容，请咨询实验员。</div></p>
   <p style='color:white; font-size: 25px'>如果您选择继续实验，则表示您已经清楚两份知情同意书的内容并同意。</p>
   <p> <div style = ""color: green""><按空格键至下页></div> </p>
   "," ","html-keyboard-response","0","6271","0.0-0.0","6","5","5","6","4","4","3","4","4","5","4","2","1","0","0","0","0","1","1","4","4","5","5","4","3","4","4","4","4","4","7","7","6","5","7","5","6","7","5","5","4","5","5","2","6","4","5","5","6","2","5","3","5","5","5","3","3","4","3","4","4","6","4","6","5","6","6","6","6","6","3","5","3","6","3","4","3","6","755507503227473921","陈","Female","[""好她"",""坏她"",""好我"",""坏我""]","[""强她"",""弱她"",""强我"",""弱我""]","","","","","","","","","","","","","","","","","","","","","","","","","","","","","","","","","","","","","",""
"","","","call-function","1","6277","0.0-1.0-0.0","6","5","5","6","4","4","3","4","4","5","4","2","1","0","0","0","0","1","1","4","4","5","5","4","3","4","4","4","4","4","7","7","6","5","7","5","6","7","5","5","4","5","5","2","6","4","5","5","6","2","5","3","5","5","5","3","3","4","3","4","4","6","4","6","5","6","6","6","6","6","3","5","3","6","3","4","3","6","755507503227473921","陈","Female","[""好她"",""坏她"",""好我"",""坏我""]","[""强她"",""弱她"",""强我"",""弱我""]","","","","","","","","","","","","","","","","","","","","","","","","","","","","","","","","","","","","","",""
"17835","","[{""name"":""Sex"",""value"":""1""},{""name"":""friend_name"",""value"":""陈""}]","survey-html-form","2","24115","0.0-1.0-1.0","6","5","5","6","4","4","3","4","4","5","4","2","1","0","0","0","0","1","1","4","4","5","5","4","3","4","4","4","4","4","7","7","6","5","7","5","6","7","5","5","4","5","5","2","6","4","5","5","6","2","5","3","5","5","5","3","3","4","3","4","4","6","4","6","5","6","6","6","6","6","3","5","3","6","3","4","3","6","755507503227473921","陈","Female","[""好她"",""坏她"",""好我"",""坏我""]","[""强她"",""弱她"",""强我"",""弱我""]","","","","","","","","","","","","","","","","","","","","","","","","","","","","","","","","","","","","","",""
"","","","preload","3","24667","0.0-2.0","6","5","5","6","4","4","3","4","4","5","4","2","1","0","0","0","0","1","1","4","4","5","5","4","3","4","4","4","4","4","7","7","6","5","7","5","6","7","5","5","4","5","5","2","6","4","5","5","6","2","5","3","5","5","5","3","3","4","3","4","4","6","4","6","5","6","6","6","6","6","3","5","3","6","3","4","3","6","755507503227473921","陈","Female","[""好她"",""坏她"",""好我"",""坏我""]","[""强她"",""弱她"",""强我"",""弱我""]","","true","false","[]","[]","[]","","","","","","","","","","","","","","","","","","","","","","","","","","","","","","","",""
"","","","fullscreen","4","60240","0.0-3.0","6","5","5","6","4","4","3","4","4","5","4","2","1","0","0","0","0","1","1","4","4","5","5","4","3","4","4","4","4","4","7","7","6","5","7","5","6","7","5","5","4","5","5","2","6","4","5","5","6","2","5","3","5","5","5","3","3","4","3","4","4","6","4","6","5","6","6","6","6","6","3","5","3","6","3","4","3","6","755507503227473921","陈","Female","[""好她"",""坏她"",""好我"",""坏我""]","[""强她"",""弱她"",""强我"",""弱我""]","","true","","","","","{}","","","","","","","","","","","","","","","","","","","","","","","","","","","","","","",""
"36089.79999999702","","{""Q01"":""6"",""Q02"":""5"",""Q03"":""5"",""Q04"":""6"",""Q05"":""4""}","survey-template","5","96332","0.0-4.0","6","5","5","6","4","4","3","4","4","5","4","2","1","0","0","0","0","1","1","4","4","5","5","4","3","4","4","4","4","4","7","7","6","5","7","5","6","7","5","5","4","5","5","2","6","4","5","5","6","2","5","3","5","5","5","3","3","4","3","4","4","6","4","6","5","6","6","6","6","6","3","5","3","6","3","4","3","6","755507503227473921","陈","Female","[""好她"",""坏她"",""好我"",""坏我""]","[""强她"",""弱她"",""强我"",""弱我""]","","","","","","","","{""Q01"":""6"",""Q02"":""5"",""Q03"":""5"",""Q04"":""6"",""Q05"":""4""}","[0,1,2,3,4]","[""Q01"",""Q02"",""Q03"",""Q04"",""Q05""]","[6416.099999997765,9480,12576.099999997765,19655.89999999851,20992]","[]","[6416.099999997765,9480,12576.099999997765,19655.89999999851,20992,36088]","0.4","0.5","0","","","","","","","","","","","","","","","","","","","","","",""
"39486.5","","{""Q01"":""4"",""Q02"":""3"",""Q03"":""4"",""Q04"":""4"",""Q05"":""5"",""Q06"":""4""}","survey-template","6","135828","0.0-5.0","6","5","5","6","4","4","3","4","4","5","4","2","1","0","0","0","0","1","1","4","4","5","5","4","3","4","4","4","4","4","7","7","6","5","7","5","6","7","5","5","4","5","5","2","6","4","5","5","6","2","5","3","5","5","5","3","3","4","3","4","4","6","4","6","5","6","6","6","6","6","3","5","3","6","3","4","3","6","755507503227473921","陈","Female","[""好她"",""坏她"",""好我"",""坏我""]","[""强她"",""弱她"",""强我"",""弱我""]","","","","","","","","{""Q01"":""4"",""Q02"":""3"",""Q03"":""4"",""Q04"":""4"",""Q05"":""5"",""Q06"":""4""}","[0,1,2,3,4,5]","[""Q01"",""Q02"",""Q02"",""Q03"",""Q04"",""Q05"",""Q06""]","[4557.199999999255,17421.300000000745,19901.199999999255,22253,28301.199999999255,32397.10000000149,38293.199999999255]","[]","[4557.199999999255,16605.5,17029.199999999255,17421.300000000745,19901.199999999255,22253,27789.10000000149,28301.199999999255,32397.10000000149,38293.199999999255,39485.300000000745]","0.5","0.6","0","","","","","","","","","","","","","","","","","","","","","",""
"35563","","{""Q01"":""2"",""Q02"":""1"",""Q03"":""0"",""Q04"":""0"",""Q05"":""0"",""Q06"":""0"",""Q07"":""1"",""Q08"":""1""}","survey-template","7","171397","0.0-6.0","6","5","5","6","4","4","3","4","4","5","4","2","1","0","0","0","0","1","1","4","4","5","5","4","3","4","4","4","4","4","7","7","6","5","7","5","6","7","5","5","4","5","5","2","6","4","5","5","6","2","5","3","5","5","5","3","3","4","3","4","4","6","4","6","5","6","6","6","6","6","3","5","3","6","3","4","3","6","755507503227473921","陈","Female","[""好她"",""坏她"",""好我"",""坏我""]","[""强她"",""弱她"",""强我"",""弱我""]","","","","","","","","{""Q01"":""2"",""Q02"":""1"",""Q03"":""0"",""Q04"":""0"",""Q05"":""0"",""Q06"":""0"",""Q07"":""1"",""Q08"":""1""}","[0,1,2,3,4,5,6,7]","[""Q01"",""Q02"",""Q03"",""Q04"",""Q05"",""Q06"",""Q07"",""Q08""]","[7216.89999999851,10289.10000000149,14513,19112.89999999851,21937.10000000149,26032.800000000745,27960.89999999851,31216.89999999851]","[]","[4848.800000000745,7216.89999999851,10289.10000000149,14513,19112.89999999851,21937.10000000149,26032.800000000745,27960.89999999851,30409,31216.89999999851,35561.10000000149]","0.5","0.42857142857142855","0","","","","","","","","","","","","","","","","","","","","","",""
"11937","
    <p><div style='color:white;font-size:35px; line-height:20px;'>词汇评估任务</div></p><br>
    <p><div style='color:white;font-size:25px; line-height:20px;'>请再次回忆该亲密的朋友，你们至少2年前就认识了，并且最近2年经常见面。</div></p>
    <p><div style='color:white;font-size:25px; line-height:20px;'>在本实验中，您将会看到一些形容词。</div></p>
    <p><div style='color:yellow;font-size:25px; line-height:20px;'>您的任务是判断这些形容词是否符合对您自己或您的朋友的描述。</div></p><p style='font-size:35px'>符合按<span style=""color:lightgreen""> f 键</span>，不符合按<span style=""color:red""> j 键</span></p>","0","html-button-response","8","183339","0.0-7.0-0.0","6","5","5","6","4","4","3","4","4","5","4","2","1","0","0","0","0","1","1","4","4","5","5","4","3","4","4","4","4","4","7","7","6","5","7","5","6","7","5","5","4","5","5","2","6","4","5","5","6","2","5","3","5","5","5","3","3","4","3","4","4","6","4","6","5","6","6","6","6","6","3","5","3","6","3","4","3","6","755507503227473921","陈","Female","[""好她"",""坏她"",""好我"",""坏我""]","[""强她"",""弱她"",""强我"",""弱我""]","","","","","","","","","","","","","","","","","SRET_EW","EW_instructions","Sun Sep 17 2023 15:44:55 GMT+0800 (中国标准时间)","","","","","","","","","","","","","","","","","","",""
"848","","j","psychophysics","9","185198","0.0-7.0-1.0-0.0","6","5","5","6","4","4","3","4","4","5","4","2","1","0","0","0","0","1","1","4","4","5","5","4","3","4","4","4","4","4","7","7","6","5","7","5","6","7","5","5","4","5","5","2","6","4","5","5","6","2","5","3","5","5","5","3","3","4","3","4","4","6","4","6","5","6","6","6","6","6","3","5","3","6","3","4","3","6","755507503227473921","陈","Female","[""好她"",""坏她"",""好我"",""坏我""]","[""强她"",""弱她"",""强我"",""弱我""]","","","","","","","","no","","","","","","","","","SRET_EW","EW_practice","","key","j","16.669660714285783","720","446","朋友","徇私","Negative","morality","","","","","","","","","",""
"746","","j","psychophysics","10","186948","0.0-7.0-1.0-0.1","6","5","5","6","4","4","3","4","4","5","4","2","1","0","0","0","0","1","1","4","4","5","5","4","3","4","4","4","4","4","7","7","6","5","7","5","6","7","5","5","4","5","5","2","6","4","5","5","6","2","5","3","5","5","5","3","3","4","3","4","4","6","4","6","5","6","6","6","6","6","3","5","3","6","3","4","3","6","755507503227473921","陈","Female","[""好她"",""坏她"",""好我"",""坏我""]","[""强她"",""弱她"",""强我"",""弱我""]","","","","","","","","no","","","","","","","","","SRET_EW","EW_practice","","key","j","16.6691634615384","720","446","自己","刻板","Negative","ability","","","","","","","","","",""
"1046","","f","psychophysics","11","188997","0.0-7.0-1.0-0.2","6","5","5","6","4","4","3","4","4","5","4","2","1","0","0","0","0","1","1","4","4","5","5","4","3","4","4","4","4","4","7","7","6","5","7","5","6","7","5","5","4","5","5","2","6","4","5","5","6","2","5","3","5","5","5","3","3","4","3","4","4","6","4","6","5","6","6","6","6","6","3","5","3","6","3","4","3","6","755507503227473921","陈","Female","[""好她"",""坏她"",""好我"",""坏我""]","[""强她"",""弱她"",""强我"",""弱我""]","","","","","","","","yes","","","","","","","","","SRET_EW","EW_practice","","key","f","16.669131147541147","720","446","自己","严谨","Positive","ability","","","","","","","","","",""
"1171","","f","psychophysics","12","191171","0.0-7.0-1.0-0.3","6","5","5","6","4","4","3","4","4","5","4","2","1","0","0","0","0","1","1","4","4","5","5","4","3","4","4","4","4","4","7","7","6","5","7","5","6","7","5","5","4","5","5","2","6","4","5","5","6","2","5","3","5","5","5","3","3","4","3","4","4","6","4","6","5","6","6","6","6","6","3","5","3","6","3","4","3","6","755507503227473921","陈","Female","[""好她"",""坏她"",""好我"",""坏我""]","[""强她"",""弱她"",""强我"",""弱我""]","","","","","","","","yes","","","","","","","","","SRET_EW","EW_practice","","key","f","16.66862015503882","720","446","朋友","忠实","Positive","morality","","","","","","","","","",""
"14590","
    <p><div style='color:white;font-size:35px; line-height:20px;'>请您再次阅读实验要求</div></p><br>
    <p><div style='color:white;font-size:25px; line-height:20px;'>请回忆某一个亲密的朋友，你们至少2年前就认识了，并且最近2年经常见面。</div></p>
    <p><div style='color:white;font-size:25px; line-height:20px;'>在本实验中，您将会看到一些形容词。</div></p>
    <p><div style='color:yellow;font-size:25px; line-height:20px;'>您的任务是判断这些形容词是否符合对您自己或您的朋友的描述。</div></p>
    <p><div class='footer' style='font-size:25px; line-height:20px;'>如果对本实验还有不清楚之处，请立即向实验员咨询。</p><p style='font-size:25px; line-height:20px;'>如果您明白了规则：</p><p style='font-size:22px; line-height:20px;'>请按 继续 进入正式实验</p>
    </div>
    <p style='font-size:35px'>符合按<span style=""color:lightgreen""> f 键</span>，不符合按<span style=""color:red""> j 键</span></p>","0","html-button-response","13","205763","0.0-7.0-2.0","6","5","5","6","4","4","3","4","4","5","4","2","1","0","0","0","0","1","1","4","4","5","5","4","3","4","4","4","4","4","7","7","6","5","7","5","6","7","5","5","4","5","5","2","6","4","5","5","6","2","5","3","5","5","5","3","3","4","3","4","4","6","4","6","5","6","6","6","6","6","3","5","3","6","3","4","3","6","755507503227473921","陈","Female","[""好她"",""坏她"",""好我"",""坏我""]","[""强她"",""弱她"",""强我"",""弱我""]","","","","","","","","","","","","","","","","","SRET_EW","prac_instructions","Sun Sep 17 2023 15:44:55 GMT+0800 (中国标准时间)","","","","","","","","","","","","","","","","","","",""
"990","","j","psychophysics","14","207755","0.0-7.0-3.0-0.0","6","5","5","6","4","4","3","4","4","5","4","2","1","0","0","0","0","1","1","4","4","5","5","4","3","4","4","4","4","4","7","7","6","5","7","5","6","7","5","5","4","5","5","2","6","4","5","5","6","2","5","3","5","5","5","3","3","4","3","4","4","6","4","6","5","6","6","6","6","6","3","5","3","6","3","4","3","6","755507503227473921","陈","Female","[""好她"",""坏她"",""好我"",""坏我""]","[""强她"",""弱她"",""强我"",""弱我""]","","","","","","","","no","","","","","","","","","SRET","EW_formal","","key","j","16.670144067796528","720","446","朋友","迷糊","Negative","ability","","","","","","","","","",""
"1054","","j","psychophysics","15","209814","0.0-7.0-3.0-0.1","6","5","5","6","4","4","3","4","4","5","4","2","1","0","0","0","0","1","1","4","4","5","5","4","3","4","4","4","4","4","7","7","6","5","7","5","6","7","5","5","4","5","5","2","6","4","5","5","6","2","5","3","5","5","5","3","3","4","3","4","4","6","4","6","5","6","6","6","6","6","3","5","3","6","3","4","3","6","755507503227473921","陈","Female","[""好她"",""坏她"",""好我"",""坏我""]","[""强她"",""弱她"",""强我"",""弱我""]","","","","","","","","no","","","","","","","","","SRET","EW_formal","","key","j","16.66889430894313","720","446","自己","说谎","Negative","morality","","","","","","","","","",""
"841","","f","psychophysics","16","211660","0.0-7.0-3.0-0.2","6","5","5","6","4","4","3","4","4","5","4","2","1","0","0","0","0","1","1","4","4","5","5","4","3","4","4","4","4","4","7","7","6","5","7","5","6","7","5","5","4","5","5","2","6","4","5","5","6","2","5","3","5","5","5","3","3","4","3","4","4","6","4","6","5","6","6","6","6","6","3","5","3","6","3","4","3","6","755507503227473921","陈","Female","[""好她"",""坏她"",""好我"",""坏我""]","[""强她"",""弱她"",""强我"",""弱我""]","","","","","","","","yes","","","","","","","","","SRET","EW_formal","","key","f","16.668412844036595","720","446","朋友","务实","Positive","ability","","","","","","","","","",""
"821","","f","psychophysics","17","213485","0.0-7.0-3.0-0.3","6","5","5","6","4","4","3","4","4","5","4","2","1","0","0","0","0","1","1","4","4","5","5","4","3","4","4","4","4","4","7","7","6","5","7","5","6","7","5","5","4","5","5","2","6","4","5","5","6","2","5","3","5","5","5","3","3","4","3","4","4","6","4","6","5","6","6","6","6","6","3","5","3","6","3","4","3","6","755507503227473921","陈","Female","[""好她"",""坏她"",""好我"",""坏我""]","[""强她"",""弱她"",""强我"",""弱我""]","","","","","","","","yes","","","","","","","","","SRET","EW_formal","","key","f","16.667623853211083","720","446","自己","坚贞","Positive","morality","","","","","","","","","",""
"650","","f","psychophysics","18","215138","0.0-7.0-3.0-0.4","6","5","5","6","4","4","3","4","4","5","4","2","1","0","0","0","0","1","1","4","4","5","5","4","3","4","4","4","4","4","7","7","6","5","7","5","6","7","5","5","4","5","5","2","6","4","5","5","6","2","5","3","5","5","5","3","3","4","3","4","4","6","4","6","5","6","6","6","6","6","3","5","3","6","3","4","3","6","755507503227473921","陈","Female","[""好她"",""坏她"",""好我"",""坏我""]","[""强她"",""弱她"",""强我"",""弱我""]","","","","","","","","yes","","","","","","","","","SRET","EW_formal","","key","f","16.667469387755215","720","446","自己","刚正","Positive","morality","","","","","","","","","",""
"1113","","j","psychophysics","19","217253","0.0-7.0-3.0-0.5","6","5","5","6","4","4","3","4","4","5","4","2","1","0","0","0","0","1","1","4","4","5","5","4","3","4","4","4","4","4","7","7","6","5","7","5","6","7","5","5","4","5","5","2","6","4","5","5","6","2","5","3","5","5","5","3","3","4","3","4","4","6","4","6","5","6","6","6","6","6","3","5","3","6","3","4","3","6","755507503227473921","陈","Female","[""好她"",""坏她"",""好我"",""坏我""]","[""强她"",""弱她"",""强我"",""弱我""]","","","","","","","","no","","","","","","","","","SRET","EW_formal","","key","j","16.670103174603096","720","446","自己","无为","Negative","ability","","","","","","","","","",""
"815","","j","psychophysics","20","219075","0.0-7.0-3.0-0.6","6","5","5","6","4","4","3","4","4","5","4","2","1","0","0","0","0","1","1","4","4","5","5","4","3","4","4","4","4","4","7","7","6","5","7","5","6","7","5","5","4","5","5","2","6","4","5","5","6","2","5","3","5","5","5","3","3","4","3","4","4","6","4","6","5","6","6","6","6","6","3","5","3","6","3","4","3","6","755507503227473921","陈","Female","[""好她"",""坏她"",""好我"",""坏我""]","[""强她"",""弱她"",""强我"",""弱我""]","","","","","","","","no","","","","","","","","","SRET","EW_formal","","key","j","16.669175925925998","720","446","自己","黑心","Negative","morality","","","","","","","","","",""
"755","","f","psychophysics","21","220835","0.0-7.0-3.0-0.7","6","5","5","6","4","4","3","4","4","5","4","2","1","0","0","0","0","1","1","4","4","5","5","4","3","4","4","4","4","4","7","7","6","5","7","5","6","7","5","5","4","5","5","2","6","4","5","5","6","2","5","3","5","5","5","3","3","4","3","4","4","6","4","6","5","6","6","6","6","6","3","5","3","6","3","4","3","6","755507503227473921","陈","Female","[""好她"",""坏她"",""好我"",""坏我""]","[""强她"",""弱她"",""强我"",""弱我""]","","","","","","","","yes","","","","","","","","","SRET","EW_formal","","key","f","16.66855238095242","720","446","自己","忠义","Positive","morality","","","","","","","","","",""
"646","","f","psychophysics","22","222484","0.0-7.0-3.0-0.8","6","5","5","6","4","4","3","4","4","5","4","2","1","0","0","0","0","1","1","4","4","5","5","4","3","4","4","4","4","4","7","7","6","5","7","5","6","7","5","5","4","5","5","2","6","4","5","5","6","2","5","3","5","5","5","3","3","4","3","4","4","6","4","6","5","6","6","6","6","6","3","5","3","6","3","4","3","6","755507503227473921","陈","Female","[""好她"",""坏她"",""好我"",""坏我""]","[""强她"",""弱她"",""强我"",""弱我""]","","","","","","","","yes","","","","","","","","","SRET","EW_formal","","key","f","16.6685612244898","720","446","自己","毅力","Positive","ability","","","","","","","","","",""
"1420","","f","psychophysics","23","224907","0.0-7.0-3.0-0.9","6","5","5","6","4","4","3","4","4","5","4","2","1","0","0","0","0","1","1","4","4","5","5","4","3","4","4","4","4","4","7","7","6","5","7","5","6","7","5","5","4","5","5","2","6","4","5","5","6","2","5","3","5","5","5","3","3","4","3","4","4","6","4","6","5","6","6","6","6","6","3","5","3","6","3","4","3","6","755507503227473921","陈","Female","[""好她"",""坏她"",""好我"",""坏我""]","[""强她"",""弱她"",""强我"",""弱我""]","","","","","","","","yes","","","","","","","","","SRET","EW_formal","","key","f","16.668791666666745","720","446","朋友","学霸","Positive","ability","","","","","","","","","",""
"759","","j","psychophysics","24","226668","0.0-7.0-3.0-0.10","6","5","5","6","4","4","3","4","4","5","4","2","1","0","0","0","0","1","1","4","4","5","5","4","3","4","4","4","4","4","7","7","6","5","7","5","6","7","5","5","4","5","5","2","6","4","5","5","6","2","5","3","5","5","5","3","3","4","3","4","4","6","4","6","5","6","6","6","6","6","3","5","3","6","3","4","3","6","755507503227473921","陈","Female","[""好她"",""坏她"",""好我"",""坏我""]","[""强她"",""弱她"",""强我"",""弱我""]","","","","","","","","no","","","","","","","","","SRET","EW_formal","","key","j","16.668866666666663","720","446","朋友","迟钝","Negative","ability","","","","","","","","","",""
"750","","f","psychophysics","25","228421","0.0-7.0-3.0-0.11","6","5","5","6","4","4","3","4","4","5","4","2","1","0","0","0","0","1","1","4","4","5","5","4","3","4","4","4","4","4","7","7","6","5","7","5","6","7","5","5","4","5","5","2","6","4","5","5","6","2","5","3","5","5","5","3","3","4","3","4","4","6","4","6","5","6","6","6","6","6","3","5","3","6","3","4","3","6","755507503227473921","陈","Female","[""好她"",""坏她"",""好我"",""坏我""]","[""强她"",""弱她"",""强我"",""弱我""]","","","","","","","","yes","","","","","","","","","SRET","EW_formal","","key","f","16.667865384615514","720","446","朋友","忠诚","Positive","morality","","","","","","","","","",""
"740","","j","psychophysics","26","230165","0.0-7.0-3.0-0.12","6","5","5","6","4","4","3","4","4","5","4","2","1","0","0","0","0","1","1","4","4","5","5","4","3","4","4","4","4","4","7","7","6","5","7","5","6","7","5","5","4","5","5","2","6","4","5","5","6","2","5","3","5","5","5","3","3","4","3","4","4","6","4","6","5","6","6","6","6","6","3","5","3","6","3","4","3","6","755507503227473921","陈","Female","[""好她"",""坏她"",""好我"",""坏我""]","[""强她"",""弱她"",""强我"",""弱我""]","","","","","","","","no","","","","","","","","","SRET","EW_formal","","key","j","16.667759615384476","720","446","自己","邪恶","Negative","morality","","","","","","","","","",""
"699","","f","psychophysics","27","231868","0.0-7.0-3.0-0.13","6","5","5","6","4","4","3","4","4","5","4","2","1","0","0","0","0","1","1","4","4","5","5","4","3","4","4","4","4","4","7","7","6","5","7","5","6","7","5","5","4","5","5","2","6","4","5","5","6","2","5","3","5","5","5","3","3","4","3","4","4","6","4","6","5","6","6","6","6","6","3","5","3","6","3","4","3","6","755507503227473921","陈","Female","[""好她"",""坏她"",""好我"",""坏我""]","[""强她"",""弱她"",""强我"",""弱我""]","","","","","","","","yes","","","","","","","","","SRET","EW_formal","","key","f","16.669168316831783","720","446","朋友","廉明","Positive","morality","","","","","","","","","",""
"1078","","j","psychophysics","28","233948","0.0-7.0-3.0-0.14","6","5","5","6","4","4","3","4","4","5","4","2","1","0","0","0","0","1","1","4","4","5","5","4","3","4","4","4","4","4","7","7","6","5","7","5","6","7","5","5","4","5","5","2","6","4","5","5","6","2","5","3","5","5","5","3","3","4","3","4","4","6","4","6","5","6","6","6","6","6","3","5","3","6","3","4","3","6","755507503227473921","陈","Female","[""好她"",""坏她"",""好我"",""坏我""]","[""强她"",""弱她"",""强我"",""弱我""]","","","","","","","","no","","","","","","","","","SRET","EW_formal","","key","j","16.667693548387287","720","446","自己","新手","Negative","ability","","","","","","","","","",""
"1229","","f","psychophysics","29","236182","0.0-7.0-3.0-0.15","6","5","5","6","4","4","3","4","4","5","4","2","1","0","0","0","0","1","1","4","4","5","5","4","3","4","4","4","4","4","7","7","6","5","7","5","6","7","5","5","4","5","5","2","6","4","5","5","6","2","5","3","5","5","5","3","3","4","3","4","4","6","4","6","5","6","6","6","6","6","3","5","3","6","3","4","3","6","755507503227473921","陈","Female","[""好她"",""坏她"",""好我"",""坏我""]","[""强她"",""弱她"",""强我"",""弱我""]","","","","","","","","yes","","","","","","","","","SRET","EW_formal","","key","f","16.669796992481086","720","446","自己","中用","Positive","ability","","","","","","","","","",""
"656","","f","psychophysics","30","237843","0.0-7.0-3.0-0.16","6","5","5","6","4","4","3","4","4","5","4","2","1","0","0","0","0","1","1","4","4","5","5","4","3","4","4","4","4","4","7","7","6","5","7","5","6","7","5","5","4","5","5","2","6","4","5","5","6","2","5","3","5","5","5","3","3","4","3","4","4","6","4","6","5","6","6","6","6","6","3","5","3","6","3","4","3","6","755507503227473921","陈","Female","[""好她"",""坏她"",""好我"",""坏我""]","[""强她"",""弱她"",""强我"",""弱我""]","","","","","","","","yes","","","","","","","","","SRET","EW_formal","","key","f","16.66769387755081","720","446","自己","正气","Positive","morality","","","","","","","","","",""
"659","","j","psychophysics","31","239509","0.0-7.0-3.0-0.17","6","5","5","6","4","4","3","4","4","5","4","2","1","0","0","0","0","1","1","4","4","5","5","4","3","4","4","4","4","4","7","7","6","5","7","5","6","7","5","5","4","5","5","2","6","4","5","5","6","2","5","3","5","5","5","3","3","4","3","4","4","6","4","6","5","6","6","6","6","6","3","5","3","6","3","4","3","6","755507503227473921","陈","Female","[""好她"",""坏她"",""好我"",""坏我""]","[""强她"",""弱她"",""强我"",""弱我""]","","","","","","","","no","","","","","","","","","SRET","EW_formal","","key","j","16.668878787878615","720","446","朋友","笨蛋","Negative","ability","","","","","","","","","",""
"1054","","f","psychophysics","32","241566","0.0-7.0-3.0-0.18","6","5","5","6","4","4","3","4","4","5","4","2","1","0","0","0","0","1","1","4","4","5","5","4","3","4","4","4","4","4","7","7","6","5","7","5","6","7","5","5","4","5","5","2","6","4","5","5","6","2","5","3","5","5","5","3","3","4","3","4","4","6","4","6","5","6","6","6","6","6","3","5","3","6","3","4","3","6","755507503227473921","陈","Female","[""好她"",""坏她"",""好我"",""坏我""]","[""强她"",""弱她"",""强我"",""弱我""]","","","","","","","","yes","","","","","","","","","SRET","EW_formal","","key","f","16.66865853658533","720","446","自己","变通","Positive","ability","","","","","","","","","",""
"720","","f","psychophysics","33","243291","0.0-7.0-3.0-0.19","6","5","5","6","4","4","3","4","4","5","4","2","1","0","0","0","0","1","1","4","4","5","5","4","3","4","4","4","4","4","7","7","6","5","7","5","6","7","5","5","4","5","5","2","6","4","5","5","6","2","5","3","5","5","5","3","3","4","3","4","4","6","4","6","5","6","6","6","6","6","3","5","3","6","3","4","3","6","755507503227473921","陈","Female","[""好她"",""坏她"",""好我"",""坏我""]","[""强她"",""弱她"",""强我"",""弱我""]","","","","","","","","yes","","","","","","","","","SRET","EW_formal","","key","f","16.668029411764664","720","446","自己","肯干","Positive","ability","","","","","","","","","",""
"677","","j","psychophysics","34","244971","0.0-7.0-3.0-0.20","6","5","5","6","4","4","3","4","4","5","4","2","1","0","0","0","0","1","1","4","4","5","5","4","3","4","4","4","4","4","7","7","6","5","7","5","6","7","5","5","4","5","5","2","6","4","5","5","6","2","5","3","5","5","5","3","3","4","3","4","4","6","4","6","5","6","6","6","6","6","3","5","3","6","3","4","3","6","755507503227473921","陈","Female","[""好她"",""坏她"",""好我"",""坏我""]","[""强她"",""弱她"",""强我"",""弱我""]","","","","","","","","no","","","","","","","","","SRET","EW_formal","","key","j","16.669259999999777","720","446","朋友","小人","Negative","morality","","","","","","","","","",""
"1113","","f","psychophysics","35","247091","0.0-7.0-3.0-0.21","6","5","5","6","4","4","3","4","4","5","4","2","1","0","0","0","0","1","1","4","4","5","5","4","3","4","4","4","4","4","7","7","6","5","7","5","6","7","5","5","4","5","5","2","6","4","5","5","6","2","5","3","5","5","5","3","3","4","3","4","4","6","4","6","5","6","6","6","6","6","3","5","3","6","3","4","3","6","755507503227473921","陈","Female","[""好她"",""坏她"",""好我"",""坏我""]","[""强她"",""弱她"",""强我"",""弱我""]","","","","","","","","yes","","","","","","","","","SRET","EW_formal","","key","f","16.66885714285724","720","446","自己","忠勇","Positive","morality","","","","","","","","","",""
"733","","j","psychophysics","36","248827","0.0-7.0-3.0-0.22","6","5","5","6","4","4","3","4","4","5","4","2","1","0","0","0","0","1","1","4","4","5","5","4","3","4","4","4","4","4","7","7","6","5","7","5","6","7","5","5","4","5","5","2","6","4","5","5","6","2","5","3","5","5","5","3","3","4","3","4","4","6","4","6","5","6","6","6","6","6","3","5","3","6","3","4","3","6","755507503227473921","陈","Female","[""好她"",""坏她"",""好我"",""坏我""]","[""强她"",""弱她"",""强我"",""弱我""]","","","","","","","","no","","","","","","","","","SRET","EW_formal","","key","j","16.669368932038903","720","446","朋友","利己","Negative","morality","","","","","","","","","",""
"716","","j","psychophysics","37","250553","0.0-7.0-3.0-0.23","6","5","5","6","4","4","3","4","4","5","4","2","1","0","0","0","0","1","1","4","4","5","5","4","3","4","4","4","4","4","7","7","6","5","7","5","6","7","5","5","4","5","5","2","6","4","5","5","6","2","5","3","5","5","5","3","3","4","3","4","4","6","4","6","5","6","6","6","6","6","3","5","3","6","3","4","3","6","755507503227473921","陈","Female","[""好她"",""坏她"",""好我"",""坏我""]","[""强她"",""弱她"",""强我"",""弱我""]","","","","","","","","no","","","","","","","","","SRET","EW_formal","","key","j","16.669728155339982","720","446","自己","愚痴","Negative","ability","","","","","","","","","",""
"994","","f","psychophysics","38","252550","0.0-7.0-3.0-0.24","6","5","5","6","4","4","3","4","4","5","4","2","1","0","0","0","0","1","1","4","4","5","5","4","3","4","4","4","4","4","7","7","6","5","7","5","6","7","5","5","4","5","5","2","6","4","5","5","6","2","5","3","5","5","5","3","3","4","3","4","4","6","4","6","5","6","6","6","6","6","3","5","3","6","3","4","3","6","755507503227473921","陈","Female","[""好她"",""坏她"",""好我"",""坏我""]","[""强她"",""弱她"",""强我"",""弱我""]","","","","","","","","yes","","","","","","","","","SRET","EW_formal","","key","f","16.67047899159673","720","446","朋友","文明","Positive","morality","","","","","","","","","",""
"779","","j","psychophysics","39","254333","0.0-7.0-3.0-0.25","6","5","5","6","4","4","3","4","4","5","4","2","1","0","0","0","0","1","1","4","4","5","5","4","3","4","4","4","4","4","7","7","6","5","7","5","6","7","5","5","4","5","5","2","6","4","5","5","6","2","5","3","5","5","5","3","3","4","3","4","4","6","4","6","5","6","6","6","6","6","3","5","3","6","3","4","3","6","755507503227473921","陈","Female","[""好她"",""坏她"",""好我"",""坏我""]","[""强她"",""弱她"",""强我"",""弱我""]","","","","","","","","no","","","","","","","","","SRET","EW_formal","","key","j","16.66909433962263","720","446","自己","不端","Negative","morality","","","","","","","","","",""
"730","","j","psychophysics","40","256068","0.0-7.0-3.0-0.26","6","5","5","6","4","4","3","4","4","5","4","2","1","0","0","0","0","1","1","4","4","5","5","4","3","4","4","4","4","4","7","7","6","5","7","5","6","7","5","5","4","5","5","2","6","4","5","5","6","2","5","3","5","5","5","3","3","4","3","4","4","6","4","6","5","6","6","6","6","6","3","5","3","6","3","4","3","6","755507503227473921","陈","Female","[""好她"",""坏她"",""好我"",""坏我""]","[""强她"",""弱她"",""强我"",""弱我""]","","","","","","","","no","","","","","","","","","SRET","EW_formal","","key","j","16.669456310679593","720","446","自己","拖延","Negative","ability","","","","","","","","","",""
"652","","f","psychophysics","41","257723","0.0-7.0-3.0-0.27","6","5","5","6","4","4","3","4","4","5","4","2","1","0","0","0","0","1","1","4","4","5","5","4","3","4","4","4","4","4","7","7","6","5","7","5","6","7","5","5","4","5","5","2","6","4","5","5","6","2","5","3","5","5","5","3","3","4","3","4","4","6","4","6","5","6","6","6","6","6","3","5","3","6","3","4","3","6","755507503227473921","陈","Female","[""好她"",""坏她"",""好我"",""坏我""]","[""强她"",""弱她"",""强我"",""弱我""]","","","","","","","","yes","","","","","","","","","SRET","EW_formal","","key","f","16.669346938775412","720","446","自己","廉正","Positive","morality","","","","","","","","","",""
"1075","","j","psychophysics","42","259804","0.0-7.0-3.0-0.28","6","5","5","6","4","4","3","4","4","5","4","2","1","0","0","0","0","1","1","4","4","5","5","4","3","4","4","4","4","4","7","7","6","5","7","5","6","7","5","5","4","5","5","2","6","4","5","5","6","2","5","3","5","5","5","3","3","4","3","4","4","6","4","6","5","6","6","6","6","6","3","5","3","6","3","4","3","6","755507503227473921","陈","Female","[""好她"",""坏她"",""好我"",""坏我""]","[""强她"",""弱她"",""强我"",""弱我""]","","","","","","","","no","","","","","","","","","SRET","EW_formal","","key","j","16.667935483870913","720","446","朋友","诡诈","Negative","morality","","","","","","","","","",""
"714","","j","psychophysics","43","261521","0.0-7.0-3.0-0.29","6","5","5","6","4","4","3","4","4","5","4","2","1","0","0","0","0","1","1","4","4","5","5","4","3","4","4","4","4","4","7","7","6","5","7","5","6","7","5","5","4","5","5","2","6","4","5","5","6","2","5","3","5","5","5","3","3","4","3","4","4","6","4","6","5","6","6","6","6","6","3","5","3","6","3","4","3","6","755507503227473921","陈","Female","[""好她"",""坏她"",""好我"",""坏我""]","[""强她"",""弱她"",""强我"",""弱我""]","","","","","","","","no","","","","","","","","","SRET","EW_formal","","key","j","16.66910784313736","720","446","朋友","无助","Negative","ability","","","","","","","","","",""
"729","","f","psychophysics","44","263259","0.0-7.0-3.0-0.30","6","5","5","6","4","4","3","4","4","5","4","2","1","0","0","0","0","1","1","4","4","5","5","4","3","4","4","4","4","4","7","7","6","5","7","5","6","7","5","5","4","5","5","2","6","4","5","5","6","2","5","3","5","5","5","3","3","4","3","4","4","6","4","6","5","6","6","6","6","6","3","5","3","6","3","4","3","6","755507503227473921","陈","Female","[""好她"",""坏她"",""好我"",""坏我""]","[""强她"",""弱她"",""强我"",""弱我""]","","","","","","","","yes","","","","","","","","","SRET","EW_formal","","key","f","16.66771844660217","720","446","自己","顶事","Positive","ability","","","","","","","","","",""
"575","","f","psychophysics","45","264837","0.0-7.0-3.0-0.31","6","5","5","6","4","4","3","4","4","5","4","2","1","0","0","0","0","1","1","4","4","5","5","4","3","4","4","4","4","4","7","7","6","5","7","5","6","7","5","5","4","5","5","2","6","4","5","5","6","2","5","3","5","5","5","3","3","4","3","4","4","6","4","6","5","6","6","6","6","6","3","5","3","6","3","4","3","6","755507503227473921","陈","Female","[""好她"",""坏她"",""好我"",""坏我""]","[""强她"",""弱她"",""强我"",""弱我""]","","","","","","","","yes","","","","","","","","","SRET","EW_formal","","key","f","16.669425531914655","720","446","自己","高洁","Positive","morality","","","","","","","","","",""
"684","","f","psychophysics","46","266523","0.0-7.0-3.0-0.32","6","5","5","6","4","4","3","4","4","5","4","2","1","0","0","0","0","1","1","4","4","5","5","4","3","4","4","4","4","4","7","7","6","5","7","5","6","7","5","5","4","5","5","2","6","4","5","5","6","2","5","3","5","5","5","3","3","4","3","4","4","6","4","6","5","6","6","6","6","6","3","5","3","6","3","4","3","6","755507503227473921","陈","Female","[""好她"",""坏她"",""好我"",""坏我""]","[""强她"",""弱她"",""强我"",""弱我""]","","","","","","","","yes","","","","","","","","","SRET","EW_formal","","key","f","16.669370000000345","720","446","朋友","娴熟","Positive","ability","","","","","","","","","",""
"797","","f","psychophysics","47","268323","0.0-7.0-3.0-0.33","6","5","5","6","4","4","3","4","4","5","4","2","1","0","0","0","0","1","1","4","4","5","5","4","3","4","4","4","4","4","7","7","6","5","7","5","6","7","5","5","4","5","5","2","6","4","5","5","6","2","5","3","5","5","5","3","3","4","3","4","4","6","4","6","5","6","6","6","6","6","3","5","3","6","3","4","3","6","755507503227473921","陈","Female","[""好她"",""坏她"",""好我"",""坏我""]","[""强她"",""弱她"",""强我"",""弱我""]","","","","","","","","yes","","","","","","","","","SRET","EW_formal","","key","f","16.669467289719368","720","446","自己","懂行","Positive","ability","","","","","","","","","",""
"637","","j","psychophysics","48","269964","0.0-7.0-3.0-0.34","6","5","5","6","4","4","3","4","4","5","4","2","1","0","0","0","0","1","1","4","4","5","5","4","3","4","4","4","4","4","7","7","6","5","7","5","6","7","5","5","4","5","5","2","6","4","5","5","6","2","5","3","5","5","5","3","3","4","3","4","4","6","4","6","5","6","6","6","6","6","3","5","3","6","3","4","3","6","755507503227473921","陈","Female","[""好她"",""坏她"",""好我"",""坏我""]","[""强她"",""弱她"",""强我"",""弱我""]","","","","","","","","no","","","","","","","","","SRET","EW_formal","","key","j","16.66863917525781","720","446","自己","狡诈","Negative","morality","","","","","","","","","",""
"590","","j","psychophysics","49","271556","0.0-7.0-3.0-0.35","6","5","5","6","4","4","3","4","4","5","4","2","1","0","0","0","0","1","1","4","4","5","5","4","3","4","4","4","4","4","7","7","6","5","7","5","6","7","5","5","4","5","5","2","6","4","5","5","6","2","5","3","5","5","5","3","3","4","3","4","4","6","4","6","5","6","6","6","6","6","3","5","3","6","3","4","3","6","755507503227473921","陈","Female","[""好她"",""坏她"",""好我"",""坏我""]","[""强她"",""弱她"",""强我"",""弱我""]","","","","","","","","no","","","","","","","","","SRET","EW_formal","","key","j","16.6683157894742","720","446","朋友","狡狯","Negative","morality","","","","","","","","","",""
"597","","f","psychophysics","50","273155","0.0-7.0-3.0-0.36","6","5","5","6","4","4","3","4","4","5","4","2","1","0","0","0","0","1","1","4","4","5","5","4","3","4","4","4","4","4","7","7","6","5","7","5","6","7","5","5","4","5","5","2","6","4","5","5","6","2","5","3","5","5","5","3","3","4","3","4","4","6","4","6","5","6","6","6","6","6","3","5","3","6","3","4","3","6","755507503227473921","陈","Female","[""好她"",""坏她"",""好我"",""坏我""]","[""强她"",""弱她"",""强我"",""弱我""]","","","","","","","","yes","","","","","","","","","SRET","EW_formal","","key","f","16.668999999999926","720","446","自己","忠良","Positive","morality","","","","","","","","","",""
"653","","j","psychophysics","51","274811","0.0-7.0-3.0-0.37","6","5","5","6","4","4","3","4","4","5","4","2","1","0","0","0","0","1","1","4","4","5","5","4","3","4","4","4","4","4","7","7","6","5","7","5","6","7","5","5","4","5","5","2","6","4","5","5","6","2","5","3","5","5","5","3","3","4","3","4","4","6","4","6","5","6","6","6","6","6","3","5","3","6","3","4","3","6","755507503227473921","陈","Female","[""好她"",""坏她"",""好我"",""坏我""]","[""强她"",""弱她"",""强我"",""弱我""]","","","","","","","","no","","","","","","","","","SRET","EW_formal","","key","j","16.668540816326455","720","446","朋友","低劣","Negative","morality","","","","","","","","","",""
"981","","j","psychophysics","52","276795","0.0-7.0-3.0-0.38","6","5","5","6","4","4","3","4","4","5","4","2","1","0","0","0","0","1","1","4","4","5","5","4","3","4","4","4","4","4","7","7","6","5","7","5","6","7","5","5","4","5","5","2","6","4","5","5","6","2","5","3","5","5","5","3","3","4","3","4","4","6","4","6","5","6","6","6","6","6","3","5","3","6","3","4","3","6","755507503227473921","陈","Female","[""好她"",""坏她"",""好我"",""坏我""]","[""强她"",""弱她"",""强我"",""弱我""]","","","","","","","","no","","","","","","","","","SRET","EW_formal","","key","j","16.66894067796608","720","446","自己","外行","Negative","ability","","","","","","","","","",""
"1020","","f","psychophysics","53","278821","0.0-7.0-3.0-0.39","6","5","5","6","4","4","3","4","4","5","4","2","1","0","0","0","0","1","1","4","4","5","5","4","3","4","4","4","4","4","7","7","6","5","7","5","6","7","5","5","4","5","5","2","6","4","5","5","6","2","5","3","5","5","5","3","3","4","3","4","4","6","4","6","5","6","6","6","6","6","3","5","3","6","3","4","3","6","755507503227473921","陈","Female","[""好她"",""坏她"",""好我"",""坏我""]","[""强她"",""弱她"",""强我"",""弱我""]","","","","","","","","yes","","","","","","","","","SRET","EW_formal","","key","f","16.669330578512408","720","446","自己","利落","Positive","ability","","","","","","","","","",""
"764","","f","psychophysics","54","280588","0.0-7.0-3.0-0.40","6","5","5","6","4","4","3","4","4","5","4","2","1","0","0","0","0","1","1","4","4","5","5","4","3","4","4","4","4","4","7","7","6","5","7","5","6","7","5","5","4","5","5","2","6","4","5","5","6","2","5","3","5","5","5","3","3","4","3","4","4","6","4","6","5","6","6","6","6","6","3","5","3","6","3","4","3","6","755507503227473921","陈","Female","[""好她"",""坏她"",""好我"",""坏我""]","[""强她"",""弱她"",""强我"",""弱我""]","","","","","","","","yes","","","","","","","","","SRET","EW_formal","","key","f","16.669238095238274","720","446","朋友","上进","Positive","ability","","","","","","","","","",""
"671","","f","psychophysics","55","282261","0.0-7.0-3.0-0.41","6","5","5","6","4","4","3","4","4","5","4","2","1","0","0","0","0","1","1","4","4","5","5","4","3","4","4","4","4","4","7","7","6","5","7","5","6","7","5","5","4","5","5","2","6","4","5","5","6","2","5","3","5","5","5","3","3","4","3","4","4","6","4","6","5","6","6","6","6","6","3","5","3","6","3","4","3","6","755507503227473921","陈","Female","[""好她"",""坏她"",""好我"",""坏我""]","[""强她"",""弱她"",""强我"",""弱我""]","","","","","","","","yes","","","","","","","","","SRET","EW_formal","","key","f","16.6688787878792","720","446","自己","果决","Positive","ability","","","","","","","","","",""
"859","","j","psychophysics","56","284123","0.0-7.0-3.0-0.42","6","5","5","6","4","4","3","4","4","5","4","2","1","0","0","0","0","1","1","4","4","5","5","4","3","4","4","4","4","4","7","7","6","5","7","5","6","7","5","5","4","5","5","2","6","4","5","5","6","2","5","3","5","5","5","3","3","4","3","4","4","6","4","6","5","6","6","6","6","6","3","5","3","6","3","4","3","6","755507503227473921","陈","Female","[""好她"",""坏她"",""好我"",""坏我""]","[""强她"",""弱她"",""强我"",""弱我""]","","","","","","","","no","","","","","","","","","SRET","EW_formal","","key","j","16.669063063063092","720","446","朋友","差生","Negative","ability","","","","","","","","","",""
"654","","j","psychophysics","57","285779","0.0-7.0-3.0-0.43","6","5","5","6","4","4","3","4","4","5","4","2","1","0","0","0","0","1","1","4","4","5","5","4","3","4","4","4","4","4","7","7","6","5","7","5","6","7","5","5","4","5","5","2","6","4","5","5","6","2","5","3","5","5","5","3","3","4","3","4","4","6","4","6","5","6","6","6","6","6","3","5","3","6","3","4","3","6","755507503227473921","陈","Female","[""好她"",""坏她"",""好我"",""坏我""]","[""强她"",""弱她"",""强我"",""弱我""]","","","","","","","","no","","","","","","","","","SRET","EW_formal","","key","j","16.669193877551077","720","446","朋友","拙笨","Negative","ability","","","","","","","","","",""
"1117","","f","psychophysics","58","287902","0.0-7.0-3.0-0.44","6","5","5","6","4","4","3","4","4","5","4","2","1","0","0","0","0","1","1","4","4","5","5","4","3","4","4","4","4","4","7","7","6","5","7","5","6","7","5","5","4","5","5","2","6","4","5","5","6","2","5","3","5","5","5","3","3","4","3","4","4","6","4","6","5","6","6","6","6","6","3","5","3","6","3","4","3","6","755507503227473921","陈","Female","[""好她"",""坏她"",""好我"",""坏我""]","[""强她"",""弱她"",""强我"",""弱我""]","","","","","","","","yes","","","","","","","","","SRET","EW_formal","","key","f","16.668133858267737","720","446","自己","精干","Positive","ability","","","","","","","","","",""
"640","","j","psychophysics","59","289547","0.0-7.0-3.0-0.45","6","5","5","6","4","4","3","4","4","5","4","2","1","0","0","0","0","1","1","4","4","5","5","4","3","4","4","4","4","4","7","7","6","5","7","5","6","7","5","5","4","5","5","2","6","4","5","5","6","2","5","3","5","5","5","3","3","4","3","4","4","6","4","6","5","6","6","6","6","6","3","5","3","6","3","4","3","6","755507503227473921","陈","Female","[""好她"",""坏她"",""好我"",""坏我""]","[""强她"",""弱她"",""强我"",""弱我""]","","","","","","","","no","","","","","","","","","SRET","EW_formal","","key","j","16.668103092783323","720","446","朋友","虚伪","Negative","morality","","","","","","","","","",""
"715","","f","psychophysics","60","291268","0.0-7.0-3.0-0.46","6","5","5","6","4","4","3","4","4","5","4","2","1","0","0","0","0","1","1","4","4","5","5","4","3","4","4","4","4","4","7","7","6","5","7","5","6","7","5","5","4","5","5","2","6","4","5","5","6","2","5","3","5","5","5","3","3","4","3","4","4","6","4","6","5","6","6","6","6","6","3","5","3","6","3","4","3","6","755507503227473921","陈","Female","[""好她"",""坏她"",""好我"",""坏我""]","[""强她"",""弱她"",""强我"",""弱我""]","","","","","","","","yes","","","","","","","","","SRET","EW_formal","","key","f","16.669029126213907","720","446","朋友","依靠","Negative","ability","","","","","","","","","",""
"718","","j","psychophysics","61","292991","0.0-7.0-3.0-0.47","6","5","5","6","4","4","3","4","4","5","4","2","1","0","0","0","0","1","1","4","4","5","5","4","3","4","4","4","4","4","7","7","6","5","7","5","6","7","5","5","4","5","5","2","6","4","5","5","6","2","5","3","5","5","5","3","3","4","3","4","4","6","4","6","5","6","6","6","6","6","3","5","3","6","3","4","3","6","755507503227473921","陈","Female","[""好她"",""坏她"",""好我"",""坏我""]","[""强她"",""弱她"",""强我"",""弱我""]","","","","","","","","no","","","","","","","","","SRET","EW_formal","","key","j","16.669176470588177","720","446","自己","贪腐","Negative","morality","","","","","","","","","",""
"658","","f","psychophysics","62","294652","0.0-7.0-3.0-0.48","6","5","5","6","4","4","3","4","4","5","4","2","1","0","0","0","0","1","1","4","4","5","5","4","3","4","4","4","4","4","7","7","6","5","7","5","6","7","5","5","4","5","5","2","6","4","5","5","6","2","5","3","5","5","5","3","3","4","3","4","4","6","4","6","5","6","6","6","6","6","3","5","3","6","3","4","3","6","755507503227473921","陈","Female","[""好她"",""坏她"",""好我"",""坏我""]","[""强她"",""弱她"",""强我"",""弱我""]","","","","","","","","yes","","","","","","","","","SRET","EW_formal","","key","f","16.66898989898971","720","446","朋友","善心","Positive","morality","","","","","","","","","",""
"579","","j","psychophysics","63","296237","0.0-7.0-3.0-0.49","6","5","5","6","4","4","3","4","4","5","4","2","1","0","0","0","0","1","1","4","4","5","5","4","3","4","4","4","4","4","7","7","6","5","7","5","6","7","5","5","4","5","5","2","6","4","5","5","6","2","5","3","5","5","5","3","3","4","3","4","4","6","4","6","5","6","6","6","6","6","3","5","3","6","3","4","3","6","755507503227473921","陈","Female","[""好她"",""坏她"",""好我"",""坏我""]","[""强她"",""弱她"",""强我"",""弱我""]","","","","","","","","no","","","","","","","","","SRET","EW_formal","","key","j","16.669351063830348","720","446","自己","愚钝","Negative","ability","","","","","","","","","",""
"1340","","j","psychophysics","64","298589","0.0-7.0-3.0-0.50","6","5","5","6","4","4","3","4","4","5","4","2","1","0","0","0","0","1","1","4","4","5","5","4","3","4","4","4","4","4","7","7","6","5","7","5","6","7","5","5","4","5","5","2","6","4","5","5","6","2","5","3","5","5","5","3","3","4","3","4","4","6","4","6","5","6","6","6","6","6","3","5","3","6","3","4","3","6","755507503227473921","陈","Female","[""好她"",""坏她"",""好我"",""坏我""]","[""强她"",""弱她"",""强我"",""弱我""]","","","","","","","","no","","","","","","","","","SRET","EW_formal","","key","j","16.669142857142806","720","446","自己","庸碌","Negative","ability","","","","","","","","","",""
"687","","j","psychophysics","65","300286","0.0-7.0-3.0-0.51","6","5","5","6","4","4","3","4","4","5","4","2","1","0","0","0","0","1","1","4","4","5","5","4","3","4","4","4","4","4","7","7","6","5","7","5","6","7","5","5","4","5","5","2","6","4","5","5","6","2","5","3","5","5","5","3","3","4","3","4","4","6","4","6","5","6","6","6","6","6","3","5","3","6","3","4","3","6","755507503227473921","陈","Female","[""好她"",""坏她"",""好我"",""坏我""]","[""强她"",""弱她"",""强我"",""弱我""]","","","","","","","","no","","","","","","","","","SRET","EW_formal","","key","j","16.66766336633672","720","446","自己","不仁","Negative","morality","","","","","","","","","",""
"763","","j","psychophysics","66","302053","0.0-7.0-3.0-0.52","6","5","5","6","4","4","3","4","4","5","4","2","1","0","0","0","0","1","1","4","4","5","5","4","3","4","4","4","4","4","7","7","6","5","7","5","6","7","5","5","4","5","5","2","6","4","5","5","6","2","5","3","5","5","5","3","3","4","3","4","4","6","4","6","5","6","6","6","6","6","3","5","3","6","3","4","3","6","755507503227473921","陈","Female","[""好她"",""坏她"",""好我"",""坏我""]","[""强她"",""弱她"",""强我"",""弱我""]","","","","","","","","no","","","","","","","","","SRET","EW_formal","","key","j","16.669066666666463","720","446","朋友","弱智","Negative","ability","","","","","","","","","",""
"632","","f","psychophysics","67","303690","0.0-7.0-3.0-0.53","6","5","5","6","4","4","3","4","4","5","4","2","1","0","0","0","0","1","1","4","4","5","5","4","3","4","4","4","4","4","7","7","6","5","7","5","6","7","5","5","4","5","5","2","6","4","5","5","6","2","5","3","5","5","5","3","3","4","3","4","4","6","4","6","5","6","6","6","6","6","3","5","3","6","3","4","3","6","755507503227473921","陈","Female","[""好她"",""坏她"",""好我"",""坏我""]","[""强她"",""弱她"",""强我"",""弱我""]","","","","","","","","yes","","","","","","","","","SRET","EW_formal","","key","f","16.6676597938148","720","446","朋友","诚信","Positive","morality","","","","","","","","","",""
"577","","f","psychophysics","68","305270","0.0-7.0-3.0-0.54","6","5","5","6","4","4","3","4","4","5","4","2","1","0","0","0","0","1","1","4","4","5","5","4","3","4","4","4","4","4","7","7","6","5","7","5","6","7","5","5","4","5","5","2","6","4","5","5","6","2","5","3","5","5","5","3","3","4","3","4","4","6","4","6","5","6","6","6","6","6","3","5","3","6","3","4","3","6","755507503227473921","陈","Female","[""好她"",""坏她"",""好我"",""坏我""]","[""强她"",""弱她"",""强我"",""弱我""]","","","","","","","","yes","","","","","","","","","SRET","EW_formal","","key","f","16.670223404255204","720","446","朋友","高效","Positive","ability","","","","","","","","","",""
"546","","f","psychophysics","69","306820","0.0-7.0-3.0-0.55","6","5","5","6","4","4","3","4","4","5","4","2","1","0","0","0","0","1","1","4","4","5","5","4","3","4","4","4","4","4","7","7","6","5","7","5","6","7","5","5","4","5","5","2","6","4","5","5","6","2","5","3","5","5","5","3","3","4","3","4","4","6","4","6","5","6","6","6","6","6","3","5","3","6","3","4","3","6","755507503227473921","陈","Female","[""好她"",""坏她"",""好我"",""坏我""]","[""强她"",""弱她"",""强我"",""弱我""]","","","","","","","","yes","","","","","","","","","SRET","EW_formal","","key","f","16.668717391304316","720","446","朋友","博识","Positive","ability","","","","","","","","","",""
"555","","j","psychophysics","70","308379","0.0-7.0-3.0-0.56","6","5","5","6","4","4","3","4","4","5","4","2","1","0","0","0","0","1","1","4","4","5","5","4","3","4","4","4","4","4","7","7","6","5","7","5","6","7","5","5","4","5","5","2","6","4","5","5","6","2","5","3","5","5","5","3","3","4","3","4","4","6","4","6","5","6","6","6","6","6","3","5","3","6","3","4","3","6","755507503227473921","陈","Female","[""好她"",""坏她"",""好我"",""坏我""]","[""强她"",""弱她"",""强我"",""弱我""]","","","","","","","","no","","","","","","","","","SRET","EW_formal","","key","j","16.667586956521795","720","446","朋友","失信","Negative","morality","","","","","","","","","",""
"550","","j","psychophysics","71","309931","0.0-7.0-3.0-0.57","6","5","5","6","4","4","3","4","4","5","4","2","1","0","0","0","0","1","1","4","4","5","5","4","3","4","4","4","4","4","7","7","6","5","7","5","6","7","5","5","4","5","5","2","6","4","5","5","6","2","5","3","5","5","5","3","3","4","3","4","4","6","4","6","5","6","6","6","6","6","3","5","3","6","3","4","3","6","755507503227473921","陈","Female","[""好她"",""坏她"",""好我"",""坏我""]","[""强她"",""弱她"",""强我"",""弱我""]","","","","","","","","no","","","","","","","","","SRET","EW_formal","","key","j","16.66777173913041","720","446","朋友","蛇蝎","Negative","morality","","","","","","","","","",""
"594","","f","psychophysics","72","311531","0.0-7.0-3.0-0.58","6","5","5","6","4","4","3","4","4","5","4","2","1","0","0","0","0","1","1","4","4","5","5","4","3","4","4","4","4","4","7","7","6","5","7","5","6","7","5","5","4","5","5","2","6","4","5","5","6","2","5","3","5","5","5","3","3","4","3","4","4","6","4","6","5","6","6","6","6","6","3","5","3","6","3","4","3","6","755507503227473921","陈","Female","[""好她"",""坏她"",""好我"",""坏我""]","[""强她"",""弱她"",""强我"",""弱我""]","","","","","","","","yes","","","","","","","","","SRET","EW_formal","","key","f","16.66746315789458","720","446","自己","细心","Positive","ability","","","","","","","","","",""
"599","","j","psychophysics","73","313140","0.0-7.0-3.0-0.59","6","5","5","6","4","4","3","4","4","5","4","2","1","0","0","0","0","1","1","4","4","5","5","4","3","4","4","4","4","4","7","7","6","5","7","5","6","7","5","5","4","5","5","2","6","4","5","5","6","2","5","3","5","5","5","3","3","4","3","4","4","6","4","6","5","6","6","6","6","6","3","5","3","6","3","4","3","6","755507503227473921","陈","Female","[""好她"",""坏她"",""好我"",""坏我""]","[""强她"",""弱她"",""强我"",""弱我""]","","","","","","","","no","","","","","","","","","SRET","EW_formal","","key","j","16.669427083333478","720","446","自己","卑鄙","Negative","morality","","","","","","","","","",""
"681","","j","psychophysics","74","314824","0.0-7.0-3.0-0.60","6","5","5","6","4","4","3","4","4","5","4","2","1","0","0","0","0","1","1","4","4","5","5","4","3","4","4","4","4","4","7","7","6","5","7","5","6","7","5","5","4","5","5","2","6","4","5","5","6","2","5","3","5","5","5","3","3","4","3","4","4","6","4","6","5","6","6","6","6","6","3","5","3","6","3","4","3","6","755507503227473921","陈","Female","[""好她"",""坏她"",""好我"",""坏我""]","[""强她"",""弱她"",""强我"",""弱我""]","","","","","","","","no","","","","","","","","","SRET","EW_formal","","key","j","16.667660000000033","720","446","朋友","粗心","Negative","ability","","","","","","","","","",""
"627","","f","psychophysics","75","316454","0.0-7.0-3.0-0.61","6","5","5","6","4","4","3","4","4","5","4","2","1","0","0","0","0","1","1","4","4","5","5","4","3","4","4","4","4","4","7","7","6","5","7","5","6","7","5","5","4","5","5","2","6","4","5","5","6","2","5","3","5","5","5","3","3","4","3","4","4","6","4","6","5","6","6","6","6","6","3","5","3","6","3","4","3","6","755507503227473921","陈","Female","[""好她"",""坏她"",""好我"",""坏我""]","[""强她"",""弱她"",""强我"",""弱我""]","","","","","","","","yes","","","","","","","","","SRET","EW_formal","","key","f","16.669329896907097","720","446","自己","勤恳","Positive","morality","","","","","","","","","",""
"672","","f","psychophysics","76","318131","0.0-7.0-3.0-0.62","6","5","5","6","4","4","3","4","4","5","4","2","1","0","0","0","0","1","1","4","4","5","5","4","3","4","4","4","4","4","7","7","6","5","7","5","6","7","5","5","4","5","5","2","6","4","5","5","6","2","5","3","5","5","5","3","3","4","3","4","4","6","4","6","5","6","6","6","6","6","3","5","3","6","3","4","3","6","755507503227473921","陈","Female","[""好她"",""坏她"",""好我"",""坏我""]","[""强她"",""弱她"",""强我"",""弱我""]","","","","","","","","yes","","","","","","","","","SRET","EW_formal","","key","f","16.66853535353533","720","446","自己","守时","Positive","morality","","","","","","","","","",""
"602","","f","psychophysics","77","319741","0.0-7.0-3.0-0.63","6","5","5","6","4","4","3","4","4","5","4","2","1","0","0","0","0","1","1","4","4","5","5","4","3","4","4","4","4","4","7","7","6","5","7","5","6","7","5","5","4","5","5","2","6","4","5","5","6","2","5","3","5","5","5","3","3","4","3","4","4","6","4","6","5","6","6","6","6","6","3","5","3","6","3","4","3","6","755507503227473921","陈","Female","[""好她"",""坏她"",""好我"",""坏我""]","[""强她"",""弱她"",""强我"",""弱我""]","","","","","","","","yes","","","","","","","","","SRET","EW_formal","","key","f","16.669270833333332","720","446","自己","谦逊","Positive","morality","","","","","","","","","",""
"556","","f","psychophysics","78","321299","0.0-7.0-3.0-0.64","6","5","5","6","4","4","3","4","4","5","4","2","1","0","0","0","0","1","1","4","4","5","5","4","3","4","4","4","4","4","7","7","6","5","7","5","6","7","5","5","4","5","5","2","6","4","5","5","6","2","5","3","5","5","5","3","3","4","3","4","4","6","4","6","5","6","6","6","6","6","3","5","3","6","3","4","3","6","755507503227473921","陈","Female","[""好她"",""坏她"",""好我"",""坏我""]","[""强她"",""弱她"",""强我"",""弱我""]","","","","","","","","yes","","","","","","","","","SRET","EW_formal","","key","f","16.669130434782584","720","446","朋友","高明","Positive","ability","","","","","","","","","",""
"551","","j","psychophysics","79","322854","0.0-7.0-3.0-0.65","6","5","5","6","4","4","3","4","4","5","4","2","1","0","0","0","0","1","1","4","4","5","5","4","3","4","4","4","4","4","7","7","6","5","7","5","6","7","5","5","4","5","5","2","6","4","5","5","6","2","5","3","5","5","5","3","3","4","3","4","4","6","4","6","5","6","6","6","6","6","3","5","3","6","3","4","3","6","755507503227473921","陈","Female","[""好她"",""坏她"",""好我"",""坏我""]","[""强她"",""弱她"",""强我"",""弱我""]","","","","","","","","no","","","","","","","","","SRET","EW_formal","","key","j","16.667881720430238","720","446","朋友","无私","Positive","morality","","","","","","","","","",""
"1184","","f","psychophysics","80","325041","0.0-7.0-3.0-0.66","6","5","5","6","4","4","3","4","4","5","4","2","1","0","0","0","0","1","1","4","4","5","5","4","3","4","4","4","4","4","7","7","6","5","7","5","6","7","5","5","4","5","5","2","6","4","5","5","6","2","5","3","5","5","5","3","3","4","3","4","4","6","4","6","5","6","6","6","6","6","3","5","3","6","3","4","3","6","755507503227473921","陈","Female","[""好她"",""坏她"",""好我"",""坏我""]","[""强她"",""弱她"",""强我"",""弱我""]","","","","","","","","yes","","","","","","","","","SRET","EW_formal","","key","f","16.66955384615352","720","446","朋友","全才","Positive","ability","","","","","","","","","",""
"1048","","j","psychophysics","81","327092","0.0-7.0-3.0-0.67","6","5","5","6","4","4","3","4","4","5","4","2","1","0","0","0","0","1","1","4","4","5","5","4","3","4","4","4","4","4","7","7","6","5","7","5","6","7","5","5","4","5","5","2","6","4","5","5","6","2","5","3","5","5","5","3","3","4","3","4","4","6","4","6","5","6","6","6","6","6","3","5","3","6","3","4","3","6","755507503227473921","陈","Female","[""好她"",""坏她"",""好我"",""坏我""]","[""强她"",""弱她"",""强我"",""弱我""]","","","","","","","","no","","","","","","","","","SRET","EW_formal","","key","j","16.669426229508062","720","446","朋友","逞强","Negative","ability","","","","","","","","","",""
"804","","j","psychophysics","82","328899","0.0-7.0-3.0-0.68","6","5","5","6","4","4","3","4","4","5","4","2","1","0","0","0","0","1","1","4","4","5","5","4","3","4","4","4","4","4","7","7","6","5","7","5","6","7","5","5","4","5","5","2","6","4","5","5","6","2","5","3","5","5","5","3","3","4","3","4","4","6","4","6","5","6","6","6","6","6","3","5","3","6","3","4","3","6","755507503227473921","陈","Female","[""好她"",""坏她"",""好我"",""坏我""]","[""强她"",""弱她"",""强我"",""弱我""]","","","","","","","","no","","","","","","","","","SRET","EW_formal","","key","j","16.66917757009304","720","446","自己","怠惰","Negative","ability","","","","","","","","","",""
"937","","f","psychophysics","83","330843","0.0-7.0-3.0-0.69","6","5","5","6","4","4","3","4","4","5","4","2","1","0","0","0","0","1","1","4","4","5","5","4","3","4","4","4","4","4","7","7","6","5","7","5","6","7","5","5","4","5","5","2","6","4","5","5","6","2","5","3","5","5","5","3","3","4","3","4","4","6","4","6","5","6","6","6","6","6","3","5","3","6","3","4","3","6","755507503227473921","陈","Female","[""好她"",""坏她"",""好我"",""坏我""]","[""强她"",""弱她"",""强我"",""弱我""]","","","","","","","","yes","","","","","","","","","SRET","EW_formal","","key","f","16.668249999999937","720","446","朋友","厚道","Positive","morality","","","","","","","","","",""
"622","","j","psychophysics","84","332468","0.0-7.0-3.0-0.70","6","5","5","6","4","4","3","4","4","5","4","2","1","0","0","0","0","1","1","4","4","5","5","4","3","4","4","4","4","4","7","7","6","5","7","5","6","7","5","5","4","5","5","2","6","4","5","5","6","2","5","3","5","5","5","3","3","4","3","4","4","6","4","6","5","6","6","6","6","6","3","5","3","6","3","4","3","6","755507503227473921","陈","Female","[""好她"",""坏她"",""好我"",""坏我""]","[""强她"",""弱她"",""强我"",""弱我""]","","","","","","","","no","","","","","","","","","SRET","EW_formal","","key","j","16.669291666666442","720","446","自己","不孝","Negative","morality","","","","","","","","","",""
"906","","j","psychophysics","85","334379","0.0-7.0-3.0-0.71","6","5","5","6","4","4","3","4","4","5","4","2","1","0","0","0","0","1","1","4","4","5","5","4","3","4","4","4","4","4","7","7","6","5","7","5","6","7","5","5","4","5","5","2","6","4","5","5","6","2","5","3","5","5","5","3","3","4","3","4","4","6","4","6","5","6","6","6","6","6","3","5","3","6","3","4","3","6","755507503227473921","陈","Female","[""好她"",""坏她"",""好我"",""坏我""]","[""强她"",""弱她"",""强我"",""弱我""]","","","","","","","","no","","","","","","","","","SRET","EW_formal","","key","j","16.66898245614057","720","446","朋友","歹毒","Negative","morality","","","","","","","","","",""
"611","","f","psychophysics","86","335992","0.0-7.0-3.0-0.72","6","5","5","6","4","4","3","4","4","5","4","2","1","0","0","0","0","1","1","4","4","5","5","4","3","4","4","4","4","4","7","7","6","5","7","5","6","7","5","5","4","5","5","2","6","4","5","5","6","2","5","3","5","5","5","3","3","4","3","4","4","6","4","6","5","6","6","6","6","6","3","5","3","6","3","4","3","6","755507503227473921","陈","Female","[""好她"",""坏她"",""好我"",""坏我""]","[""强她"",""弱她"",""强我"",""弱我""]","","","","","","","","yes","","","","","","","","","SRET","EW_formal","","key","f","16.66922916666711","720","446","朋友","骁勇","Positive","ability","","","","","","","","","",""
"643","","f","psychophysics","87","337639","0.0-7.0-3.0-0.73","6","5","5","6","4","4","3","4","4","5","4","2","1","0","0","0","0","1","1","4","4","5","5","4","3","4","4","4","4","4","7","7","6","5","7","5","6","7","5","5","4","5","5","2","6","4","5","5","6","2","5","3","5","5","5","3","3","4","3","4","4","6","4","6","5","6","6","6","6","6","3","5","3","6","3","4","3","6","755507503227473921","陈","Female","[""好她"",""坏她"",""好我"",""坏我""]","[""强她"",""弱她"",""强我"",""弱我""]","","","","","","","","yes","","","","","","","","","SRET","EW_formal","","key","f","16.667204081633233","720","446","朋友","坦荡","Positive","morality","","","","","","","","","",""
"624","","f","psychophysics","88","339267","0.0-7.0-3.0-0.74","6","5","5","6","4","4","3","4","4","5","4","2","1","0","0","0","0","1","1","4","4","5","5","4","3","4","4","4","4","4","7","7","6","5","7","5","6","7","5","5","4","5","5","2","6","4","5","5","6","2","5","3","5","5","5","3","3","4","3","4","4","6","4","6","5","6","6","6","6","6","3","5","3","6","3","4","3","6","755507503227473921","陈","Female","[""好她"",""坏她"",""好我"",""坏我""]","[""强她"",""弱她"",""强我"",""弱我""]","","","","","","","","yes","","","","","","","","","SRET","EW_formal","","key","f","16.669218750000557","720","446","朋友","孝顺","Positive","morality","","","","","","","","","",""
"1043","","j","psychophysics","89","341315","0.0-7.0-3.0-0.75","6","5","5","6","4","4","3","4","4","5","4","2","1","0","0","0","0","1","1","4","4","5","5","4","3","4","4","4","4","4","7","7","6","5","7","5","6","7","5","5","4","5","5","2","6","4","5","5","6","2","5","3","5","5","5","3","3","4","3","4","4","6","4","6","5","6","6","6","6","6","3","5","3","6","3","4","3","6","755507503227473921","陈","Female","[""好她"",""坏她"",""好我"",""坏我""]","[""强她"",""弱她"",""强我"",""弱我""]","","","","","","","","no","","","","","","","","","SRET","EW_formal","","key","j","16.668770491803013","720","446","朋友","逞能","Negative","ability","","","","","","","","","",""
"629","","j","psychophysics","90","342946","0.0-7.0-3.0-0.76","6","5","5","6","4","4","3","4","4","5","4","2","1","0","0","0","0","1","1","4","4","5","5","4","3","4","4","4","4","4","7","7","6","5","7","5","6","7","5","5","4","5","5","2","6","4","5","5","6","2","5","3","5","5","5","3","3","4","3","4","4","6","4","6","5","6","6","6","6","6","3","5","3","6","3","4","3","6","755507503227473921","陈","Female","[""好她"",""坏她"",""好我"",""坏我""]","[""强她"",""弱她"",""强我"",""弱我""]","","","","","","","","no","","","","","","","","","SRET","EW_formal","","key","j","16.668628865979567","720","446","朋友","罪恶","Negative","morality","","","","","","","","","",""
"640","","f","psychophysics","91","344588","0.0-7.0-3.0-0.77","6","5","5","6","4","4","3","4","4","5","4","2","1","0","0","0","0","1","1","4","4","5","5","4","3","4","4","4","4","4","7","7","6","5","7","5","6","7","5","5","4","5","5","2","6","4","5","5","6","2","5","3","5","5","5","3","3","4","3","4","4","6","4","6","5","6","6","6","6","6","3","5","3","6","3","4","3","6","755507503227473921","陈","Female","[""好她"",""坏她"",""好我"",""坏我""]","[""强她"",""弱她"",""强我"",""弱我""]","","","","","","","","yes","","","","","","","","","SRET","EW_formal","","key","f","16.66967346938802","720","446","朋友","勤奋","Positive","ability","","","","","","","","","",""
"630","","f","psychophysics","92","346224","0.0-7.0-3.0-0.78","6","5","5","6","4","4","3","4","4","5","4","2","1","0","0","0","0","1","1","4","4","5","5","4","3","4","4","4","4","4","7","7","6","5","7","5","6","7","5","5","4","5","5","2","6","4","5","5","6","2","5","3","5","5","5","3","3","4","3","4","4","6","4","6","5","6","6","6","6","6","3","5","3","6","3","4","3","6","755507503227473921","陈","Female","[""好她"",""坏她"",""好我"",""坏我""]","[""强她"",""弱她"",""强我"",""弱我""]","","","","","","","","yes","","","","","","","","","SRET","EW_formal","","key","f","16.66613402061846","720","446","朋友","仗义","Positive","morality","","","","","","","","","",""
"728","","f","psychophysics","93","347956","0.0-7.0-3.0-0.79","6","5","5","6","4","4","3","4","4","5","4","2","1","0","0","0","0","1","1","4","4","5","5","4","3","4","4","4","4","4","7","7","6","5","7","5","6","7","5","5","4","5","5","2","6","4","5","5","6","2","5","3","5","5","5","3","3","4","3","4","4","6","4","6","5","6","6","6","6","6","3","5","3","6","3","4","3","6","755507503227473921","陈","Female","[""好她"",""坏她"",""好我"",""坏我""]","[""强她"",""弱她"",""强我"",""弱我""]","","","","","","","","yes","","","","","","","","","SRET","EW_formal","","key","f","16.669563106796364","720","446","朋友","思辨","Positive","ability","","","","","","","","","",""
"548","","f","psychophysics","94","349508","0.0-7.0-3.0-0.80","6","5","5","6","4","4","3","4","4","5","4","2","1","0","0","0","0","1","1","4","4","5","5","4","3","4","4","4","4","4","7","7","6","5","7","5","6","7","5","5","4","5","5","2","6","4","5","5","6","2","5","3","5","5","5","3","3","4","3","4","4","6","4","6","5","6","6","6","6","6","3","5","3","6","3","4","3","6","755507503227473921","陈","Female","[""好她"",""坏她"",""好我"",""坏我""]","[""强她"",""弱她"",""强我"",""弱我""]","","","","","","","","yes","","","","","","","","","SRET","EW_formal","","key","f","16.66939130434754","720","446","自己","独断","Negative","ability","","","","","","","","","",""
"699","","j","psychophysics","95","351210","0.0-7.0-3.0-0.81","6","5","5","6","4","4","3","4","4","5","4","2","1","0","0","0","0","1","1","4","4","5","5","4","3","4","4","4","4","4","7","7","6","5","7","5","6","7","5","5","4","5","5","2","6","4","5","5","6","2","5","3","5","5","5","3","3","4","3","4","4","6","4","6","5","6","6","6","6","6","3","5","3","6","3","4","3","6","755507503227473921","陈","Female","[""好她"",""坏她"",""好我"",""坏我""]","[""强她"",""弱她"",""强我"",""弱我""]","","","","","","","","no","","","","","","","","","SRET","EW_formal","","key","j","16.669396039603928","720","446","自己","昏庸","Negative","ability","","","","","","","","","",""
"1001","","j","psychophysics","96","353219","0.0-7.0-3.0-0.82","6","5","5","6","4","4","3","4","4","5","4","2","1","0","0","0","0","1","1","4","4","5","5","4","3","4","4","4","4","4","7","7","6","5","7","5","6","7","5","5","4","5","5","2","6","4","5","5","6","2","5","3","5","5","5","3","3","4","3","4","4","6","4","6","5","6","6","6","6","6","3","5","3","6","3","4","3","6","755507503227473921","陈","Female","[""好她"",""坏她"",""好我"",""坏我""]","[""强她"",""弱她"",""强我"",""弱我""]","","","","","","","","no","","","","","","","","","SRET","EW_formal","","key","j","16.669067226890807","720","446","自己","无赖","Negative","morality","","","","","","","","","",""
"701","","j","psychophysics","97","354924","0.0-7.0-3.0-0.83","6","5","5","6","4","4","3","4","4","5","4","2","1","0","0","0","0","1","1","4","4","5","5","4","3","4","4","4","4","4","7","7","6","5","7","5","6","7","5","5","4","5","5","2","6","4","5","5","6","2","5","3","5","5","5","3","3","4","3","4","4","6","4","6","5","6","6","6","6","6","3","5","3","6","3","4","3","6","755507503227473921","陈","Female","[""好她"",""坏她"",""好我"",""坏我""]","[""强她"",""弱她"",""强我"",""弱我""]","","","","","","","","no","","","","","","","","","SRET","EW_formal","","key","j","16.669284313725417","720","446","自己","自私","Negative","morality","","","","","","","","","",""
"616","","f","psychophysics","98","356543","0.0-7.0-3.0-0.84","6","5","5","6","4","4","3","4","4","5","4","2","1","0","0","0","0","1","1","4","4","5","5","4","3","4","4","4","4","4","7","7","6","5","7","5","6","7","5","5","4","5","5","2","6","4","5","5","6","2","5","3","5","5","5","3","3","4","3","4","4","6","4","6","5","6","6","6","6","6","3","5","3","6","3","4","3","6","755507503227473921","陈","Female","[""好她"",""坏她"",""好我"",""坏我""]","[""强她"",""弱她"",""强我"",""弱我""]","","","","","","","","yes","","","","","","","","","SRET","EW_formal","","key","f","16.6676354166666","720","446","自己","主见","Positive","ability","","","","","","","","","",""
"1130","","f","psychophysics","99","358676","0.0-7.0-3.0-0.85","6","5","5","6","4","4","3","4","4","5","4","2","1","0","0","0","0","1","1","4","4","5","5","4","3","4","4","4","4","4","7","7","6","5","7","5","6","7","5","5","4","5","5","2","6","4","5","5","6","2","5","3","5","5","5","3","3","4","3","4","4","6","4","6","5","6","6","6","6","6","3","5","3","6","3","4","3","6","755507503227473921","陈","Female","[""好她"",""坏她"",""好我"",""坏我""]","[""强她"",""弱她"",""强我"",""弱我""]","","","","","","","","yes","","","","","","","","","SRET","EW_formal","","key","f","16.668795275590366","720","446","自己","缓慢","Negative","ability","","","","","","","","","",""
"661","","f","psychophysics","100","360339","0.0-7.0-3.0-0.86","6","5","5","6","4","4","3","4","4","5","4","2","1","0","0","0","0","1","1","4","4","5","5","4","3","4","4","4","4","4","7","7","6","5","7","5","6","7","5","5","4","5","5","2","6","4","5","5","6","2","5","3","5","5","5","3","3","4","3","4","4","6","4","6","5","6","6","6","6","6","3","5","3","6","3","4","3","6","755507503227473921","陈","Female","[""好她"",""坏她"",""好我"",""坏我""]","[""强她"",""弱她"",""强我"",""弱我""]","","","","","","","","yes","","","","","","","","","SRET","EW_formal","","key","f","16.669323232323002","720","446","朋友","素养","Positive","morality","","","","","","","","","",""
"706","","j","psychophysics","101","362050","0.0-7.0-3.0-0.87","6","5","5","6","4","4","3","4","4","5","4","2","1","0","0","0","0","1","1","4","4","5","5","4","3","4","4","4","4","4","7","7","6","5","7","5","6","7","5","5","4","5","5","2","6","4","5","5","6","2","5","3","5","5","5","3","3","4","3","4","4","6","4","6","5","6","6","6","6","6","3","5","3","6","3","4","3","6","755507503227473921","陈","Female","[""好她"",""坏她"",""好我"",""坏我""]","[""强她"",""弱她"",""强我"",""弱我""]","","","","","","","","no","","","","","","","","","SRET","EW_formal","","key","j","16.667821782178333","720","446","朋友","低俗","Negative","morality","","","","","","","","","",""
"6357","
    <p><div style='color:white;font-size:35px; line-height:20px;'>计算任务</div></p><br>
    <p><div style='color:red;font-size:25px; line-height:20px;'>接下来，您将看到一些四则运算题，<b>请从键盘选择 0-9 进行反应。</b></div></p>
    <p><div class='footer' style='color:white;font-size:25px; line-height:20px;'>如果对本实验还有不清楚之处，请立即向实验员咨询。</p><p style='color:white;font-size:25px; line-height:20px;'>如果您明白了规则：</p><p style='color:white;font-size:22px; line-height:20px;'>请按 继续 进入练习</p>
    </div>
    ","0","html-button-response","102","368410","0.0-7.0-4.0","6","5","5","6","4","4","3","4","4","5","4","2","1","0","0","0","0","1","1","4","4","5","5","4","3","4","4","4","4","4","7","7","6","5","7","5","6","7","5","5","4","5","5","2","6","4","5","5","6","2","5","3","5","5","5","3","3","4","3","4","4","6","4","6","5","6","6","6","6","6","3","5","3","6","3","4","3","6","755507503227473921","陈","Female","[""好她"",""坏她"",""好我"",""坏我""]","[""强她"",""弱她"",""强我"",""弱我""]","","","","","","","","","","","","","","","","","SRET_math","math_instructions","Sun Sep 17 2023 15:44:55 GMT+0800 (中国标准时间)","","","","","","","","","","","","","","","","","","",""
"2412","","7","psychophysics","103","370827","0.0-7.0-5.0-0.0","6","5","5","6","4","4","3","4","4","5","4","2","1","0","0","0","0","1","1","4","4","5","5","4","3","4","4","4","4","4","7","7","6","5","7","5","6","7","5","5","4","5","5","2","6","4","5","5","6","2","5","3","5","5","5","3","3","4","3","4","4","6","4","6","5","6","6","6","6","6","3","5","3","6","3","4","3","6","755507503227473921","陈","Female","[""好她"",""坏她"",""好我"",""坏我""]","[""强她"",""弱她"",""强我"",""弱我""]","","","","","","","","7","","","","","","","","","SRET","SRET_math_calculate","","key","7","16.66820000000017","720","446","","","","","7*1=  ?","7","1","","","","","","",""
"2028","","3","psychophysics","104","372860","0.0-7.0-5.0-0.1","6","5","5","6","4","4","3","4","4","5","4","2","1","0","0","0","0","1","1","4","4","5","5","4","3","4","4","4","4","4","7","7","6","5","7","5","6","7","5","5","4","5","5","2","6","4","5","5","6","2","5","3","5","5","5","3","3","4","3","4","4","6","4","6","5","6","6","6","6","6","3","5","3","6","3","4","3","6","755507503227473921","陈","Female","[""好她"",""坏她"",""好我"",""坏我""]","[""强她"",""弱她"",""强我"",""弱我""]","","","","","","","","3","","","","","","","","","SRET","SRET_math_calculate","","key","3","16.66887603305792","720","446","","","","","3*1= ?","3","1","","","","","","",""
"2218","","0","psychophysics","105","375082","0.0-7.0-5.0-0.2","6","5","5","6","4","4","3","4","4","5","4","2","1","0","0","0","0","1","1","4","4","5","5","4","3","4","4","4","4","4","7","7","6","5","7","5","6","7","5","5","4","5","5","2","6","4","5","5","6","2","5","3","5","5","5","3","3","4","3","4","4","6","4","6","5","6","6","6","6","6","3","5","3","6","3","4","3","6","755507503227473921","陈","Female","[""好她"",""坏她"",""好我"",""坏我""]","[""强她"",""弱她"",""强我"",""弱我""]","","","","","","","","0","","","","","","","","","SRET","SRET_math_calculate","","key","0","16.668242424242305","720","446","","","","","6*0= ?","0","1","","","","","","",""
"2056","","9","psychophysics","106","377146","0.0-7.0-5.0-0.3","6","5","5","6","4","4","3","4","4","5","4","2","1","0","0","0","0","1","1","4","4","5","5","4","3","4","4","4","4","4","7","7","6","5","7","5","6","7","5","5","4","5","5","2","6","4","5","5","6","2","5","3","5","5","5","3","3","4","3","4","4","6","4","6","5","6","6","6","6","6","3","5","3","6","3","4","3","6","755507503227473921","陈","Female","[""好她"",""坏她"",""好我"",""坏我""]","[""强她"",""弱她"",""强我"",""弱我""]","","","","","","","","9","","","","","","","","","SRET","SRET_math_calculate","","key","9","16.668479674796732","720","446","","","","","1*9= ?","9","1","","","","","","",""
"2279","","2","psychophysics","107","379429","0.0-7.0-5.0-0.4","6","5","5","6","4","4","3","4","4","5","4","2","1","0","0","0","0","1","1","4","4","5","5","4","3","4","4","4","4","4","7","7","6","5","7","5","6","7","5","5","4","5","5","2","6","4","5","5","6","2","5","3","5","5","5","3","3","4","3","4","4","6","4","6","5","6","6","6","6","6","3","5","3","6","3","4","3","6","755507503227473921","陈","Female","[""好她"",""坏她"",""好我"",""坏我""]","[""强她"",""弱她"",""强我"",""弱我""]","","","","","","","","2","","","","","","","","","SRET","SRET_math_calculate","","key","2","16.668477941176473","720","446","","","","","18/9= ?","2","1","","","","","","",""
"1890","","2","psychophysics","108","381323","0.0-7.0-5.0-0.5","6","5","5","6","4","4","3","4","4","5","4","2","1","0","0","0","0","1","1","4","4","5","5","4","3","4","4","4","4","4","7","7","6","5","7","5","6","7","5","5","4","5","5","2","6","4","5","5","6","2","5","3","5","5","5","3","3","4","3","4","4","6","4","6","5","6","6","6","6","6","3","5","3","6","3","4","3","6","755507503227473921","陈","Female","[""好她"",""坏她"",""好我"",""坏我""]","[""强她"",""弱她"",""强我"",""弱我""]","","","","","","","","2","","","","","","","","","SRET","SRET_math_calculate","","key","2","16.667725663716634","720","446","","","","","8-6= ?","2","1","","","","","","",""
"3688","","9","psychophysics","109","385018","0.0-7.0-5.0-0.6","6","5","5","6","4","4","3","4","4","5","4","2","1","0","0","0","0","1","1","4","4","5","5","4","3","4","4","4","4","4","7","7","6","5","7","5","6","7","5","5","4","5","5","2","6","4","5","5","6","2","5","3","5","5","5","3","3","4","3","4","4","6","4","6","5","6","6","6","6","6","3","5","3","6","3","4","3","6","755507503227473921","陈","Female","[""好她"",""坏她"",""好我"",""坏我""]","[""强她"",""弱她"",""强我"",""弱我""]","","","","","","","","9","","","","","","","","","SRET","SRET_math_calculate","","key","9","16.66846363636353","720","446","","","","","43-34= ?","9","1","","","","","","",""
"2297","","7","psychophysics","110","387330","0.0-7.0-5.0-0.7","6","5","5","6","4","4","3","4","4","5","4","2","1","0","0","0","0","1","1","4","4","5","5","4","3","4","4","4","4","4","7","7","6","5","7","5","6","7","5","5","4","5","5","2","6","4","5","5","6","2","5","3","5","5","5","3","3","4","3","4","4","6","4","6","5","6","6","6","6","6","3","5","3","6","3","4","3","6","755507503227473921","陈","Female","[""好她"",""坏她"",""好我"",""坏我""]","[""强她"",""弱她"",""强我"",""弱我""]","","","","","","","","7","","","","","","","","","SRET","SRET_math_calculate","","key","7","16.667398550724812","720","446","","","","","13-6= ?","7","1","","","","","","",""
"2496","","6","psychophysics","111","389830","0.0-7.0-5.0-0.8","6","5","5","6","4","4","3","4","4","5","4","2","1","0","0","0","0","1","1","4","4","5","5","4","3","4","4","4","4","4","7","7","6","5","7","5","6","7","5","5","4","5","5","2","6","4","5","5","6","2","5","3","5","5","5","3","3","4","3","4","4","6","4","6","5","6","6","6","6","6","3","5","3","6","3","4","3","6","755507503227473921","陈","Female","[""好她"",""坏她"",""好我"",""坏我""]","[""强她"",""弱她"",""强我"",""弱我""]","","","","","","","","6","","","","","","","","","SRET","SRET_math_calculate","","key","6","16.66814093959702","720","446","","","","","3+3= ?","6","1","","","","","","",""
"2074","","8","psychophysics","112","391908","0.0-7.0-5.0-0.9","6","5","5","6","4","4","3","4","4","5","4","2","1","0","0","0","0","1","1","4","4","5","5","4","3","4","4","4","4","4","7","7","6","5","7","5","6","7","5","5","4","5","5","2","6","4","5","5","6","2","5","3","5","5","5","3","3","4","3","4","4","6","4","6","5","6","6","6","6","6","3","5","3","6","3","4","3","6","755507503227473921","陈","Female","[""好她"",""坏她"",""好我"",""坏我""]","[""强她"",""弱她"",""强我"",""弱我""]","","","","","","","","8","","","","","","","","","SRET","SRET_math_calculate","","key","8","16.668943548387276","720","446","","","","","8*1= ?","8","1","","","","","","",""
"2329","","5","psychophysics","113","394244","0.0-7.0-5.0-0.10","6","5","5","6","4","4","3","4","4","5","4","2","1","0","0","0","0","1","1","4","4","5","5","4","3","4","4","4","4","4","7","7","6","5","7","5","6","7","5","5","4","5","5","2","6","4","5","5","6","2","5","3","5","5","5","3","3","4","3","4","4","6","4","6","5","6","6","6","6","6","3","5","3","6","3","4","3","6","755507503227473921","陈","Female","[""好她"",""坏她"",""好我"",""坏我""]","[""强她"",""弱她"",""强我"",""弱我""]","","","","","","","","5","","","","","","","","","SRET","SRET_math_calculate","","key","5","16.66876978417289","720","446","","","","","17-12= ? ","5","1","","","","","","",""
"1962","","9","psychophysics","114","396211","0.0-7.0-5.0-0.11","6","5","5","6","4","4","3","4","4","5","4","2","1","0","0","0","0","1","1","4","4","5","5","4","3","4","4","4","4","4","7","7","6","5","7","5","6","7","5","5","4","5","5","2","6","4","5","5","6","2","5","3","5","5","5","3","3","4","3","4","4","6","4","6","5","6","6","6","6","6","3","5","3","6","3","4","3","6","755507503227473921","陈","Female","[""好她"",""坏她"",""好我"",""坏我""]","[""强她"",""弱她"",""强我"",""弱我""]","","","","","","","","9","","","","","","","","","SRET","SRET_math_calculate","","key","9","16.66888888888847","720","446","","","","","1+8= ?","9","1","","","","","","",""
"2266","","7","psychophysics","115","398482","0.0-7.0-5.0-0.12","6","5","5","6","4","4","3","4","4","5","4","2","1","0","0","0","0","1","1","4","4","5","5","4","3","4","4","4","4","4","7","7","6","5","7","5","6","7","5","5","4","5","5","2","6","4","5","5","6","2","5","3","5","5","5","3","3","4","3","4","4","6","4","6","5","6","6","6","6","6","3","5","3","6","3","4","3","6","755507503227473921","陈","Female","[""好她"",""坏她"",""好我"",""坏我""]","[""强她"",""弱她"",""强我"",""弱我""]","","","","","","","","7","","","","","","","","","SRET","SRET_math_calculate","","key","7","16.66907407407416","720","446","","","","","21/3= ? ","7","1","","","","","","",""
"1929","","2","psychophysics","116","400414","0.0-7.0-5.0-0.13","6","5","5","6","4","4","3","4","4","5","4","2","1","0","0","0","0","1","1","4","4","5","5","4","3","4","4","4","4","4","7","7","6","5","7","5","6","7","5","5","4","5","5","2","6","4","5","5","6","2","5","3","5","5","5","3","3","4","3","4","4","6","4","6","5","6","6","6","6","6","3","5","3","6","3","4","3","6","755507503227473921","陈","Female","[""好她"",""坏她"",""好我"",""坏我""]","[""强她"",""弱她"",""强我"",""弱我""]","","","","","","","","2","","","","","","","","","SRET","SRET_math_calculate","","key","2","16.668217391304104","720","446","","","","","9-7= ?","2","1","","","","","","",""
"2831","","8","psychophysics","117","403251","0.0-7.0-5.0-0.14","6","5","5","6","4","4","3","4","4","5","4","2","1","0","0","0","0","1","1","4","4","5","5","4","3","4","4","4","4","4","7","7","6","5","7","5","6","7","5","5","4","5","5","2","6","4","5","5","6","2","5","3","5","5","5","3","3","4","3","4","4","6","4","6","5","6","6","6","6","6","3","5","3","6","3","4","3","6","755507503227473921","陈","Female","[""好她"",""坏她"",""好我"",""坏我""]","[""强她"",""弱她"",""强我"",""弱我""]","","","","","","","","8","","","","","","","","","SRET","SRET_math_calculate","","key","8","16.668497041420263","720","446","","","","","56/7= ?","8","1","","","","","","",""
"1907","","9","psychophysics","118","405163","0.0-7.0-5.0-0.15","6","5","5","6","4","4","3","4","4","5","4","2","1","0","0","0","0","1","1","4","4","5","5","4","3","4","4","4","4","4","7","7","6","5","7","5","6","7","5","5","4","5","5","2","6","4","5","5","6","2","5","3","5","5","5","3","3","4","3","4","4","6","4","6","5","6","6","6","6","6","3","5","3","6","3","4","3","6","755507503227473921","陈","Female","[""好她"",""坏她"",""好我"",""坏我""]","[""强她"",""弱她"",""强我"",""弱我""]","","","","","","","","9","","","","","","","","","SRET","SRET_math_calculate","","key","9","16.668157894736698","720","446","","","","","5+4= ?","9","1","","","","","","",""
"1787","","2","psychophysics","119","406955","0.0-7.0-5.0-0.16","6","5","5","6","4","4","3","4","4","5","4","2","1","0","0","0","0","1","1","4","4","5","5","4","3","4","4","4","4","4","7","7","6","5","7","5","6","7","5","5","4","5","5","2","6","4","5","5","6","2","5","3","5","5","5","3","3","4","3","4","4","6","4","6","5","6","6","6","6","6","3","5","3","6","3","4","3","6","755507503227473921","陈","Female","[""好她"",""坏她"",""好我"",""坏我""]","[""强她"",""弱她"",""强我"",""弱我""]","","","","","","","","2","","","","","","","","","SRET","SRET_math_calculate","","key","2","16.66909433962263","720","446","","","","","1+1= ?","2","1","","","","","","",""
"1991","","1","psychophysics","120","408955","0.0-7.0-5.0-0.17","6","5","5","6","4","4","3","4","4","5","4","2","1","0","0","0","0","1","1","4","4","5","5","4","3","4","4","4","4","4","7","7","6","5","7","5","6","7","5","5","4","5","5","2","6","4","5","5","6","2","5","3","5","5","5","3","3","4","3","4","4","6","4","6","5","6","6","6","6","6","3","5","3","6","3","4","3","6","755507503227473921","陈","Female","[""好她"",""坏她"",""好我"",""坏我""]","[""强她"",""弱她"",""强我"",""弱我""]","","","","","","","","1","","","","","","","","","SRET","SRET_math_calculate","","key","1","16.66876470588222","720","446","","","","","10-9= ?","1","1","","","","","","",""
"2226","","8","psychophysics","121","411190","0.0-7.0-5.0-0.18","6","5","5","6","4","4","3","4","4","5","4","2","1","0","0","0","0","1","1","4","4","5","5","4","3","4","4","4","4","4","7","7","6","5","7","5","6","7","5","5","4","5","5","2","6","4","5","5","6","2","5","3","5","5","5","3","3","4","3","4","4","6","4","6","5","6","6","6","6","6","3","5","3","6","3","4","3","6","755507503227473921","陈","Female","[""好她"",""坏她"",""好我"",""坏我""]","[""强她"",""弱她"",""强我"",""弱我""]","","","","","","","","8","","","","","","","","","SRET","SRET_math_calculate","","key","8","16.66905263157892","720","446","","","","","2*4= ?","8","1","","","","","","",""
"1906","","8","psychophysics","122","413109","0.0-7.0-5.0-0.19","6","5","5","6","4","4","3","4","4","5","4","2","1","0","0","0","0","1","1","4","4","5","5","4","3","4","4","4","4","4","7","7","6","5","7","5","6","7","5","5","4","5","5","2","6","4","5","5","6","2","5","3","5","5","5","3","3","4","3","4","4","6","4","6","5","6","6","6","6","6","3","5","3","6","3","4","3","6","755507503227473921","陈","Female","[""好她"",""坏她"",""好我"",""坏我""]","[""强她"",""弱她"",""强我"",""弱我""]","","","","","","","","8","","","","","","","","","SRET","SRET_math_calculate","","key","8","16.66781739130434","720","446","","","","","9-1= ?","8","1","","","","","","",""
"2134","","4","psychophysics","123","415251","0.0-7.0-5.0-0.20","6","5","5","6","4","4","3","4","4","5","4","2","1","0","0","0","0","1","1","4","4","5","5","4","3","4","4","4","4","4","7","7","6","5","7","5","6","7","5","5","4","5","5","2","6","4","5","5","6","2","5","3","5","5","5","3","3","4","3","4","4","6","4","6","5","6","6","6","6","6","3","5","3","6","3","4","3","6","755507503227473921","陈","Female","[""好她"",""坏她"",""好我"",""坏我""]","[""强她"",""弱她"",""强我"",""弱我""]","","","","","","","","4","","","","","","","","","SRET","SRET_math_calculate","","key","4","16.66866929133883","720","446","","","","","2+2= ?","4","1","","","","","","",""
"1974","","7","psychophysics","124","417229","0.0-7.0-5.0-0.21","6","5","5","6","4","4","3","4","4","5","4","2","1","0","0","0","0","1","1","4","4","5","5","4","3","4","4","4","4","4","7","7","6","5","7","5","6","7","5","5","4","5","5","2","6","4","5","5","6","2","5","3","5","5","5","3","3","4","3","4","4","6","4","6","5","6","6","6","6","6","3","5","3","6","3","4","3","6","755507503227473921","陈","Female","[""好她"",""坏她"",""好我"",""坏我""]","[""强她"",""弱她"",""强我"",""弱我""]","","","","","","","","7","","","","","","","","","SRET","SRET_math_calculate","","key","7","16.66918644067778","720","446","","","","","4+3= ?","7","1","","","","","","",""
"2259","","0","psychophysics","125","419493","0.0-7.0-5.0-0.22","6","5","5","6","4","4","3","4","4","5","4","2","1","0","0","0","0","1","1","4","4","5","5","4","3","4","4","4","4","4","7","7","6","5","7","5","6","7","5","5","4","5","5","2","6","4","5","5","6","2","5","3","5","5","5","3","3","4","3","4","4","6","4","6","5","6","6","6","6","6","3","5","3","6","3","4","3","6","755507503227473921","陈","Female","[""好她"",""坏她"",""好我"",""坏我""]","[""强她"",""弱她"",""强我"",""弱我""]","","","","","","","","0","","","","","","","","","SRET","SRET_math_calculate","","key","0","16.668266666666344","720","446","","","","","9-9= ?","0","1","","","","","","",""
"1948","","0","psychophysics","126","421448","0.0-7.0-5.0-0.23","6","5","5","6","4","4","3","4","4","5","4","2","1","0","0","0","0","1","1","4","4","5","5","4","3","4","4","4","4","4","7","7","6","5","7","5","6","7","5","5","4","5","5","2","6","4","5","5","6","2","5","3","5","5","5","3","3","4","3","4","4","6","4","6","5","6","6","6","6","6","3","5","3","6","3","4","3","6","755507503227473921","陈","Female","[""好她"",""坏她"",""好我"",""坏我""]","[""强她"",""弱她"",""强我"",""弱我""]","","","","","","","","0","","","","","","","","","SRET","SRET_math_calculate","","key","0","16.66896551724168","720","446","","","","","12-12= ?","0","1","","","","","","",""
"2183","","3","psychophysics","127","423635","0.0-7.0-5.0-0.24","6","5","5","6","4","4","3","4","4","5","4","2","1","0","0","0","0","1","1","4","4","5","5","4","3","4","4","4","4","4","7","7","6","5","7","5","6","7","5","5","4","5","5","2","6","4","5","5","6","2","5","3","5","5","5","3","3","4","3","4","4","6","4","6","5","6","6","6","6","6","3","5","3","6","3","4","3","6","755507503227473921","陈","Female","[""好她"",""坏她"",""好我"",""坏我""]","[""强她"",""弱她"",""强我"",""弱我""]","","","","","","","","3","","","","","","","","","SRET","SRET_math_calculate","","key","3","16.668169230769408","720","446","","","","","8-5= ?","3","1","","","","","","",""
"1925","","3","psychophysics","128","425564","0.0-7.0-5.0-0.25","6","5","5","6","4","4","3","4","4","5","4","2","1","0","0","0","0","1","1","4","4","5","5","4","3","4","4","4","4","4","7","7","6","5","7","5","6","7","5","5","4","5","5","2","6","4","5","5","6","2","5","3","5","5","5","3","3","4","3","4","4","6","4","6","5","6","6","6","6","6","3","5","3","6","3","4","3","6","755507503227473921","陈","Female","[""好她"",""坏她"",""好我"",""坏我""]","[""强她"",""弱她"",""强我"",""弱我""]","","","","","","","","3","","","","","","","","","SRET","SRET_math_calculate","","key","3","16.66882608695634","720","446","","","","","9-6= ?","3","1","","","","","","",""
"2250","","7","psychophysics","129","427819","0.0-7.0-5.0-0.26","6","5","5","6","4","4","3","4","4","5","4","2","1","0","0","0","0","1","1","4","4","5","5","4","3","4","4","4","4","4","7","7","6","5","7","5","6","7","5","5","4","5","5","2","6","4","5","5","6","2","5","3","5","5","5","3","3","4","3","4","4","6","4","6","5","6","6","6","6","6","3","5","3","6","3","4","3","6","755507503227473921","陈","Female","[""好她"",""坏她"",""好我"",""坏我""]","[""强她"",""弱她"",""强我"",""弱我""]","","","","","","","","7","","","","","","","","","SRET","SRET_math_calculate","","key","7","16.668731343283913","720","446","","","","","9-2= ?","7","1","","","","","","",""
"1871","","8","psychophysics","130","429699","0.0-7.0-5.0-0.27","6","5","5","6","4","4","3","4","4","5","4","2","1","0","0","0","0","1","1","4","4","5","5","4","3","4","4","4","4","4","7","7","6","5","7","5","6","7","5","5","4","5","5","2","6","4","5","5","6","2","5","3","5","5","5","3","3","4","3","4","4","6","4","6","5","6","6","6","6","6","3","5","3","6","3","4","3","6","755507503227473921","陈","Female","[""好她"",""坏她"",""好我"",""坏我""]","[""强她"",""弱她"",""强我"",""弱我""]","","","","","","","","8","","","","","","","","","SRET","SRET_math_calculate","","key","8","16.6693124999999","720","446","","","","","6+2= ?","8","1","","","","","","",""
"2225","","6","psychophysics","131","431927","0.0-7.0-5.0-0.28","6","5","5","6","4","4","3","4","4","5","4","2","1","0","0","0","0","1","1","4","4","5","5","4","3","4","4","4","4","4","7","7","6","5","7","5","6","7","5","5","4","5","5","2","6","4","5","5","6","2","5","3","5","5","5","3","3","4","3","4","4","6","4","6","5","6","6","6","6","6","3","5","3","6","3","4","3","6","755507503227473921","陈","Female","[""好她"",""坏她"",""好我"",""坏我""]","[""强她"",""弱她"",""强我"",""弱我""]","","","","","","","","6","","","","","","","","","SRET","SRET_math_calculate","","key","6","16.66711278195507","720","446","","","","","5+1= ?","6","1","","","","","","",""
"2182","","3","psychophysics","132","434116","0.0-7.0-5.0-0.29","6","5","5","6","4","4","3","4","4","5","4","2","1","0","0","0","0","1","1","4","4","5","5","4","3","4","4","4","4","4","7","7","6","5","7","5","6","7","5","5","4","5","5","2","6","4","5","5","6","2","5","3","5","5","5","3","3","4","3","4","4","6","4","6","5","6","6","6","6","6","3","5","3","6","3","4","3","6","755507503227473921","陈","Female","[""好她"",""坏她"",""好我"",""坏我""]","[""强她"",""弱她"",""强我"",""弱我""]","","","","","","","","3","","","","","","","","","SRET","SRET_math_calculate","","key","3","16.668038461538693","720","446","","","","","9/3= ?","3","1","","","","","","",""
"1866","","1","psychophysics","133","435986","0.0-7.0-5.0-0.30","6","5","5","6","4","4","3","4","4","5","4","2","1","0","0","0","0","1","1","4","4","5","5","4","3","4","4","4","4","4","7","7","6","5","7","5","6","7","5","5","4","5","5","2","6","4","5","5","6","2","5","3","5","5","5","3","3","4","3","4","4","6","4","6","5","6","6","6","6","6","3","5","3","6","3","4","3","6","755507503227473921","陈","Female","[""好她"",""坏她"",""好我"",""坏我""]","[""强她"",""弱她"",""强我"",""弱我""]","","","","","","","","1","","","","","","","","","SRET","SRET_math_calculate","","key","1","16.668909909910006","720","446","","","","","12/12= ?","1","1","","","","","","",""
"1975","","5","psychophysics","134","437965","0.0-7.0-5.0-0.31","6","5","5","6","4","4","3","4","4","5","4","2","1","0","0","0","0","1","1","4","4","5","5","4","3","4","4","4","4","4","7","7","6","5","7","5","6","7","5","5","4","5","5","2","6","4","5","5","6","2","5","3","5","5","5","3","3","4","3","4","4","6","4","6","5","6","6","6","6","6","3","5","3","6","3","4","3","6","755507503227473921","陈","Female","[""好她"",""坏她"",""好我"",""坏我""]","[""强她"",""弱她"",""强我"",""弱我""]","","","","","","","","5","","","","","","","","","SRET","SRET_math_calculate","","key","5","16.668144067796735","720","446","","","","","10-5= ?","5","1","","","","","","",""
"1833","","2","psychophysics","135","439803","0.0-7.0-5.0-0.32","6","5","5","6","4","4","3","4","4","5","4","2","1","0","0","0","0","1","1","4","4","5","5","4","3","4","4","4","4","4","7","7","6","5","7","5","6","7","5","5","4","5","5","2","6","4","5","5","6","2","5","3","5","5","5","3","3","4","3","4","4","6","4","6","5","6","6","6","6","6","3","5","3","6","3","4","3","6","755507503227473921","陈","Female","[""好她"",""坏她"",""好我"",""坏我""]","[""强她"",""弱她"",""强我"",""弱我""]","","","","","","","","2","","","","","","","","","SRET","SRET_math_calculate","","key","2","16.669091743119104","720","446","","","","","5-3= ?","2","1","","","","","","",""
"1855","","1","psychophysics","136","441661","0.0-7.0-5.0-0.33","6","5","5","6","4","4","3","4","4","5","4","2","1","0","0","0","0","1","1","4","4","5","5","4","3","4","4","4","4","4","7","7","6","5","7","5","6","7","5","5","4","5","5","2","6","4","5","5","6","2","5","3","5","5","5","3","3","4","3","4","4","6","4","6","5","6","6","6","6","6","3","5","3","6","3","4","3","6","755507503227473921","陈","Female","[""好她"",""坏她"",""好我"",""坏我""]","[""强她"",""弱她"",""强我"",""弱我""]","","","","","","","","1","","","","","","","","","SRET","SRET_math_calculate","","key","1","16.66687387387375","720","446","","","","","4/4= ?","1","1","","","","","","",""
"2132","","8","psychophysics","137","443799","0.0-7.0-5.0-0.34","6","5","5","6","4","4","3","4","4","5","4","2","1","0","0","0","0","1","1","4","4","5","5","4","3","4","4","4","4","4","7","7","6","5","7","5","6","7","5","5","4","5","5","2","6","4","5","5","6","2","5","3","5","5","5","3","3","4","3","4","4","6","4","6","5","6","6","6","6","6","3","5","3","6","3","4","3","6","755507503227473921","陈","Female","[""好她"",""坏她"",""好我"",""坏我""]","[""强她"",""弱她"",""强我"",""弱我""]","","","","","","","","8","","","","","","","","","SRET","SRET_math_calculate","","key","8","16.667448818897665","720","446","","","","","5+3= ?","8","1","","","","","","",""
"2441","","8","psychophysics","138","446245","0.0-7.0-5.0-0.35","6","5","5","6","4","4","3","4","4","5","4","2","1","0","0","0","0","1","1","4","4","5","5","4","3","4","4","4","4","4","7","7","6","5","7","5","6","7","5","5","4","5","5","2","6","4","5","5","6","2","5","3","5","5","5","3","3","4","3","4","4","6","4","6","5","6","6","6","6","6","3","5","3","6","3","4","3","6","755507503227473921","陈","Female","[""好她"",""坏她"",""好我"",""坏我""]","[""强她"",""弱她"",""强我"",""弱我""]","","","","","","","","8","","","","","","","","","SRET","SRET_math_calculate","","key","8","16.667616438356227","720","446","","","","","50-42= ?","8","1","","","","","","",""
"2415","","3","psychophysics","139","448667","0.0-7.0-5.0-0.36","6","5","5","6","4","4","3","4","4","5","4","2","1","0","0","0","0","1","1","4","4","5","5","4","3","4","4","4","4","4","7","7","6","5","7","5","6","7","5","5","4","5","5","2","6","4","5","5","6","2","5","3","5","5","5","3","3","4","3","4","4","6","4","6","5","6","6","6","6","6","3","5","3","6","3","4","3","6","755507503227473921","陈","Female","[""好她"",""坏她"",""好我"",""坏我""]","[""强她"",""弱她"",""强我"",""弱我""]","","","","","","","","3","","","","","","","","","SRET","SRET_math_calculate","","key","3","16.668854166666684","720","446","","","","","3+0= ?","3","1","","","","","","",""
"2053","","4","psychophysics","140","450723","0.0-7.0-5.0-0.37","6","5","5","6","4","4","3","4","4","5","4","2","1","0","0","0","0","1","1","4","4","5","5","4","3","4","4","4","4","4","7","7","6","5","7","5","6","7","5","5","4","5","5","2","6","4","5","5","6","2","5","3","5","5","5","3","3","4","3","4","4","6","4","6","5","6","6","6","6","6","3","5","3","6","3","4","3","6","755507503227473921","陈","Female","[""好她"",""坏她"",""好我"",""坏我""]","[""强她"",""弱她"",""强我"",""弱我""]","","","","","","","","4","","","","","","","","","SRET","SRET_math_calculate","","key","4","16.667590163934396","720","446","","","","","20/5= ?","4","1","","","","","","",""
"1783","","1","psychophysics","141","452516","0.0-7.0-5.0-0.38","6","5","5","6","4","4","3","4","4","5","4","2","1","0","0","0","0","1","1","4","4","5","5","4","3","4","4","4","4","4","7","7","6","5","7","5","6","7","5","5","4","5","5","2","6","4","5","5","6","2","5","3","5","5","5","3","3","4","3","4","4","6","4","6","5","6","6","6","6","6","3","5","3","6","3","4","3","6","755507503227473921","陈","Female","[""好她"",""坏她"",""好我"",""坏我""]","[""强她"",""弱她"",""强我"",""弱我""]","","","","","","","","1","","","","","","","","","SRET","SRET_math_calculate","","key","1","16.668962616822682","720","446","","","","","9-8= ?","1","1","","","","","","",""
"1884","","9","psychophysics","142","454405","0.0-7.0-5.0-0.39","6","5","5","6","4","4","3","4","4","5","4","2","1","0","0","0","0","1","1","4","4","5","5","4","3","4","4","4","4","4","7","7","6","5","7","5","6","7","5","5","4","5","5","2","6","4","5","5","6","2","5","3","5","5","5","3","3","4","3","4","4","6","4","6","5","6","6","6","6","6","3","5","3","6","3","4","3","6","755507503227473921","陈","Female","[""好她"",""坏她"",""好我"",""坏我""]","[""强她"",""弱她"",""强我"",""弱我""]","","","","","","","","9","","","","","","","","","SRET","SRET_math_calculate","","key","9","16.668982142856944","720","446","","","","","8+1= ?","9","1","","","","","","",""
"2092","","4","psychophysics","143","456500","0.0-7.0-5.0-0.40","6","5","5","6","4","4","3","4","4","5","4","2","1","0","0","0","0","1","1","4","4","5","5","4","3","4","4","4","4","4","7","7","6","5","7","5","6","7","5","5","4","5","5","2","6","4","5","5","6","2","5","3","5","5","5","3","3","4","3","4","4","6","4","6","5","6","6","6","6","6","3","5","3","6","3","4","3","6","755507503227473921","陈","Female","[""好她"",""坏她"",""好我"",""坏我""]","[""强她"",""弱她"",""强我"",""弱我""]","","","","","","","","4","","","","","","","","","SRET","SRET_math_calculate","","key","4","16.66904799999995","720","446","","","","","4*1= ?","4","1","","","","","","",""
"2013","","7","psychophysics","144","458516","0.0-7.0-5.0-0.41","6","5","5","6","4","4","3","4","4","5","4","2","1","0","0","0","0","1","1","4","4","5","5","4","3","4","4","4","4","4","7","7","6","5","7","5","6","7","5","5","4","5","5","2","6","4","5","5","6","2","5","3","5","5","5","3","3","4","3","4","4","6","4","6","5","6","6","6","6","6","3","5","3","6","3","4","3","6","755507503227473921","陈","Female","[""好她"",""坏她"",""好我"",""坏我""]","[""强她"",""弱她"",""强我"",""弱我""]","","","","","","","","7","","","","","","","","","SRET","SRET_math_calculate","","key","7","16.668891666666603","720","446","","","","","3+4= ?","7","1","","","","","","",""
"1922","","8","psychophysics","145","460444","0.0-7.0-5.0-0.42","6","5","5","6","4","4","3","4","4","5","4","2","1","0","0","0","0","1","1","4","4","5","5","4","3","4","4","4","4","4","7","7","6","5","7","5","6","7","5","5","4","5","5","2","6","4","5","5","6","2","5","3","5","5","5","3","3","4","3","4","4","6","4","6","5","6","6","6","6","6","3","5","3","6","3","4","3","6","755507503227473921","陈","Female","[""好她"",""坏她"",""好我"",""坏我""]","[""强她"",""弱她"",""强我"",""弱我""]","","","","","","","","8","","","","","","","","","SRET","SRET_math_calculate","","key","8","16.668219298245322","720","446","","","","","4+4= ?","8","1","","","","","","",""
