"rt","stimulus","response","trial_type","trial_index","time_elapsed","internal_node_id","swb_1","swb_2","swb_3","swb_4","swb_5","LOT_1","LOT_2","LOT_3","LOT_4","LOT_5","LOT_6","IPC_1","IPC_2","IPC_3","IPC_4","IPC_5","IPC_6","IPC_7","IPC_8","MorIden_1","MorIden_2","MorIden_3","MorIden_4","MorIden_5","MorIden_6","MorIden_7","MorIden_8","MorIden_9","MorIden_10","moralSeImag_1","moralSeImag_2","moralSeImag_3","moralSeImag_4","moralSeImag_5","moralSeImag_6","moralSeImag_7","moralSeImag_8","moralSeImag_9","sde_1","sde_2","sde_3","sde_4","sde_5","sde_6","sde_7","sde_8","sde_9","sde_10","sde_11","sde_12","sde_13","sde_14","sde_15","sde_16","sde_17","sde_18","sde_19","sde_20","IM_1","IM_2","IM_3","IM_4","IM_5","IM_6","IM_7","IM_8","IM_9","IM_10","IM_11","IM_12","IM_13","IM_14","IM_15","IM_16","IM_17","IM_18","IM_19","IM_20","subj_idx","friend_name","Sex","Word","Word2","value","success","timeout","failed_images","failed_audio","failed_video","user_agent","responses","item_order","radio_event_ids","radio_event_times","key_event_times","mouse_event_times","straightlining","zigzagging","honeypot","task_id","screen_id","time_stamp","response_type","key_press","avg_frame_time","center_x","center_y","person","word","valence","domain","math","correct_response","correct","status","view_history","identity","duration","Image","condition","question_order"
"6821","
   <p><div style='color:white; font-size: 25px'>您好，欢迎参加本次实验。</div></p>
   <p><div style='color:white; font-size: 25px'>为充分保障您的权利，请确保您已经知晓并同意《参与实验同意书》以及《数据公开知情同意书》。</div></p>
   <p><div style='color:white; font-size: 25px'>如果您未见过上述内容，请咨询实验员。</div></p>
   <p style='color:white; font-size: 25px'>如果您选择继续实验，则表示您已经清楚两份知情同意书的内容并同意。</p>
   <p> <div style = ""color: green""><按空格键至下页></div> </p>
   "," ","html-keyboard-response","0","6826","0.0-0.0","4","3","4","3","3","4","3","4","3","4","5","1","1","0","2","0","1","1","0","4","3","2","1","4","3","4","4","4","3","7","7","6","5","5","6","5","6","5","5","2","5","2","5","2","5","2","5","2","5","2","5","4","6","3","6","3","4","3","5","4","3","3","4","5","5","3","6","6","5","6","5","4","5","5","6","2","5","3","732226150302224385","李","Male","[""坏我"",""好他"",""好我"",""坏他""]","[""弱我"",""强他"",""强我"",""弱他""]","","","","","","","","","","","","","","","","","","","","","","","","","","","","","","","","","","","","","",""
"","","","call-function","1","6828","0.0-1.0-0.0","4","3","4","3","3","4","3","4","3","4","5","1","1","0","2","0","1","1","0","4","3","2","1","4","3","4","4","4","3","7","7","6","5","5","6","5","6","5","5","2","5","2","5","2","5","2","5","2","5","2","5","4","6","3","6","3","4","3","5","4","3","3","4","5","5","3","6","6","5","6","5","4","5","5","6","2","5","3","732226150302224385","李","Male","[""坏我"",""好他"",""好我"",""坏他""]","[""弱我"",""强他"",""强我"",""弱他""]","","","","","","","","","","","","","","","","","","","","","","","","","","","","","","","","","","","","","",""
"55346","","[{""name"":""Sex"",""value"":""0""},{""name"":""friend_name"",""value"":""李""}]","survey-html-form","2","62176","0.0-1.0-1.0","4","3","4","3","3","4","3","4","3","4","5","1","1","0","2","0","1","1","0","4","3","2","1","4","3","4","4","4","3","7","7","6","5","5","6","5","6","5","5","2","5","2","5","2","5","2","5","2","5","2","5","4","6","3","6","3","4","3","5","4","3","3","4","5","5","3","6","6","5","6","5","4","5","5","6","2","5","3","732226150302224385","李","Male","[""坏我"",""好他"",""好我"",""坏他""]","[""弱我"",""强他"",""强我"",""弱他""]","","","","","","","","","","","","","","","","","","","","","","","","","","","","","","","","","","","","","",""
"","","","preload","3","62561","0.0-2.0","4","3","4","3","3","4","3","4","3","4","5","1","1","0","2","0","1","1","0","4","3","2","1","4","3","4","4","4","3","7","7","6","5","5","6","5","6","5","5","2","5","2","5","2","5","2","5","2","5","2","5","4","6","3","6","3","4","3","5","4","3","3","4","5","5","3","6","6","5","6","5","4","5","5","6","2","5","3","732226150302224385","李","Male","[""坏我"",""好他"",""好我"",""坏他""]","[""弱我"",""强他"",""强我"",""弱他""]","","true","false","[]","[]","[]","","","","","","","","","","","","","","","","","","","","","","","","","","","","","","","",""
"","","","fullscreen","4","79012","0.0-3.0","4","3","4","3","3","4","3","4","3","4","5","1","1","0","2","0","1","1","0","4","3","2","1","4","3","4","4","4","3","7","7","6","5","5","6","5","6","5","5","2","5","2","5","2","5","2","5","2","5","2","5","4","6","3","6","3","4","3","5","4","3","3","4","5","5","3","6","6","5","6","5","4","5","5","6","2","5","3","732226150302224385","李","Male","[""坏我"",""好他"",""好我"",""坏他""]","[""弱我"",""强他"",""强我"",""弱他""]","","true","","","","","{}","","","","","","","","","","","","","","","","","","","","","","","","","","","","","","",""
"162321.30000001192","","{""Q01"":""4"",""Q02"":""3"",""Q03"":""4"",""Q04"":""3"",""Q05"":""3""}","survey-template","5","241336","0.0-4.0","4","3","4","3","3","4","3","4","3","4","5","1","1","0","2","0","1","1","0","4","3","2","1","4","3","4","4","4","3","7","7","6","5","5","6","5","6","5","5","2","5","2","5","2","5","2","5","2","5","2","5","4","6","3","6","3","4","3","5","4","3","3","4","5","5","3","6","6","5","6","5","4","5","5","6","2","5","3","732226150302224385","李","Male","[""坏我"",""好他"",""好我"",""坏他""]","[""弱我"",""强他"",""强我"",""弱他""]","","","","","","","","{""Q01"":""4"",""Q02"":""3"",""Q03"":""4"",""Q04"":""3"",""Q05"":""3""}","[0,1,2,3,4]","[""Q01"",""Q02"",""Q03"",""Q04"",""Q05"",""Q05"",""Q05"",""Q05"",""Q05"",""Q04"",""Q02"",""Q02"",""Q04"",""Q01"",""Q01""]","[29847.20000000298,31267.30000001192,35570.10000000894,37324.5,43728.90000000596,46442.5,48526.90000000596,50878.5,149468.40000000596,153090.30000001192,156622.80000001192,157446.60000000894,158737.70000000298,160724.30000001192,161460.20000000298]","[]","[29847.20000000298,31267.30000001192,35570.10000000894,37324.5,43728.90000000596,45032.10000000894,45406.60000000894,45664.20000000298,46130.10000000894,46442.5,48526.90000000596,50878.5,149468.40000000596,153090.30000001192,154535.10000000894,156334.10000000894,156622.80000001192,156871.80000001192,157144.40000000596,157446.60000000894,158737.70000000298,160724.30000001192,161460.20000000298,162320.10000000894]","0.6","0.75","0","","","","","","","","","","","","","","","","","","","","","",""
"106207.5","","{""Q01"":""4"",""Q02"":""3"",""Q03"":""4"",""Q04"":""3"",""Q05"":""4"",""Q06"":""5""}","survey-template","6","347548","0.0-5.0","4","3","4","3","3","4","3","4","3","4","5","1","1","0","2","0","1","1","0","4","3","2","1","4","3","4","4","4","3","7","7","6","5","5","6","5","6","5","5","2","5","2","5","2","5","2","5","2","5","2","5","4","6","3","6","3","4","3","5","4","3","3","4","5","5","3","6","6","5","6","5","4","5","5","6","2","5","3","732226150302224385","李","Male","[""坏我"",""好他"",""好我"",""坏他""]","[""弱我"",""强他"",""强我"",""弱他""]","","","","","","","","{""Q01"":""4"",""Q02"":""3"",""Q03"":""4"",""Q04"":""3"",""Q05"":""4"",""Q06"":""5""}","[0,1,2,3,4,5]","[""Q01"",""Q02"",""Q03"",""Q04"",""Q05"",""Q06"",""Q05"",""Q06"",""Q06""]","[2314,6980.5,8130.199999988079,9125.5,44280.5,44835.89999999106,52376.59999999404,102382.5,104124.19999998808]","[]","[2314,5420.79999999702,6980.5,7616.399999991059,7920.399999991059,8130.199999988079,9125.5,44280.5,44835.89999999106,51425.79999999702,52376.59999999404,102382.5,104124.19999998808,105847.89999999106,106206.69999998808]","0.3333333333333333","0.8","0","","","","","","","","","","","","","","","","","","","","","",""
"26965.39999999106","","{""Q01"":""1"",""Q02"":""1"",""Q03"":""0"",""Q04"":""2"",""Q05"":""0"",""Q06"":""1"",""Q07"":""1"",""Q08"":""0""}","survey-template","7","374516","0.0-6.0","4","3","4","3","3","4","3","4","3","4","5","1","1","0","2","0","1","1","0","4","3","2","1","4","3","4","4","4","3","7","7","6","5","5","6","5","6","5","5","2","5","2","5","2","5","2","5","2","5","2","5","4","6","3","6","3","4","3","5","4","3","3","4","5","5","3","6","6","5","6","5","4","5","5","6","2","5","3","732226150302224385","李","Male","[""坏我"",""好他"",""好我"",""坏他""]","[""弱我"",""强他"",""强我"",""弱他""]","","","","","","","","{""Q01"":""1"",""Q02"":""1"",""Q03"":""0"",""Q04"":""2"",""Q05"":""0"",""Q06"":""1"",""Q07"":""1"",""Q08"":""0""}","[0,1,2,3,4,5,6,7]","[""Q01"",""Q02"",""Q03"",""Q04"",""Q04"",""Q05"",""Q06"",""Q07"",""Q08""]","[4174.0999999940395,5157.699999988079,6845.899999991059,8975.199999988079,10618.199999988079,13821.699999988079,14519.79999999702,16558.09999999404,18252.19999998808]","[]","[2996.199999988079,4174.0999999940395,5157.699999988079,6845.899999991059,8975.199999988079,10282,10618.199999988079,11588.699999988079,13591,13821.699999988079,14519.79999999702,16558.09999999404,18252.19999998808,26964.19999998808]","0.5","0.42857142857142855","0","","","","","","","","","","","","","","","","","","","","","",""
"39998","
    <p><div style='color:white;font-size:35px; line-height:20px;'>词汇评估任务</div></p><br>
    <p><div style='color:white;font-size:25px; line-height:20px;'>请再次回忆该亲密的朋友，你们至少2年前就认识了，并且最近2年经常见面。</div></p>
    <p><div style='color:white;font-size:25px; line-height:20px;'>在本实验中，您将会看到一些形容词。</div></p>
    <p><div style='color:yellow;font-size:25px; line-height:20px;'>您的任务是判断这些形容词是否符合对您自己或您的朋友的描述。</div></p><p style='font-size:35px'>符合按<span style=""color:lightgreen""> f 键</span>，不符合按<span style=""color:red""> j 键</span></p>","0","html-button-response","8","414518","0.0-7.0-0.0","4","3","4","3","3","4","3","4","3","4","5","1","1","0","2","0","1","1","0","4","3","2","1","4","3","4","4","4","3","7","7","6","5","5","6","5","6","5","5","2","5","2","5","2","5","2","5","2","5","2","5","4","6","3","6","3","4","3","5","4","3","3","4","5","5","3","6","6","5","6","5","4","5","5","6","2","5","3","732226150302224385","李","Male","[""坏我"",""好他"",""好我"",""坏他""]","[""弱我"",""强他"",""强我"",""弱他""]","","","","","","","","","","","","","","","","","SRET_EW","EW_instructions","Sat Sep 16 2023 19:46:03 GMT+0800 (中国标准时间)","","","","","","","","","","","","","","","","","","",""
"1592","","j","psychophysics","9","417122","0.0-7.0-1.0-0.0","4","3","4","3","3","4","3","4","3","4","5","1","1","0","2","0","1","1","0","4","3","2","1","4","3","4","4","4","3","7","7","6","5","5","6","5","6","5","5","2","5","2","5","2","5","2","5","2","5","2","5","4","6","3","6","3","4","3","5","4","3","3","4","5","5","3","6","6","5","6","5","4","5","5","6","2","5","3","732226150302224385","李","Male","[""坏我"",""好他"",""好我"",""坏他""]","[""弱我"",""强他"",""强我"",""弱他""]","","","","","","","","no","","","","","","","","","SRET_EW","EW_practice","","key","j","6.103011709601816","768","428","自己","刻板","Negative","ability","","","","","","","","","",""
"1370","","f","psychophysics","10","419494","0.0-7.0-1.0-0.1","4","3","4","3","3","4","3","4","3","4","5","1","1","0","2","0","1","1","0","4","3","2","1","4","3","4","4","4","3","7","7","6","5","5","6","5","6","5","5","2","5","2","5","2","5","2","5","2","5","2","5","4","6","3","6","3","4","3","5","4","3","3","4","5","5","3","6","6","5","6","5","4","5","5","6","2","5","3","732226150302224385","李","Male","[""坏我"",""好他"",""好我"",""坏他""]","[""弱我"",""强他"",""强我"",""弱他""]","","","","","","","","yes","","","","","","","","","SRET_EW","EW_practice","","key","f","6.059923076923065","768","428","自己","严谨","Positive","ability","","","","","","","","","",""
"5429","","j","psychophysics","11","425925","0.0-7.0-1.0-0.2","4","3","4","3","3","4","3","4","3","4","5","1","1","0","2","0","1","1","0","4","3","2","1","4","3","4","4","4","3","7","7","6","5","5","6","5","6","5","5","2","5","2","5","2","5","2","5","2","5","2","5","4","6","3","6","3","4","3","5","4","3","3","4","5","5","3","6","6","5","6","5","4","5","5","6","2","5","3","732226150302224385","李","Male","[""坏我"",""好他"",""好我"",""坏他""]","[""弱我"",""强他"",""强我"",""弱他""]","","","","","","","","no","","","","","","","","","SRET_EW","EW_practice","","key","j","6.060507547169845","768","428","朋友","徇私","Negative","morality","","","","","","","","","",""
"763","","f","psychophysics","12","427691","0.0-7.0-1.0-0.3","4","3","4","3","3","4","3","4","3","4","5","1","1","0","2","0","1","1","0","4","3","2","1","4","3","4","4","4","3","7","7","6","5","5","6","5","6","5","5","2","5","2","5","2","5","2","5","2","5","2","5","4","6","3","6","3","4","3","5","4","3","3","4","5","5","3","6","6","5","6","5","4","5","5","6","2","5","3","732226150302224385","李","Male","[""坏我"",""好他"",""好我"",""坏他""]","[""弱我"",""强他"",""强我"",""弱他""]","","","","","","","","yes","","","","","","","","","SRET_EW","EW_practice","","key","f","6.06065635738836","768","428","朋友","忠实","Positive","morality","","","","","","","","","",""
"23599","
    <p><div style='color:white;font-size:35px; line-height:20px;'>请您再次阅读实验要求</div></p><br>
    <p><div style='color:white;font-size:25px; line-height:20px;'>请回忆某一个亲密的朋友，你们至少2年前就认识了，并且最近2年经常见面。</div></p>
    <p><div style='color:white;font-size:25px; line-height:20px;'>在本实验中，您将会看到一些形容词。</div></p>
    <p><div style='color:yellow;font-size:25px; line-height:20px;'>您的任务是判断这些形容词是否符合对您自己或您的朋友的描述。</div></p>
    <p><div class='footer' style='font-size:25px; line-height:20px;'>如果对本实验还有不清楚之处，请立即向实验员咨询。</p><p style='font-size:25px; line-height:20px;'>如果您明白了规则：</p><p style='font-size:22px; line-height:20px;'>请按 继续 进入正式实验</p>
    </div>
    <p style='font-size:35px'>符合按<span style=""color:lightgreen""> f 键</span>，不符合按<span style=""color:red""> j 键</span></p>","0","html-button-response","13","451292","0.0-7.0-2.0","4","3","4","3","3","4","3","4","3","4","5","1","1","0","2","0","1","1","0","4","3","2","1","4","3","4","4","4","3","7","7","6","5","5","6","5","6","5","5","2","5","2","5","2","5","2","5","2","5","2","5","4","6","3","6","3","4","3","5","4","3","3","4","5","5","3","6","6","5","6","5","4","5","5","6","2","5","3","732226150302224385","李","Male","[""坏我"",""好他"",""好我"",""坏他""]","[""弱我"",""强他"",""强我"",""弱他""]","","","","","","","","","","","","","","","","","SRET_EW","prac_instructions","Sat Sep 16 2023 19:46:03 GMT+0800 (中国标准时间)","","","","","","","","","","","","","","","","","","",""
"960","","f","psychophysics","14","453254","0.0-7.0-3.0-0.0","4","3","4","3","3","4","3","4","3","4","5","1","1","0","2","0","1","1","0","4","3","2","1","4","3","4","4","4","3","7","7","6","5","5","6","5","6","5","5","2","5","2","5","2","5","2","5","2","5","2","5","4","6","3","6","3","4","3","5","4","3","3","4","5","5","3","6","6","5","6","5","4","5","5","6","2","5","3","732226150302224385","李","Male","[""坏我"",""好他"",""好我"",""坏他""]","[""弱我"",""强他"",""强我"",""弱他""]","","","","","","","","yes","","","","","","","","","SRET","EW_formal","","key","f","6.078269349845255","768","428","朋友","务实","Positive","ability","","","","","","","","","",""
"814","","j","psychophysics","15","455071","0.0-7.0-3.0-0.1","4","3","4","3","3","4","3","4","3","4","5","1","1","0","2","0","1","1","0","4","3","2","1","4","3","4","4","4","3","7","7","6","5","5","6","5","6","5","5","2","5","2","5","2","5","2","5","2","5","2","5","4","6","3","6","3","4","3","5","4","3","3","4","5","5","3","6","6","5","6","5","4","5","5","6","2","5","3","732226150302224385","李","Male","[""坏我"",""好他"",""好我"",""坏他""]","[""弱我"",""强他"",""强我"",""弱他""]","","","","","","","","no","","","","","","","","","SRET","EW_formal","","key","j","6.060812709030164","768","428","朋友","迷糊","Negative","ability","","","","","","","","","",""
"673","","f","psychophysics","16","456745","0.0-7.0-3.0-0.2","4","3","4","3","3","4","3","4","3","4","5","1","1","0","2","0","1","1","0","4","3","2","1","4","3","4","4","4","3","7","7","6","5","5","6","5","6","5","5","2","5","2","5","2","5","2","5","2","5","2","5","4","6","3","6","3","4","3","5","4","3","3","4","5","5","3","6","6","5","6","5","4","5","5","6","2","5","3","732226150302224385","李","Male","[""坏我"",""好他"",""好我"",""坏他""]","[""弱我"",""强他"",""强我"",""弱他""]","","","","","","","","yes","","","","","","","","","SRET","EW_formal","","key","f","6.0599636363636025","768","428","自己","坚贞","Positive","morality","","","","","","","","","",""
"1504","","j","psychophysics","17","459250","0.0-7.0-3.0-0.3","4","3","4","3","3","4","3","4","3","4","5","1","1","0","2","0","1","1","0","4","3","2","1","4","3","4","4","4","3","7","7","6","5","5","6","5","6","5","5","2","5","2","5","2","5","2","5","2","5","2","5","4","6","3","6","3","4","3","5","4","3","3","4","5","5","3","6","6","5","6","5","4","5","5","6","2","5","3","732226150302224385","李","Male","[""坏我"",""好他"",""好我"",""坏他""]","[""弱我"",""强他"",""强我"",""弱他""]","","","","","","","","no","","","","","","","","","SRET","EW_formal","","key","j","6.06054368932029","768","428","自己","说谎","Negative","morality","","","","","","","","","",""
"947","","j","psychophysics","18","461199","0.0-7.0-3.0-0.4","4","3","4","3","3","4","3","4","3","4","5","1","1","0","2","0","1","1","0","4","3","2","1","4","3","4","4","4","3","7","7","6","5","5","6","5","6","5","5","2","5","2","5","2","5","2","5","2","5","2","5","4","6","3","6","3","4","3","5","4","3","3","4","5","5","3","6","6","5","6","5","4","5","5","6","2","5","3","732226150302224385","李","Male","[""坏我"",""好他"",""好我"",""坏他""]","[""弱我"",""强他"",""强我"",""弱他""]","","","","","","","","no","","","","","","","","","SRET","EW_formal","","key","j","6.059931464174492","768","428","朋友","邪恶","Negative","morality","","","","","","","","","",""
"945","","j","psychophysics","19","463167","0.0-7.0-3.0-0.5","4","3","4","3","3","4","3","4","3","4","5","1","1","0","2","0","1","1","0","4","3","2","1","4","3","4","4","4","3","7","7","6","5","5","6","5","6","5","5","2","5","2","5","2","5","2","5","2","5","2","5","4","6","3","6","3","4","3","5","4","3","3","4","5","5","3","6","6","5","6","5","4","5","5","6","2","5","3","732226150302224385","李","Male","[""坏我"",""好他"",""好我"",""坏他""]","[""弱我"",""强他"",""强我"",""弱他""]","","","","","","","","no","","","","","","","","","SRET","EW_formal","","key","j","6.060861111111238","768","428","自己","业余","Negative","ability","","","","","","","","","",""
"830","","j","psychophysics","20","465000","0.0-7.0-3.0-0.6","4","3","4","3","3","4","3","4","3","4","5","1","1","0","2","0","1","1","0","4","3","2","1","4","3","4","4","4","3","7","7","6","5","5","6","5","6","5","5","2","5","2","5","2","5","2","5","2","5","2","5","4","6","3","6","3","4","3","5","4","3","3","4","5","5","3","6","6","5","6","5","4","5","5","6","2","5","3","732226150302224385","李","Male","[""坏我"",""好他"",""好我"",""坏他""]","[""弱我"",""强他"",""强我"",""弱他""]","","","","","","","","no","","","","","","","","","SRET","EW_formal","","key","j","6.0598936877076115","768","428","朋友","远见","Positive","ability","","","","","","","","","",""
"431","","f","psychophysics","21","466434","0.0-7.0-3.0-0.7","4","3","4","3","3","4","3","4","3","4","5","1","1","0","2","0","1","1","0","4","3","2","1","4","3","4","4","4","3","7","7","6","5","5","6","5","6","5","5","2","5","2","5","2","5","2","5","2","5","2","5","4","6","3","6","3","4","3","5","4","3","3","4","5","5","3","6","6","5","6","5","4","5","5","6","2","5","3","732226150302224385","李","Male","[""坏我"",""好他"",""好我"",""坏他""]","[""弱我"",""强他"",""强我"",""弱他""]","","","","","","","","yes","","","","","","","","","SRET","EW_formal","","key","f","6.0601567796609555","768","428","朋友","善良","Positive","morality","","","","","","","","","",""
"520","","f","psychophysics","22","467956","0.0-7.0-3.0-0.8","4","3","4","3","3","4","3","4","3","4","5","1","1","0","2","0","1","1","0","4","3","2","1","4","3","4","4","4","3","7","7","6","5","5","6","5","6","5","5","2","5","2","5","2","5","2","5","2","5","2","5","4","6","3","6","3","4","3","5","4","3","3","4","5","5","3","6","6","5","6","5","4","5","5","6","2","5","3","732226150302224385","李","Male","[""坏我"",""好他"",""好我"",""坏他""]","[""弱我"",""强他"",""强我"",""弱他""]","","","","","","","","yes","","","","","","","","","SRET","EW_formal","","key","f","6.060556000000099","768","428","朋友","守时","Positive","morality","","","","","","","","","",""
"1246","","j","psychophysics","23","470218","0.0-7.0-3.0-0.9","4","3","4","3","3","4","3","4","3","4","5","1","1","0","2","0","1","1","0","4","3","2","1","4","3","4","4","4","3","7","7","6","5","5","6","5","6","5","5","2","5","2","5","2","5","2","5","2","5","2","5","4","6","3","6","3","4","3","5","4","3","3","4","5","5","3","6","6","5","6","5","4","5","5","6","2","5","3","732226150302224385","李","Male","[""坏我"",""好他"",""好我"",""坏他""]","[""弱我"",""强他"",""强我"",""弱他""]","","","","","","","","no","","","","","","","","","SRET","EW_formal","","key","j","6.05983602150543","768","428","朋友","逞能","Negative","ability","","","","","","","","","",""
"1029","","f","psychophysics","24","472249","0.0-7.0-3.0-0.10","4","3","4","3","3","4","3","4","3","4","5","1","1","0","2","0","1","1","0","4","3","2","1","4","3","4","4","4","3","7","7","6","5","5","6","5","6","5","5","2","5","2","5","2","5","2","5","2","5","2","5","4","6","3","6","3","4","3","5","4","3","3","4","5","5","3","6","6","5","6","5","4","5","5","6","2","5","3","732226150302224385","李","Male","[""坏我"",""好他"",""好我"",""坏他""]","[""弱我"",""强他"",""强我"",""弱他""]","","","","","","","","yes","","","","","","","","","SRET","EW_formal","","key","f","6.060748502993949","768","428","自己","无私","Positive","morality","","","","","","","","","",""
"15160","","j","psychophysics","25","488411","0.0-7.0-3.0-0.11","4","3","4","3","3","4","3","4","3","4","5","1","1","0","2","0","1","1","0","4","3","2","1","4","3","4","4","4","3","7","7","6","5","5","6","5","6","5","5","2","5","2","5","2","5","2","5","2","5","2","5","4","6","3","6","3","4","3","5","4","3","3","4","5","5","3","6","6","5","6","5","4","5","5","6","2","5","3","732226150302224385","李","Male","[""坏我"",""好他"",""好我"",""坏他""]","[""弱我"",""强他"",""强我"",""弱他""]","","","","","","","","no","","","","","","","","","SRET","EW_formal","","key","j","6.0648337087087105","768","428","自己","卑鄙","Negative","morality","","","","","","","","","",""
"1665","","f","psychophysics","26","491077","0.0-7.0-3.0-0.12","4","3","4","3","3","4","3","4","3","4","5","1","1","0","2","0","1","1","0","4","3","2","1","4","3","4","4","4","3","7","7","6","5","5","6","5","6","5","5","2","5","2","5","2","5","2","5","2","5","2","5","4","6","3","6","3","4","3","5","4","3","3","4","5","5","3","6","6","5","6","5","4","5","5","6","2","5","3","732226150302224385","李","Male","[""坏我"",""好他"",""好我"",""坏他""]","[""弱我"",""强他"",""强我"",""弱他""]","","","","","","","","yes","","","","","","","","","SRET","EW_formal","","key","f","6.088194508009081","768","428","朋友","高效","Positive","ability","","","","","","","","","",""
"622","","f","psychophysics","27","492702","0.0-7.0-3.0-0.13","4","3","4","3","3","4","3","4","3","4","5","1","1","0","2","0","1","1","0","4","3","2","1","4","3","4","4","4","3","7","7","6","5","5","6","5","6","5","5","2","5","2","5","2","5","2","5","2","5","2","5","4","6","3","6","3","4","3","5","4","3","3","4","5","5","3","6","6","5","6","5","4","5","5","6","2","5","3","732226150302224385","李","Male","[""坏我"",""好他"",""好我"",""坏他""]","[""弱我"",""强他"",""强我"",""弱他""]","","","","","","","","yes","","","","","","","","","SRET","EW_formal","","key","f","6.106950943396242","768","428","自己","坚持","Positive","ability","","","","","","","","","",""
"859","","j","psychophysics","28","494581","0.0-7.0-3.0-0.14","4","3","4","3","3","4","3","4","3","4","5","1","1","0","2","0","1","1","0","4","3","2","1","4","3","4","4","4","3","7","7","6","5","5","6","5","6","5","5","2","5","2","5","2","5","2","5","2","5","2","5","4","6","3","6","3","4","3","5","4","3","3","4","5","5","3","6","6","5","6","5","4","5","5","6","2","5","3","732226150302224385","李","Male","[""坏我"",""好他"",""好我"",""坏他""]","[""弱我"",""强他"",""强我"",""弱他""]","","","","","","","","no","","","","","","","","","SRET","EW_formal","","key","j","6.060466019417503","768","428","朋友","伪善","Negative","morality","","","","","","","","","",""
"20005","","f","psychophysics","29","515587","0.0-7.0-3.0-0.15","4","3","4","3","3","4","3","4","3","4","5","1","1","0","2","0","1","1","0","4","3","2","1","4","3","4","4","4","3","7","7","6","5","5","6","5","6","5","5","2","5","2","5","2","5","2","5","2","5","2","5","4","6","3","6","3","4","3","5","4","3","3","4","5","5","3","6","6","5","6","5","4","5","5","6","2","5","3","732226150302224385","李","Male","[""坏我"",""好他"",""好我"",""坏他""]","[""弱我"",""强他"",""强我"",""弱他""]","","","","","","","","yes","","","","","","","","","SRET","EW_formal","","key","f","6.118497086247095","768","428","朋友","骁勇","Positive","ability","","","","","","","","","",""
"1351","","j","psychophysics","30","517938","0.0-7.0-3.0-0.16","4","3","4","3","3","4","3","4","3","4","5","1","1","0","2","0","1","1","0","4","3","2","1","4","3","4","4","4","3","7","7","6","5","5","6","5","6","5","5","2","5","2","5","2","5","2","5","2","5","2","5","4","6","3","6","3","4","3","5","4","3","3","4","5","5","3","6","6","5","6","5","4","5","5","6","2","5","3","732226150302224385","李","Male","[""坏我"",""好他"",""好我"",""坏他""]","[""弱我"",""强他"",""强我"",""弱他""]","","","","","","","","no","","","","","","","","","SRET","EW_formal","","key","j","6.107695312499952","768","428","自己","屈才","Negative","ability","","","","","","","","","",""
"1779","","j","psychophysics","31","520718","0.0-7.0-3.0-0.17","4","3","4","3","3","4","3","4","3","4","5","1","1","0","2","0","1","1","0","4","3","2","1","4","3","4","4","4","3","7","7","6","5","5","6","5","6","5","5","2","5","2","5","2","5","2","5","2","5","2","5","4","6","3","6","3","4","3","5","4","3","3","4","5","5","3","6","6","5","6","5","4","5","5","6","2","5","3","732226150302224385","李","Male","[""坏我"",""好他"",""好我"",""坏他""]","[""弱我"",""强他"",""强我"",""弱他""]","","","","","","","","no","","","","","","","","","SRET","EW_formal","","key","j","6.086960526315874","768","428","自己","才尽","Negative","ability","","","","","","","","","",""
"579","","f","psychophysics","32","522297","0.0-7.0-3.0-0.18","4","3","4","3","3","4","3","4","3","4","5","1","1","0","2","0","1","1","0","4","3","2","1","4","3","4","4","4","3","7","7","6","5","5","6","5","6","5","5","2","5","2","5","2","5","2","5","2","5","2","5","4","6","3","6","3","4","3","5","4","3","3","4","5","5","3","6","6","5","6","5","4","5","5","6","2","5","3","732226150302224385","李","Male","[""坏我"",""好他"",""好我"",""坏他""]","[""弱我"",""强他"",""强我"",""弱他""]","","","","","","","","yes","","","","","","","","","SRET","EW_formal","","key","f","6.107066147859935","768","428","自己","善心","Positive","morality","","","","","","","","","",""
"624","","f","psychophysics","33","523922","0.0-7.0-3.0-0.19","4","3","4","3","3","4","3","4","3","4","5","1","1","0","2","0","1","1","0","4","3","2","1","4","3","4","4","4","3","7","7","6","5","5","6","5","6","5","5","2","5","2","5","2","5","2","5","2","5","2","5","4","6","3","6","3","4","3","5","4","3","3","4","5","5","3","6","6","5","6","5","4","5","5","6","2","5","3","732226150302224385","李","Male","[""坏我"",""好他"",""好我"",""坏他""]","[""弱我"",""强他"",""强我"",""弱他""]","","","","","","","","yes","","","","","","","","","SRET","EW_formal","","key","f","6.060888059701599","768","428","朋友","稳健","Positive","ability","","","","","","","","","",""
"938","","j","psychophysics","34","525862","0.0-7.0-3.0-0.20","4","3","4","3","3","4","3","4","3","4","5","1","1","0","2","0","1","1","0","4","3","2","1","4","3","4","4","4","3","7","7","6","5","5","6","5","6","5","5","2","5","2","5","2","5","2","5","2","5","2","5","4","6","3","6","3","4","3","5","4","3","3","4","5","5","3","6","6","5","6","5","4","5","5","6","2","5","3","732226150302224385","李","Male","[""坏我"",""好他"",""好我"",""坏他""]","[""弱我"",""强他"",""强我"",""弱他""]","","","","","","","","no","","","","","","","","","SRET","EW_formal","","key","j","6.098763406940307","768","428","朋友","混账","Negative","morality","","","","","","","","","",""
"624","","j","psychophysics","35","527487","0.0-7.0-3.0-0.21","4","3","4","3","3","4","3","4","3","4","5","1","1","0","2","0","1","1","0","4","3","2","1","4","3","4","4","4","3","7","7","6","5","5","6","5","6","5","5","2","5","2","5","2","5","2","5","2","5","2","5","4","6","3","6","3","4","3","5","4","3","3","4","5","5","3","6","6","5","6","5","4","5","5","6","2","5","3","732226150302224385","李","Male","[""坏我"",""好他"",""好我"",""坏他""]","[""弱我"",""强他"",""强我"",""弱他""]","","","","","","","","no","","","","","","","","","SRET","EW_formal","","key","j","6.106249056603619","768","428","朋友","狡诈","Negative","morality","","","","","","","","","",""
"592","","j","psychophysics","36","529081","0.0-7.0-3.0-0.22","4","3","4","3","3","4","3","4","3","4","5","1","1","0","2","0","1","1","0","4","3","2","1","4","3","4","4","4","3","7","7","6","5","5","6","5","6","5","5","2","5","2","5","2","5","2","5","2","5","2","5","4","6","3","6","3","4","3","5","4","3","3","4","5","5","3","6","6","5","6","5","4","5","5","6","2","5","3","732226150302224385","李","Male","[""坏我"",""好他"",""好我"",""坏他""]","[""弱我"",""强他"",""强我"",""弱他""]","","","","","","","","no","","","","","","","","","SRET","EW_formal","","key","j","6.13123938223908","768","428","自己","小人","Negative","morality","","","","","","","","","",""
"681","","f","psychophysics","37","530762","0.0-7.0-3.0-0.23","4","3","4","3","3","4","3","4","3","4","5","1","1","0","2","0","1","1","0","4","3","2","1","4","3","4","4","4","3","7","7","6","5","5","6","5","6","5","5","2","5","2","5","2","5","2","5","2","5","2","5","4","6","3","6","3","4","3","5","4","3","3","4","5","5","3","6","6","5","6","5","4","5","5","6","2","5","3","732226150302224385","李","Male","[""坏我"",""好他"",""好我"",""坏他""]","[""弱我"",""强他"",""强我"",""弱他""]","","","","","","","","yes","","","","","","","","","SRET","EW_formal","","key","f","6.059724637680937","768","428","朋友","文明","Positive","morality","","","","","","","","","",""
"574","","f","psychophysics","38","532337","0.0-7.0-3.0-0.24","4","3","4","3","3","4","3","4","3","4","5","1","1","0","2","0","1","1","0","4","3","2","1","4","3","4","4","4","3","7","7","6","5","5","6","5","6","5","5","2","5","2","5","2","5","2","5","2","5","2","5","4","6","3","6","3","4","3","5","4","3","3","4","5","5","3","6","6","5","6","5","4","5","5","6","2","5","3","732226150302224385","李","Male","[""坏我"",""好他"",""好我"",""坏他""]","[""弱我"",""强他"",""强我"",""弱他""]","","","","","","","","yes","","","","","","","","","SRET","EW_formal","","key","f","6.083972868217199","768","428","自己","忠勇","Positive","morality","","","","","","","","","",""
"499","","f","psychophysics","39","533836","0.0-7.0-3.0-0.25","4","3","4","3","3","4","3","4","3","4","5","1","1","0","2","0","1","1","0","4","3","2","1","4","3","4","4","4","3","7","7","6","5","5","6","5","6","5","5","2","5","2","5","2","5","2","5","2","5","2","5","4","6","3","6","3","4","3","5","4","3","3","4","5","5","3","6","6","5","6","5","4","5","5","6","2","5","3","732226150302224385","李","Male","[""坏我"",""好他"",""好我"",""坏他""]","[""弱我"",""强他"",""强我"",""弱他""]","","","","","","","","yes","","","","","","","","","SRET","EW_formal","","key","f","6.110249999999813","768","428","朋友","精干","Positive","ability","","","","","","","","","",""
"1595","","j","psychophysics","40","536433","0.0-7.0-3.0-0.26","4","3","4","3","3","4","3","4","3","4","5","1","1","0","2","0","1","1","0","4","3","2","1","4","3","4","4","4","3","7","7","6","5","5","6","5","6","5","5","2","5","2","5","2","5","2","5","2","5","2","5","4","6","3","6","3","4","3","5","4","3","3","4","5","5","3","6","6","5","6","5","4","5","5","6","2","5","3","732226150302224385","李","Male","[""坏我"",""好他"",""好我"",""坏他""]","[""弱我"",""强他"",""强我"",""弱他""]","","","","","","","","no","","","","","","","","","SRET","EW_formal","","key","j","6.146343601895695","768","428","自己","腐败","Negative","morality","","","","","","","","","",""
"914","","j","psychophysics","41","538347","0.0-7.0-3.0-0.27","4","3","4","3","3","4","3","4","3","4","5","1","1","0","2","0","1","1","0","4","3","2","1","4","3","4","4","4","3","7","7","6","5","5","6","5","6","5","5","2","5","2","5","2","5","2","5","2","5","2","5","4","6","3","6","3","4","3","5","4","3","3","4","5","5","3","6","6","5","6","5","4","5","5","6","2","5","3","732226150302224385","李","Male","[""坏我"",""好他"",""好我"",""坏他""]","[""弱我"",""强他"",""强我"",""弱他""]","","","","","","","","no","","","","","","","","","SRET","EW_formal","","key","j","6.138327974276213","768","428","朋友","愚钝","Negative","ability","","","","","","","","","",""
"534","","f","psychophysics","42","539882","0.0-7.0-3.0-0.28","4","3","4","3","3","4","3","4","3","4","5","1","1","0","2","0","1","1","0","4","3","2","1","4","3","4","4","4","3","7","7","6","5","5","6","5","6","5","5","2","5","2","5","2","5","2","5","2","5","2","5","4","6","3","6","3","4","3","5","4","3","3","4","5","5","3","6","6","5","6","5","4","5","5","6","2","5","3","732226150302224385","李","Male","[""坏我"",""好他"",""好我"",""坏他""]","[""弱我"",""强他"",""强我"",""弱他""]","","","","","","","","yes","","","","","","","","","SRET","EW_formal","","key","f","6.1836356275303945","768","428","自己","敏捷","Positive","ability","","","","","","","","","",""
"626","","f","psychophysics","43","541509","0.0-7.0-3.0-0.29","4","3","4","3","3","4","3","4","3","4","5","1","1","0","2","0","1","1","0","4","3","2","1","4","3","4","4","4","3","7","7","6","5","5","6","5","6","5","5","2","5","2","5","2","5","2","5","2","5","2","5","4","6","3","6","3","4","3","5","4","3","3","4","5","5","3","6","6","5","6","5","4","5","5","6","2","5","3","732226150302224385","李","Male","[""坏我"",""好他"",""好我"",""坏他""]","[""弱我"",""强他"",""强我"",""弱他""]","","","","","","","","yes","","","","","","","","","SRET","EW_formal","","key","f","6.153420454545554","768","428","朋友","君子","Positive","morality","","","","","","","","","",""
"870","","j","psychophysics","44","543381","0.0-7.0-3.0-0.30","4","3","4","3","3","4","3","4","3","4","5","1","1","0","2","0","1","1","0","4","3","2","1","4","3","4","4","4","3","7","7","6","5","5","6","5","6","5","5","2","5","2","5","2","5","2","5","2","5","2","5","4","6","3","6","3","4","3","5","4","3","3","4","5","5","3","6","6","5","6","5","4","5","5","6","2","5","3","732226150302224385","李","Male","[""坏我"",""好他"",""好我"",""坏他""]","[""弱我"",""强他"",""强我"",""弱他""]","","","","","","","","no","","","","","","","","","SRET","EW_formal","","key","j","6.079983713354837","768","428","朋友","无赖","Negative","morality","","","","","","","","","",""
"5080","","f","psychophysics","45","549461","0.0-7.0-3.0-0.31","4","3","4","3","3","4","3","4","3","4","5","1","1","0","2","0","1","1","0","4","3","2","1","4","3","4","4","4","3","7","7","6","5","5","6","5","6","5","5","2","5","2","5","2","5","2","5","2","5","2","5","4","6","3","6","3","4","3","5","4","3","3","4","5","5","3","6","6","5","6","5","4","5","5","6","2","5","3","732226150302224385","李","Male","[""坏我"",""好他"",""好我"",""坏他""]","[""弱我"",""强他"",""强我"",""弱他""]","","","","","","","","yes","","","","","","","","","SRET","EW_formal","","key","f","6.066595404595415","768","428","朋友","中用","Positive","ability","","","","","","","","","",""
"14013","","j","psychophysics","46","564477","0.0-7.0-3.0-0.32","4","3","4","3","3","4","3","4","3","4","5","1","1","0","2","0","1","1","0","4","3","2","1","4","3","4","4","4","3","7","7","6","5","5","6","5","6","5","5","2","5","2","5","2","5","2","5","2","5","2","5","4","6","3","6","3","4","3","5","4","3","3","4","5","5","3","6","6","5","6","5","4","5","5","6","2","5","3","732226150302224385","李","Male","[""坏我"",""好他"",""好我"",""坏他""]","[""弱我"",""强他"",""强我"",""弱他""]","","","","","","","","no","","","","","","","","","SRET","EW_formal","","key","j","6.09472269589932","768","428","朋友","诡诈","Negative","morality","","","","","","","","","",""
"2578","","f","psychophysics","47","568055","0.0-7.0-3.0-0.33","4","3","4","3","3","4","3","4","3","4","5","1","1","0","2","0","1","1","0","4","3","2","1","4","3","4","4","4","3","7","7","6","5","5","6","5","6","5","5","2","5","2","5","2","5","2","5","2","5","2","5","4","6","3","6","3","4","3","5","4","3","3","4","5","5","3","6","6","5","6","5","4","5","5","6","2","5","3","732226150302224385","李","Male","[""坏我"",""好他"",""好我"",""坏他""]","[""弱我"",""强他"",""强我"",""弱他""]","","","","","","","","yes","","","","","","","","","SRET","EW_formal","","key","f","6.1122397260273145","768","428","自己","思辨","Positive","ability","","","","","","","","","",""
"2303","","j","psychophysics","48","571359","0.0-7.0-3.0-0.34","4","3","4","3","3","4","3","4","3","4","5","1","1","0","2","0","1","1","0","4","3","2","1","4","3","4","4","4","3","7","7","6","5","5","6","5","6","5","5","2","5","2","5","2","5","2","5","2","5","2","5","4","6","3","6","3","4","3","5","4","3","3","4","5","5","3","6","6","5","6","5","4","5","5","6","2","5","3","732226150302224385","李","Male","[""坏我"",""好他"",""好我"",""坏他""]","[""弱我"",""强他"",""强我"",""弱他""]","","","","","","","","no","","","","","","","","","SRET","EW_formal","","key","j","6.139288640595813","768","428","朋友","低劣","Negative","morality","","","","","","","","","",""
"1781","","j","psychophysics","49","574141","0.0-7.0-3.0-0.35","4","3","4","3","3","4","3","4","3","4","5","1","1","0","2","0","1","1","0","4","3","2","1","4","3","4","4","4","3","7","7","6","5","5","6","5","6","5","5","2","5","2","5","2","5","2","5","2","5","2","5","4","6","3","6","3","4","3","5","4","3","3","4","5","5","3","6","6","5","6","5","4","5","5","6","2","5","3","732226150302224385","李","Male","[""坏我"",""好他"",""好我"",""坏他""]","[""弱我"",""强他"",""强我"",""弱他""]","","","","","","","","no","","","","","","","","","SRET","EW_formal","","key","j","6.060777292576441","768","428","自己","盲目","Negative","ability","","","","","","","","","",""
"2330","","j","psychophysics","50","577472","0.0-7.0-3.0-0.36","4","3","4","3","3","4","3","4","3","4","5","1","1","0","2","0","1","1","0","4","3","2","1","4","3","4","4","4","3","7","7","6","5","5","6","5","6","5","5","2","5","2","5","2","5","2","5","2","5","2","5","4","6","3","6","3","4","3","5","4","3","3","4","5","5","3","6","6","5","6","5","4","5","5","6","2","5","3","732226150302224385","李","Male","[""坏我"",""好他"",""好我"",""坏他""]","[""弱我"",""强他"",""强我"",""弱他""]","","","","","","","","no","","","","","","","","","SRET","EW_formal","","key","j","6.071421532846866","768","428","朋友","笨蛋","Negative","ability","","","","","","","","","",""
"1553","","j","psychophysics","51","580025","0.0-7.0-3.0-0.37","4","3","4","3","3","4","3","4","3","4","5","1","1","0","2","0","1","1","0","4","3","2","1","4","3","4","4","4","3","7","7","6","5","5","6","5","6","5","5","2","5","2","5","2","5","2","5","2","5","2","5","4","6","3","6","3","4","3","5","4","3","3","4","5","5","3","6","6","5","6","5","4","5","5","6","2","5","3","732226150302224385","李","Male","[""坏我"",""好他"",""好我"",""坏他""]","[""弱我"",""强他"",""强我"",""弱他""]","","","","","","","","no","","","","","","","","","SRET","EW_formal","","key","j","6.059833333333344","768","428","自己","背叛","Negative","morality","","","","","","","","","",""
"2351","","j","psychophysics","52","583377","0.0-7.0-3.0-0.38","4","3","4","3","3","4","3","4","3","4","5","1","1","0","2","0","1","1","0","4","3","2","1","4","3","4","4","4","3","7","7","6","5","5","6","5","6","5","5","2","5","2","5","2","5","2","5","2","5","2","5","4","6","3","6","3","4","3","5","4","3","3","4","5","5","3","6","6","5","6","5","4","5","5","6","2","5","3","732226150302224385","李","Male","[""坏我"",""好他"",""好我"",""坏他""]","[""弱我"",""强他"",""强我"",""弱他""]","","","","","","","","no","","","","","","","","","SRET","EW_formal","","key","j","6.071092558983703","768","428","自己","迂拙","Negative","ability","","","","","","","","","",""
"1865","","j","psychophysics","53","586244","0.0-7.0-3.0-0.39","4","3","4","3","3","4","3","4","3","4","5","1","1","0","2","0","1","1","0","4","3","2","1","4","3","4","4","4","3","7","7","6","5","5","6","5","6","5","5","2","5","2","5","2","5","2","5","2","5","2","5","4","6","3","6","3","4","3","5","4","3","3","4","5","5","3","6","6","5","6","5","4","5","5","6","2","5","3","732226150302224385","李","Male","[""坏我"",""好他"",""好我"",""坏他""]","[""弱我"",""强他"",""强我"",""弱他""]","","","","","","","","no","","","","","","","","","SRET","EW_formal","","key","j","6.125218415417712","768","428","朋友","贪腐","Negative","morality","","","","","","","","","",""
"1574","","j","psychophysics","54","588818","0.0-7.0-3.0-0.40","4","3","4","3","3","4","3","4","3","4","5","1","1","0","2","0","1","1","0","4","3","2","1","4","3","4","4","4","3","7","7","6","5","5","6","5","6","5","5","2","5","2","5","2","5","2","5","2","5","2","5","4","6","3","6","3","4","3","5","4","3","3","4","5","5","3","6","6","5","6","5","4","5","5","6","2","5","3","732226150302224385","李","Male","[""坏我"",""好他"",""好我"",""坏他""]","[""弱我"",""强他"",""强我"",""弱他""]","","","","","","","","no","","","","","","","","","SRET","EW_formal","","key","j","6.07460756501184","768","428","自己","奸诈","Negative","morality","","","","","","","","","",""
"1487","","f","psychophysics","55","591307","0.0-7.0-3.0-0.41","4","3","4","3","3","4","3","4","3","4","5","1","1","0","2","0","1","1","0","4","3","2","1","4","3","4","4","4","3","7","7","6","5","5","6","5","6","5","5","2","5","2","5","2","5","2","5","2","5","2","5","4","6","3","6","3","4","3","5","4","3","3","4","5","5","3","6","6","5","6","5","4","5","5","6","2","5","3","732226150302224385","李","Male","[""坏我"",""好他"",""好我"",""坏他""]","[""弱我"",""强他"",""强我"",""弱他""]","","","","","","","","yes","","","","","","","","","SRET","EW_formal","","key","f","6.089919117647144","768","428","自己","沉着","Positive","ability","","","","","","","","","",""
"1035","","f","psychophysics","56","593343","0.0-7.0-3.0-0.42","4","3","4","3","3","4","3","4","3","4","5","1","1","0","2","0","1","1","0","4","3","2","1","4","3","4","4","4","3","7","7","6","5","5","6","5","6","5","5","2","5","2","5","2","5","2","5","2","5","2","5","4","6","3","6","3","4","3","5","4","3","3","4","5","5","3","6","6","5","6","5","4","5","5","6","2","5","3","732226150302224385","李","Male","[""坏我"",""好他"",""好我"",""坏他""]","[""弱我"",""强他"",""强我"",""弱他""]","","","","","","","","yes","","","","","","","","","SRET","EW_formal","","key","f","6.0782155688621335","768","428","自己","全才","Positive","ability","","","","","","","","","",""
"1139","","j","psychophysics","57","595483","0.0-7.0-3.0-0.43","4","3","4","3","3","4","3","4","3","4","5","1","1","0","2","0","1","1","0","4","3","2","1","4","3","4","4","4","3","7","7","6","5","5","6","5","6","5","5","2","5","2","5","2","5","2","5","2","5","2","5","4","6","3","6","3","4","3","5","4","3","3","4","5","5","3","6","6","5","6","5","4","5","5","6","2","5","3","732226150302224385","李","Male","[""坏我"",""好他"",""好我"",""坏他""]","[""弱我"",""强他"",""强我"",""弱他""]","","","","","","","","no","","","","","","","","","SRET","EW_formal","","key","j","6.081826210826266","768","428","自己","歹毒","Negative","morality","","","","","","","","","",""
"1261","","f","psychophysics","58","597746","0.0-7.0-3.0-0.44","4","3","4","3","3","4","3","4","3","4","5","1","1","0","2","0","1","1","0","4","3","2","1","4","3","4","4","4","3","7","7","6","5","5","6","5","6","5","5","2","5","2","5","2","5","2","5","2","5","2","5","4","6","3","6","3","4","3","5","4","3","3","4","5","5","3","6","6","5","6","5","4","5","5","6","2","5","3","732226150302224385","李","Male","[""坏我"",""好他"",""好我"",""坏他""]","[""弱我"",""强他"",""强我"",""弱他""]","","","","","","","","yes","","","","","","","","","SRET","EW_formal","","key","f","6.060196236559247","768","428","朋友","清廉","Positive","morality","","","","","","","","","",""
"1311","","j","psychophysics","59","600058","0.0-7.0-3.0-0.45","4","3","4","3","3","4","3","4","3","4","5","1","1","0","2","0","1","1","0","4","3","2","1","4","3","4","4","4","3","7","7","6","5","5","6","5","6","5","5","2","5","2","5","2","5","2","5","2","5","2","5","4","6","3","6","3","4","3","5","4","3","3","4","5","5","3","6","6","5","6","5","4","5","5","6","2","5","3","732226150302224385","李","Male","[""坏我"",""好他"",""好我"",""坏他""]","[""弱我"",""强他"",""强我"",""弱他""]","","","","","","","","no","","","","","","","","","SRET","EW_formal","","key","j","6.085356200527643","768","428","自己","外行","Negative","ability","","","","","","","","","",""
"1098","","f","psychophysics","60","602156","0.0-7.0-3.0-0.46","4","3","4","3","3","4","3","4","3","4","5","1","1","0","2","0","1","1","0","4","3","2","1","4","3","4","4","4","3","7","7","6","5","5","6","5","6","5","5","2","5","2","5","2","5","2","5","2","5","2","5","4","6","3","6","3","4","3","5","4","3","3","4","5","5","3","6","6","5","6","5","4","5","5","6","2","5","3","732226150302224385","李","Male","[""坏我"",""好他"",""好我"",""坏他""]","[""弱我"",""强他"",""强我"",""弱他""]","","","","","","","","yes","","","","","","","","","SRET","EW_formal","","key","f","6.096492711370119","768","428","自己","守信","Positive","morality","","","","","","","","","",""
"1077","","f","psychophysics","61","604234","0.0-7.0-3.0-0.47","4","3","4","3","3","4","3","4","3","4","5","1","1","0","2","0","1","1","0","4","3","2","1","4","3","4","4","4","3","7","7","6","5","5","6","5","6","5","5","2","5","2","5","2","5","2","5","2","5","2","5","4","6","3","6","3","4","3","5","4","3","3","4","5","5","3","6","6","5","6","5","4","5","5","6","2","5","3","732226150302224385","李","Male","[""坏我"",""好他"",""好我"",""坏他""]","[""弱我"",""强他"",""强我"",""弱他""]","","","","","","","","yes","","","","","","","","","SRET","EW_formal","","key","f","6.096604719763872","768","428","朋友","好心","Positive","morality","","","","","","","","","",""
"1628","","j","psychophysics","62","606863","0.0-7.0-3.0-0.48","4","3","4","3","3","4","3","4","3","4","5","1","1","0","2","0","1","1","0","4","3","2","1","4","3","4","4","4","3","7","7","6","5","5","6","5","6","5","5","2","5","2","5","2","5","2","5","2","5","2","5","4","6","3","6","3","4","3","5","4","3","3","4","5","5","3","6","6","5","6","5","4","5","5","6","2","5","3","732226150302224385","李","Male","[""坏我"",""好他"",""好我"",""坏他""]","[""弱我"",""强他"",""强我"",""弱他""]","","","","","","","","no","","","","","","","","","SRET","EW_formal","","key","j","6.116395348837318","768","428","朋友","迟钝","Negative","ability","","","","","","","","","",""
"2969","","j","psychophysics","63","610833","0.0-7.0-3.0-0.49","4","3","4","3","3","4","3","4","3","4","5","1","1","0","2","0","1","1","0","4","3","2","1","4","3","4","4","4","3","7","7","6","5","5","6","5","6","5","5","2","5","2","5","2","5","2","5","2","5","2","5","4","6","3","6","3","4","3","5","4","3","3","4","5","5","3","6","6","5","6","5","4","5","5","6","2","5","3","732226150302224385","李","Male","[""坏我"",""好他"",""好我"",""坏他""]","[""弱我"",""强他"",""强我"",""弱他""]","","","","","","","","no","","","","","","","","","SRET","EW_formal","","key","j","6.163936236391857","768","428","朋友","无知","Negative","ability","","","","","","","","","",""
"1706","","f","psychophysics","64","613540","0.0-7.0-3.0-0.50","4","3","4","3","3","4","3","4","3","4","5","1","1","0","2","0","1","1","0","4","3","2","1","4","3","4","4","4","3","7","7","6","5","5","6","5","6","5","5","2","5","2","5","2","5","2","5","2","5","2","5","4","6","3","6","3","4","3","5","4","3","3","4","5","5","3","6","6","5","6","5","4","5","5","6","2","5","3","732226150302224385","李","Male","[""坏我"",""好他"",""好我"",""坏他""]","[""弱我"",""强他"",""强我"",""弱他""]","","","","","","","","yes","","","","","","","","","SRET","EW_formal","","key","f","6.129272727272737","768","428","自己","自律","Positive","ability","","","","","","","","","",""
"1107","","j","psychophysics","65","615649","0.0-7.0-3.0-0.51","4","3","4","3","3","4","3","4","3","4","5","1","1","0","2","0","1","1","0","4","3","2","1","4","3","4","4","4","3","7","7","6","5","5","6","5","6","5","5","2","5","2","5","2","5","2","5","2","5","2","5","4","6","3","6","3","4","3","5","4","3","3","4","5","5","3","6","6","5","6","5","4","5","5","6","2","5","3","732226150302224385","李","Male","[""坏我"",""好他"",""好我"",""坏他""]","[""弱我"",""强他"",""强我"",""弱他""]","","","","","","","","no","","","","","","","","","SRET","EW_formal","","key","j","6.0559596541788565","768","428","自己","贪污","Negative","morality","","","","","","","","","",""
"3919","","f","psychophysics","66","620569","0.0-7.0-3.0-0.52","4","3","4","3","3","4","3","4","3","4","5","1","1","0","2","0","1","1","0","4","3","2","1","4","3","4","4","4","3","7","7","6","5","5","6","5","6","5","5","2","5","2","5","2","5","2","5","2","5","2","5","4","6","3","6","3","4","3","5","4","3","3","4","5","5","3","6","6","5","6","5","4","5","5","6","2","5","3","732226150302224385","李","Male","[""坏我"",""好他"",""好我"",""坏他""]","[""弱我"",""强他"",""强我"",""弱他""]","","","","","","","","yes","","","","","","","","","SRET","EW_formal","","key","f","6.0676629629629995","768","428","朋友","仗义","Positive","morality","","","","","","","","","",""
"1235","","j","psychophysics","67","622806","0.0-7.0-3.0-0.53","4","3","4","3","3","4","3","4","3","4","5","1","1","0","2","0","1","1","0","4","3","2","1","4","3","4","4","4","3","7","7","6","5","5","6","5","6","5","5","2","5","2","5","2","5","2","5","2","5","2","5","4","6","3","6","3","4","3","5","4","3","3","4","5","5","3","6","6","5","6","5","4","5","5","6","2","5","3","732226150302224385","李","Male","[""坏我"",""好他"",""好我"",""坏他""]","[""弱我"",""强他"",""强我"",""弱他""]","","","","","","","","no","","","","","","","","","SRET","EW_formal","","key","j","6.0603288043478285","768","428","自己","缺德","Negative","morality","","","","","","","","","",""
"1014","","f","psychophysics","68","624823","0.0-7.0-3.0-0.54","4","3","4","3","3","4","3","4","3","4","5","1","1","0","2","0","1","1","0","4","3","2","1","4","3","4","4","4","3","7","7","6","5","5","6","5","6","5","5","2","5","2","5","2","5","2","5","2","5","2","5","4","6","3","6","3","4","3","5","4","3","3","4","5","5","3","6","6","5","6","5","4","5","5","6","2","5","3","732226150302224385","李","Male","[""坏我"",""好他"",""好我"",""坏他""]","[""弱我"",""强他"",""强我"",""弱他""]","","","","","","","","yes","","","","","","","","","SRET","EW_formal","","key","f","6.078773413897348","768","428","朋友","依靠","Negative","ability","","","","","","","","","",""
"1239","","j","psychophysics","69","627063","0.0-7.0-3.0-0.55","4","3","4","3","3","4","3","4","3","4","5","1","1","0","2","0","1","1","0","4","3","2","1","4","3","4","4","4","3","7","7","6","5","5","6","5","6","5","5","2","5","2","5","2","5","2","5","2","5","2","5","4","6","3","6","3","4","3","5","4","3","3","4","5","5","3","6","6","5","6","5","4","5","5","6","2","5","3","732226150302224385","李","Male","[""坏我"",""好他"",""好我"",""坏他""]","[""弱我"",""强他"",""强我"",""弱他""]","","","","","","","","no","","","","","","","","","SRET","EW_formal","","key","j","6.0768478260870324","768","428","朋友","不良","Negative","morality","","","","","","","","","",""
"1473","","j","psychophysics","70","629537","0.0-7.0-3.0-0.56","4","3","4","3","3","4","3","4","3","4","5","1","1","0","2","0","1","1","0","4","3","2","1","4","3","4","4","4","3","7","7","6","5","5","6","5","6","5","5","2","5","2","5","2","5","2","5","2","5","2","5","4","6","3","6","3","4","3","5","4","3","3","4","5","5","3","6","6","5","6","5","4","5","5","6","2","5","3","732226150302224385","李","Male","[""坏我"",""好他"",""好我"",""坏他""]","[""弱我"",""强他"",""强我"",""弱他""]","","","","","","","","no","","","","","","","","","SRET","EW_formal","","key","j","6.0755246305420165","768","428","自己","无敌","Positive","ability","","","","","","","","","",""
"1356","","f","psychophysics","71","631895","0.0-7.0-3.0-0.57","4","3","4","3","3","4","3","4","3","4","5","1","1","0","2","0","1","1","0","4","3","2","1","4","3","4","4","4","3","7","7","6","5","5","6","5","6","5","5","2","5","2","5","2","5","2","5","2","5","2","5","4","6","3","6","3","4","3","5","4","3","3","4","5","5","3","6","6","5","6","5","4","5","5","6","2","5","3","732226150302224385","李","Male","[""坏我"",""好他"",""好我"",""坏他""]","[""弱我"",""强他"",""强我"",""弱他""]","","","","","","","","yes","","","","","","","","","SRET","EW_formal","","key","f","6.060407216494757","768","428","自己","淡泊","Positive","morality","","","","","","","","","",""
"1101","","f","psychophysics","72","633996","0.0-7.0-3.0-0.58","4","3","4","3","3","4","3","4","3","4","5","1","1","0","2","0","1","1","0","4","3","2","1","4","3","4","4","4","3","7","7","6","5","5","6","5","6","5","5","2","5","2","5","2","5","2","5","2","5","2","5","4","6","3","6","3","4","3","5","4","3","3","4","5","5","3","6","6","5","6","5","4","5","5","6","2","5","3","732226150302224385","李","Male","[""坏我"",""好他"",""好我"",""坏他""]","[""弱我"",""强他"",""强我"",""弱他""]","","","","","","","","yes","","","","","","","","","SRET","EW_formal","","key","f","6.060713872832322","768","428","朋友","刻苦","Positive","ability","","","","","","","","","",""
"1064","","f","psychophysics","73","636061","0.0-7.0-3.0-0.59","4","3","4","3","3","4","3","4","3","4","5","1","1","0","2","0","1","1","0","4","3","2","1","4","3","4","4","4","3","7","7","6","5","5","6","5","6","5","5","2","5","2","5","2","5","2","5","2","5","2","5","4","6","3","6","3","4","3","5","4","3","3","4","5","5","3","6","6","5","6","5","4","5","5","6","2","5","3","732226150302224385","李","Male","[""坏我"",""好他"",""好我"",""坏他""]","[""弱我"",""强他"",""强我"",""弱他""]","","","","","","","","yes","","","","","","","","","SRET","EW_formal","","key","f","6.059808823529302","768","428","自己","守法","Positive","morality","","","","","","","","","",""
"1089","","j","psychophysics","74","638152","0.0-7.0-3.0-0.60","4","3","4","3","3","4","3","4","3","4","5","1","1","0","2","0","1","1","0","4","3","2","1","4","3","4","4","4","3","7","7","6","5","5","6","5","6","5","5","2","5","2","5","2","5","2","5","2","5","2","5","4","6","3","6","3","4","3","5","4","3","3","4","5","5","3","6","6","5","6","5","4","5","5","6","2","5","3","732226150302224385","李","Male","[""坏我"",""好他"",""好我"",""坏他""]","[""弱我"",""强他"",""强我"",""弱他""]","","","","","","","","no","","","","","","","","","SRET","EW_formal","","key","j","6.114073313783262","768","428","朋友","新手","Negative","ability","","","","","","","","","",""
"1011","","j","psychophysics","75","640164","0.0-7.0-3.0-0.61","4","3","4","3","3","4","3","4","3","4","5","1","1","0","2","0","1","1","0","4","3","2","1","4","3","4","4","4","3","7","7","6","5","5","6","5","6","5","5","2","5","2","5","2","5","2","5","2","5","2","5","4","6","3","6","3","4","3","5","4","3","3","4","5","5","3","6","6","5","6","5","4","5","5","6","2","5","3","732226150302224385","李","Male","[""坏我"",""好他"",""好我"",""坏他""]","[""弱我"",""强他"",""强我"",""弱他""]","","","","","","","","no","","","","","","","","","SRET","EW_formal","","key","j","6.078606060606244","768","428","自己","下流","Negative","morality","","","","","","","","","",""
"1835","","j","psychophysics","76","643000","0.0-7.0-3.0-0.62","4","3","4","3","3","4","3","4","3","4","5","1","1","0","2","0","1","1","0","4","3","2","1","4","3","4","4","4","3","7","7","6","5","5","6","5","6","5","5","2","5","2","5","2","5","2","5","2","5","2","5","4","6","3","6","3","4","3","5","4","3","3","4","5","5","3","6","6","5","6","5","4","5","5","6","2","5","3","732226150302224385","李","Male","[""坏我"",""好他"",""好我"",""坏他""]","[""弱我"",""强他"",""强我"",""弱他""]","","","","","","","","no","","","","","","","","","SRET","EW_formal","","key","j","6.099172413792985","768","428","朋友","拖延","Negative","ability","","","","","","","","","",""
"3717","","j","psychophysics","77","647718","0.0-7.0-3.0-0.63","4","3","4","3","3","4","3","4","3","4","5","1","1","0","2","0","1","1","0","4","3","2","1","4","3","4","4","4","3","7","7","6","5","5","6","5","6","5","5","2","5","2","5","2","5","2","5","2","5","2","5","4","6","3","6","3","4","3","5","4","3","3","4","5","5","3","6","6","5","6","5","4","5","5","6","2","5","3","732226150302224385","李","Male","[""坏我"",""好他"",""好我"",""坏他""]","[""弱我"",""强他"",""强我"",""弱他""]","","","","","","","","no","","","","","","","","","SRET","EW_formal","","key","j","6.067949742267956","768","428","朋友","刻薄","Negative","morality","","","","","","","","","",""
"3049","","f","psychophysics","78","651768","0.0-7.0-3.0-0.64","4","3","4","3","3","4","3","4","3","4","5","1","1","0","2","0","1","1","0","4","3","2","1","4","3","4","4","4","3","7","7","6","5","5","6","5","6","5","5","2","5","2","5","2","5","2","5","2","5","2","5","4","6","3","6","3","4","3","5","4","3","3","4","5","5","3","6","6","5","6","5","4","5","5","6","2","5","3","732226150302224385","李","Male","[""坏我"",""好他"",""好我"",""坏他""]","[""弱我"",""强他"",""强我"",""弱他""]","","","","","","","","yes","","","","","","","","","SRET","EW_formal","","key","f","6.082807228915746","768","428","朋友","努力","Positive","ability","","","","","","","","","",""
"1127","","f","psychophysics","79","653896","0.0-7.0-3.0-0.65","4","3","4","3","3","4","3","4","3","4","5","1","1","0","2","0","1","1","0","4","3","2","1","4","3","4","4","4","3","7","7","6","5","5","6","5","6","5","5","2","5","2","5","2","5","2","5","2","5","2","5","4","6","3","6","3","4","3","5","4","3","3","4","5","5","3","6","6","5","6","5","4","5","5","6","2","5","3","732226150302224385","李","Male","[""坏我"",""好他"",""好我"",""坏他""]","[""弱我"",""强他"",""强我"",""弱他""]","","","","","","","","yes","","","","","","","","","SRET","EW_formal","","key","f","6.094865329512915","768","428","朋友","利落","Positive","ability","","","","","","","","","",""
"3275","","j","psychophysics","80","658173","0.0-7.0-3.0-0.66","4","3","4","3","3","4","3","4","3","4","5","1","1","0","2","0","1","1","0","4","3","2","1","4","3","4","4","4","3","7","7","6","5","5","6","5","6","5","5","2","5","2","5","2","5","2","5","2","5","2","5","4","6","3","6","3","4","3","5","4","3","3","4","5","5","3","6","6","5","6","5","4","5","5","6","2","5","3","732226150302224385","李","Male","[""坏我"",""好他"",""好我"",""坏他""]","[""弱我"",""强他"",""强我"",""弱他""]","","","","","","","","no","","","","","","","","","SRET","EW_formal","","key","j","6.10371530758239","768","428","自己","畏难","Negative","ability","","","","","","","","","",""
"1264","","f","psychophysics","81","660438","0.0-7.0-3.0-0.67","4","3","4","3","3","4","3","4","3","4","5","1","1","0","2","0","1","1","0","4","3","2","1","4","3","4","4","4","3","7","7","6","5","5","6","5","6","5","5","2","5","2","5","2","5","2","5","2","5","2","5","4","6","3","6","3","4","3","5","4","3","3","4","5","5","3","6","6","5","6","5","4","5","5","6","2","5","3","732226150302224385","李","Male","[""坏我"",""好他"",""好我"",""坏他""]","[""弱我"",""强他"",""强我"",""弱他""]","","","","","","","","yes","","","","","","","","","SRET","EW_formal","","key","f","6.092967654986626","768","428","朋友","爱国","Positive","morality","","","","","","","","","",""
"3321","","j","psychophysics","82","664760","0.0-7.0-3.0-0.68","4","3","4","3","3","4","3","4","3","4","5","1","1","0","2","0","1","1","0","4","3","2","1","4","3","4","4","4","3","7","7","6","5","5","6","5","6","5","5","2","5","2","5","2","5","2","5","2","5","2","5","4","6","3","6","3","4","3","5","4","3","3","4","5","5","3","6","6","5","6","5","4","5","5","6","2","5","3","732226150302224385","李","Male","[""坏我"",""好他"",""好我"",""坏他""]","[""弱我"",""强他"",""强我"",""弱他""]","","","","","","","","no","","","","","","","","","SRET","EW_formal","","key","j","6.08575599435822","768","428","朋友","草率","Negative","ability","","","","","","","","","",""
"583","","f","psychophysics","83","666344","0.0-7.0-3.0-0.69","4","3","4","3","3","4","3","4","3","4","5","1","1","0","2","0","1","1","0","4","3","2","1","4","3","4","4","4","3","7","7","6","5","5","6","5","6","5","5","2","5","2","5","2","5","2","5","2","5","2","5","4","6","3","6","3","4","3","5","4","3","3","4","5","5","3","6","6","5","6","5","4","5","5","6","2","5","3","732226150302224385","李","Male","[""坏我"",""好他"",""好我"",""坏他""]","[""弱我"",""强他"",""强我"",""弱他""]","","","","","","","","yes","","","","","","","","","SRET","EW_formal","","key","f","6.107567567567513","768","428","自己","刚正","Positive","morality","","","","","","","","","",""
"617","","f","psychophysics","84","667962","0.0-7.0-3.0-0.70","4","3","4","3","3","4","3","4","3","4","5","1","1","0","2","0","1","1","0","4","3","2","1","4","3","4","4","4","3","7","7","6","5","5","6","5","6","5","5","2","5","2","5","2","5","2","5","2","5","2","5","4","6","3","6","3","4","3","5","4","3","3","4","5","5","3","6","6","5","6","5","4","5","5","6","2","5","3","732226150302224385","李","Male","[""坏我"",""好他"",""好我"",""坏他""]","[""弱我"",""强他"",""强我"",""弱他""]","","","","","","","","yes","","","","","","","","","SRET","EW_formal","","key","f","6.060308270676751","768","428","自己","周到","Positive","ability","","","","","","","","","",""
"754","","f","psychophysics","85","669717","0.0-7.0-3.0-0.71","4","3","4","3","3","4","3","4","3","4","5","1","1","0","2","0","1","1","0","4","3","2","1","4","3","4","4","4","3","7","7","6","5","5","6","5","6","5","5","2","5","2","5","2","5","2","5","2","5","2","5","4","6","3","6","3","4","3","5","4","3","3","4","5","5","3","6","6","5","6","5","4","5","5","6","2","5","3","732226150302224385","李","Male","[""坏我"",""好他"",""好我"",""坏他""]","[""弱我"",""强他"",""强我"",""弱他""]","","","","","","","","yes","","","","","","","","","SRET","EW_formal","","key","f","6.081400696863988","768","428","自己","慷慨","Positive","morality","","","","","","","","","",""
"3791","","j","psychophysics","86","674509","0.0-7.0-3.0-0.72","4","3","4","3","3","4","3","4","3","4","5","1","1","0","2","0","1","1","0","4","3","2","1","4","3","4","4","4","3","7","7","6","5","5","6","5","6","5","5","2","5","2","5","2","5","2","5","2","5","2","5","4","6","3","6","3","4","3","5","4","3","3","4","5","5","3","6","6","5","6","5","4","5","5","6","2","5","3","732226150302224385","李","Male","[""坏我"",""好他"",""好我"",""坏他""]","[""弱我"",""强他"",""强我"",""弱他""]","","","","","","","","no","","","","","","","","","SRET","EW_formal","","key","j","6.122540332906564","768","428","朋友","短视","Negative","ability","","","","","","","","","",""
"550","","f","psychophysics","87","676059","0.0-7.0-3.0-0.73","4","3","4","3","3","4","3","4","3","4","5","1","1","0","2","0","1","1","0","4","3","2","1","4","3","4","4","4","3","7","7","6","5","5","6","5","6","5","5","2","5","2","5","2","5","2","5","2","5","2","5","4","6","3","6","3","4","3","5","4","3","3","4","5","5","3","6","6","5","6","5","4","5","5","6","2","5","3","732226150302224385","李","Male","[""坏我"",""好他"",""好我"",""坏他""]","[""弱我"",""强他"",""强我"",""弱他""]","","","","","","","","yes","","","","","","","","","SRET","EW_formal","","key","f","6.07326666666697","768","428","自己","高尚","Positive","morality","","","","","","","","","",""
"1271","","j","psychophysics","88","678331","0.0-7.0-3.0-0.74","4","3","4","3","3","4","3","4","3","4","5","1","1","0","2","0","1","1","0","4","3","2","1","4","3","4","4","4","3","7","7","6","5","5","6","5","6","5","5","2","5","2","5","2","5","2","5","2","5","2","5","4","6","3","6","3","4","3","5","4","3","3","4","5","5","3","6","6","5","6","5","4","5","5","6","2","5","3","732226150302224385","李","Male","[""坏我"",""好他"",""好我"",""坏他""]","[""弱我"",""强他"",""强我"",""弱他""]","","","","","","","","no","","","","","","","","","SRET","EW_formal","","key","j","6.093153225806584","768","428","自己","差生","Negative","ability","","","","","","","","","",""
"1465","","j","psychophysics","89","680797","0.0-7.0-3.0-0.75","4","3","4","3","3","4","3","4","3","4","5","1","1","0","2","0","1","1","0","4","3","2","1","4","3","4","4","4","3","7","7","6","5","5","6","5","6","5","5","2","5","2","5","2","5","2","5","2","5","2","5","4","6","3","6","3","4","3","5","4","3","3","4","5","5","3","6","6","5","6","5","4","5","5","6","2","5","3","732226150302224385","李","Male","[""坏我"",""好他"",""好我"",""坏他""]","[""弱我"",""强他"",""强我"",""弱他""]","","","","","","","","no","","","","","","","","","SRET","EW_formal","","key","j","6.090687344913202","768","428","自己","拖拉","Negative","ability","","","","","","","","","",""
"3696","","f","psychophysics","90","685494","0.0-7.0-3.0-0.76","4","3","4","3","3","4","3","4","3","4","5","1","1","0","2","0","1","1","0","4","3","2","1","4","3","4","4","4","3","7","7","6","5","5","6","5","6","5","5","2","5","2","5","2","5","2","5","2","5","2","5","4","6","3","6","3","4","3","5","4","3","3","4","5","5","3","6","6","5","6","5","4","5","5","6","2","5","3","732226150302224385","李","Male","[""坏我"",""好他"",""好我"",""坏他""]","[""弱我"",""强他"",""强我"",""弱他""]","","","","","","","","yes","","","","","","","","","SRET","EW_formal","","key","f","6.075743855109871","768","428","朋友","高洁","Positive","morality","","","","","","","","","",""
"9582","","j","psychophysics","91","696078","0.0-7.0-3.0-0.77","4","3","4","3","3","4","3","4","3","4","5","1","1","0","2","0","1","1","0","4","3","2","1","4","3","4","4","4","3","7","7","6","5","5","6","5","6","5","5","2","5","2","5","2","5","2","5","2","5","2","5","4","6","3","6","3","4","3","5","4","3","3","4","5","5","3","6","6","5","6","5","4","5","5","6","2","5","3","732226150302224385","李","Male","[""坏我"",""好他"",""好我"",""坏他""]","[""弱我"",""强他"",""强我"",""弱他""]","","","","","","","","no","","","","","","","","","SRET","EW_formal","","key","j","6.088267127230829","768","428","自己","独断","Negative","ability","","","","","","","","","",""
"978","","j","psychophysics","92","698057","0.0-7.0-3.0-0.78","4","3","4","3","3","4","3","4","3","4","5","1","1","0","2","0","1","1","0","4","3","2","1","4","3","4","4","4","3","7","7","6","5","5","6","5","6","5","5","2","5","2","5","2","5","2","5","2","5","2","5","4","6","3","6","3","4","3","5","4","3","3","4","5","5","3","6","6","5","6","5","4","5","5","6","2","5","3","732226150302224385","李","Male","[""坏我"",""好他"",""好我"",""坏他""]","[""弱我"",""强他"",""强我"",""弱他""]","","","","","","","","no","","","","","","","","","SRET","EW_formal","","key","j","6.0785833333333645","768","428","自己","不端","Negative","morality","","","","","","","","","",""
"571","","f","psychophysics","93","699630","0.0-7.0-3.0-0.79","4","3","4","3","3","4","3","4","3","4","5","1","1","0","2","0","1","1","0","4","3","2","1","4","3","4","4","4","3","7","7","6","5","5","6","5","6","5","5","2","5","2","5","2","5","2","5","2","5","2","5","4","6","3","6","3","4","3","5","4","3","3","4","5","5","3","6","6","5","6","5","4","5","5","6","2","5","3","732226150302224385","李","Male","[""坏我"",""好他"",""好我"",""坏他""]","[""弱我"",""强他"",""强我"",""弱他""]","","","","","","","","yes","","","","","","","","","SRET","EW_formal","","key","f","6.204743083004137","768","428","自己","高明","Positive","ability","","","","","","","","","",""
"473","","f","psychophysics","94","701104","0.0-7.0-3.0-0.80","4","3","4","3","3","4","3","4","3","4","5","1","1","0","2","0","1","1","0","4","3","2","1","4","3","4","4","4","3","7","7","6","5","5","6","5","6","5","5","2","5","2","5","2","5","2","5","2","5","2","5","4","6","3","6","3","4","3","5","4","3","3","4","5","5","3","6","6","5","6","5","4","5","5","6","2","5","3","732226150302224385","李","Male","[""坏我"",""好他"",""好我"",""坏他""]","[""弱我"",""强他"",""强我"",""弱他""]","","","","","","","","yes","","","","","","","","","SRET","EW_formal","","key","f","6.111570833333341","768","428","朋友","敬业","Positive","morality","","","","","","","","","",""
"990","","f","psychophysics","95","703095","0.0-7.0-3.0-0.81","4","3","4","3","3","4","3","4","3","4","5","1","1","0","2","0","1","1","0","4","3","2","1","4","3","4","4","4","3","7","7","6","5","5","6","5","6","5","5","2","5","2","5","2","5","2","5","2","5","2","5","4","6","3","6","3","4","3","5","4","3","3","4","5","5","3","6","6","5","6","5","4","5","5","6","2","5","3","732226150302224385","李","Male","[""坏我"",""好他"",""好我"",""坏他""]","[""弱我"",""强他"",""强我"",""弱他""]","","","","","","","","yes","","","","","","","","","SRET","EW_formal","","key","f","6.060036585365973","768","428","自己","廉明","Positive","morality","","","","","","","","","",""
"704","","f","psychophysics","96","704801","0.0-7.0-3.0-0.82","4","3","4","3","3","4","3","4","3","4","5","1","1","0","2","0","1","1","0","4","3","2","1","4","3","4","4","4","3","7","7","6","5","5","6","5","6","5","5","2","5","2","5","2","5","2","5","2","5","2","5","4","6","3","6","3","4","3","5","4","3","3","4","5","5","3","6","6","5","6","5","4","5","5","6","2","5","3","732226150302224385","李","Male","[""坏我"",""好他"",""好我"",""坏他""]","[""弱我"",""强他"",""强我"",""弱他""]","","","","","","","","yes","","","","","","","","","SRET","EW_formal","","key","f","6.125815884476622","768","428","朋友","独立","Positive","ability","","","","","","","","","",""
"569","","f","psychophysics","97","706370","0.0-7.0-3.0-0.83","4","3","4","3","3","4","3","4","3","4","5","1","1","0","2","0","1","1","0","4","3","2","1","4","3","4","4","4","3","7","7","6","5","5","6","5","6","5","5","2","5","2","5","2","5","2","5","2","5","2","5","4","6","3","6","3","4","3","5","4","3","3","4","5","5","3","6","6","5","6","5","4","5","5","6","2","5","3","732226150302224385","李","Male","[""坏我"",""好他"",""好我"",""坏他""]","[""弱我"",""强他"",""强我"",""弱他""]","","","","","","","","yes","","","","","","","","","SRET","EW_formal","","key","f","6.061050387596632","768","428","自己","干练","Positive","ability","","","","","","","","","",""
"1093","","j","psychophysics","98","708465","0.0-7.0-3.0-0.84","4","3","4","3","3","4","3","4","3","4","5","1","1","0","2","0","1","1","0","4","3","2","1","4","3","4","4","4","3","7","7","6","5","5","6","5","6","5","5","2","5","2","5","2","5","2","5","2","5","2","5","4","6","3","6","3","4","3","5","4","3","3","4","5","5","3","6","6","5","6","5","4","5","5","6","2","5","3","732226150302224385","李","Male","[""坏我"",""好他"",""好我"",""坏他""]","[""弱我"",""强他"",""强我"",""弱他""]","","","","","","","","no","","","","","","","","","SRET","EW_formal","","key","j","6.222845238095379","768","428","自己","缓慢","Negative","ability","","","","","","","","","",""
"618","","f","psychophysics","99","710084","0.0-7.0-3.0-0.85","4","3","4","3","3","4","3","4","3","4","5","1","1","0","2","0","1","1","0","4","3","2","1","4","3","4","4","4","3","7","7","6","5","5","6","5","6","5","5","2","5","2","5","2","5","2","5","2","5","2","5","4","6","3","6","3","4","3","5","4","3","3","4","5","5","3","6","6","5","6","5","4","5","5","6","2","5","3","732226150302224385","李","Male","[""坏我"",""好他"",""好我"",""坏他""]","[""弱我"",""强他"",""强我"",""弱他""]","","","","","","","","yes","","","","","","","","","SRET","EW_formal","","key","f","6.06058646616512","768","428","朋友","素养","Positive","morality","","","","","","","","","",""
"2593","","f","psychophysics","100","713678","0.0-7.0-3.0-0.86","4","3","4","3","3","4","3","4","3","4","5","1","1","0","2","0","1","1","0","4","3","2","1","4","3","4","4","4","3","7","7","6","5","5","6","5","6","5","5","2","5","2","5","2","5","2","5","2","5","2","5","4","6","3","6","3","4","3","5","4","3","3","4","5","5","3","6","6","5","6","5","4","5","5","6","2","5","3","732226150302224385","李","Male","[""坏我"",""好他"",""好我"",""坏他""]","[""弱我"",""强他"",""强我"",""弱他""]","","","","","","","","yes","","","","","","","","","SRET","EW_formal","","key","f","6.081269491525462","768","428","自己","主见","Positive","ability","","","","","","","","","",""
"1638","","j","psychophysics","101","716317","0.0-7.0-3.0-0.87","4","3","4","3","3","4","3","4","3","4","5","1","1","0","2","0","1","1","0","4","3","2","1","4","3","4","4","4","3","7","7","6","5","5","6","5","6","5","5","2","5","2","5","2","5","2","5","2","5","2","5","4","6","3","6","3","4","3","5","4","3","3","4","5","5","3","6","6","5","6","5","4","5","5","6","2","5","3","732226150302224385","李","Male","[""坏我"",""好他"",""好我"",""坏他""]","[""弱我"",""强他"",""强我"",""弱他""]","","","","","","","","no","","","","","","","","","SRET","EW_formal","","key","j","6.131267441860617","768","428","朋友","低俗","Negative","morality","","","","","","","","","",""
"10257","
    <p><div style='color:white;font-size:35px; line-height:20px;'>计算任务</div></p><br>
    <p><div style='color:red;font-size:25px; line-height:20px;'>接下来，您将看到一些四则运算题，<b>请从键盘选择 0-9 进行反应。</b></div></p>
    <p><div class='footer' style='color:white;font-size:25px; line-height:20px;'>如果对本实验还有不清楚之处，请立即向实验员咨询。</p><p style='color:white;font-size:25px; line-height:20px;'>如果您明白了规则：</p><p style='color:white;font-size:22px; line-height:20px;'>请按 继续 进入练习</p>
    </div>
    ","0","html-button-response","102","726575","0.0-7.0-4.0","4","3","4","3","3","4","3","4","3","4","5","1","1","0","2","0","1","1","0","4","3","2","1","4","3","4","4","4","3","7","7","6","5","5","6","5","6","5","5","2","5","2","5","2","5","2","5","2","5","2","5","4","6","3","6","3","4","3","5","4","3","3","4","5","5","3","6","6","5","6","5","4","5","5","6","2","5","3","732226150302224385","李","Male","[""坏我"",""好他"",""好我"",""坏他""]","[""弱我"",""强他"",""强我"",""弱他""]","","","","","","","","","","","","","","","","","SRET_math","math_instructions","Sat Sep 16 2023 19:46:03 GMT+0800 (中国标准时间)","","","","","","","","","","","","","","","","","","",""
"2445","","2","psychophysics","103","729023","0.0-7.0-5.0-0.0","4","3","4","3","3","4","3","4","3","4","5","1","1","0","2","0","1","1","0","4","3","2","1","4","3","4","4","4","3","7","7","6","5","5","6","5","6","5","5","2","5","2","5","2","5","2","5","2","5","2","5","4","6","3","6","3","4","3","5","4","3","3","4","5","5","3","6","6","5","6","5","4","5","5","6","2","5","3","732226150302224385","李","Male","[""坏我"",""好他"",""好我"",""坏他""]","[""弱我"",""强他"",""强我"",""弱他""]","","","","","","","","2","","","","","","","","","SRET","SRET_math_calculate","","key","2","6.151331658291411","768","428","","","","","9-7= ?","2","1","","","","","","",""
"2288","","8","psychophysics","104","731311","0.0-7.0-5.0-0.1","4","3","4","3","3","4","3","4","3","4","5","1","1","0","2","0","1","1","0","4","3","2","1","4","3","4","4","4","3","7","7","6","5","5","6","5","6","5","5","2","5","2","5","2","5","2","5","2","5","2","5","4","6","3","6","3","4","3","5","4","3","3","4","5","5","3","6","6","5","6","5","4","5","5","6","2","5","3","732226150302224385","李","Male","[""坏我"",""好他"",""好我"",""坏他""]","[""弱我"",""强他"",""强我"",""弱他""]","","","","","","","","8","","","","","","","","","SRET","SRET_math_calculate","","key","8","6.076803191489431","768","428","","","","","4*2= ?","8","1","","","","","","",""
"2167","","8","psychophysics","105","733479","0.0-7.0-5.0-0.2","4","3","4","3","3","4","3","4","3","4","5","1","1","0","2","0","1","1","0","4","3","2","1","4","3","4","4","4","3","7","7","6","5","5","6","5","6","5","5","2","5","2","5","2","5","2","5","2","5","2","5","4","6","3","6","3","4","3","5","4","3","3","4","5","5","3","6","6","5","6","5","4","5","5","6","2","5","3","732226150302224385","李","Male","[""坏我"",""好他"",""好我"",""坏他""]","[""弱我"",""强他"",""强我"",""弱他""]","","","","","","","","8","","","","","","","","","SRET","SRET_math_calculate","","key","8","6.0597528089887565","768","428","","","","","2*4= ?","8","1","","","","","","",""
"1999","","3","psychophysics","106","735481","0.0-7.0-5.0-0.3","4","3","4","3","3","4","3","4","3","4","5","1","1","0","2","0","1","1","0","4","3","2","1","4","3","4","4","4","3","7","7","6","5","5","6","5","6","5","5","2","5","2","5","2","5","2","5","2","5","2","5","4","6","3","6","3","4","3","5","4","3","3","4","5","5","3","6","6","5","6","5","4","5","5","6","2","5","3","732226150302224385","李","Male","[""坏我"",""好他"",""好我"",""坏他""]","[""弱我"",""强他"",""强我"",""弱他""]","","","","","","","","3","","","","","","","","","SRET","SRET_math_calculate","","key","3","6.079088145896713","768","428","","","","","8-5= ?","3","1","","","","","","",""
"2135","","0","psychophysics","107","737617","0.0-7.0-5.0-0.4","4","3","4","3","3","4","3","4","3","4","5","1","1","0","2","0","1","1","0","4","3","2","1","4","3","4","4","4","3","7","7","6","5","5","6","5","6","5","5","2","5","2","5","2","5","2","5","2","5","2","5","4","6","3","6","3","4","3","5","4","3","3","4","5","5","3","6","6","5","6","5","4","5","5","6","2","5","3","732226150302224385","李","Male","[""坏我"",""好他"",""好我"",""坏他""]","[""弱我"",""强他"",""强我"",""弱他""]","","","","","","","","0","","","","","","","","","SRET","SRET_math_calculate","","key","0","6.130135446685898","768","428","","","","","32-32= ?","0","1","","","","","","",""
"2081","","6","psychophysics","108","739699","0.0-7.0-5.0-0.5","4","3","4","3","3","4","3","4","3","4","5","1","1","0","2","0","1","1","0","4","3","2","1","4","3","4","4","4","3","7","7","6","5","5","6","5","6","5","5","2","5","2","5","2","5","2","5","2","5","2","5","4","6","3","6","3","4","3","5","4","3","3","4","5","5","3","6","6","5","6","5","4","5","5","6","2","5","3","732226150302224385","李","Male","[""坏我"",""好他"",""好我"",""坏他""]","[""弱我"",""强他"",""强我"",""弱他""]","","","","","","","","6","","","","","","","","","SRET","SRET_math_calculate","","key","6","6.060419825073019","768","428","","","","","5+1= ?","6","1","","","","","","",""
"1936","","0","psychophysics","109","741636","0.0-7.0-5.0-0.6","4","3","4","3","3","4","3","4","3","4","5","1","1","0","2","0","1","1","0","4","3","2","1","4","3","4","4","4","3","7","7","6","5","5","6","5","6","5","5","2","5","2","5","2","5","2","5","2","5","2","5","4","6","3","6","3","4","3","5","4","3","3","4","5","5","3","6","6","5","6","5","4","5","5","6","2","5","3","732226150302224385","李","Male","[""坏我"",""好他"",""好我"",""坏他""]","[""弱我"",""强他"",""强我"",""弱他""]","","","","","","","","0","","","","","","","","","SRET","SRET_math_calculate","","key","0","6.078896226415209","768","428","","","","","22-22= ?","0","1","","","","","","",""
"1871","","9","psychophysics","110","743508","0.0-7.0-5.0-0.7","4","3","4","3","3","4","3","4","3","4","5","1","1","0","2","0","1","1","0","4","3","2","1","4","3","4","4","4","3","7","7","6","5","5","6","5","6","5","5","2","5","2","5","2","5","2","5","2","5","2","5","4","6","3","6","3","4","3","5","4","3","3","4","5","5","3","6","6","5","6","5","4","5","5","6","2","5","3","732226150302224385","李","Male","[""坏我"",""好他"",""好我"",""坏他""]","[""弱我"",""强他"",""强我"",""弱他""]","","","","","","","","9","","","","","","","","","SRET","SRET_math_calculate","","key","9","6.080228758170087","768","428","","","","","6+3= ?","9","1","","","","","","",""
"2075","","7","psychophysics","111","745585","0.0-7.0-5.0-0.8","4","3","4","3","3","4","3","4","3","4","5","1","1","0","2","0","1","1","0","4","3","2","1","4","3","4","4","4","3","7","7","6","5","5","6","5","6","5","5","2","5","2","5","2","5","2","5","2","5","2","5","4","6","3","6","3","4","3","5","4","3","3","4","5","5","3","6","6","5","6","5","4","5","5","6","2","5","3","732226150302224385","李","Male","[""坏我"",""好他"",""好我"",""坏他""]","[""弱我"",""强他"",""强我"",""弱他""]","","","","","","","","7","","","","","","","","","SRET","SRET_math_calculate","","key","7","6.078633431085082","768","428","","","","","8-1= ?","7","1","","","","","","",""
"2007","","7","psychophysics","112","747593","0.0-7.0-5.0-0.9","4","3","4","3","3","4","3","4","3","4","5","1","1","0","2","0","1","1","0","4","3","2","1","4","3","4","4","4","3","7","7","6","5","5","6","5","6","5","5","2","5","2","5","2","5","2","5","2","5","2","5","4","6","3","6","3","4","3","5","4","3","3","4","5","5","3","6","6","5","6","5","4","5","5","6","2","5","3","732226150302224385","李","Male","[""坏我"",""好他"",""好我"",""坏他""]","[""弱我"",""强他"",""强我"",""弱他""]","","","","","","","","7","","","","","","","","","SRET","SRET_math_calculate","","key","7","6.134963190184115","768","428","","","","","2+5= ?","7","1","","","","","","",""
"1766","","6","psychophysics","113","749361","0.0-7.0-5.0-0.10","4","3","4","3","3","4","3","4","3","4","5","1","1","0","2","0","1","1","0","4","3","2","1","4","3","4","4","4","3","7","7","6","5","5","6","5","6","5","5","2","5","2","5","2","5","2","5","2","5","2","5","4","6","3","6","3","4","3","5","4","3","3","4","5","5","3","6","6","5","6","5","4","5","5","6","2","5","3","732226150302224385","李","Male","[""坏我"",""好他"",""好我"",""坏他""]","[""弱我"",""强他"",""强我"",""弱他""]","","","","","","","","6","","","","","","","","","SRET","SRET_math_calculate","","key","6","6.060158075601554","768","428","","","","","3+3= ?","6","1","","","","","","",""
"2448","","0","psychophysics","114","751809","0.0-7.0-5.0-0.11","4","3","4","3","3","4","3","4","3","4","5","1","1","0","2","0","1","1","0","4","3","2","1","4","3","4","4","4","3","7","7","6","5","5","6","5","6","5","5","2","5","2","5","2","5","2","5","2","5","2","5","4","6","3","6","3","4","3","5","4","3","3","4","5","5","3","6","6","5","6","5","4","5","5","6","2","5","3","732226150302224385","李","Male","[""坏我"",""好他"",""好我"",""坏他""]","[""弱我"",""强他"",""强我"",""弱他""]","","","","","","","","0","","","","","","","","","SRET","SRET_math_calculate","","key","0","6.0603027295285985","768","428","","","","","5*0= ?","0","1","","","","","","",""
"2266","","8","psychophysics","115","754076","0.0-7.0-5.0-0.12","4","3","4","3","3","4","3","4","3","4","5","1","1","0","2","0","1","1","0","4","3","2","1","4","3","4","4","4","3","7","7","6","5","5","6","5","6","5","5","2","5","2","5","2","5","2","5","2","5","2","5","4","6","3","6","3","4","3","5","4","3","3","4","5","5","3","6","6","5","6","5","4","5","5","6","2","5","3","732226150302224385","李","Male","[""坏我"",""好他"",""好我"",""坏他""]","[""弱我"",""强他"",""强我"",""弱他""]","","","","","","","","8","","","","","","","","","SRET","SRET_math_calculate","","key","8","6.093037735849037","768","428","","","","","5+3= ?","8","1","","","","","","",""
"1776","","2","psychophysics","116","755852","0.0-7.0-5.0-0.13","4","3","4","3","3","4","3","4","3","4","5","1","1","0","2","0","1","1","0","4","3","2","1","4","3","4","4","4","3","7","7","6","5","5","6","5","6","5","5","2","5","2","5","2","5","2","5","2","5","2","5","4","6","3","6","3","4","3","5","4","3","3","4","5","5","3","6","6","5","6","5","4","5","5","6","2","5","3","732226150302224385","李","Male","[""坏我"",""好他"",""好我"",""坏他""]","[""弱我"",""强他"",""强我"",""弱他""]","","","","","","","","2","","","","","","","","","SRET","SRET_math_calculate","","key","2","6.10219310344807","768","428","","","","","8-6= ?","2","1","","","","","","",""
"2119","","1","psychophysics","117","757973","0.0-7.0-5.0-0.14","4","3","4","3","3","4","3","4","3","4","5","1","1","0","2","0","1","1","0","4","3","2","1","4","3","4","4","4","3","7","7","6","5","5","6","5","6","5","5","2","5","2","5","2","5","2","5","2","5","2","5","4","6","3","6","3","4","3","5","4","3","3","4","5","5","3","6","6","5","6","5","4","5","5","6","2","5","3","732226150302224385","李","Male","[""坏我"",""好他"",""好我"",""坏他""]","[""弱我"",""强他"",""强我"",""弱他""]","","","","","","","","1","","","","","","","","","SRET","SRET_math_calculate","","key","1","6.095435158501551","768","428","","","","","30-29= ?","1","1","","","","","","",""
"1884","","9","psychophysics","118","759858","0.0-7.0-5.0-0.15","4","3","4","3","3","4","3","4","3","4","5","1","1","0","2","0","1","1","0","4","3","2","1","4","3","4","4","4","3","7","7","6","5","5","6","5","6","5","5","2","5","2","5","2","5","2","5","2","5","2","5","4","6","3","6","3","4","3","5","4","3","3","4","5","5","3","6","6","5","6","5","4","5","5","6","2","5","3","732226150302224385","李","Male","[""坏我"",""好他"",""好我"",""坏他""]","[""弱我"",""强他"",""强我"",""弱他""]","","","","","","","","9","","","","","","","","","SRET","SRET_math_calculate","","key","9","6.0607677419354475","768","428","","","","","5+4= ?","9","1","","","","","","",""
"4734","","9","psychophysics","119","764593","0.0-7.0-5.0-0.16","4","3","4","3","3","4","3","4","3","4","5","1","1","0","2","0","1","1","0","4","3","2","1","4","3","4","4","4","3","7","7","6","5","5","6","5","6","5","5","2","5","2","5","2","5","2","5","2","5","2","5","4","6","3","6","3","4","3","5","4","3","3","4","5","5","3","6","6","5","6","5","4","5","5","6","2","5","3","732226150302224385","李","Male","[""坏我"",""好他"",""好我"",""坏他""]","[""弱我"",""强他"",""强我"",""弱他""]","","","","","","","","9","","","","","","","","","SRET","SRET_math_calculate","","key","9","6.068250320924283","768","428","","","","","32-23= ?","9","1","","","","","","",""
"2892","","5","psychophysics","120","767485","0.0-7.0-5.0-0.17","4","3","4","3","3","4","3","4","3","4","5","1","1","0","2","0","1","1","0","4","3","2","1","4","3","4","4","4","3","7","7","6","5","5","6","5","6","5","5","2","5","2","5","2","5","2","5","2","5","2","5","4","6","3","6","3","4","3","5","4","3","3","4","5","5","3","6","6","5","6","5","4","5","5","6","2","5","3","732226150302224385","李","Male","[""坏我"",""好他"",""好我"",""坏他""]","[""弱我"",""强他"",""强我"",""弱他""]","","","","","","","","5","","","","","","","","","SRET","SRET_math_calculate","","key","5","6.060121593291313","768","428","","","","","16-11= ?","5","1","","","","","","",""
"18768","","5","psychophysics","121","786254","0.0-7.0-5.0-0.18","4","3","4","3","3","4","3","4","3","4","5","1","1","0","2","0","1","1","0","4","3","2","1","4","3","4","4","4","3","7","7","6","5","5","6","5","6","5","5","2","5","2","5","2","5","2","5","2","5","2","5","4","6","3","6","3","4","3","5","4","3","3","4","5","5","3","6","6","5","6","5","4","5","5","6","2","5","3","732226150302224385","李","Male","[""坏我"",""好他"",""好我"",""坏他""]","[""弱我"",""强他"",""强我"",""弱他""]","","","","","","","","5","","","","","","","","","SRET","SRET_math_calculate","","key","5","6.093798960701536","768","428","","","","","5/1= ?","5","1","","","","","","",""
"1845","","9","psychophysics","122","788100","0.0-7.0-5.0-0.19","4","3","4","3","3","4","3","4","3","4","5","1","1","0","2","0","1","1","0","4","3","2","1","4","3","4","4","4","3","7","7","6","5","5","6","5","6","5","5","2","5","2","5","2","5","2","5","2","5","2","5","4","6","3","6","3","4","3","5","4","3","3","4","5","5","3","6","6","5","6","5","4","5","5","6","2","5","3","732226150302224385","李","Male","[""坏我"",""好他"",""好我"",""坏他""]","[""弱我"",""强他"",""强我"",""弱他""]","","","","","","","","9","","","","","","","","","SRET","SRET_math_calculate","","key","9","6.120413333333175","768","428","","","","","1+8= ?","9","1","","","","","","",""
"3137","","8","psychophysics","123","791239","0.0-7.0-5.0-0.20","4","3","4","3","3","4","3","4","3","4","5","1","1","0","2","0","1","1","0","4","3","2","1","4","3","4","4","4","3","7","7","6","5","5","6","5","6","5","5","2","5","2","5","2","5","2","5","2","5","2","5","4","6","3","6","3","4","3","5","4","3","3","4","5","5","3","6","6","5","6","5","4","5","5","6","2","5","3","732226150302224385","李","Male","[""坏我"",""好他"",""好我"",""坏他""]","[""弱我"",""强他"",""强我"",""弱他""]","","","","","","","","8","","","","","","","","","SRET","SRET_math_calculate","","key","8","6.0724147286822445","768","428","","","","","1*8= ?","8","1","","","","","","",""
"3854","","2","psychophysics","124","795094","0.0-7.0-5.0-0.21","4","3","4","3","3","4","3","4","3","4","5","1","1","0","2","0","1","1","0","4","3","2","1","4","3","4","4","4","3","7","7","6","5","5","6","5","6","5","5","2","5","2","5","2","5","2","5","2","5","2","5","4","6","3","6","3","4","3","5","4","3","3","4","5","5","3","6","6","5","6","5","4","5","5","6","2","5","3","732226150302224385","李","Male","[""坏我"",""好他"",""好我"",""坏他""]","[""弱我"",""强他"",""强我"",""弱他""]","","","","","","","","2","","","","","","","","","SRET","SRET_math_calculate","","key","2","6.079772511848409","768","428","","","","","12/6= ?","2","1","","","","","","",""
"2059","","4","psychophysics","125","797155","0.0-7.0-5.0-0.22","4","3","4","3","3","4","3","4","3","4","5","1","1","0","2","0","1","1","0","4","3","2","1","4","3","4","4","4","3","7","7","6","5","5","6","5","6","5","5","2","5","2","5","2","5","2","5","2","5","2","5","4","6","3","6","3","4","3","5","4","3","3","4","5","5","3","6","6","5","6","5","4","5","5","6","2","5","3","732226150302224385","李","Male","[""坏我"",""好他"",""好我"",""坏他""]","[""弱我"",""强他"",""强我"",""弱他""]","","","","","","","","4","","","","","","","","","SRET","SRET_math_calculate","","key","4","6.059747058823568","768","428","","","","","13-9= ?","4","1","","","","","","",""
"1713","","5","psychophysics","126","798868","0.0-7.0-5.0-0.23","4","3","4","3","3","4","3","4","3","4","5","1","1","0","2","0","1","1","0","4","3","2","1","4","3","4","4","4","3","7","7","6","5","5","6","5","6","5","5","2","5","2","5","2","5","2","5","2","5","2","5","4","6","3","6","3","4","3","5","4","3","3","4","5","5","3","6","6","5","6","5","4","5","5","6","2","5","3","732226150302224385","李","Male","[""坏我"",""好他"",""好我"",""坏他""]","[""弱我"",""强他"",""强我"",""弱他""]","","","","","","","","5","","","","","","","","","SRET","SRET_math_calculate","","key","5","6.0821964285714785","768","428","","","","","4+1= ?","5","1","","","","","","",""
"1834","","8","psychophysics","127","800704","0.0-7.0-5.0-0.24","4","3","4","3","3","4","3","4","3","4","5","1","1","0","2","0","1","1","0","4","3","2","1","4","3","4","4","4","3","7","7","6","5","5","6","5","6","5","5","2","5","2","5","2","5","2","5","2","5","2","5","4","6","3","6","3","4","3","5","4","3","3","4","5","5","3","6","6","5","6","5","4","5","5","6","2","5","3","732226150302224385","李","Male","[""坏我"",""好他"",""好我"",""坏他""]","[""弱我"",""强他"",""强我"",""弱他""]","","","","","","","","8","","","","","","","","","SRET","SRET_math_calculate","","key","8","6.08065448504984","768","428","","","","","8*1= ?","8","1","","","","","","",""
"1742","","2","psychophysics","128","802447","0.0-7.0-5.0-0.25","4","3","4","3","3","4","3","4","3","4","5","1","1","0","2","0","1","1","0","4","3","2","1","4","3","4","4","4","3","7","7","6","5","5","6","5","6","5","5","2","5","2","5","2","5","2","5","2","5","2","5","4","6","3","6","3","4","3","5","4","3","3","4","5","5","3","6","6","5","6","5","4","5","5","6","2","5","3","732226150302224385","李","Male","[""坏我"",""好他"",""好我"",""坏他""]","[""弱我"",""强他"",""强我"",""弱他""]","","","","","","","","2","","","","","","","","","SRET","SRET_math_calculate","","key","2","6.220867383512451","768","428","","","","","5-3= ?","2","1","","","","","","",""
"2493","","0","psychophysics","129","804940","0.0-7.0-5.0-0.26","4","3","4","3","3","4","3","4","3","4","5","1","1","0","2","0","1","1","0","4","3","2","1","4","3","4","4","4","3","7","7","6","5","5","6","5","6","5","5","2","5","2","5","2","5","2","5","2","5","2","5","4","6","3","6","3","4","3","5","4","3","3","4","5","5","3","6","6","5","6","5","4","5","5","6","2","5","3","732226150302224385","李","Male","[""坏我"",""好他"",""好我"",""坏他""]","[""弱我"",""强他"",""强我"",""弱他""]","","","","","","","","0","","","","","","","","","SRET","SRET_math_calculate","","key","0","6.196561097256849","768","428","","","","","7*0= ?","0","1","","","","","","",""
"2586","","6","psychophysics","130","807527","0.0-7.0-5.0-0.27","4","3","4","3","3","4","3","4","3","4","5","1","1","0","2","0","1","1","0","4","3","2","1","4","3","4","4","4","3","7","7","6","5","5","6","5","6","5","5","2","5","2","5","2","5","2","5","2","5","2","5","4","6","3","6","3","4","3","5","4","3","3","4","5","5","3","6","6","5","6","5","4","5","5","6","2","5","3","732226150302224385","李","Male","[""坏我"",""好他"",""好我"",""坏他""]","[""弱我"",""强他"",""强我"",""弱他""]","","","","","","","","6","","","","","","","","","SRET","SRET_math_calculate","","key","6","6.103236406619372","768","428","","","","","3*2= ?","6","1","","","","","","",""
"1845","","0","psychophysics","131","809373","0.0-7.0-5.0-0.28","4","3","4","3","3","4","3","4","3","4","5","1","1","0","2","0","1","1","0","4","3","2","1","4","3","4","4","4","3","7","7","6","5","5","6","5","6","5","5","2","5","2","5","2","5","2","5","2","5","2","5","4","6","3","6","3","4","3","5","4","3","3","4","5","5","3","6","6","5","6","5","4","5","5","6","2","5","3","732226150302224385","李","Male","[""坏我"",""好他"",""好我"",""坏他""]","[""弱我"",""强他"",""强我"",""弱他""]","","","","","","","","0","","","","","","","","","SRET","SRET_math_calculate","","key","0","6.08121452145217","768","428","","","","","12-12= ?","0","1","","","","","","",""
"1878","","8","psychophysics","132","811252","0.0-7.0-5.0-0.29","4","3","4","3","3","4","3","4","3","4","5","1","1","0","2","0","1","1","0","4","3","2","1","4","3","4","4","4","3","7","7","6","5","5","6","5","6","5","5","2","5","2","5","2","5","2","5","2","5","2","5","4","6","3","6","3","4","3","5","4","3","3","4","5","5","3","6","6","5","6","5","4","5","5","6","2","5","3","732226150302224385","李","Male","[""坏我"",""好他"",""好我"",""坏他""]","[""弱我"",""强他"",""强我"",""弱他""]","","","","","","","","8","","","","","","","","","SRET","SRET_math_calculate","","key","8","6.139947540983634","768","428","","","","","7+1= ?","8","1","","","","","","",""
"2319","","7","psychophysics","133","813572","0.0-7.0-5.0-0.30","4","3","4","3","3","4","3","4","3","4","5","1","1","0","2","0","1","1","0","4","3","2","1","4","3","4","4","4","3","7","7","6","5","5","6","5","6","5","5","2","5","2","5","2","5","2","5","2","5","2","5","4","6","3","6","3","4","3","5","4","3","3","4","5","5","3","6","6","5","6","5","4","5","5","6","2","5","3","732226150302224385","李","Male","[""坏我"",""好他"",""好我"",""坏他""]","[""弱我"",""强他"",""强我"",""弱他""]","","","","","","","","7","","","","","","","","","SRET","SRET_math_calculate","","key","7","6.06068241469815","768","428","","","","","1+6= ?","7","1","","","","","","",""
"11438","","9","psychophysics","134","825011","0.0-7.0-5.0-0.31","4","3","4","3","3","4","3","4","3","4","5","1","1","0","2","0","1","1","0","4","3","2","1","4","3","4","4","4","3","7","7","6","5","5","6","5","6","5","5","2","5","2","5","2","5","2","5","2","5","2","5","4","6","3","6","3","4","3","5","4","3","3","4","5","5","3","6","6","5","6","5","4","5","5","6","2","5","3","732226150302224385","李","Male","[""坏我"",""好他"",""好我"",""坏他""]","[""弱我"",""强他"",""强我"",""弱他""]","","","","","","","","9","","","","","","","","","SRET","SRET_math_calculate","","key","9","6.090564730953645","768","428","","","","","18/2= ?","9","1","","","","","","",""
"2886","","5","psychophysics","135","827897","0.0-7.0-5.0-0.32","4","3","4","3","3","4","3","4","3","4","5","1","1","0","2","0","1","1","0","4","3","2","1","4","3","4","4","4","3","7","7","6","5","5","6","5","6","5","5","2","5","2","5","2","5","2","5","2","5","2","5","4","6","3","6","3","4","3","5","4","3","3","4","5","5","3","6","6","5","6","5","4","5","5","6","2","5","3","732226150302224385","李","Male","[""坏我"",""好他"",""好我"",""坏他""]","[""弱我"",""强他"",""强我"",""弱他""]","","","","","","","","5","","","","","","","","","SRET","SRET_math_calculate","","key","5","6.086057082452343","768","428","","","","","15-10= ?","5","1","","","","","","",""
"7423","","8","psychophysics","136","835321","0.0-7.0-5.0-0.33","4","3","4","3","3","4","3","4","3","4","5","1","1","0","2","0","1","1","0","4","3","2","1","4","3","4","4","4","3","7","7","6","5","5","6","5","6","5","5","2","5","2","5","2","5","2","5","2","5","2","5","4","6","3","6","3","4","3","5","4","3","3","4","5","5","3","6","6","5","6","5","4","5","5","6","2","5","3","732226150302224385","李","Male","[""坏我"",""好他"",""好我"",""坏他""]","[""弱我"",""强他"",""强我"",""弱他""]","","","","","","","","8","","","","","","","","","SRET","SRET_math_calculate","","key","8","6.090165024630539","768","428","","","","","56/7= ?","8","1","","","","","","",""
"1973","","9","psychophysics","137","837295","0.0-7.0-5.0-0.34","4","3","4","3","3","4","3","4","3","4","5","1","1","0","2","0","1","1","0","4","3","2","1","4","3","4","4","4","3","7","7","6","5","5","6","5","6","5","5","2","5","2","5","2","5","2","5","2","5","2","5","4","6","3","6","3","4","3","5","4","3","3","4","5","5","3","6","6","5","6","5","4","5","5","6","2","5","3","732226150302224385","李","Male","[""坏我"",""好他"",""好我"",""坏他""]","[""弱我"",""强他"",""强我"",""弱他""]","","","","","","","","9","","","","","","","","","SRET","SRET_math_calculate","","key","9","6.233050632911301","768","428","","","","","3+6= ?","9","1","","","","","","",""
"4625","","1","psychophysics","138","841921","0.0-7.0-5.0-0.35","4","3","4","3","3","4","3","4","3","4","5","1","1","0","2","0","1","1","0","4","3","2","1","4","3","4","4","4","3","7","7","6","5","5","6","5","6","5","5","2","5","2","5","2","5","2","5","2","5","2","5","4","6","3","6","3","4","3","5","4","3","3","4","5","5","3","6","6","5","6","5","4","5","5","6","2","5","3","732226150302224385","李","Male","[""坏我"",""好他"",""好我"",""坏他""]","[""弱我"",""强他"",""强我"",""弱他""]","","","","","","","","1","","","","","","","","","SRET","SRET_math_calculate","","key","1","6.157449333333255","768","428","","","","","4/4= ?","1","1","","","","","","",""
"2260","","0","psychophysics","139","844182","0.0-7.0-5.0-0.36","4","3","4","3","3","4","3","4","3","4","5","1","1","0","2","0","1","1","0","4","3","2","1","4","3","4","4","4","3","7","7","6","5","5","6","5","6","5","5","2","5","2","5","2","5","2","5","2","5","2","5","4","6","3","6","3","4","3","5","4","3","3","4","5","5","3","6","6","5","6","5","4","5","5","6","2","5","3","732226150302224385","李","Male","[""坏我"",""好他"",""好我"",""坏他""]","[""弱我"",""强他"",""强我"",""弱他""]","","","","","","","","0","","","","","","","","","SRET","SRET_math_calculate","","key","0","6.109818428184403","768","428","","","","","1-1= ?","0","1","","","","","","",""
"1831","","9","psychophysics","140","846015","0.0-7.0-5.0-0.37","4","3","4","3","3","4","3","4","3","4","5","1","1","0","2","0","1","1","0","4","3","2","1","4","3","4","4","4","3","7","7","6","5","5","6","5","6","5","5","2","5","2","5","2","5","2","5","2","5","2","5","4","6","3","6","3","4","3","5","4","3","3","4","5","5","3","6","6","5","6","5","4","5","5","6","2","5","3","732226150302224385","李","Male","[""坏我"",""好他"",""好我"",""坏他""]","[""弱我"",""强他"",""强我"",""弱他""]","","","","","","","","9","","","","","","","","","SRET","SRET_math_calculate","","key","9","6.061003311258503","768","428","","","","","1+8= ?","9","1","","","","","","",""
"1694","","6","psychophysics","141","847709","0.0-7.0-5.0-0.38","4","3","4","3","3","4","3","4","3","4","5","1","1","0","2","0","1","1","0","4","3","2","1","4","3","4","4","4","3","7","7","6","5","5","6","5","6","5","5","2","5","2","5","2","5","2","5","2","5","2","5","4","6","3","6","3","4","3","5","4","3","3","4","5","5","3","6","6","5","6","5","4","5","5","6","2","5","3","732226150302224385","李","Male","[""坏我"",""好他"",""好我"",""坏他""]","[""弱我"",""强他"",""强我"",""弱他""]","","","","","","","","6","","","","","","","","","SRET","SRET_math_calculate","","key","6","6.104630434782703","768","428","","","","","9-3= ?","6","1","","","","","","",""
"1987","","5","psychophysics","142","849698","0.0-7.0-5.0-0.39","4","3","4","3","3","4","3","4","3","4","5","1","1","0","2","0","1","1","0","4","3","2","1","4","3","4","4","4","3","7","7","6","5","5","6","5","6","5","5","2","5","2","5","2","5","2","5","2","5","2","5","4","6","3","6","3","4","3","5","4","3","3","4","5","5","3","6","6","5","6","5","4","5","5","6","2","5","3","732226150302224385","李","Male","[""坏我"",""好他"",""好我"",""坏他""]","[""弱我"",""强他"",""强我"",""弱他""]","","","","","","","","5","","","","","","","","","SRET","SRET_math_calculate","","key","5","6.078963302752282","768","428","","","","","14-9= ?","5","1","","","","","","",""
"1708","","2","psychophysics","143","851407","0.0-7.0-5.0-0.40","4","3","4","3","3","4","3","4","3","4","5","1","1","0","2","0","1","1","0","4","3","2","1","4","3","4","4","4","3","7","7","6","5","5","6","5","6","5","5","2","5","2","5","2","5","2","5","2","5","2","5","4","6","3","6","3","4","3","5","4","3","3","4","5","5","3","6","6","5","6","5","4","5","5","6","2","5","3","732226150302224385","李","Male","[""坏我"",""好他"",""好我"",""坏他""]","[""弱我"",""强他"",""强我"",""弱他""]","","","","","","","","2","","","","","","","","","SRET","SRET_math_calculate","","key","2","6.082326164874699","768","428","","","","","1+1= ?","2","1","","","","","","",""
"1813","","4","psychophysics","144","853221","0.0-7.0-5.0-0.41","4","3","4","3","3","4","3","4","3","4","5","1","1","0","2","0","1","1","0","4","3","2","1","4","3","4","4","4","3","7","7","6","5","5","6","5","6","5","5","2","5","2","5","2","5","2","5","2","5","2","5","4","6","3","6","3","4","3","5","4","3","3","4","5","5","3","6","6","5","6","5","4","5","5","6","2","5","3","732226150302224385","李","Male","[""坏我"",""好他"",""好我"",""坏他""]","[""弱我"",""强他"",""强我"",""弱他""]","","","","","","","","4","","","","","","","","","SRET","SRET_math_calculate","","key","4","6.101848484848717","768","428","","","","","2+2= ?","4","1","","","","","","",""
