"rt","stimulus","response","trial_type","trial_index","time_elapsed","internal_node_id","swb_1","swb_2","swb_3","swb_4","swb_5","LOT_1","LOT_2","LOT_3","LOT_4","LOT_5","LOT_6","IPC_1","IPC_2","IPC_3","IPC_4","IPC_5","IPC_6","IPC_7","IPC_8","MorIden_1","MorIden_2","MorIden_3","MorIden_4","MorIden_5","MorIden_6","MorIden_7","MorIden_8","MorIden_9","MorIden_10","moralSeImag_1","moralSeImag_2","moralSeImag_3","moralSeImag_4","moralSeImag_5","moralSeImag_6","moralSeImag_7","moralSeImag_8","moralSeImag_9","sde_1","sde_2","sde_3","sde_4","sde_5","sde_6","sde_7","sde_8","sde_9","sde_10","sde_11","sde_12","sde_13","sde_14","sde_15","sde_16","sde_17","sde_18","sde_19","sde_20","IM_1","IM_2","IM_3","IM_4","IM_5","IM_6","IM_7","IM_8","IM_9","IM_10","IM_11","IM_12","IM_13","IM_14","IM_15","IM_16","IM_17","IM_18","IM_19","IM_20","subj_idx","friend_name","Sex","Word","Word2","value","success","timeout","failed_images","failed_audio","failed_video","user_agent","responses","item_order","radio_event_ids","radio_event_times","key_event_times","mouse_event_times","straightlining","zigzagging","honeypot","view_history","response_type","key_press","avg_frame_time","center_x","center_y","correct_response","correct","identity","Image","word","condition","task_id","screen_id","time_stamp","person","valence","domain","math","status","duration","question_order"
"1747","
   <p><div style='color:white; font-size: 25px'>您好，欢迎参加本次实验。</div></p>
   <p><div style='color:white; font-size: 25px'>为充分保障您的权利，请确保您已经知晓并同意《参与实验同意书》以及《数据公开知情同意书》。</div></p>
   <p><div style='color:white; font-size: 25px'>如果您未见过上述内容，请咨询实验员。</div></p>
   <p style='color:white; font-size: 25px'>如果您选择继续实验，则表示您已经清楚两份知情同意书的内容并同意。</p>
   <p> <div style = ""color: green""><按空格键至下页></div> </p>
   "," ","html-keyboard-response","0","1763","0.0-0.0","6","6","6","6","6","5","5","4","5","5","4","-2","2","1","1","1","1","1","1","5","4","5","2","4","4","5","4","4","4","5","7","4","7","2","6","7","4","6","6","6","5","6","6","6","6","1","5","6","5","2","6","6","5","6","5","2","5","6","2","4","2","3","3","3","3","5","5","6","3","4","2","5","2","5","3","6","3","3","745398419547492353","孙","Male","[""好他"",""坏他"",""好我"",""坏我""]","[""强他"",""弱他"",""强我"",""弱我""]","","","","","","","","","","","","","","","","","","","","","","","","","","","","","","","","","","","","","",""
"","","","call-function","1","1766","0.0-1.0-0.0","6","6","6","6","6","5","5","4","5","5","4","-2","2","1","1","1","1","1","1","5","4","5","2","4","4","5","4","4","4","5","7","4","7","2","6","7","4","6","6","6","5","6","6","6","6","1","5","6","5","2","6","6","5","6","5","2","5","6","2","4","2","3","3","3","3","5","5","6","3","4","2","5","2","5","3","6","3","3","745398419547492353","孙","Male","[""好他"",""坏他"",""好我"",""坏我""]","[""强他"",""弱他"",""强我"",""弱我""]","","","","","","","","","","","","","","","","","","","","","","","","","","","","","","","","","","","","","",""
"4516","","[{""name"":""Sex"",""value"":""0""},{""name"":""friend_name"",""value"":""孙""}]","survey-html-form","2","6285","0.0-1.0-1.0","6","6","6","6","6","5","5","4","5","5","4","-2","2","1","1","1","1","1","1","5","4","5","2","4","4","5","4","4","4","5","7","4","7","2","6","7","4","6","6","6","5","6","6","6","6","1","5","6","5","2","6","6","5","6","5","2","5","6","2","4","2","3","3","3","3","5","5","6","3","4","2","5","2","5","3","6","3","3","745398419547492353","孙","Male","[""好他"",""坏他"",""好我"",""坏我""]","[""强他"",""弱他"",""强我"",""弱我""]","","","","","","","","","","","","","","","","","","","","","","","","","","","","","","","","","","","","","",""
"","","","preload","3","6608","0.0-2.0","6","6","6","6","6","5","5","4","5","5","4","-2","2","1","1","1","1","1","1","5","4","5","2","4","4","5","4","4","4","5","7","4","7","2","6","7","4","6","6","6","5","6","6","6","6","1","5","6","5","2","6","6","5","6","5","2","5","6","2","4","2","3","3","3","3","5","5","6","3","4","2","5","2","5","3","6","3","3","745398419547492353","孙","Male","[""好他"",""坏他"",""好我"",""坏我""]","[""强他"",""弱他"",""强我"",""弱我""]","","true","false","[]","[]","[]","","","","","","","","","","","","","","","","","","","","","","","","","","","","","","","",""
"","","","fullscreen","4","8078","0.0-3.0","6","6","6","6","6","5","5","4","5","5","4","-2","2","1","1","1","1","1","1","5","4","5","2","4","4","5","4","4","4","5","7","4","7","2","6","7","4","6","6","6","5","6","6","6","6","1","5","6","5","2","6","6","5","6","5","2","5","6","2","4","2","3","3","3","3","5","5","6","3","4","2","5","2","5","3","6","3","3","745398419547492353","孙","Male","[""好他"",""坏他"",""好我"",""坏我""]","[""强他"",""弱他"",""强我"",""弱我""]","","true","","","","","{}","","","","","","","","","","","","","","","","","","","","","","","","","","","","","","",""
"5137.9000000003725","","{""Q01"":""6"",""Q02"":""6"",""Q03"":""6"",""Q04"":""6"",""Q05"":""6""}","survey-template","5","13231","0.0-4.0","6","6","6","6","6","5","5","4","5","5","4","-2","2","1","1","1","1","1","1","5","4","5","2","4","4","5","4","4","4","5","7","4","7","2","6","7","4","6","6","6","5","6","6","6","6","1","5","6","5","2","6","6","5","6","5","2","5","6","2","4","2","3","3","3","3","5","5","6","3","4","2","5","2","5","3","6","3","3","745398419547492353","孙","Male","[""好他"",""坏他"",""好我"",""坏我""]","[""强他"",""弱他"",""强我"",""弱我""]","","","","","","","","{""Q01"":""6"",""Q02"":""6"",""Q03"":""6"",""Q04"":""6"",""Q05"":""6""}","[0,1,2,3,4]","[""Q01"",""Q02"",""Q03"",""Q04"",""Q05""]","[1855.4000000003725,2099,2988.0999999996275,3727.0999999996275,4246.199999999255]","[]","[1855.4000000003725,2099,2988.0999999996275,3727.0999999996275,4246.199999999255,5133.799999998882]","1","0","0","","","","","","","","","","","","","","","","","","","","","",""
"15616.800000000745","","{""Q01"":""5"",""Q02"":""5"",""Q03"":""4"",""Q04"":""5"",""Q05"":""5"",""Q06"":""4""}","survey-template","6","28882","0.0-5.0","6","6","6","6","6","5","5","4","5","5","4","-2","2","1","1","1","1","1","1","5","4","5","2","4","4","5","4","4","4","5","7","4","7","2","6","7","4","6","6","6","5","6","6","6","6","1","5","6","5","2","6","6","5","6","5","2","5","6","2","4","2","3","3","3","3","5","5","6","3","4","2","5","2","5","3","6","3","3","745398419547492353","孙","Male","[""好他"",""坏他"",""好我"",""坏我""]","[""强他"",""弱他"",""强我"",""弱我""]","","","","","","","","{""Q01"":""5"",""Q02"":""5"",""Q03"":""4"",""Q04"":""5"",""Q05"":""5"",""Q06"":""4""}","[0,1,2,3,4,5]","[""Q01"",""Q02"",""Q03"",""Q04"",""Q05"",""Q06""]","[2695.5,3956.9000000003725,6997.700000001118,8610.700000001118,10842.5,12401.10000000149]","[]","[2695.5,3956.9000000003725,6997.700000001118,8610.700000001118,10842.5,12401.10000000149,15613.400000000373]","0.5","0.2","0","","","","","","","","","","","","","","","","","","","","","",""
"12336.299999998882","","{""Q01"":""-2"",""Q02"":""2"",""Q03"":""1"",""Q04"":""1"",""Q05"":""1"",""Q06"":""1"",""Q07"":""1"",""Q08"":""1""}","survey-template","7","41235","0.0-6.0","6","6","6","6","6","5","5","4","5","5","4","-2","2","1","1","1","1","1","1","5","4","5","2","4","4","5","4","4","4","5","7","4","7","2","6","7","4","6","6","6","5","6","6","6","6","1","5","6","5","2","6","6","5","6","5","2","5","6","2","4","2","3","3","3","3","5","5","6","3","4","2","5","2","5","3","6","3","3","745398419547492353","孙","Male","[""好他"",""坏他"",""好我"",""坏我""]","[""强他"",""弱他"",""强我"",""弱我""]","","","","","","","","{""Q01"":""-2"",""Q02"":""2"",""Q03"":""1"",""Q04"":""1"",""Q05"":""1"",""Q06"":""1"",""Q07"":""1"",""Q08"":""1""}","[0,1,2,3,4,5,6,7]","[""Q01"",""Q02"",""Q03"",""Q03"",""Q04"",""Q05"",""Q06"",""Q07"",""Q08""]","[2230.5,3411.7999999988824,4811.89999999851,5241.299999998882,6803.799999998882,7727.5,8727.699999999255,9830,10809]","[]","[2230.5,3411.7999999988824,4811.89999999851,5241.299999998882,6803.799999998882,7727.5,8727.699999999255,9830,10809,12330.89999999851]","0.75","0.14285714285714285","0","","","","","","","","","","","","","","","","","","","","","",""
"155373","","","instructions","8","196647","0.0-7.0","6","6","6","6","6","5","5","4","5","5","4","-2","2","1","1","1","1","1","1","5","4","5","2","4","4","5","4","4","4","5","7","4","7","2","6","7","4","6","6","6","5","6","6","6","6","1","5","6","5","2","6","6","5","6","5","2","5","6","2","4","2","3","3","3","3","5","5","6","3","4","2","5","2","5","3","6","3","3","745398419547492353","孙","Male","[""好他"",""坏他"",""好我"",""坏我""]","[""强他"",""弱他"",""强我"",""弱我""]","","","","","","","","","","","","","","","","","[{""page_index"":0,""viewing_time"":155372}]","","","","","","","","","","","","","","","","","","","","",""
"36303","","","instructions","9","232956","0.0-8.0-0.0-0.0","6","6","6","6","6","5","5","4","5","5","4","-2","2","1","1","1","1","1","1","5","4","5","2","4","4","5","4","4","4","5","7","4","7","2","6","7","4","6","6","6","5","6","6","6","6","1","5","6","5","2","6","6","5","6","5","2","5","6","2","4","2","3","3","3","3","5","5","6","3","4","2","5","2","5","3","6","3","3","745398419547492353","孙","Male","[""好他"",""坏他"",""好我"",""坏我""]","[""强他"",""弱他"",""强我"",""弱我""]","","","","","","","","","","","","","","","","","[{""page_index"":0,""viewing_time"":9937},{""page_index"":1,""viewing_time"":21095},{""page_index"":2,""viewing_time"":3771},{""page_index"":3,""viewing_time"":1500}]","","","","","","","","","","","","","","","","","","","","",""
"1089","","j","psychophysics","10","235070","0.0-8.0-0.0-1.0-0.0-0.0","6","6","6","6","6","5","5","4","5","5","4","-2","2","1","1","1","1","1","1","5","4","5","2","4","4","5","4","4","4","5","7","4","7","2","6","7","4","6","6","6","5","6","6","6","6","1","5","6","5","2","6","6","5","6","5","2","5","6","2","4","2","3","3","3","3","5","5","6","3","4","2","5","2","5","3","6","3","3","745398419547492353","孙","Male","[""好他"",""坏他"",""好我"",""坏我""]","[""强他"",""弱他"",""强我"",""弱我""]","","","","","","","","nonmatch","","","","","","","","","","key","j","20.19841584158424","683","380","j","true","nonmatch","img/trapezoid.png","坏我","坏他","prac_ALT2_moral","practice_moral","","","","","","","",""
"null","<span style='color:GreenYellow; font-size: 70px;'>正确! </span>","null","html-keyboard-response","11","235577","0.0-8.0-0.0-1.0-0.0-1.0","6","6","6","6","6","5","5","4","5","5","4","-2","2","1","1","1","1","1","1","5","4","5","2","4","4","5","4","4","4","5","7","4","7","2","6","7","4","6","6","6","5","6","6","6","6","1","5","6","5","2","6","6","5","6","5","2","5","6","2","4","2","3","3","3","3","5","5","6","3","4","2","5","2","5","3","6","3","3","745398419547492353","孙","Male","[""好他"",""坏他"",""好我"",""坏我""]","[""强他"",""弱他"",""强我"",""弱我""]","","","","","","","","","","","","","","","","","","","","","","","","","","","","","","feedback_test","","","","","","","",""
"619","","f","psychophysics","12","237204","0.0-8.0-0.0-1.0-0.0-0.1","6","6","6","6","6","5","5","4","5","5","4","-2","2","1","1","1","1","1","1","5","4","5","2","4","4","5","4","4","4","5","7","4","7","2","6","7","4","6","6","6","5","6","6","6","6","1","5","6","5","2","6","6","5","6","5","2","5","6","2","4","2","3","3","3","3","5","5","6","3","4","2","5","2","5","3","6","3","3","745398419547492353","孙","Male","[""好他"",""坏他"",""好我"",""坏我""]","[""强他"",""弱他"",""强我"",""弱我""]","","","","","","","","match","","","","","","","","","","key","f","20.925039473684016","683","380","f","true","match","img/ellipse.png","好我","好我","prac_ALT2_moral","practice_moral","","","","","","","",""
"null","<span style='color:GreenYellow; font-size: 70px;'>正确! </span>","null","html-keyboard-response","13","237721","0.0-8.0-0.0-1.0-0.0-1.1","6","6","6","6","6","5","5","4","5","5","4","-2","2","1","1","1","1","1","1","5","4","5","2","4","4","5","4","4","4","5","7","4","7","2","6","7","4","6","6","6","5","6","6","6","6","1","5","6","5","2","6","6","5","6","5","2","5","6","2","4","2","3","3","3","3","5","5","6","3","4","2","5","2","5","3","6","3","3","745398419547492353","孙","Male","[""好他"",""坏他"",""好我"",""坏我""]","[""强他"",""弱他"",""强我"",""弱我""]","","","","","","","","","","","","","","","","","","","","","","","","","","","","","","feedback_test","","","","","","","",""
"1061","","j","psychophysics","14","239816","0.0-8.0-0.0-1.0-0.0-0.2","6","6","6","6","6","5","5","4","5","5","4","-2","2","1","1","1","1","1","1","5","4","5","2","4","4","5","4","4","4","5","7","4","7","2","6","7","4","6","6","6","5","6","6","6","6","1","5","6","5","2","6","6","5","6","5","2","5","6","2","4","2","3","3","3","3","5","5","6","3","4","2","5","2","5","3","6","3","3","745398419547492353","孙","Male","[""好他"",""坏他"",""好我"",""坏我""]","[""强他"",""弱他"",""强我"",""弱我""]","","","","","","","","nonmatch","","","","","","","","","","key","j","20.111735294117906","683","380","j","true","nonmatch","img/hexagon.png","坏我","好他","prac_ALT2_moral","practice_moral","","","","","","","",""
"null","<span style='color:GreenYellow; font-size: 70px;'>正确! </span>","null","html-keyboard-response","15","240330","0.0-8.0-0.0-1.0-0.0-1.2","6","6","6","6","6","5","5","4","5","5","4","-2","2","1","1","1","1","1","1","5","4","5","2","4","4","5","4","4","4","5","7","4","7","2","6","7","4","6","6","6","5","6","6","6","6","1","5","6","5","2","6","6","5","6","5","2","5","6","2","4","2","3","3","3","3","5","5","6","3","4","2","5","2","5","3","6","3","3","745398419547492353","孙","Male","[""好他"",""坏他"",""好我"",""坏我""]","[""强他"",""弱他"",""强我"",""弱我""]","","","","","","","","","","","","","","","","","","","","","","","","","","","","","","feedback_test","","","","","","","",""
"1025","","j","psychophysics","16","242366","0.0-8.0-0.0-1.0-0.0-0.3","6","6","6","6","6","5","5","4","5","5","4","-2","2","1","1","1","1","1","1","5","4","5","2","4","4","5","4","4","4","5","7","4","7","2","6","7","4","6","6","6","5","6","6","6","6","1","5","6","5","2","6","6","5","6","5","2","5","6","2","4","2","3","3","3","3","5","5","6","3","4","2","5","2","5","3","6","3","3","745398419547492353","孙","Male","[""好他"",""坏他"",""好我"",""坏我""]","[""强他"",""弱他"",""强我"",""弱我""]","","","","","","","","nonmatch","","","","","","","","","","key","j","20.26235789473714","683","380","j","true","nonmatch","img/hexagon.png","坏他","好他","prac_ALT2_moral","practice_moral","","","","","","","",""
"null","<span style='color:GreenYellow; font-size: 70px;'>正确! </span>","null","html-keyboard-response","17","242884","0.0-8.0-0.0-1.0-0.0-1.3","6","6","6","6","6","5","5","4","5","5","4","-2","2","1","1","1","1","1","1","5","4","5","2","4","4","5","4","4","4","5","7","4","7","2","6","7","4","6","6","6","5","6","6","6","6","1","5","6","5","2","6","6","5","6","5","2","5","6","2","4","2","3","3","3","3","5","5","6","3","4","2","5","2","5","3","6","3","3","745398419547492353","孙","Male","[""好他"",""坏他"",""好我"",""坏我""]","[""强他"",""弱他"",""强我"",""弱我""]","","","","","","","","","","","","","","","","","","","","","","","","","","","","","","feedback_test","","","","","","","",""
"794","","j","psychophysics","18","244684","0.0-8.0-0.0-1.0-0.0-0.4","6","6","6","6","6","5","5","4","5","5","4","-2","2","1","1","1","1","1","1","5","4","5","2","4","4","5","4","4","4","5","7","4","7","2","6","7","4","6","6","6","5","6","6","6","6","1","5","6","5","2","6","6","5","6","5","2","5","6","2","4","2","3","3","3","3","5","5","6","3","4","2","5","2","5","3","6","3","3","745398419547492353","孙","Male","[""好他"",""坏他"",""好我"",""坏我""]","[""强他"",""弱他"",""强我"",""弱我""]","","","","","","","","nonmatch","","","","","","","","","","key","j","21.036607142856933","683","380","j","true","nonmatch","img/trapezoid.png","好我","坏他","prac_ALT2_moral","practice_moral","","","","","","","",""
"null","<span style='color:GreenYellow; font-size: 70px;'>正确! </span>","null","html-keyboard-response","19","245203","0.0-8.0-0.0-1.0-0.0-1.4","6","6","6","6","6","5","5","4","5","5","4","-2","2","1","1","1","1","1","1","5","4","5","2","4","4","5","4","4","4","5","7","4","7","2","6","7","4","6","6","6","5","6","6","6","6","1","5","6","5","2","6","6","5","6","5","2","5","6","2","4","2","3","3","3","3","5","5","6","3","4","2","5","2","5","3","6","3","3","745398419547492353","孙","Male","[""好他"",""坏他"",""好我"",""坏我""]","[""强他"",""弱他"",""强我"",""弱我""]","","","","","","","","","","","","","","","","","","","","","","","","","","","","","","feedback_test","","","","","","","",""
"956","","j","psychophysics","20","247175","0.0-8.0-0.0-1.0-0.0-0.5","6","6","6","6","6","5","5","4","5","5","4","-2","2","1","1","1","1","1","1","5","4","5","2","4","4","5","4","4","4","5","7","4","7","2","6","7","4","6","6","6","5","6","6","6","6","1","5","6","5","2","6","6","5","6","5","2","5","6","2","4","2","3","3","3","3","5","5","6","3","4","2","5","2","5","3","6","3","3","745398419547492353","孙","Male","[""好他"",""坏他"",""好我"",""坏我""]","[""强他"",""弱他"",""强我"",""弱我""]","","","","","","","","nonmatch","","","","","","","","","","key","j","21.563460674157152","683","380","f","false","match","img/trapezoid.png","坏他","坏他","prac_ALT2_moral","practice_moral","","","","","","","",""
"null","<span style='color:red; font-size: 70px;'>错误! </span>","null","html-keyboard-response","21","247687","0.0-8.0-0.0-1.0-0.0-1.5","6","6","6","6","6","5","5","4","5","5","4","-2","2","1","1","1","1","1","1","5","4","5","2","4","4","5","4","4","4","5","7","4","7","2","6","7","4","6","6","6","5","6","6","6","6","1","5","6","5","2","6","6","5","6","5","2","5","6","2","4","2","3","3","3","3","5","5","6","3","4","2","5","2","5","3","6","3","3","745398419547492353","孙","Male","[""好他"",""坏他"",""好我"",""坏我""]","[""强他"",""弱他"",""强我"",""弱我""]","","","","","","","","","","","","","","","","","","","","","","","","","","","","","","feedback_test","","","","","","","",""
"1091","","j","psychophysics","22","249786","0.0-8.0-0.0-1.0-0.0-0.6","6","6","6","6","6","5","5","4","5","5","4","-2","2","1","1","1","1","1","1","5","4","5","2","4","4","5","4","4","4","5","7","4","7","2","6","7","4","6","6","6","5","6","6","6","6","1","5","6","5","2","6","6","5","6","5","2","5","6","2","4","2","3","3","3","3","5","5","6","3","4","2","5","2","5","3","6","3","3","745398419547492353","孙","Male","[""好他"",""坏他"",""好我"",""坏我""]","[""强他"",""弱他"",""强我"",""弱我""]","","","","","","","","nonmatch","","","","","","","","","","key","j","20.988173469387906","683","380","j","true","nonmatch","img/square.png","好他","坏我","prac_ALT2_moral","practice_moral","","","","","","","",""
"null","<span style='color:GreenYellow; font-size: 70px;'>正确! </span>","null","html-keyboard-response","23","250292","0.0-8.0-0.0-1.0-0.0-1.6","6","6","6","6","6","5","5","4","5","5","4","-2","2","1","1","1","1","1","1","5","4","5","2","4","4","5","4","4","4","5","7","4","7","2","6","7","4","6","6","6","5","6","6","6","6","1","5","6","5","2","6","6","5","6","5","2","5","6","2","4","2","3","3","3","3","5","5","6","3","4","2","5","2","5","3","6","3","3","745398419547492353","孙","Male","[""好他"",""坏他"",""好我"",""坏我""]","[""强他"",""弱他"",""强我"",""弱我""]","","","","","","","","","","","","","","","","","","","","","","","","","","","","","","feedback_test","","","","","","","",""
"990","","j","psychophysics","24","252288","0.0-8.0-0.0-1.0-0.0-0.7","6","6","6","6","6","5","5","4","5","5","4","-2","2","1","1","1","1","1","1","5","4","5","2","4","4","5","4","4","4","5","7","4","7","2","6","7","4","6","6","6","5","6","6","6","6","1","5","6","5","2","6","6","5","6","5","2","5","6","2","4","2","3","3","3","3","5","5","6","3","4","2","5","2","5","3","6","3","3","745398419547492353","孙","Male","[""好他"",""坏他"",""好我"",""坏我""]","[""强他"",""弱他"",""强我"",""弱我""]","","","","","","","","nonmatch","","","","","","","","","","key","j","20.636107526881677","683","380","j","true","nonmatch","img/hexagon.png","好我","好他","prac_ALT2_moral","practice_moral","","","","","","","",""
"null","<span style='color:GreenYellow; font-size: 70px;'>正确! </span>","null","html-keyboard-response","25","252797","0.0-8.0-0.0-1.0-0.0-1.7","6","6","6","6","6","5","5","4","5","5","4","-2","2","1","1","1","1","1","1","5","4","5","2","4","4","5","4","4","4","5","7","4","7","2","6","7","4","6","6","6","5","6","6","6","6","1","5","6","5","2","6","6","5","6","5","2","5","6","2","4","2","3","3","3","3","5","5","6","3","4","2","5","2","5","3","6","3","3","745398419547492353","孙","Male","[""好他"",""坏他"",""好我"",""坏我""]","[""强他"",""弱他"",""强我"",""弱我""]","","","","","","","","","","","","","","","","","","","","","","","","","","","","","","feedback_test","","","","","","","",""
"948","","f","psychophysics","26","254763","0.0-8.0-0.0-1.0-0.0-0.8","6","6","6","6","6","5","5","4","5","5","4","-2","2","1","1","1","1","1","1","5","4","5","2","4","4","5","4","4","4","5","7","4","7","2","6","7","4","6","6","6","5","6","6","6","6","1","5","6","5","2","6","6","5","6","5","2","5","6","2","4","2","3","3","3","3","5","5","6","3","4","2","5","2","5","3","6","3","3","745398419547492353","孙","Male","[""好他"",""坏他"",""好我"",""坏我""]","[""强他"",""弱他"",""强我"",""弱我""]","","","","","","","","match","","","","","","","","","","key","f","20.341499999999947","683","380","f","true","match","img/ellipse.png","好我","好我","prac_ALT2_moral","practice_moral","","","","","","","",""
"null","<span style='color:GreenYellow; font-size: 70px;'>正确! </span>","null","html-keyboard-response","27","255268","0.0-8.0-0.0-1.0-0.0-1.8","6","6","6","6","6","5","5","4","5","5","4","-2","2","1","1","1","1","1","1","5","4","5","2","4","4","5","4","4","4","5","7","4","7","2","6","7","4","6","6","6","5","6","6","6","6","1","5","6","5","2","6","6","5","6","5","2","5","6","2","4","2","3","3","3","3","5","5","6","3","4","2","5","2","5","3","6","3","3","745398419547492353","孙","Male","[""好他"",""坏他"",""好我"",""坏我""]","[""强他"",""弱他"",""强我"",""弱我""]","","","","","","","","","","","","","","","","","","","","","","","","","","","","","","feedback_test","","","","","","","",""
"846","","j","psychophysics","28","257142","0.0-8.0-0.0-1.0-0.0-0.9","6","6","6","6","6","5","5","4","5","5","4","-2","2","1","1","1","1","1","1","5","4","5","2","4","4","5","4","4","4","5","7","4","7","2","6","7","4","6","6","6","5","6","6","6","6","1","5","6","5","2","6","6","5","6","5","2","5","6","2","4","2","3","3","3","3","5","5","6","3","4","2","5","2","5","3","6","3","3","745398419547492353","孙","Male","[""好他"",""坏他"",""好我"",""坏我""]","[""强他"",""弱他"",""强我"",""弱我""]","","","","","","","","nonmatch","","","","","","","","","","key","j","19.438010752688335","683","380","j","true","nonmatch","img/ellipse.png","坏他","好我","prac_ALT2_moral","practice_moral","","","","","","","",""
"null","<span style='color:GreenYellow; font-size: 70px;'>正确! </span>","null","html-keyboard-response","29","257651","0.0-8.0-0.0-1.0-0.0-1.9","6","6","6","6","6","5","5","4","5","5","4","-2","2","1","1","1","1","1","1","5","4","5","2","4","4","5","4","4","4","5","7","4","7","2","6","7","4","6","6","6","5","6","6","6","6","1","5","6","5","2","6","6","5","6","5","2","5","6","2","4","2","3","3","3","3","5","5","6","3","4","2","5","2","5","3","6","3","3","745398419547492353","孙","Male","[""好他"",""坏他"",""好我"",""坏我""]","[""强他"",""弱他"",""强我"",""弱我""]","","","","","","","","","","","","","","","","","","","","","","","","","","","","","","feedback_test","","","","","","","",""
"984","","j","psychophysics","30","259654","0.0-8.0-0.0-1.0-0.0-0.10","6","6","6","6","6","5","5","4","5","5","4","-2","2","1","1","1","1","1","1","5","4","5","2","4","4","5","4","4","4","5","7","4","7","2","6","7","4","6","6","6","5","6","6","6","6","1","5","6","5","2","6","6","5","6","5","2","5","6","2","4","2","3","3","3","3","5","5","6","3","4","2","5","2","5","3","6","3","3","745398419547492353","孙","Male","[""好他"",""坏他"",""好我"",""坏我""]","[""强他"",""弱他"",""强我"",""弱我""]","","","","","","","","nonmatch","","","","","","","","","","key","j","21.38738043478256","683","380","f","false","match","img/hexagon.png","好他","好他","prac_ALT2_moral","practice_moral","","","","","","","",""
"null","<span style='color:red; font-size: 70px;'>错误! </span>","null","html-keyboard-response","31","260169","0.0-8.0-0.0-1.0-0.0-1.10","6","6","6","6","6","5","5","4","5","5","4","-2","2","1","1","1","1","1","1","5","4","5","2","4","4","5","4","4","4","5","7","4","7","2","6","7","4","6","6","6","5","6","6","6","6","1","5","6","5","2","6","6","5","6","5","2","5","6","2","4","2","3","3","3","3","5","5","6","3","4","2","5","2","5","3","6","3","3","745398419547492353","孙","Male","[""好他"",""坏他"",""好我"",""坏我""]","[""强他"",""弱他"",""强我"",""弱我""]","","","","","","","","","","","","","","","","","","","","","","","","","","","","","","feedback_test","","","","","","","",""
"997","","j","psychophysics","32","262189","0.0-8.0-0.0-1.0-0.0-0.11","6","6","6","6","6","5","5","4","5","5","4","-2","2","1","1","1","1","1","1","5","4","5","2","4","4","5","4","4","4","5","7","4","7","2","6","7","4","6","6","6","5","6","6","6","6","1","5","6","5","2","6","6","5","6","5","2","5","6","2","4","2","3","3","3","3","5","5","6","3","4","2","5","2","5","3","6","3","3","745398419547492353","孙","Male","[""好他"",""坏他"",""好我"",""坏我""]","[""强他"",""弱他"",""强我"",""弱我""]","","","","","","","","nonmatch","","","","","","","","","","key","j","19.749159999999684","683","380","f","false","match","img/square.png","坏我","坏我","prac_ALT2_moral","practice_moral","","","","","","","",""
"null","<span style='color:red; font-size: 70px;'>错误! </span>","null","html-keyboard-response","33","262704","0.0-8.0-0.0-1.0-0.0-1.11","6","6","6","6","6","5","5","4","5","5","4","-2","2","1","1","1","1","1","1","5","4","5","2","4","4","5","4","4","4","5","7","4","7","2","6","7","4","6","6","6","5","6","6","6","6","1","5","6","5","2","6","6","5","6","5","2","5","6","2","4","2","3","3","3","3","5","5","6","3","4","2","5","2","5","3","6","3","3","745398419547492353","孙","Male","[""好他"",""坏他"",""好我"",""坏我""]","[""强他"",""弱他"",""强我"",""弱我""]","","","","","","","","","","","","","","","","","","","","","","","","","","","","","","feedback_test","","","","","","","",""
"951","","j","psychophysics","34","264689","0.0-8.0-0.0-1.0-0.0-0.12","6","6","6","6","6","5","5","4","5","5","4","-2","2","1","1","1","1","1","1","5","4","5","2","4","4","5","4","4","4","5","7","4","7","2","6","7","4","6","6","6","5","6","6","6","6","1","5","6","5","2","6","6","5","6","5","2","5","6","2","4","2","3","3","3","3","5","5","6","3","4","2","5","2","5","3","6","3","3","745398419547492353","孙","Male","[""好他"",""坏他"",""好我"",""坏我""]","[""强他"",""弱他"",""强我"",""弱我""]","","","","","","","","nonmatch","","","","","","","","","","key","j","20.362010526315824","683","380","f","false","match","img/hexagon.png","好他","好他","prac_ALT2_moral","practice_moral","","","","","","","",""
"null","<span style='color:red; font-size: 70px;'>错误! </span>","null","html-keyboard-response","35","265204","0.0-8.0-0.0-1.0-0.0-1.12","6","6","6","6","6","5","5","4","5","5","4","-2","2","1","1","1","1","1","1","5","4","5","2","4","4","5","4","4","4","5","7","4","7","2","6","7","4","6","6","6","5","6","6","6","6","1","5","6","5","2","6","6","5","6","5","2","5","6","2","4","2","3","3","3","3","5","5","6","3","4","2","5","2","5","3","6","3","3","745398419547492353","孙","Male","[""好他"",""坏他"",""好我"",""坏我""]","[""强他"",""弱他"",""强我"",""弱我""]","","","","","","","","","","","","","","","","","","","","","","","","","","","","","","feedback_test","","","","","","","",""
"null","","null","psychophysics","36","267456","0.0-8.0-0.0-1.0-0.0-0.13","6","6","6","6","6","5","5","4","5","5","4","-2","2","1","1","1","1","1","1","5","4","5","2","4","4","5","4","4","4","5","7","4","7","2","6","7","4","6","6","6","5","6","6","6","6","1","5","6","5","2","6","6","5","6","5","2","5","6","2","4","2","3","3","3","3","5","5","6","3","4","2","5","2","5","3","6","3","3","745398419547492353","孙","Male","[""好他"",""坏他"",""好我"",""坏我""]","[""强他"",""弱他"",""强我"",""弱我""]","","","","","","","","null","","","","","","","","","","key","null","21.028480769230764","683","380","f","false","match","img/square.png","坏我","坏我","prac_ALT2_moral","practice_moral","","","","","","","",""
"null","<span class='add_' style='color:yellow; font-size: 70px;'> 太慢! </span>","null","html-keyboard-response","37","267967","0.0-8.0-0.0-1.0-0.0-1.13","6","6","6","6","6","5","5","4","5","5","4","-2","2","1","1","1","1","1","1","5","4","5","2","4","4","5","4","4","4","5","7","4","7","2","6","7","4","6","6","6","5","6","6","6","6","1","5","6","5","2","6","6","5","6","5","2","5","6","2","4","2","3","3","3","3","5","5","6","3","4","2","5","2","5","3","6","3","3","745398419547492353","孙","Male","[""好他"",""坏他"",""好我"",""坏我""]","[""强他"",""弱他"",""强我"",""弱我""]","","","","","","","","","","","","","","","","","","","","","","","","","","","","","","feedback_test","","","","","","","",""
"712","","f","psychophysics","38","269692","0.0-8.0-0.0-1.0-0.0-0.14","6","6","6","6","6","5","5","4","5","5","4","-2","2","1","1","1","1","1","1","5","4","5","2","4","4","5","4","4","4","5","7","4","7","2","6","7","4","6","6","6","5","6","6","6","6","1","5","6","5","2","6","6","5","6","5","2","5","6","2","4","2","3","3","3","3","5","5","6","3","4","2","5","2","5","3","6","3","3","745398419547492353","孙","Male","[""好他"",""坏他"",""好我"",""坏我""]","[""强他"",""弱他"",""强我"",""弱我""]","","","","","","","","match","","","","","","","","","","key","f","20.351795180723162","683","380","f","true","match","img/ellipse.png","好我","好我","prac_ALT2_moral","practice_moral","","","","","","","",""
"null","<span style='color:GreenYellow; font-size: 70px;'>正确! </span>","null","html-keyboard-response","39","270198","0.0-8.0-0.0-1.0-0.0-1.14","6","6","6","6","6","5","5","4","5","5","4","-2","2","1","1","1","1","1","1","5","4","5","2","4","4","5","4","4","4","5","7","4","7","2","6","7","4","6","6","6","5","6","6","6","6","1","5","6","5","2","6","6","5","6","5","2","5","6","2","4","2","3","3","3","3","5","5","6","3","4","2","5","2","5","3","6","3","3","745398419547492353","孙","Male","[""好他"",""坏他"",""好我"",""坏我""]","[""强他"",""弱他"",""强我"",""弱我""]","","","","","","","","","","","","","","","","","","","","","","","","","","","","","","feedback_test","","","","","","","",""
"802","","f","psychophysics","40","272008","0.0-8.0-0.0-1.0-0.0-0.15","6","6","6","6","6","5","5","4","5","5","4","-2","2","1","1","1","1","1","1","5","4","5","2","4","4","5","4","4","4","5","7","4","7","2","6","7","4","6","6","6","5","6","6","6","6","1","5","6","5","2","6","6","5","6","5","2","5","6","2","4","2","3","3","3","3","5","5","6","3","4","2","5","2","5","3","6","3","3","745398419547492353","孙","Male","[""好他"",""坏他"",""好我"",""坏我""]","[""强他"",""弱他"",""强我"",""弱我""]","","","","","","","","match","","","","","","","","","","key","f","19.52861111111124","683","380","j","false","nonmatch","img/ellipse.png","坏我","好我","prac_ALT2_moral","practice_moral","","","","","","","",""
"null","<span style='color:red; font-size: 70px;'>错误! </span>","null","html-keyboard-response","41","272520","0.0-8.0-0.0-1.0-0.0-1.15","6","6","6","6","6","5","5","4","5","5","4","-2","2","1","1","1","1","1","1","5","4","5","2","4","4","5","4","4","4","5","7","4","7","2","6","7","4","6","6","6","5","6","6","6","6","1","5","6","5","2","6","6","5","6","5","2","5","6","2","4","2","3","3","3","3","5","5","6","3","4","2","5","2","5","3","6","3","3","745398419547492353","孙","Male","[""好他"",""坏他"",""好我"",""坏我""]","[""强他"",""弱他"",""强我"",""弱我""]","","","","","","","","","","","","","","","","","","","","","","","","","","","","","","feedback_test","","","","","","","",""
"1012","","j","psychophysics","42","274547","0.0-8.0-0.0-1.0-0.0-0.16","6","6","6","6","6","5","5","4","5","5","4","-2","2","1","1","1","1","1","1","5","4","5","2","4","4","5","4","4","4","5","7","4","7","2","6","7","4","6","6","6","5","6","6","6","6","1","5","6","5","2","6","6","5","6","5","2","5","6","2","4","2","3","3","3","3","5","5","6","3","4","2","5","2","5","3","6","3","3","745398419547492353","孙","Male","[""好他"",""坏他"",""好我"",""坏我""]","[""强他"",""弱他"",""强我"",""弱我""]","","","","","","","","nonmatch","","","","","","","","","","key","j","20.713757894737157","683","380","j","true","nonmatch","img/square.png","坏他","坏我","prac_ALT2_moral","practice_moral","","","","","","","",""
"null","<span style='color:GreenYellow; font-size: 70px;'>正确! </span>","null","html-keyboard-response","43","275051","0.0-8.0-0.0-1.0-0.0-1.16","6","6","6","6","6","5","5","4","5","5","4","-2","2","1","1","1","1","1","1","5","4","5","2","4","4","5","4","4","4","5","7","4","7","2","6","7","4","6","6","6","5","6","6","6","6","1","5","6","5","2","6","6","5","6","5","2","5","6","2","4","2","3","3","3","3","5","5","6","3","4","2","5","2","5","3","6","3","3","745398419547492353","孙","Male","[""好他"",""坏他"",""好我"",""坏我""]","[""强他"",""弱他"",""强我"",""弱我""]","","","","","","","","","","","","","","","","","","","","","","","","","","","","","","feedback_test","","","","","","","",""
"1043","","j","psychophysics","44","277100","0.0-8.0-0.0-1.0-0.0-0.17","6","6","6","6","6","5","5","4","5","5","4","-2","2","1","1","1","1","1","1","5","4","5","2","4","4","5","4","4","4","5","7","4","7","2","6","7","4","6","6","6","5","6","6","6","6","1","5","6","5","2","6","6","5","6","5","2","5","6","2","4","2","3","3","3","3","5","5","6","3","4","2","5","2","5","3","6","3","3","745398419547492353","孙","Male","[""好他"",""坏他"",""好我"",""坏我""]","[""强他"",""弱他"",""强我"",""弱我""]","","","","","","","","nonmatch","","","","","","","","","","key","j","19.884485148514695","683","380","f","false","match","img/square.png","坏我","坏我","prac_ALT2_moral","practice_moral","","","","","","","",""
"null","<span style='color:red; font-size: 70px;'>错误! </span>","null","html-keyboard-response","45","277607","0.0-8.0-0.0-1.0-0.0-1.17","6","6","6","6","6","5","5","4","5","5","4","-2","2","1","1","1","1","1","1","5","4","5","2","4","4","5","4","4","4","5","7","4","7","2","6","7","4","6","6","6","5","6","6","6","6","1","5","6","5","2","6","6","5","6","5","2","5","6","2","4","2","3","3","3","3","5","5","6","3","4","2","5","2","5","3","6","3","3","745398419547492353","孙","Male","[""好他"",""坏他"",""好我"",""坏我""]","[""强他"",""弱他"",""强我"",""弱我""]","","","","","","","","","","","","","","","","","","","","","","","","","","","","","","feedback_test","","","","","","","",""
"967","","j","psychophysics","46","279583","0.0-8.0-0.0-1.0-0.0-0.18","6","6","6","6","6","5","5","4","5","5","4","-2","2","1","1","1","1","1","1","5","4","5","2","4","4","5","4","4","4","5","7","4","7","2","6","7","4","6","6","6","5","6","6","6","6","1","5","6","5","2","6","6","5","6","5","2","5","6","2","4","2","3","3","3","3","5","5","6","3","4","2","5","2","5","3","6","3","3","745398419547492353","孙","Male","[""好他"",""坏他"",""好我"",""坏我""]","[""强他"",""弱他"",""强我"",""弱我""]","","","","","","","","nonmatch","","","","","","","","","","key","j","20.577510638298104","683","380","f","false","match","img/hexagon.png","好他","好他","prac_ALT2_moral","practice_moral","","","","","","","",""
"null","<span style='color:red; font-size: 70px;'>错误! </span>","null","html-keyboard-response","47","280096","0.0-8.0-0.0-1.0-0.0-1.18","6","6","6","6","6","5","5","4","5","5","4","-2","2","1","1","1","1","1","1","5","4","5","2","4","4","5","4","4","4","5","7","4","7","2","6","7","4","6","6","6","5","6","6","6","6","1","5","6","5","2","6","6","5","6","5","2","5","6","2","4","2","3","3","3","3","5","5","6","3","4","2","5","2","5","3","6","3","3","745398419547492353","孙","Male","[""好他"",""坏他"",""好我"",""坏我""]","[""强他"",""弱他"",""强我"",""弱我""]","","","","","","","","","","","","","","","","","","","","","","","","","","","","","","feedback_test","","","","","","","",""
"1068","","f","psychophysics","48","282173","0.0-8.0-0.0-1.0-0.0-0.19","6","6","6","6","6","5","5","4","5","5","4","-2","2","1","1","1","1","1","1","5","4","5","2","4","4","5","4","4","4","5","7","4","7","2","6","7","4","6","6","6","5","6","6","6","6","1","5","6","5","2","6","6","5","6","5","2","5","6","2","4","2","3","3","3","3","5","5","6","3","4","2","5","2","5","3","6","3","3","745398419547492353","孙","Male","[""好他"",""坏他"",""好我"",""坏我""]","[""强他"",""弱他"",""强我"",""弱我""]","","","","","","","","match","","","","","","","","","","key","f","21.316442105262908","683","380","j","false","nonmatch","img/trapezoid.png","好他","坏他","prac_ALT2_moral","practice_moral","","","","","","","",""
"null","<span style='color:red; font-size: 70px;'>错误! </span>","null","html-keyboard-response","49","282678","0.0-8.0-0.0-1.0-0.0-1.19","6","6","6","6","6","5","5","4","5","5","4","-2","2","1","1","1","1","1","1","5","4","5","2","4","4","5","4","4","4","5","7","4","7","2","6","7","4","6","6","6","5","6","6","6","6","1","5","6","5","2","6","6","5","6","5","2","5","6","2","4","2","3","3","3","3","5","5","6","3","4","2","5","2","5","3","6","3","3","745398419547492353","孙","Male","[""好他"",""坏他"",""好我"",""坏我""]","[""强他"",""弱他"",""强我"",""弱我""]","","","","","","","","","","","","","","","","","","","","","","","","","","","","","","feedback_test","","","","","","","",""
"904","","j","psychophysics","50","284588","0.0-8.0-0.0-1.0-0.0-0.20","6","6","6","6","6","5","5","4","5","5","4","-2","2","1","1","1","1","1","1","5","4","5","2","4","4","5","4","4","4","5","7","4","7","2","6","7","4","6","6","6","5","6","6","6","6","1","5","6","5","2","6","6","5","6","5","2","5","6","2","4","2","3","3","3","3","5","5","6","3","4","2","5","2","5","3","6","3","3","745398419547492353","孙","Male","[""好他"",""坏他"",""好我"",""坏我""]","[""强他"",""弱他"",""强我"",""弱我""]","","","","","","","","nonmatch","","","","","","","","","","key","j","20.358119565217233","683","380","j","true","nonmatch","img/square.png","好我","坏我","prac_ALT2_moral","practice_moral","","","","","","","",""
"null","<span style='color:GreenYellow; font-size: 70px;'>正确! </span>","null","html-keyboard-response","51","285099","0.0-8.0-0.0-1.0-0.0-1.20","6","6","6","6","6","5","5","4","5","5","4","-2","2","1","1","1","1","1","1","5","4","5","2","4","4","5","4","4","4","5","7","4","7","2","6","7","4","6","6","6","5","6","6","6","6","1","5","6","5","2","6","6","5","6","5","2","5","6","2","4","2","3","3","3","3","5","5","6","3","4","2","5","2","5","3","6","3","3","745398419547492353","孙","Male","[""好他"",""坏他"",""好我"",""坏我""]","[""强他"",""弱他"",""强我"",""弱我""]","","","","","","","","","","","","","","","","","","","","","","","","","","","","","","feedback_test","","","","","","","",""
"896","","f","psychophysics","52","287011","0.0-8.0-0.0-1.0-0.0-0.21","6","6","6","6","6","5","5","4","5","5","4","-2","2","1","1","1","1","1","1","5","4","5","2","4","4","5","4","4","4","5","7","4","7","2","6","7","4","6","6","6","5","6","6","6","6","1","5","6","5","2","6","6","5","6","5","2","5","6","2","4","2","3","3","3","3","5","5","6","3","4","2","5","2","5","3","6","3","3","745398419547492353","孙","Male","[""好他"",""坏他"",""好我"",""坏我""]","[""强他"",""弱他"",""强我"",""弱我""]","","","","","","","","match","","","","","","","","","","key","f","19.976365591397492","683","380","f","true","match","img/trapezoid.png","坏他","坏他","prac_ALT2_moral","practice_moral","","","","","","","",""
"null","<span style='color:GreenYellow; font-size: 70px;'>正确! </span>","null","html-keyboard-response","53","287518","0.0-8.0-0.0-1.0-0.0-1.21","6","6","6","6","6","5","5","4","5","5","4","-2","2","1","1","1","1","1","1","5","4","5","2","4","4","5","4","4","4","5","7","4","7","2","6","7","4","6","6","6","5","6","6","6","6","1","5","6","5","2","6","6","5","6","5","2","5","6","2","4","2","3","3","3","3","5","5","6","3","4","2","5","2","5","3","6","3","3","745398419547492353","孙","Male","[""好他"",""坏他"",""好我"",""坏我""]","[""强他"",""弱他"",""强我"",""弱我""]","","","","","","","","","","","","","","","","","","","","","","","","","","","","","","feedback_test","","","","","","","",""
"1111","","f","psychophysics","54","289638","0.0-8.0-0.0-1.0-0.0-0.22","6","6","6","6","6","5","5","4","5","5","4","-2","2","1","1","1","1","1","1","5","4","5","2","4","4","5","4","4","4","5","7","4","7","2","6","7","4","6","6","6","5","6","6","6","6","1","5","6","5","2","6","6","5","6","5","2","5","6","2","4","2","3","3","3","3","5","5","6","3","4","2","5","2","5","3","6","3","3","745398419547492353","孙","Male","[""好他"",""坏他"",""好我"",""坏我""]","[""强他"",""弱他"",""强我"",""弱我""]","","","","","","","","match","","","","","","","","","","key","f","21.273897959183717","683","380","f","true","match","img/trapezoid.png","坏他","坏他","prac_ALT2_moral","practice_moral","","","","","","","",""
"null","<span style='color:GreenYellow; font-size: 70px;'>正确! </span>","null","html-keyboard-response","55","290146","0.0-8.0-0.0-1.0-0.0-1.22","6","6","6","6","6","5","5","4","5","5","4","-2","2","1","1","1","1","1","1","5","4","5","2","4","4","5","4","4","4","5","7","4","7","2","6","7","4","6","6","6","5","6","6","6","6","1","5","6","5","2","6","6","5","6","5","2","5","6","2","4","2","3","3","3","3","5","5","6","3","4","2","5","2","5","3","6","3","3","745398419547492353","孙","Male","[""好他"",""坏他"",""好我"",""坏我""]","[""强他"",""弱他"",""强我"",""弱我""]","","","","","","","","","","","","","","","","","","","","","","","","","","","","","","feedback_test","","","","","","","",""
"901","","j","psychophysics","56","292060","0.0-8.0-0.0-1.0-0.0-0.23","6","6","6","6","6","5","5","4","5","5","4","-2","2","1","1","1","1","1","1","5","4","5","2","4","4","5","4","4","4","5","7","4","7","2","6","7","4","6","6","6","5","6","6","6","6","1","5","6","5","2","6","6","5","6","5","2","5","6","2","4","2","3","3","3","3","5","5","6","3","4","2","5","2","5","3","6","3","3","745398419547492353","孙","Male","[""好他"",""坏他"",""好我"",""坏我""]","[""强他"",""弱他"",""强我"",""弱我""]","","","","","","","","nonmatch","","","","","","","","","","key","j","19.942234042553267","683","380","j","true","nonmatch","img/ellipse.png","好他","好我","prac_ALT2_moral","practice_moral","","","","","","","",""
"null","<span style='color:GreenYellow; font-size: 70px;'>正确! </span>","null","html-keyboard-response","57","292567","0.0-8.0-0.0-1.0-0.0-1.23","6","6","6","6","6","5","5","4","5","5","4","-2","2","1","1","1","1","1","1","5","4","5","2","4","4","5","4","4","4","5","7","4","7","2","6","7","4","6","6","6","5","6","6","6","6","1","5","6","5","2","6","6","5","6","5","2","5","6","2","4","2","3","3","3","3","5","5","6","3","4","2","5","2","5","3","6","3","3","745398419547492353","孙","Male","[""好他"",""坏他"",""好我"",""坏我""]","[""强他"",""弱他"",""强我"",""弱我""]","","","","","","","","","","","","","","","","","","","","","","","","","","","","","","feedback_test","","","","","","","",""
"1187","","j","psychophysics","58","294772","0.0-8.0-0.0-1.0-0.0-0.24","6","6","6","6","6","5","5","4","5","5","4","-2","2","1","1","1","1","1","1","5","4","5","2","4","4","5","4","4","4","5","7","4","7","2","6","7","4","6","6","6","5","6","6","6","6","1","5","6","5","2","6","6","5","6","5","2","5","6","2","4","2","3","3","3","3","5","5","6","3","4","2","5","2","5","3","6","3","3","745398419547492353","孙","Male","[""好他"",""坏他"",""好我"",""坏我""]","[""强他"",""弱他"",""强我"",""弱我""]","","","","","","","","nonmatch","","","","","","","","","","key","j","27.94753246753274","683","380","f","false","match","img/square.png","坏我","坏我","prac_ALT2_moral","practice_moral","","","","","","","",""
"null","<span style='color:red; font-size: 70px;'>错误! </span>","null","html-keyboard-response","59","295280","0.0-8.0-0.0-1.0-0.0-1.24","6","6","6","6","6","5","5","4","5","5","4","-2","2","1","1","1","1","1","1","5","4","5","2","4","4","5","4","4","4","5","7","4","7","2","6","7","4","6","6","6","5","6","6","6","6","1","5","6","5","2","6","6","5","6","5","2","5","6","2","4","2","3","3","3","3","5","5","6","3","4","2","5","2","5","3","6","3","3","745398419547492353","孙","Male","[""好他"",""坏他"",""好我"",""坏我""]","[""强他"",""弱他"",""强我"",""弱我""]","","","","","","","","","","","","","","","","","","","","","","","","","","","","","","feedback_test","","","","","","","",""
"925","","j","psychophysics","60","297217","0.0-8.0-0.0-1.0-0.0-0.25","6","6","6","6","6","5","5","4","5","5","4","-2","2","1","1","1","1","1","1","5","4","5","2","4","4","5","4","4","4","5","7","4","7","2","6","7","4","6","6","6","5","6","6","6","6","1","5","6","5","2","6","6","5","6","5","2","5","6","2","4","2","3","3","3","3","5","5","6","3","4","2","5","2","5","3","6","3","3","745398419547492353","孙","Male","[""好他"",""坏他"",""好我"",""坏我""]","[""强他"",""弱他"",""强我"",""弱我""]","","","","","","","","nonmatch","","","","","","","","","","key","j","23.911792207792757","683","380","j","true","nonmatch","img/trapezoid.png","坏我","坏他","prac_ALT2_moral","practice_moral","","","","","","","",""
"null","<span style='color:GreenYellow; font-size: 70px;'>正确! </span>","null","html-keyboard-response","61","297724","0.0-8.0-0.0-1.0-0.0-1.25","6","6","6","6","6","5","5","4","5","5","4","-2","2","1","1","1","1","1","1","5","4","5","2","4","4","5","4","4","4","5","7","4","7","2","6","7","4","6","6","6","5","6","6","6","6","1","5","6","5","2","6","6","5","6","5","2","5","6","2","4","2","3","3","3","3","5","5","6","3","4","2","5","2","5","3","6","3","3","745398419547492353","孙","Male","[""好他"",""坏他"",""好我"",""坏我""]","[""强他"",""弱他"",""强我"",""弱我""]","","","","","","","","","","","","","","","","","","","","","","","","","","","","","","feedback_test","","","","","","","",""
"1159","","f","psychophysics","62","299910","0.0-8.0-0.0-1.0-0.0-0.26","6","6","6","6","6","5","5","4","5","5","4","-2","2","1","1","1","1","1","1","5","4","5","2","4","4","5","4","4","4","5","7","4","7","2","6","7","4","6","6","6","5","6","6","6","6","1","5","6","5","2","6","6","5","6","5","2","5","6","2","4","2","3","3","3","3","5","5","6","3","4","2","5","2","5","3","6","3","3","745398419547492353","孙","Male","[""好他"",""坏他"",""好我"",""坏我""]","[""强他"",""弱他"",""强我"",""弱我""]","","","","","","","","match","","","","","","","","","","key","f","20.368999999999897","683","380","f","true","match","img/trapezoid.png","坏他","坏他","prac_ALT2_moral","practice_moral","","","","","","","",""
"null","<span style='color:GreenYellow; font-size: 70px;'>正确! </span>","null","html-keyboard-response","63","300415","0.0-8.0-0.0-1.0-0.0-1.26","6","6","6","6","6","5","5","4","5","5","4","-2","2","1","1","1","1","1","1","5","4","5","2","4","4","5","4","4","4","5","7","4","7","2","6","7","4","6","6","6","5","6","6","6","6","1","5","6","5","2","6","6","5","6","5","2","5","6","2","4","2","3","3","3","3","5","5","6","3","4","2","5","2","5","3","6","3","3","745398419547492353","孙","Male","[""好他"",""坏他"",""好我"",""坏我""]","[""强他"",""弱他"",""强我"",""弱我""]","","","","","","","","","","","","","","","","","","","","","","","","","","","","","","feedback_test","","","","","","","",""
"1125","","j","psychophysics","64","302549","0.0-8.0-0.0-1.0-0.0-0.27","6","6","6","6","6","5","5","4","5","5","4","-2","2","1","1","1","1","1","1","5","4","5","2","4","4","5","4","4","4","5","7","4","7","2","6","7","4","6","6","6","5","6","6","6","6","1","5","6","5","2","6","6","5","6","5","2","5","6","2","4","2","3","3","3","3","5","5","6","3","4","2","5","2","5","3","6","3","3","745398419547492353","孙","Male","[""好他"",""坏他"",""好我"",""坏我""]","[""强他"",""弱他"",""强我"",""弱我""]","","","","","","","","nonmatch","","","","","","","","","","key","j","20.509696078431386","683","380","j","true","nonmatch","img/square.png","坏他","坏我","prac_ALT2_moral","practice_moral","","","","","","","",""
"null","<span style='color:GreenYellow; font-size: 70px;'>正确! </span>","null","html-keyboard-response","65","303055","0.0-8.0-0.0-1.0-0.0-1.27","6","6","6","6","6","5","5","4","5","5","4","-2","2","1","1","1","1","1","1","5","4","5","2","4","4","5","4","4","4","5","7","4","7","2","6","7","4","6","6","6","5","6","6","6","6","1","5","6","5","2","6","6","5","6","5","2","5","6","2","4","2","3","3","3","3","5","5","6","3","4","2","5","2","5","3","6","3","3","745398419547492353","孙","Male","[""好他"",""坏他"",""好我"",""坏我""]","[""强他"",""弱他"",""强我"",""弱我""]","","","","","","","","","","","","","","","","","","","","","","","","","","","","","","feedback_test","","","","","","","",""
"966","","j","psychophysics","66","305027","0.0-8.0-0.0-1.0-0.0-0.28","6","6","6","6","6","5","5","4","5","5","4","-2","2","1","1","1","1","1","1","5","4","5","2","4","4","5","4","4","4","5","7","4","7","2","6","7","4","6","6","6","5","6","6","6","6","1","5","6","5","2","6","6","5","6","5","2","5","6","2","4","2","3","3","3","3","5","5","6","3","4","2","5","2","5","3","6","3","3","745398419547492353","孙","Male","[""好他"",""坏他"",""好我"",""坏我""]","[""强他"",""弱他"",""强我"",""弱我""]","","","","","","","","nonmatch","","","","","","","","","","key","j","21.025499999999578","683","380","j","true","nonmatch","img/ellipse.png","坏我","好我","prac_ALT2_moral","practice_moral","","","","","","","",""
"null","<span style='color:GreenYellow; font-size: 70px;'>正确! </span>","null","html-keyboard-response","67","305531","0.0-8.0-0.0-1.0-0.0-1.28","6","6","6","6","6","5","5","4","5","5","4","-2","2","1","1","1","1","1","1","5","4","5","2","4","4","5","4","4","4","5","7","4","7","2","6","7","4","6","6","6","5","6","6","6","6","1","5","6","5","2","6","6","5","6","5","2","5","6","2","4","2","3","3","3","3","5","5","6","3","4","2","5","2","5","3","6","3","3","745398419547492353","孙","Male","[""好他"",""坏他"",""好我"",""坏我""]","[""强他"",""弱他"",""强我"",""弱我""]","","","","","","","","","","","","","","","","","","","","","","","","","","","","","","feedback_test","","","","","","","",""
"1094","","j","psychophysics","68","307636","0.0-8.0-0.0-1.0-0.0-0.29","6","6","6","6","6","5","5","4","5","5","4","-2","2","1","1","1","1","1","1","5","4","5","2","4","4","5","4","4","4","5","7","4","7","2","6","7","4","6","6","6","5","6","6","6","6","1","5","6","5","2","6","6","5","6","5","2","5","6","2","4","2","3","3","3","3","5","5","6","3","4","2","5","2","5","3","6","3","3","745398419547492353","孙","Male","[""好他"",""坏他"",""好我"",""坏我""]","[""强他"",""弱他"",""强我"",""弱我""]","","","","","","","","nonmatch","","","","","","","","","","key","j","21.22062886597891","683","380","f","false","match","img/hexagon.png","好他","好他","prac_ALT2_moral","practice_moral","","","","","","","",""
"null","<span style='color:red; font-size: 70px;'>错误! </span>","null","html-keyboard-response","69","308149","0.0-8.0-0.0-1.0-0.0-1.29","6","6","6","6","6","5","5","4","5","5","4","-2","2","1","1","1","1","1","1","5","4","5","2","4","4","5","4","4","4","5","7","4","7","2","6","7","4","6","6","6","5","6","6","6","6","1","5","6","5","2","6","6","5","6","5","2","5","6","2","4","2","3","3","3","3","5","5","6","3","4","2","5","2","5","3","6","3","3","745398419547492353","孙","Male","[""好他"",""坏他"",""好我"",""坏我""]","[""强他"",""弱他"",""强我"",""弱我""]","","","","","","","","","","","","","","","","","","","","","","","","","","","","","","feedback_test","","","","","","","",""
"1053","","j","psychophysics","70","310207","0.0-8.0-0.0-1.0-0.0-0.30","6","6","6","6","6","5","5","4","5","5","4","-2","2","1","1","1","1","1","1","5","4","5","2","4","4","5","4","4","4","5","7","4","7","2","6","7","4","6","6","6","5","6","6","6","6","1","5","6","5","2","6","6","5","6","5","2","5","6","2","4","2","3","3","3","3","5","5","6","3","4","2","5","2","5","3","6","3","3","745398419547492353","孙","Male","[""好他"",""坏他"",""好我"",""坏我""]","[""强他"",""弱他"",""强我"",""弱我""]","","","","","","","","nonmatch","","","","","","","","","","key","j","19.979445544555023","683","380","j","true","nonmatch","img/square.png","好他","坏我","prac_ALT2_moral","practice_moral","","","","","","","",""
"null","<span style='color:GreenYellow; font-size: 70px;'>正确! </span>","null","html-keyboard-response","71","310721","0.0-8.0-0.0-1.0-0.0-1.30","6","6","6","6","6","5","5","4","5","5","4","-2","2","1","1","1","1","1","1","5","4","5","2","4","4","5","4","4","4","5","7","4","7","2","6","7","4","6","6","6","5","6","6","6","6","1","5","6","5","2","6","6","5","6","5","2","5","6","2","4","2","3","3","3","3","5","5","6","3","4","2","5","2","5","3","6","3","3","745398419547492353","孙","Male","[""好他"",""坏他"",""好我"",""坏我""]","[""强他"",""弱他"",""强我"",""弱我""]","","","","","","","","","","","","","","","","","","","","","","","","","","","","","","feedback_test","","","","","","","",""
"null","","null","psychophysics","72","312949","0.0-8.0-0.0-1.0-0.0-0.31","6","6","6","6","6","5","5","4","5","5","4","-2","2","1","1","1","1","1","1","5","4","5","2","4","4","5","4","4","4","5","7","4","7","2","6","7","4","6","6","6","5","6","6","6","6","1","5","6","5","2","6","6","5","6","5","2","5","6","2","4","2","3","3","3","3","5","5","6","3","4","2","5","2","5","3","6","3","3","745398419547492353","孙","Male","[""好他"",""坏他"",""好我"",""坏我""]","[""强他"",""弱他"",""强我"",""弱我""]","","","","","","","","null","","","","","","","","","","key","null","20.488476635513948","683","380","f","false","match","img/square.png","坏我","坏我","prac_ALT2_moral","practice_moral","","","","","","","",""
"null","<span class='add_' style='color:yellow; font-size: 70px;'> 太慢! </span>","null","html-keyboard-response","73","313460","0.0-8.0-0.0-1.0-0.0-1.31","6","6","6","6","6","5","5","4","5","5","4","-2","2","1","1","1","1","1","1","5","4","5","2","4","4","5","4","4","4","5","7","4","7","2","6","7","4","6","6","6","5","6","6","6","6","1","5","6","5","2","6","6","5","6","5","2","5","6","2","4","2","3","3","3","3","5","5","6","3","4","2","5","2","5","3","6","3","3","745398419547492353","孙","Male","[""好他"",""坏他"",""好我"",""坏我""]","[""强他"",""弱他"",""强我"",""弱我""]","","","","","","","","","","","","","","","","","","","","","","","","","","","","","","feedback_test","","","","","","","",""
"953","","j","psychophysics","74","315429","0.0-8.0-0.0-1.0-0.0-0.32","6","6","6","6","6","5","5","4","5","5","4","-2","2","1","1","1","1","1","1","5","4","5","2","4","4","5","4","4","4","5","7","4","7","2","6","7","4","6","6","6","5","6","6","6","6","1","5","6","5","2","6","6","5","6","5","2","5","6","2","4","2","3","3","3","3","5","5","6","3","4","2","5","2","5","3","6","3","3","745398419547492353","孙","Male","[""好他"",""坏他"",""好我"",""坏我""]","[""强他"",""弱他"",""强我"",""弱我""]","","","","","","","","nonmatch","","","","","","","","","","key","j","19.570718749999894","683","380","j","true","nonmatch","img/ellipse.png","好他","好我","prac_ALT2_moral","practice_moral","","","","","","","",""
"null","<span style='color:GreenYellow; font-size: 70px;'>正确! </span>","null","html-keyboard-response","75","315939","0.0-8.0-0.0-1.0-0.0-1.32","6","6","6","6","6","5","5","4","5","5","4","-2","2","1","1","1","1","1","1","5","4","5","2","4","4","5","4","4","4","5","7","4","7","2","6","7","4","6","6","6","5","6","6","6","6","1","5","6","5","2","6","6","5","6","5","2","5","6","2","4","2","3","3","3","3","5","5","6","3","4","2","5","2","5","3","6","3","3","745398419547492353","孙","Male","[""好他"",""坏他"",""好我"",""坏我""]","[""强他"",""弱他"",""强我"",""弱我""]","","","","","","","","","","","","","","","","","","","","","","","","","","","","","","feedback_test","","","","","","","",""
"1084","","j","psychophysics","76","318040","0.0-8.0-0.0-1.0-0.0-0.33","6","6","6","6","6","5","5","4","5","5","4","-2","2","1","1","1","1","1","1","5","4","5","2","4","4","5","4","4","4","5","7","4","7","2","6","7","4","6","6","6","5","6","6","6","6","1","5","6","5","2","6","6","5","6","5","2","5","6","2","4","2","3","3","3","3","5","5","6","3","4","2","5","2","5","3","6","3","3","745398419547492353","孙","Male","[""好他"",""坏他"",""好我"",""坏我""]","[""强他"",""弱他"",""强我"",""弱我""]","","","","","","","","nonmatch","","","","","","","","","","key","j","20.216217821782067","683","380","j","true","nonmatch","img/trapezoid.png","好我","坏他","prac_ALT2_moral","practice_moral","","","","","","","",""
"null","<span style='color:GreenYellow; font-size: 70px;'>正确! </span>","null","html-keyboard-response","77","318554","0.0-8.0-0.0-1.0-0.0-1.33","6","6","6","6","6","5","5","4","5","5","4","-2","2","1","1","1","1","1","1","5","4","5","2","4","4","5","4","4","4","5","7","4","7","2","6","7","4","6","6","6","5","6","6","6","6","1","5","6","5","2","6","6","5","6","5","2","5","6","2","4","2","3","3","3","3","5","5","6","3","4","2","5","2","5","3","6","3","3","745398419547492353","孙","Male","[""好他"",""坏他"",""好我"",""坏我""]","[""强他"",""弱他"",""强我"",""弱我""]","","","","","","","","","","","","","","","","","","","","","","","","","","","","","","feedback_test","","","","","","","",""
"1090","","j","psychophysics","78","320687","0.0-8.0-0.0-1.0-0.0-0.34","6","6","6","6","6","5","5","4","5","5","4","-2","2","1","1","1","1","1","1","5","4","5","2","4","4","5","4","4","4","5","7","4","7","2","6","7","4","6","6","6","5","6","6","6","6","1","5","6","5","2","6","6","5","6","5","2","5","6","2","4","2","3","3","3","3","5","5","6","3","4","2","5","2","5","3","6","3","3","745398419547492353","孙","Male","[""好他"",""坏他"",""好我"",""坏我""]","[""强他"",""弱他"",""强我"",""弱我""]","","","","","","","","nonmatch","","","","","","","","","","key","j","19.803866666666277","683","380","j","true","nonmatch","img/trapezoid.png","好他","坏他","prac_ALT2_moral","practice_moral","","","","","","","",""
"null","<span style='color:GreenYellow; font-size: 70px;'>正确! </span>","null","html-keyboard-response","79","321200","0.0-8.0-0.0-1.0-0.0-1.34","6","6","6","6","6","5","5","4","5","5","4","-2","2","1","1","1","1","1","1","5","4","5","2","4","4","5","4","4","4","5","7","4","7","2","6","7","4","6","6","6","5","6","6","6","6","1","5","6","5","2","6","6","5","6","5","2","5","6","2","4","2","3","3","3","3","5","5","6","3","4","2","5","2","5","3","6","3","3","745398419547492353","孙","Male","[""好他"",""坏他"",""好我"",""坏我""]","[""强他"",""弱他"",""强我"",""弱我""]","","","","","","","","","","","","","","","","","","","","","","","","","","","","","","feedback_test","","","","","","","",""
"1132","","f","psychophysics","80","323338","0.0-8.0-0.0-1.0-0.0-0.35","6","6","6","6","6","5","5","4","5","5","4","-2","2","1","1","1","1","1","1","5","4","5","2","4","4","5","4","4","4","5","7","4","7","2","6","7","4","6","6","6","5","6","6","6","6","1","5","6","5","2","6","6","5","6","5","2","5","6","2","4","2","3","3","3","3","5","5","6","3","4","2","5","2","5","3","6","3","3","745398419547492353","孙","Male","[""好他"",""坏他"",""好我"",""坏我""]","[""强他"",""弱他"",""强我"",""弱我""]","","","","","","","","match","","","","","","","","","","key","f","20.906111111111276","683","380","f","true","match","img/ellipse.png","好我","好我","prac_ALT2_moral","practice_moral","","","","","","","",""
"null","<span style='color:GreenYellow; font-size: 70px;'>正确! </span>","null","html-keyboard-response","81","323846","0.0-8.0-0.0-1.0-0.0-1.35","6","6","6","6","6","5","5","4","5","5","4","-2","2","1","1","1","1","1","1","5","4","5","2","4","4","5","4","4","4","5","7","4","7","2","6","7","4","6","6","6","5","6","6","6","6","1","5","6","5","2","6","6","5","6","5","2","5","6","2","4","2","3","3","3","3","5","5","6","3","4","2","5","2","5","3","6","3","3","745398419547492353","孙","Male","[""好他"",""坏他"",""好我"",""坏我""]","[""强他"",""弱他"",""强我"",""弱我""]","","","","","","","","","","","","","","","","","","","","","","","","","","","","","","feedback_test","","","","","","","",""
"980","","j","psychophysics","82","325834","0.0-8.0-0.0-1.0-0.0-0.36","6","6","6","6","6","5","5","4","5","5","4","-2","2","1","1","1","1","1","1","5","4","5","2","4","4","5","4","4","4","5","7","4","7","2","6","7","4","6","6","6","5","6","6","6","6","1","5","6","5","2","6","6","5","6","5","2","5","6","2","4","2","3","3","3","3","5","5","6","3","4","2","5","2","5","3","6","3","3","745398419547492353","孙","Male","[""好他"",""坏他"",""好我"",""坏我""]","[""强他"",""弱他"",""强我"",""弱我""]","","","","","","","","nonmatch","","","","","","","","","","key","j","19.970122448979446","683","380","j","true","nonmatch","img/hexagon.png","好我","好他","prac_ALT2_moral","practice_moral","","","","","","","",""
"null","<span style='color:GreenYellow; font-size: 70px;'>正确! </span>","null","html-keyboard-response","83","326345","0.0-8.0-0.0-1.0-0.0-1.36","6","6","6","6","6","5","5","4","5","5","4","-2","2","1","1","1","1","1","1","5","4","5","2","4","4","5","4","4","4","5","7","4","7","2","6","7","4","6","6","6","5","6","6","6","6","1","5","6","5","2","6","6","5","6","5","2","5","6","2","4","2","3","3","3","3","5","5","6","3","4","2","5","2","5","3","6","3","3","745398419547492353","孙","Male","[""好他"",""坏他"",""好我"",""坏我""]","[""强他"",""弱他"",""强我"",""弱我""]","","","","","","","","","","","","","","","","","","","","","","","","","","","","","","feedback_test","","","","","","","",""
"834","","f","psychophysics","84","328187","0.0-8.0-0.0-1.0-0.0-0.37","6","6","6","6","6","5","5","4","5","5","4","-2","2","1","1","1","1","1","1","5","4","5","2","4","4","5","4","4","4","5","7","4","7","2","6","7","4","6","6","6","5","6","6","6","6","1","5","6","5","2","6","6","5","6","5","2","5","6","2","4","2","3","3","3","3","5","5","6","3","4","2","5","2","5","3","6","3","3","745398419547492353","孙","Male","[""好他"",""坏他"",""好我"",""坏我""]","[""强他"",""弱他"",""强我"",""弱我""]","","","","","","","","match","","","","","","","","","","key","f","20.084666666666614","683","380","f","true","match","img/ellipse.png","好我","好我","prac_ALT2_moral","practice_moral","","","","","","","",""
"null","<span style='color:GreenYellow; font-size: 70px;'>正确! </span>","null","html-keyboard-response","85","328696","0.0-8.0-0.0-1.0-0.0-1.37","6","6","6","6","6","5","5","4","5","5","4","-2","2","1","1","1","1","1","1","5","4","5","2","4","4","5","4","4","4","5","7","4","7","2","6","7","4","6","6","6","5","6","6","6","6","1","5","6","5","2","6","6","5","6","5","2","5","6","2","4","2","3","3","3","3","5","5","6","3","4","2","5","2","5","3","6","3","3","745398419547492353","孙","Male","[""好他"",""坏他"",""好我"",""坏我""]","[""强他"",""弱他"",""强我"",""弱我""]","","","","","","","","","","","","","","","","","","","","","","","","","","","","","","feedback_test","","","","","","","",""
"893","","j","psychophysics","86","330617","0.0-8.0-0.0-1.0-0.0-0.38","6","6","6","6","6","5","5","4","5","5","4","-2","2","1","1","1","1","1","1","5","4","5","2","4","4","5","4","4","4","5","7","4","7","2","6","7","4","6","6","6","5","6","6","6","6","1","5","6","5","2","6","6","5","6","5","2","5","6","2","4","2","3","3","3","3","5","5","6","3","4","2","5","2","5","3","6","3","3","745398419547492353","孙","Male","[""好他"",""坏他"",""好我"",""坏我""]","[""强他"",""弱他"",""强我"",""弱我""]","","","","","","","","nonmatch","","","","","","","","","","key","j","21.157522727272987","683","380","f","false","match","img/trapezoid.png","坏他","坏他","prac_ALT2_moral","practice_moral","","","","","","","",""
"null","<span style='color:red; font-size: 70px;'>错误! </span>","null","html-keyboard-response","87","331125","0.0-8.0-0.0-1.0-0.0-1.38","6","6","6","6","6","5","5","4","5","5","4","-2","2","1","1","1","1","1","1","5","4","5","2","4","4","5","4","4","4","5","7","4","7","2","6","7","4","6","6","6","5","6","6","6","6","1","5","6","5","2","6","6","5","6","5","2","5","6","2","4","2","3","3","3","3","5","5","6","3","4","2","5","2","5","3","6","3","3","745398419547492353","孙","Male","[""好他"",""坏他"",""好我"",""坏我""]","[""强他"",""弱他"",""强我"",""弱我""]","","","","","","","","","","","","","","","","","","","","","","","","","","","","","","feedback_test","","","","","","","",""
"939","","f","psychophysics","88","333077","0.0-8.0-0.0-1.0-0.0-0.39","6","6","6","6","6","5","5","4","5","5","4","-2","2","1","1","1","1","1","1","5","4","5","2","4","4","5","4","4","4","5","7","4","7","2","6","7","4","6","6","6","5","6","6","6","6","1","5","6","5","2","6","6","5","6","5","2","5","6","2","4","2","3","3","3","3","5","5","6","3","4","2","5","2","5","3","6","3","3","745398419547492353","孙","Male","[""好他"",""坏他"",""好我"",""坏我""]","[""强他"",""弱他"",""强我"",""弱我""]","","","","","","","","match","","","","","","","","","","key","f","19.44120618556722","683","380","f","true","match","img/trapezoid.png","坏他","坏他","prac_ALT2_moral","practice_moral","","","","","","","",""
"null","<span style='color:GreenYellow; font-size: 70px;'>正确! </span>","null","html-keyboard-response","89","333590","0.0-8.0-0.0-1.0-0.0-1.39","6","6","6","6","6","5","5","4","5","5","4","-2","2","1","1","1","1","1","1","5","4","5","2","4","4","5","4","4","4","5","7","4","7","2","6","7","4","6","6","6","5","6","6","6","6","1","5","6","5","2","6","6","5","6","5","2","5","6","2","4","2","3","3","3","3","5","5","6","3","4","2","5","2","5","3","6","3","3","745398419547492353","孙","Male","[""好他"",""坏他"",""好我"",""坏我""]","[""强他"",""弱他"",""强我"",""弱我""]","","","","","","","","","","","","","","","","","","","","","","","","","","","","","","feedback_test","","","","","","","",""
"835","","f","psychophysics","90","335429","0.0-8.0-0.0-1.0-0.0-0.40","6","6","6","6","6","5","5","4","5","5","4","-2","2","1","1","1","1","1","1","5","4","5","2","4","4","5","4","4","4","5","7","4","7","2","6","7","4","6","6","6","5","6","6","6","6","1","5","6","5","2","6","6","5","6","5","2","5","6","2","4","2","3","3","3","3","5","5","6","3","4","2","5","2","5","3","6","3","3","745398419547492353","孙","Male","[""好他"",""坏他"",""好我"",""坏我""]","[""强他"",""弱他"",""强我"",""弱我""]","","","","","","","","match","","","","","","","","","","key","f","19.513815217390757","683","380","j","false","nonmatch","img/ellipse.png","坏他","好我","prac_ALT2_moral","practice_moral","","","","","","","",""
"null","<span style='color:red; font-size: 70px;'>错误! </span>","null","html-keyboard-response","91","335935","0.0-8.0-0.0-1.0-0.0-1.40","6","6","6","6","6","5","5","4","5","5","4","-2","2","1","1","1","1","1","1","5","4","5","2","4","4","5","4","4","4","5","7","4","7","2","6","7","4","6","6","6","5","6","6","6","6","1","5","6","5","2","6","6","5","6","5","2","5","6","2","4","2","3","3","3","3","5","5","6","3","4","2","5","2","5","3","6","3","3","745398419547492353","孙","Male","[""好他"",""坏他"",""好我"",""坏我""]","[""强他"",""弱他"",""强我"",""弱我""]","","","","","","","","","","","","","","","","","","","","","","","","","","","","","","feedback_test","","","","","","","",""
"995","","j","psychophysics","92","337948","0.0-8.0-0.0-1.0-0.0-0.41","6","6","6","6","6","5","5","4","5","5","4","-2","2","1","1","1","1","1","1","5","4","5","2","4","4","5","4","4","4","5","7","4","7","2","6","7","4","6","6","6","5","6","6","6","6","1","5","6","5","2","6","6","5","6","5","2","5","6","2","4","2","3","3","3","3","5","5","6","3","4","2","5","2","5","3","6","3","3","745398419547492353","孙","Male","[""好他"",""坏他"",""好我"",""坏我""]","[""强他"",""弱他"",""强我"",""弱我""]","","","","","","","","nonmatch","","","","","","","","","","key","j","20.223260416666864","683","380","f","false","match","img/hexagon.png","好他","好他","prac_ALT2_moral","practice_moral","","","","","","","",""
"null","<span style='color:red; font-size: 70px;'>错误! </span>","null","html-keyboard-response","93","338455","0.0-8.0-0.0-1.0-0.0-1.41","6","6","6","6","6","5","5","4","5","5","4","-2","2","1","1","1","1","1","1","5","4","5","2","4","4","5","4","4","4","5","7","4","7","2","6","7","4","6","6","6","5","6","6","6","6","1","5","6","5","2","6","6","5","6","5","2","5","6","2","4","2","3","3","3","3","5","5","6","3","4","2","5","2","5","3","6","3","3","745398419547492353","孙","Male","[""好他"",""坏他"",""好我"",""坏我""]","[""强他"",""弱他"",""强我"",""弱我""]","","","","","","","","","","","","","","","","","","","","","","","","","","","","","","feedback_test","","","","","","","",""
"634","","f","psychophysics","94","340114","0.0-8.0-0.0-1.0-0.0-0.42","6","6","6","6","6","5","5","4","5","5","4","-2","2","1","1","1","1","1","1","5","4","5","2","4","4","5","4","4","4","5","7","4","7","2","6","7","4","6","6","6","5","6","6","6","6","1","5","6","5","2","6","6","5","6","5","2","5","6","2","4","2","3","3","3","3","5","5","6","3","4","2","5","2","5","3","6","3","3","745398419547492353","孙","Male","[""好他"",""坏他"",""好我"",""坏我""]","[""强他"",""弱他"",""强我"",""弱我""]","","","","","","","","match","","","","","","","","","","key","f","19.647390243902564","683","380","f","true","match","img/ellipse.png","好我","好我","prac_ALT2_moral","practice_moral","","","","","","","",""
"null","<span style='color:GreenYellow; font-size: 70px;'>正确! </span>","null","html-keyboard-response","95","340624","0.0-8.0-0.0-1.0-0.0-1.42","6","6","6","6","6","5","5","4","5","5","4","-2","2","1","1","1","1","1","1","5","4","5","2","4","4","5","4","4","4","5","7","4","7","2","6","7","4","6","6","6","5","6","6","6","6","1","5","6","5","2","6","6","5","6","5","2","5","6","2","4","2","3","3","3","3","5","5","6","3","4","2","5","2","5","3","6","3","3","745398419547492353","孙","Male","[""好他"",""坏他"",""好我"",""坏我""]","[""强他"",""弱他"",""强我"",""弱我""]","","","","","","","","","","","","","","","","","","","","","","","","","","","","","","feedback_test","","","","","","","",""
"1043","","f","psychophysics","96","342709","0.0-8.0-0.0-1.0-0.0-0.43","6","6","6","6","6","5","5","4","5","5","4","-2","2","1","1","1","1","1","1","5","4","5","2","4","4","5","4","4","4","5","7","4","7","2","6","7","4","6","6","6","5","6","6","6","6","1","5","6","5","2","6","6","5","6","5","2","5","6","2","4","2","3","3","3","3","5","5","6","3","4","2","5","2","5","3","6","3","3","745398419547492353","孙","Male","[""好他"",""坏他"",""好我"",""坏我""]","[""强他"",""弱他"",""强我"",""弱我""]","","","","","","","","match","","","","","","","","","","key","f","19.9948613861389","683","380","f","true","match","img/hexagon.png","好他","好他","prac_ALT2_moral","practice_moral","","","","","","","",""
"null","<span style='color:GreenYellow; font-size: 70px;'>正确! </span>","null","html-keyboard-response","97","343219","0.0-8.0-0.0-1.0-0.0-1.43","6","6","6","6","6","5","5","4","5","5","4","-2","2","1","1","1","1","1","1","5","4","5","2","4","4","5","4","4","4","5","7","4","7","2","6","7","4","6","6","6","5","6","6","6","6","1","5","6","5","2","6","6","5","6","5","2","5","6","2","4","2","3","3","3","3","5","5","6","3","4","2","5","2","5","3","6","3","3","745398419547492353","孙","Male","[""好他"",""坏他"",""好我"",""坏我""]","[""强他"",""弱他"",""强我"",""弱我""]","","","","","","","","","","","","","","","","","","","","","","","","","","","","","","feedback_test","","","","","","","",""
"1070","","f","psychophysics","98","345296","0.0-8.0-0.0-1.0-0.0-0.44","6","6","6","6","6","5","5","4","5","5","4","-2","2","1","1","1","1","1","1","5","4","5","2","4","4","5","4","4","4","5","7","4","7","2","6","7","4","6","6","6","5","6","6","6","6","1","5","6","5","2","6","6","5","6","5","2","5","6","2","4","2","3","3","3","3","5","5","6","3","4","2","5","2","5","3","6","3","3","745398419547492353","孙","Male","[""好他"",""坏他"",""好我"",""坏我""]","[""强他"",""弱他"",""强我"",""弱我""]","","","","","","","","match","","","","","","","","","","key","f","19.457336538461767","683","380","j","false","nonmatch","img/hexagon.png","坏他","好他","prac_ALT2_moral","practice_moral","","","","","","","",""
"null","<span style='color:red; font-size: 70px;'>错误! </span>","null","html-keyboard-response","99","345813","0.0-8.0-0.0-1.0-0.0-1.44","6","6","6","6","6","5","5","4","5","5","4","-2","2","1","1","1","1","1","1","5","4","5","2","4","4","5","4","4","4","5","7","4","7","2","6","7","4","6","6","6","5","6","6","6","6","1","5","6","5","2","6","6","5","6","5","2","5","6","2","4","2","3","3","3","3","5","5","6","3","4","2","5","2","5","3","6","3","3","745398419547492353","孙","Male","[""好他"",""坏他"",""好我"",""坏我""]","[""强他"",""弱他"",""强我"",""弱我""]","","","","","","","","","","","","","","","","","","","","","","","","","","","","","","feedback_test","","","","","","","",""
"985","","f","psychophysics","100","347820","0.0-8.0-0.0-1.0-0.0-0.45","6","6","6","6","6","5","5","4","5","5","4","-2","2","1","1","1","1","1","1","5","4","5","2","4","4","5","4","4","4","5","7","4","7","2","6","7","4","6","6","6","5","6","6","6","6","1","5","6","5","2","6","6","5","6","5","2","5","6","2","4","2","3","3","3","3","5","5","6","3","4","2","5","2","5","3","6","3","3","745398419547492353","孙","Male","[""好他"",""坏他"",""好我"",""坏我""]","[""强他"",""弱他"",""强我"",""弱我""]","","","","","","","","match","","","","","","","","","","key","f","19.72341414141431","683","380","j","false","nonmatch","img/square.png","好我","坏我","prac_ALT2_moral","practice_moral","","","","","","","",""
"null","<span style='color:red; font-size: 70px;'>错误! </span>","null","html-keyboard-response","101","348330","0.0-8.0-0.0-1.0-0.0-1.45","6","6","6","6","6","5","5","4","5","5","4","-2","2","1","1","1","1","1","1","5","4","5","2","4","4","5","4","4","4","5","7","4","7","2","6","7","4","6","6","6","5","6","6","6","6","1","5","6","5","2","6","6","5","6","5","2","5","6","2","4","2","3","3","3","3","5","5","6","3","4","2","5","2","5","3","6","3","3","745398419547492353","孙","Male","[""好他"",""坏他"",""好我"",""坏我""]","[""强他"",""弱他"",""强我"",""弱我""]","","","","","","","","","","","","","","","","","","","","","","","","","","","","","","feedback_test","","","","","","","",""
"841","","f","psychophysics","102","350186","0.0-8.0-0.0-1.0-0.0-0.46","6","6","6","6","6","5","5","4","5","5","4","-2","2","1","1","1","1","1","1","5","4","5","2","4","4","5","4","4","4","5","7","4","7","2","6","7","4","6","6","6","5","6","6","6","6","1","5","6","5","2","6","6","5","6","5","2","5","6","2","4","2","3","3","3","3","5","5","6","3","4","2","5","2","5","3","6","3","3","745398419547492353","孙","Male","[""好他"",""坏他"",""好我"",""坏我""]","[""强他"",""弱他"",""强我"",""弱我""]","","","","","","","","match","","","","","","","","","","key","f","19.571086956521512","683","380","f","true","match","img/square.png","坏我","坏我","prac_ALT2_moral","practice_moral","","","","","","","",""
"null","<span style='color:GreenYellow; font-size: 70px;'>正确! </span>","null","html-keyboard-response","103","350705","0.0-8.0-0.0-1.0-0.0-1.46","6","6","6","6","6","5","5","4","5","5","4","-2","2","1","1","1","1","1","1","5","4","5","2","4","4","5","4","4","4","5","7","4","7","2","6","7","4","6","6","6","5","6","6","6","6","1","5","6","5","2","6","6","5","6","5","2","5","6","2","4","2","3","3","3","3","5","5","6","3","4","2","5","2","5","3","6","3","3","745398419547492353","孙","Male","[""好他"",""坏他"",""好我"",""坏我""]","[""强他"",""弱他"",""强我"",""弱我""]","","","","","","","","","","","","","","","","","","","","","","","","","","","","","","feedback_test","","","","","","","",""
"null","","null","psychophysics","104","352961","0.0-8.0-0.0-1.0-0.0-0.47","6","6","6","6","6","5","5","4","5","5","4","-2","2","1","1","1","1","1","1","5","4","5","2","4","4","5","4","4","4","5","7","4","7","2","6","7","4","6","6","6","5","6","6","6","6","1","5","6","5","2","6","6","5","6","5","2","5","6","2","4","2","3","3","3","3","5","5","6","3","4","2","5","2","5","3","6","3","3","745398419547492353","孙","Male","[""好他"",""坏他"",""好我"",""坏我""]","[""强他"",""弱他"",""强我"",""弱我""]","","","","","","","","null","","","","","","","","","","key","null","20.299194444444126","683","380","j","false","nonmatch","img/hexagon.png","坏我","好他","prac_ALT2_moral","practice_moral","","","","","","","",""
"null","<span class='add_' style='color:yellow; font-size: 70px;'> 太慢! </span>","null","html-keyboard-response","105","353471","0.0-8.0-0.0-1.0-0.0-1.47","6","6","6","6","6","5","5","4","5","5","4","-2","2","1","1","1","1","1","1","5","4","5","2","4","4","5","4","4","4","5","7","4","7","2","6","7","4","6","6","6","5","6","6","6","6","1","5","6","5","2","6","6","5","6","5","2","5","6","2","4","2","3","3","3","3","5","5","6","3","4","2","5","2","5","3","6","3","3","745398419547492353","孙","Male","[""好他"",""坏他"",""好我"",""坏我""]","[""强他"",""弱他"",""强我"",""弱我""]","","","","","","","","","","","","","","","","","","","","","","","","","","","","","","feedback_test","","","","","","","",""
"6583","<style>.context{color:white; font-size: 35px; line-height:40px}</style>                            <div><p class='context'>您正确回答了63% 的试次。</p><p class='context'>您的平均反应时为959毫秒。</p><p class='context'>恭喜您完成练习。按空格键进入正式实验。</p><p class='footer' style='font-size: 35px; line-height:40px;'>请在进入正式实验实验之前将您的<span style='color: lightgreen;'>食指</span>放在电脑键盘的相应键位上进行按键。</p>"," ","html-keyboard-response","106","360068","0.0-8.0-0.0-2.0","6","6","6","6","6","5","5","4","5","5","4","-2","2","1","1","1","1","1","1","5","4","5","2","4","4","5","4","4","4","5","7","4","7","2","6","7","4","6","6","6","5","6","6","6","6","1","5","6","5","2","6","6","5","6","5","2","5","6","2","4","2","3","3","3","3","5","5","6","3","4","2","5","2","5","3","6","3","3","745398419547492353","孙","Male","[""好他"",""坏他"",""好我"",""坏我""]","[""强他"",""弱他"",""强我"",""弱我""]","","","","","","","","","","","","","","","","","","","","","","","","","","","","","","","","","","","","","",""
"2087","
    <p style='color: white; font-size: 22px'>请您将手指放在按键上，准备进入正式的匹配任务。</p>
    <p> <div style = ""color: green""><按空格键进入下一阶段的匹配任务></div></p>
    "," ","html-keyboard-response","107","362164","0.0-8.0-0.0-3.0","6","6","6","6","6","5","5","4","5","5","4","-2","2","1","1","1","1","1","1","5","4","5","2","4","4","5","4","4","4","5","7","4","7","2","6","7","4","6","6","6","5","6","6","6","6","1","5","6","5","2","6","6","5","6","5","2","5","6","2","4","2","3","3","3","3","5","5","6","3","4","2","5","2","5","3","6","3","3","745398419547492353","孙","Male","[""好他"",""坏他"",""好我"",""坏我""]","[""强他"",""弱他"",""强我"",""弱我""]","","","","","","","","","","","","","","","","","","","","","","","","","","","","","","","","","","","","","",""
"855","","j","psychophysics","108","364032","0.0-8.0-0.0-4.0-0.0-0.0","6","6","6","6","6","5","5","4","5","5","4","-2","2","1","1","1","1","1","1","5","4","5","2","4","4","5","4","4","4","5","7","4","7","2","6","7","4","6","6","6","5","6","6","6","6","1","5","6","5","2","6","6","5","6","5","2","5","6","2","4","2","3","3","3","3","5","5","6","3","4","2","5","2","5","3","6","3","3","745398419547492353","孙","Male","[""好他"",""坏他"",""好我"",""坏我""]","[""强他"",""弱他"",""强我"",""弱我""]","","","","","","","","nonmatch","","","","","","","","","","key","j","19.73482795698901","683","380","f","false","match","img/trapezoid.png","坏他","坏他","ALT2","moral","","","","","","","",""
"null","<span style='color:red; font-size: 70px;'>错误! </span>","null","html-keyboard-response","109","364539","0.0-8.0-0.0-4.0-0.0-1.0","6","6","6","6","6","5","5","4","5","5","4","-2","2","1","1","1","1","1","1","5","4","5","2","4","4","5","4","4","4","5","7","4","7","2","6","7","4","6","6","6","5","6","6","6","6","1","5","6","5","2","6","6","5","6","5","2","5","6","2","4","2","3","3","3","3","5","5","6","3","4","2","5","2","5","3","6","3","3","745398419547492353","孙","Male","[""好他"",""坏他"",""好我"",""坏我""]","[""强他"",""弱他"",""强我"",""弱我""]","","","","","","","","","","","","","","","","","","","","","","","","","","","","","","feedback_test","","","","","","","",""
"982","","j","psychophysics","110","366530","0.0-8.0-0.0-4.0-0.0-0.1","6","6","6","6","6","5","5","4","5","5","4","-2","2","1","1","1","1","1","1","5","4","5","2","4","4","5","4","4","4","5","7","4","7","2","6","7","4","6","6","6","5","6","6","6","6","1","5","6","5","2","6","6","5","6","5","2","5","6","2","4","2","3","3","3","3","5","5","6","3","4","2","5","2","5","3","6","3","3","745398419547492353","孙","Male","[""好他"",""坏他"",""好我"",""坏我""]","[""强他"",""弱他"",""强我"",""弱我""]","","","","","","","","nonmatch","","","","","","","","","","key","j","19.500432989690886","683","380","j","true","nonmatch","img/trapezoid.png","好我","坏他","ALT2","moral","","","","","","","",""
"null","<span style='color:GreenYellow; font-size: 70px;'>正确! </span>","null","html-keyboard-response","111","367034","0.0-8.0-0.0-4.0-0.0-1.1","6","6","6","6","6","5","5","4","5","5","4","-2","2","1","1","1","1","1","1","5","4","5","2","4","4","5","4","4","4","5","7","4","7","2","6","7","4","6","6","6","5","6","6","6","6","1","5","6","5","2","6","6","5","6","5","2","5","6","2","4","2","3","3","3","3","5","5","6","3","4","2","5","2","5","3","6","3","3","745398419547492353","孙","Male","[""好他"",""坏他"",""好我"",""坏我""]","[""强他"",""弱他"",""强我"",""弱我""]","","","","","","","","","","","","","","","","","","","","","","","","","","","","","","feedback_test","","","","","","","",""
"1039","","j","psychophysics","112","369081","0.0-8.0-0.0-4.0-0.0-0.2","6","6","6","6","6","5","5","4","5","5","4","-2","2","1","1","1","1","1","1","5","4","5","2","4","4","5","4","4","4","5","7","4","7","2","6","7","4","6","6","6","5","6","6","6","6","1","5","6","5","2","6","6","5","6","5","2","5","6","2","4","2","3","3","3","3","5","5","6","3","4","2","5","2","5","3","6","3","3","745398419547492353","孙","Male","[""好他"",""坏他"",""好我"",""坏我""]","[""强他"",""弱他"",""强我"",""弱我""]","","","","","","","","nonmatch","","","","","","","","","","key","j","19.689431372548878","683","380","j","true","nonmatch","img/ellipse.png","好他","好我","ALT2","moral","","","","","","","",""
"null","<span style='color:GreenYellow; font-size: 70px;'>正确! </span>","null","html-keyboard-response","113","369587","0.0-8.0-0.0-4.0-0.0-1.2","6","6","6","6","6","5","5","4","5","5","4","-2","2","1","1","1","1","1","1","5","4","5","2","4","4","5","4","4","4","5","7","4","7","2","6","7","4","6","6","6","5","6","6","6","6","1","5","6","5","2","6","6","5","6","5","2","5","6","2","4","2","3","3","3","3","5","5","6","3","4","2","5","2","5","3","6","3","3","745398419547492353","孙","Male","[""好他"",""坏他"",""好我"",""坏我""]","[""强他"",""弱他"",""强我"",""弱我""]","","","","","","","","","","","","","","","","","","","","","","","","","","","","","","feedback_test","","","","","","","",""
"1141","","j","psychophysics","114","371765","0.0-8.0-0.0-4.0-0.0-0.3","6","6","6","6","6","5","5","4","5","5","4","-2","2","1","1","1","1","1","1","5","4","5","2","4","4","5","4","4","4","5","7","4","7","2","6","7","4","6","6","6","5","6","6","6","6","1","5","6","5","2","6","6","5","6","5","2","5","6","2","4","2","3","3","3","3","5","5","6","3","4","2","5","2","5","3","6","3","3","745398419547492353","孙","Male","[""好他"",""坏他"",""好我"",""坏我""]","[""强他"",""弱他"",""强我"",""弱我""]","","","","","","","","nonmatch","","","","","","","","","","key","j","18.82685714285721","683","380","j","true","nonmatch","img/ellipse.png","坏他","好我","ALT2","moral","","","","","","","",""
"null","<span style='color:GreenYellow; font-size: 70px;'>正确! </span>","null","html-keyboard-response","115","372275","0.0-8.0-0.0-4.0-0.0-1.3","6","6","6","6","6","5","5","4","5","5","4","-2","2","1","1","1","1","1","1","5","4","5","2","4","4","5","4","4","4","5","7","4","7","2","6","7","4","6","6","6","5","6","6","6","6","1","5","6","5","2","6","6","5","6","5","2","5","6","2","4","2","3","3","3","3","5","5","6","3","4","2","5","2","5","3","6","3","3","745398419547492353","孙","Male","[""好他"",""坏他"",""好我"",""坏我""]","[""强他"",""弱他"",""强我"",""弱我""]","","","","","","","","","","","","","","","","","","","","","","","","","","","","","","feedback_test","","","","","","","",""
"1092","","f","psychophysics","116","374388","0.0-8.0-0.0-4.0-0.0-0.4","6","6","6","6","6","5","5","4","5","5","4","-2","2","1","1","1","1","1","1","5","4","5","2","4","4","5","4","4","4","5","7","4","7","2","6","7","4","6","6","6","5","6","6","6","6","1","5","6","5","2","6","6","5","6","5","2","5","6","2","4","2","3","3","3","3","5","5","6","3","4","2","5","2","5","3","6","3","3","745398419547492353","孙","Male","[""好他"",""坏他"",""好我"",""坏我""]","[""强他"",""弱他"",""强我"",""弱我""]","","","","","","","","match","","","","","","","","","","key","f","20.56859595959564","683","380","j","false","nonmatch","img/trapezoid.png","好他","坏他","ALT2","moral","","","","","","","",""
"null","<span style='color:red; font-size: 70px;'>错误! </span>","null","html-keyboard-response","117","374898","0.0-8.0-0.0-4.0-0.0-1.4","6","6","6","6","6","5","5","4","5","5","4","-2","2","1","1","1","1","1","1","5","4","5","2","4","4","5","4","4","4","5","7","4","7","2","6","7","4","6","6","6","5","6","6","6","6","1","5","6","5","2","6","6","5","6","5","2","5","6","2","4","2","3","3","3","3","5","5","6","3","4","2","5","2","5","3","6","3","3","745398419547492353","孙","Male","[""好他"",""坏他"",""好我"",""坏我""]","[""强他"",""弱他"",""强我"",""弱我""]","","","","","","","","","","","","","","","","","","","","","","","","","","","","","","feedback_test","","","","","","","",""
"1150","","f","psychophysics","118","377070","0.0-8.0-0.0-4.0-0.0-0.5","6","6","6","6","6","5","5","4","5","5","4","-2","2","1","1","1","1","1","1","5","4","5","2","4","4","5","4","4","4","5","7","4","7","2","6","7","4","6","6","6","5","6","6","6","6","1","5","6","5","2","6","6","5","6","5","2","5","6","2","4","2","3","3","3","3","5","5","6","3","4","2","5","2","5","3","6","3","3","745398419547492353","孙","Male","[""好他"",""坏他"",""好我"",""坏我""]","[""强他"",""弱他"",""强我"",""弱我""]","","","","","","","","match","","","","","","","","","","key","f","19.549412844036684","683","380","f","true","match","img/square.png","坏我","坏我","ALT2","moral","","","","","","","",""
"null","<span style='color:GreenYellow; font-size: 70px;'>正确! </span>","null","html-keyboard-response","119","377580","0.0-8.0-0.0-4.0-0.0-1.5","6","6","6","6","6","5","5","4","5","5","4","-2","2","1","1","1","1","1","1","5","4","5","2","4","4","5","4","4","4","5","7","4","7","2","6","7","4","6","6","6","5","6","6","6","6","1","5","6","5","2","6","6","5","6","5","2","5","6","2","4","2","3","3","3","3","5","5","6","3","4","2","5","2","5","3","6","3","3","745398419547492353","孙","Male","[""好他"",""坏他"",""好我"",""坏我""]","[""强他"",""弱他"",""强我"",""弱我""]","","","","","","","","","","","","","","","","","","","","","","","","","","","","","","feedback_test","","","","","","","",""
"651","","f","psychophysics","120","379261","0.0-8.0-0.0-4.0-0.0-0.6","6","6","6","6","6","5","5","4","5","5","4","-2","2","1","1","1","1","1","1","5","4","5","2","4","4","5","4","4","4","5","7","4","7","2","6","7","4","6","6","6","5","6","6","6","6","1","5","6","5","2","6","6","5","6","5","2","5","6","2","4","2","3","3","3","3","5","5","6","3","4","2","5","2","5","3","6","3","3","745398419547492353","孙","Male","[""好他"",""坏他"",""好我"",""坏我""]","[""强他"",""弱他"",""强我"",""弱我""]","","","","","","","","match","","","","","","","","","","key","f","20.047419753086604","683","380","f","true","match","img/ellipse.png","好我","好我","ALT2","moral","","","","","","","",""
"null","<span style='color:GreenYellow; font-size: 70px;'>正确! </span>","null","html-keyboard-response","121","379768","0.0-8.0-0.0-4.0-0.0-1.6","6","6","6","6","6","5","5","4","5","5","4","-2","2","1","1","1","1","1","1","5","4","5","2","4","4","5","4","4","4","5","7","4","7","2","6","7","4","6","6","6","5","6","6","6","6","1","5","6","5","2","6","6","5","6","5","2","5","6","2","4","2","3","3","3","3","5","5","6","3","4","2","5","2","5","3","6","3","3","745398419547492353","孙","Male","[""好他"",""坏他"",""好我"",""坏我""]","[""强他"",""弱他"",""强我"",""弱我""]","","","","","","","","","","","","","","","","","","","","","","","","","","","","","","feedback_test","","","","","","","",""
"995","","j","psychophysics","122","381778","0.0-8.0-0.0-4.0-0.0-0.7","6","6","6","6","6","5","5","4","5","5","4","-2","2","1","1","1","1","1","1","5","4","5","2","4","4","5","4","4","4","5","7","4","7","2","6","7","4","6","6","6","5","6","6","6","6","1","5","6","5","2","6","6","5","6","5","2","5","6","2","4","2","3","3","3","3","5","5","6","3","4","2","5","2","5","3","6","3","3","745398419547492353","孙","Male","[""好他"",""坏他"",""好我"",""坏我""]","[""强他"",""弱他"",""强我"",""弱我""]","","","","","","","","nonmatch","","","","","","","","","","key","j","19.69819387755112","683","380","f","false","match","img/hexagon.png","好他","好他","ALT2","moral","","","","","","","",""
"null","<span style='color:red; font-size: 70px;'>错误! </span>","null","html-keyboard-response","123","382288","0.0-8.0-0.0-4.0-0.0-1.7","6","6","6","6","6","5","5","4","5","5","4","-2","2","1","1","1","1","1","1","5","4","5","2","4","4","5","4","4","4","5","7","4","7","2","6","7","4","6","6","6","5","6","6","6","6","1","5","6","5","2","6","6","5","6","5","2","5","6","2","4","2","3","3","3","3","5","5","6","3","4","2","5","2","5","3","6","3","3","745398419547492353","孙","Male","[""好他"",""坏他"",""好我"",""坏我""]","[""强他"",""弱他"",""强我"",""弱我""]","","","","","","","","","","","","","","","","","","","","","","","","","","","","","","feedback_test","","","","","","","",""
"787","","f","psychophysics","124","384093","0.0-8.0-0.0-4.0-0.0-0.8","6","6","6","6","6","5","5","4","5","5","4","-2","2","1","1","1","1","1","1","5","4","5","2","4","4","5","4","4","4","5","7","4","7","2","6","7","4","6","6","6","5","6","6","6","6","1","5","6","5","2","6","6","5","6","5","2","5","6","2","4","2","3","3","3","3","5","5","6","3","4","2","5","2","5","3","6","3","3","745398419547492353","孙","Male","[""好他"",""坏他"",""好我"",""坏我""]","[""强他"",""弱他"",""强我"",""弱我""]","","","","","","","","match","","","","","","","","","","key","f","20.161931818181817","683","380","j","false","nonmatch","img/square.png","好他","坏我","ALT2","moral","","","","","","","",""
"null","<span style='color:red; font-size: 70px;'>错误! </span>","null","html-keyboard-response","125","384601","0.0-8.0-0.0-4.0-0.0-1.8","6","6","6","6","6","5","5","4","5","5","4","-2","2","1","1","1","1","1","1","5","4","5","2","4","4","5","4","4","4","5","7","4","7","2","6","7","4","6","6","6","5","6","6","6","6","1","5","6","5","2","6","6","5","6","5","2","5","6","2","4","2","3","3","3","3","5","5","6","3","4","2","5","2","5","3","6","3","3","745398419547492353","孙","Male","[""好他"",""坏他"",""好我"",""坏我""]","[""强他"",""弱他"",""强我"",""弱我""]","","","","","","","","","","","","","","","","","","","","","","","","","","","","","","feedback_test","","","","","","","",""
"940","","j","psychophysics","126","386580","0.0-8.0-0.0-4.0-0.0-0.9","6","6","6","6","6","5","5","4","5","5","4","-2","2","1","1","1","1","1","1","5","4","5","2","4","4","5","4","4","4","5","7","4","7","2","6","7","4","6","6","6","5","6","6","6","6","1","5","6","5","2","6","6","5","6","5","2","5","6","2","4","2","3","3","3","3","5","5","6","3","4","2","5","2","5","3","6","3","3","745398419547492353","孙","Male","[""好他"",""坏他"",""好我"",""坏我""]","[""强他"",""弱他"",""强我"",""弱我""]","","","","","","","","nonmatch","","","","","","","","","","key","j","19.216969696970096","683","380","j","true","nonmatch","img/square.png","好我","坏我","ALT2","moral","","","","","","","",""
"null","<span style='color:GreenYellow; font-size: 70px;'>正确! </span>","null","html-keyboard-response","127","387090","0.0-8.0-0.0-4.0-0.0-1.9","6","6","6","6","6","5","5","4","5","5","4","-2","2","1","1","1","1","1","1","5","4","5","2","4","4","5","4","4","4","5","7","4","7","2","6","7","4","6","6","6","5","6","6","6","6","1","5","6","5","2","6","6","5","6","5","2","5","6","2","4","2","3","3","3","3","5","5","6","3","4","2","5","2","5","3","6","3","3","745398419547492353","孙","Male","[""好他"",""坏他"",""好我"",""坏我""]","[""强他"",""弱他"",""强我"",""弱我""]","","","","","","","","","","","","","","","","","","","","","","","","","","","","","","feedback_test","","","","","","","",""
"924","","j","psychophysics","128","389032","0.0-8.0-0.0-4.0-0.0-0.10","6","6","6","6","6","5","5","4","5","5","4","-2","2","1","1","1","1","1","1","5","4","5","2","4","4","5","4","4","4","5","7","4","7","2","6","7","4","6","6","6","5","6","6","6","6","1","5","6","5","2","6","6","5","6","5","2","5","6","2","4","2","3","3","3","3","5","5","6","3","4","2","5","2","5","3","6","3","3","745398419547492353","孙","Male","[""好他"",""坏他"",""好我"",""坏我""]","[""强他"",""弱他"",""强我"",""弱我""]","","","","","","","","nonmatch","","","","","","","","","","key","j","19.875406249999894","683","380","j","true","nonmatch","img/hexagon.png","坏我","好他","ALT2","moral","","","","","","","",""
"null","<span style='color:GreenYellow; font-size: 70px;'>正确! </span>","null","html-keyboard-response","129","389536","0.0-8.0-0.0-4.0-0.0-1.10","6","6","6","6","6","5","5","4","5","5","4","-2","2","1","1","1","1","1","1","5","4","5","2","4","4","5","4","4","4","5","7","4","7","2","6","7","4","6","6","6","5","6","6","6","6","1","5","6","5","2","6","6","5","6","5","2","5","6","2","4","2","3","3","3","3","5","5","6","3","4","2","5","2","5","3","6","3","3","745398419547492353","孙","Male","[""好他"",""坏他"",""好我"",""坏我""]","[""强他"",""弱他"",""强我"",""弱我""]","","","","","","","","","","","","","","","","","","","","","","","","","","","","","","feedback_test","","","","","","","",""
"1009","","j","psychophysics","130","391553","0.0-8.0-0.0-4.0-0.0-0.11","6","6","6","6","6","5","5","4","5","5","4","-2","2","1","1","1","1","1","1","5","4","5","2","4","4","5","4","4","4","5","7","4","7","2","6","7","4","6","6","6","5","6","6","6","6","1","5","6","5","2","6","6","5","6","5","2","5","6","2","4","2","3","3","3","3","5","5","6","3","4","2","5","2","5","3","6","3","3","745398419547492353","孙","Male","[""好他"",""坏他"",""好我"",""坏我""]","[""强他"",""弱他"",""强我"",""弱我""]","","","","","","","","nonmatch","","","","","","","","","","key","j","18.7563809523808","683","380","f","false","match","img/square.png","坏我","坏我","ALT2","moral","","","","","","","",""
"null","<span style='color:red; font-size: 70px;'>错误! </span>","null","html-keyboard-response","131","392071","0.0-8.0-0.0-4.0-0.0-1.11","6","6","6","6","6","5","5","4","5","5","4","-2","2","1","1","1","1","1","1","5","4","5","2","4","4","5","4","4","4","5","7","4","7","2","6","7","4","6","6","6","5","6","6","6","6","1","5","6","5","2","6","6","5","6","5","2","5","6","2","4","2","3","3","3","3","5","5","6","3","4","2","5","2","5","3","6","3","3","745398419547492353","孙","Male","[""好他"",""坏他"",""好我"",""坏我""]","[""强他"",""弱他"",""强我"",""弱我""]","","","","","","","","","","","","","","","","","","","","","","","","","","","","","","feedback_test","","","","","","","",""
"869","","j","psychophysics","132","393964","0.0-8.0-0.0-4.0-0.0-0.12","6","6","6","6","6","5","5","4","5","5","4","-2","2","1","1","1","1","1","1","5","4","5","2","4","4","5","4","4","4","5","7","4","7","2","6","7","4","6","6","6","5","6","6","6","6","1","5","6","5","2","6","6","5","6","5","2","5","6","2","4","2","3","3","3","3","5","5","6","3","4","2","5","2","5","3","6","3","3","745398419547492353","孙","Male","[""好他"",""坏他"",""好我"",""坏我""]","[""强他"",""弱他"",""强我"",""弱我""]","","","","","","","","nonmatch","","","","","","","","","","key","j","20.923034090909244","683","380","j","true","nonmatch","img/trapezoid.png","坏我","坏他","ALT2","moral","","","","","","","",""
"null","<span style='color:GreenYellow; font-size: 70px;'>正确! </span>","null","html-keyboard-response","133","394472","0.0-8.0-0.0-4.0-0.0-1.12","6","6","6","6","6","5","5","4","5","5","4","-2","2","1","1","1","1","1","1","5","4","5","2","4","4","5","4","4","4","5","7","4","7","2","6","7","4","6","6","6","5","6","6","6","6","1","5","6","5","2","6","6","5","6","5","2","5","6","2","4","2","3","3","3","3","5","5","6","3","4","2","5","2","5","3","6","3","3","745398419547492353","孙","Male","[""好他"",""坏他"",""好我"",""坏我""]","[""强他"",""弱他"",""强我"",""弱我""]","","","","","","","","","","","","","","","","","","","","","","","","","","","","","","feedback_test","","","","","","","",""
"807","","j","psychophysics","134","396301","0.0-8.0-0.0-4.0-0.0-0.13","6","6","6","6","6","5","5","4","5","5","4","-2","2","1","1","1","1","1","1","5","4","5","2","4","4","5","4","4","4","5","7","4","7","2","6","7","4","6","6","6","5","6","6","6","6","1","5","6","5","2","6","6","5","6","5","2","5","6","2","4","2","3","3","3","3","5","5","6","3","4","2","5","2","5","3","6","3","3","745398419547492353","孙","Male","[""好他"",""坏他"",""好我"",""坏我""]","[""强他"",""弱他"",""强我"",""弱我""]","","","","","","","","nonmatch","","","","","","","","","","key","j","18.793610526315597","683","380","j","true","nonmatch","img/hexagon.png","坏他","好他","ALT2","moral","","","","","","","",""
"null","<span style='color:GreenYellow; font-size: 70px;'>正确! </span>","null","html-keyboard-response","135","396808","0.0-8.0-0.0-4.0-0.0-1.13","6","6","6","6","6","5","5","4","5","5","4","-2","2","1","1","1","1","1","1","5","4","5","2","4","4","5","4","4","4","5","7","4","7","2","6","7","4","6","6","6","5","6","6","6","6","1","5","6","5","2","6","6","5","6","5","2","5","6","2","4","2","3","3","3","3","5","5","6","3","4","2","5","2","5","3","6","3","3","745398419547492353","孙","Male","[""好他"",""坏他"",""好我"",""坏我""]","[""强他"",""弱他"",""强我"",""弱我""]","","","","","","","","","","","","","","","","","","","","","","","","","","","","","","feedback_test","","","","","","","",""
"989","","j","psychophysics","136","398815","0.0-8.0-0.0-4.0-0.0-0.14","6","6","6","6","6","5","5","4","5","5","4","-2","2","1","1","1","1","1","1","5","4","5","2","4","4","5","4","4","4","5","7","4","7","2","6","7","4","6","6","6","5","6","6","6","6","1","5","6","5","2","6","6","5","6","5","2","5","6","2","4","2","3","3","3","3","5","5","6","3","4","2","5","2","5","3","6","3","3","745398419547492353","孙","Male","[""好他"",""坏他"",""好我"",""坏我""]","[""强他"",""弱他"",""强我"",""弱我""]","","","","","","","","nonmatch","","","","","","","","","","key","j","19.442376237623694","683","380","j","true","nonmatch","img/ellipse.png","坏我","好我","ALT2","moral","","","","","","","",""
"null","<span style='color:GreenYellow; font-size: 70px;'>正确! </span>","null","html-keyboard-response","137","399328","0.0-8.0-0.0-4.0-0.0-1.14","6","6","6","6","6","5","5","4","5","5","4","-2","2","1","1","1","1","1","1","5","4","5","2","4","4","5","4","4","4","5","7","4","7","2","6","7","4","6","6","6","5","6","6","6","6","1","5","6","5","2","6","6","5","6","5","2","5","6","2","4","2","3","3","3","3","5","5","6","3","4","2","5","2","5","3","6","3","3","745398419547492353","孙","Male","[""好他"",""坏他"",""好我"",""坏我""]","[""强他"",""弱他"",""强我"",""弱我""]","","","","","","","","","","","","","","","","","","","","","","","","","","","","","","feedback_test","","","","","","","",""
"701","","f","psychophysics","138","401040","0.0-8.0-0.0-4.0-0.0-0.15","6","6","6","6","6","5","5","4","5","5","4","-2","2","1","1","1","1","1","1","5","4","5","2","4","4","5","4","4","4","5","7","4","7","2","6","7","4","6","6","6","5","6","6","6","6","1","5","6","5","2","6","6","5","6","5","2","5","6","2","4","2","3","3","3","3","5","5","6","3","4","2","5","2","5","3","6","3","3","745398419547492353","孙","Male","[""好他"",""坏他"",""好我"",""坏我""]","[""强他"",""弱他"",""强我"",""弱我""]","","","","","","","","match","","","","","","","","","","key","f","19.832421686746468","683","380","f","true","match","img/ellipse.png","好我","好我","ALT2","moral","","","","","","","",""
"null","<span style='color:GreenYellow; font-size: 70px;'>正确! </span>","null","html-keyboard-response","139","401547","0.0-8.0-0.0-4.0-0.0-1.15","6","6","6","6","6","5","5","4","5","5","4","-2","2","1","1","1","1","1","1","5","4","5","2","4","4","5","4","4","4","5","7","4","7","2","6","7","4","6","6","6","5","6","6","6","6","1","5","6","5","2","6","6","5","6","5","2","5","6","2","4","2","3","3","3","3","5","5","6","3","4","2","5","2","5","3","6","3","3","745398419547492353","孙","Male","[""好他"",""坏他"",""好我"",""坏我""]","[""强他"",""弱他"",""强我"",""弱我""]","","","","","","","","","","","","","","","","","","","","","","","","","","","","","","feedback_test","","","","","","","",""
"917","","j","psychophysics","140","403476","0.0-8.0-0.0-4.0-0.0-0.16","6","6","6","6","6","5","5","4","5","5","4","-2","2","1","1","1","1","1","1","5","4","5","2","4","4","5","4","4","4","5","7","4","7","2","6","7","4","6","6","6","5","6","6","6","6","1","5","6","5","2","6","6","5","6","5","2","5","6","2","4","2","3","3","3","3","5","5","6","3","4","2","5","2","5","3","6","3","3","745398419547492353","孙","Male","[""好他"",""坏他"",""好我"",""坏我""]","[""强他"",""弱他"",""强我"",""弱我""]","","","","","","","","nonmatch","","","","","","","","","","key","j","19.129183673469722","683","380","j","true","nonmatch","img/square.png","坏他","坏我","ALT2","moral","","","","","","","",""
"null","<span style='color:GreenYellow; font-size: 70px;'>正确! </span>","null","html-keyboard-response","141","403983","0.0-8.0-0.0-4.0-0.0-1.16","6","6","6","6","6","5","5","4","5","5","4","-2","2","1","1","1","1","1","1","5","4","5","2","4","4","5","4","4","4","5","7","4","7","2","6","7","4","6","6","6","5","6","6","6","6","1","5","6","5","2","6","6","5","6","5","2","5","6","2","4","2","3","3","3","3","5","5","6","3","4","2","5","2","5","3","6","3","3","745398419547492353","孙","Male","[""好他"",""坏他"",""好我"",""坏我""]","[""强他"",""弱他"",""强我"",""弱我""]","","","","","","","","","","","","","","","","","","","","","","","","","","","","","","feedback_test","","","","","","","",""
