"rt","stimulus","response","trial_type","trial_index","time_elapsed","internal_node_id","swb_1","swb_2","swb_3","swb_4","swb_5","LOT_1","LOT_2","LOT_3","LOT_4","LOT_5","LOT_6","IPC_1","IPC_2","IPC_3","IPC_4","IPC_5","IPC_6","IPC_7","IPC_8","MorIden_1","MorIden_2","MorIden_3","MorIden_4","MorIden_5","MorIden_6","MorIden_7","MorIden_8","MorIden_9","MorIden_10","moralSeImag_1","moralSeImag_2","moralSeImag_3","moralSeImag_4","moralSeImag_5","moralSeImag_6","moralSeImag_7","moralSeImag_8","moralSeImag_9","sde_1","sde_2","sde_3","sde_4","sde_5","sde_6","sde_7","sde_8","sde_9","sde_10","sde_11","sde_12","sde_13","sde_14","sde_15","sde_16","sde_17","sde_18","sde_19","sde_20","IM_1","IM_2","IM_3","IM_4","IM_5","IM_6","IM_7","IM_8","IM_9","IM_10","IM_11","IM_12","IM_13","IM_14","IM_15","IM_16","IM_17","IM_18","IM_19","IM_20","subj_idx","friend_name","Sex","Word","Word2","value","success","timeout","failed_images","failed_audio","failed_video","user_agent","responses","item_order","radio_event_ids","radio_event_times","key_event_times","mouse_event_times","straightlining","zigzagging","honeypot","task_id","screen_id","time_stamp","response_type","key_press","avg_frame_time","center_x","center_y","person","word","valence","domain","math","correct_response","correct","status","view_history","identity","duration","Image","condition","question_order"
"2168","
   <p><div style='color:white; font-size: 25px'>您好，欢迎参加本次实验。</div></p>
   <p><div style='color:white; font-size: 25px'>为充分保障您的权利，请确保您已经知晓并同意《参与实验同意书》以及《数据公开知情同意书》。</div></p>
   <p><div style='color:white; font-size: 25px'>如果您未见过上述内容，请咨询实验员。</div></p>
   <p style='color:white; font-size: 25px'>如果您选择继续实验，则表示您已经清楚两份知情同意书的内容并同意。</p>
   <p> <div style = ""color: green""><按空格键至下页></div> </p>
   "," ","html-keyboard-response","0","2170","0.0-0.0","3","4","4","3","3","4","3","3","3","4","4","0","0","-1","0","0","0","0","2","3","2","5","3","3","3","4","4","4","4","6","6","5","4","4","4","4","5","5","4","5","3","3","5","2","5","3","5","3","5","3","3","5","3","4","3","5","5","5","3","4","3","3","2","3","3","4","3","5","5","5","5","4","4","4","3","5","3","5","755771736343187458","左","Male","[""坏我"",""好他"",""好我"",""坏他""]","[""弱我"",""强他"",""强我"",""弱他""]","","","","","","","","","","","","","","","","","","","","","","","","","","","","","","","","","","","","","",""
"","","","call-function","1","2170","0.0-1.0-0.0","3","4","4","3","3","4","3","3","3","4","4","0","0","-1","0","0","0","0","2","3","2","5","3","3","3","4","4","4","4","6","6","5","4","4","4","4","5","5","4","5","3","3","5","2","5","3","5","3","5","3","3","5","3","4","3","5","5","5","3","4","3","3","2","3","3","4","3","5","5","5","5","4","4","4","3","5","3","5","755771736343187458","左","Male","[""坏我"",""好他"",""好我"",""坏他""]","[""弱我"",""强他"",""强我"",""弱他""]","","","","","","","","","","","","","","","","","","","","","","","","","","","","","","","","","","","","","",""
"9796","","[{""name"":""Sex"",""value"":""0""},{""name"":""friend_name"",""value"":""左""}]","survey-html-form","2","11967","0.0-1.0-1.0","3","4","4","3","3","4","3","3","3","4","4","0","0","-1","0","0","0","0","2","3","2","5","3","3","3","4","4","4","4","6","6","5","4","4","4","4","5","5","4","5","3","3","5","2","5","3","5","3","5","3","3","5","3","4","3","5","5","5","3","4","3","3","2","3","3","4","3","5","5","5","5","4","4","4","3","5","3","5","755771736343187458","左","Male","[""坏我"",""好他"",""好我"",""坏他""]","[""弱我"",""强他"",""强我"",""弱他""]","","","","","","","","","","","","","","","","","","","","","","","","","","","","","","","","","","","","","",""
"","","","preload","3","12226","0.0-2.0","3","4","4","3","3","4","3","3","3","4","4","0","0","-1","0","0","0","0","2","3","2","5","3","3","3","4","4","4","4","6","6","5","4","4","4","4","5","5","4","5","3","3","5","2","5","3","5","3","5","3","3","5","3","4","3","5","5","5","3","4","3","3","2","3","3","4","3","5","5","5","5","4","4","4","3","5","3","5","755771736343187458","左","Male","[""坏我"",""好他"",""好我"",""坏他""]","[""弱我"",""强他"",""强我"",""弱他""]","","true","false","[]","[]","[]","","","","","","","","","","","","","","","","","","","","","","","","","","","","","","","",""
"","","","fullscreen","4","15950","0.0-3.0","3","4","4","3","3","4","3","3","3","4","4","0","0","-1","0","0","0","0","2","3","2","5","3","3","3","4","4","4","4","6","6","5","4","4","4","4","5","5","4","5","3","3","5","2","5","3","5","3","5","3","3","5","3","4","3","5","5","5","3","4","3","3","2","3","3","4","3","5","5","5","5","4","4","4","3","5","3","5","755771736343187458","左","Male","[""坏我"",""好他"",""好我"",""坏他""]","[""弱我"",""强他"",""强我"",""弱他""]","","true","","","","","{}","","","","","","","","","","","","","","","","","","","","","","","","","","","","","","",""
"21031","","{""Q01"":""3"",""Q02"":""4"",""Q03"":""4"",""Q04"":""3"",""Q05"":""3""}","survey-template","5","36983","0.0-4.0","3","4","4","3","3","4","3","3","3","4","4","0","0","-1","0","0","0","0","2","3","2","5","3","3","3","4","4","4","4","6","6","5","4","4","4","4","5","5","4","5","3","3","5","2","5","3","5","3","5","3","3","5","3","4","3","5","5","5","3","4","3","3","2","3","3","4","3","5","5","5","5","4","4","4","3","5","3","5","755771736343187458","左","Male","[""坏我"",""好他"",""好我"",""坏他""]","[""弱我"",""强他"",""强我"",""弱他""]","","","","","","","","{""Q01"":""3"",""Q02"":""4"",""Q03"":""4"",""Q04"":""3"",""Q05"":""3""}","[0,1,2,3,4]","[""Q01"",""Q02"",""Q03"",""Q01"",""Q04"",""Q04"",""Q05""]","[4734.200000047684,7850.399999976158,9237.299999952316,11945.399999976158,16058.100000023842,16903.200000047684,20282.200000047684]","[]","[3609.2999999523163,4734.200000047684,7850.399999976158,9237.299999952316,10430.200000047684,11945.399999976158,16058.100000023842,16903.200000047684,20282.200000047684,21030.200000047684]","0.6","0.5","0","","","","","","","","","","","","","","","","","","","","","",""
"18738.600000023842","","{""Q01"":""4"",""Q02"":""3"",""Q03"":""3"",""Q04"":""3"",""Q05"":""4"",""Q06"":""4""}","survey-template","6","55724","0.0-5.0","3","4","4","3","3","4","3","3","3","4","4","0","0","-1","0","0","0","0","2","3","2","5","3","3","3","4","4","4","4","6","6","5","4","4","4","4","5","5","4","5","3","3","5","2","5","3","5","3","5","3","3","5","3","4","3","5","5","5","3","4","3","3","2","3","3","4","3","5","5","5","5","4","4","4","3","5","3","5","755771736343187458","左","Male","[""坏我"",""好他"",""好我"",""坏他""]","[""弱我"",""强他"",""强我"",""弱他""]","","","","","","","","{""Q01"":""4"",""Q02"":""3"",""Q03"":""3"",""Q04"":""3"",""Q05"":""4"",""Q06"":""4""}","[0,1,2,3,4,5]","[""Q01"",""Q02"",""Q03"",""Q04"",""Q05"",""Q06""]","[3407.100000023842,8351,10349.100000023842,14852.100000023842,15847.399999976158,18039.100000023842]","[]","[3407.100000023842,8351,10349.100000023842,14852.100000023842,15847.399999976158,18039.100000023842,18738.100000023842]","0.5","0.4","0","","","","","","","","","","","","","","","","","","","","","",""
"26655.700000047684","","{""Q01"":""0"",""Q02"":""0"",""Q03"":""-1"",""Q04"":""0"",""Q05"":""0"",""Q06"":""0"",""Q07"":""0"",""Q08"":""2""}","survey-template","7","82382","0.0-6.0","3","4","4","3","3","4","3","3","3","4","4","0","0","-1","0","0","0","0","2","3","2","5","3","3","3","4","4","4","4","6","6","5","4","4","4","4","5","5","4","5","3","3","5","2","5","3","5","3","5","3","3","5","3","4","3","5","5","5","3","4","3","3","2","3","3","4","3","5","5","5","5","4","4","4","3","5","3","5","755771736343187458","左","Male","[""坏我"",""好他"",""好我"",""坏他""]","[""弱我"",""强他"",""强我"",""弱他""]","","","","","","","","{""Q01"":""0"",""Q02"":""0"",""Q03"":""-1"",""Q04"":""0"",""Q05"":""0"",""Q06"":""0"",""Q07"":""0"",""Q08"":""2""}","[0,1,2,3,4,5,6,7]","[""Q01"",""Q02"",""Q03"",""Q04"",""Q05"",""Q05"",""Q06"",""Q07"",""Q08""]","[4839.900000095367,8925.900000095367,11787.900000095367,13703,16675.800000071526,21401.900000095367,22570.900000095367,23354.800000071526,26218.900000095367]","[]","[4839.900000095367,8925.900000095367,11787.900000095367,13703,16174.900000095367,16675.800000071526,19077.800000071526,20836.700000047684,21401.900000095367,21914.900000095367,22570.900000095367,23354.800000071526,26218.900000095367,26654.900000095367]","0.75","0.2857142857142857","0","","","","","","","","","","","","","","","","","","","","","",""
"6113","
    <p><div style='color:white;font-size:35px; line-height:20px;'>词汇评估任务</div></p><br>
    <p><div style='color:white;font-size:25px; line-height:20px;'>请再次回忆该亲密的朋友，你们至少2年前就认识了，并且最近2年经常见面。</div></p>
    <p><div style='color:white;font-size:25px; line-height:20px;'>在本实验中，您将会看到一些形容词。</div></p>
    <p><div style='color:yellow;font-size:25px; line-height:20px;'>您的任务是判断这些形容词是否符合对您自己或您的朋友的描述。</div></p><p style='font-size:35px'>符合按<span style=""color:lightgreen""> f 键</span>，不符合按<span style=""color:red""> j 键</span></p>","0","html-button-response","8","88498","0.0-7.0-0.0","3","4","4","3","3","4","3","3","3","4","4","0","0","-1","0","0","0","0","2","3","2","5","3","3","3","4","4","4","4","6","6","5","4","4","4","4","5","5","4","5","3","3","5","2","5","3","5","3","5","3","3","5","3","4","3","5","5","5","3","4","3","3","2","3","3","4","3","5","5","5","5","4","4","4","3","5","3","5","755771736343187458","左","Male","[""坏我"",""好他"",""好我"",""坏他""]","[""弱我"",""强他"",""强我"",""弱他""]","","","","","","","","","","","","","","","","","SRET_EW","EW_instructions","Fri Sep 22 2023 20:52:28 GMT+0800 (中国标准时间)","","","","","","","","","","","","","","","","","","",""
"3661","","f","psychophysics","9","93162","0.0-7.0-1.0-0.0","3","4","4","3","3","4","3","3","3","4","4","0","0","-1","0","0","0","0","2","3","2","5","3","3","3","4","4","4","4","6","6","5","4","4","4","4","5","5","4","5","3","3","5","2","5","3","5","3","5","3","3","5","3","4","3","5","5","5","3","4","3","3","2","3","3","4","3","5","5","5","5","4","4","4","3","5","3","5","755771736343187458","左","Male","[""坏我"",""好他"",""好我"",""坏他""]","[""弱我"",""强他"",""强我"",""弱他""]","","","","","","","","yes","","","","","","","","","SRET_EW","EW_practice","","key","f","6.9440863095238194","960","536","自己","严谨","Positive","ability","","","","","","","","","",""
"1165","","j","psychophysics","10","95329","0.0-7.0-1.0-0.1","3","4","4","3","3","4","3","3","3","4","4","0","0","-1","0","0","0","0","2","3","2","5","3","3","3","4","4","4","4","6","6","5","4","4","4","4","5","5","4","5","3","3","5","2","5","3","5","3","5","3","3","5","3","4","3","5","5","5","3","4","3","3","2","3","3","4","3","5","5","5","5","4","4","4","3","5","3","5","755771736343187458","左","Male","[""坏我"",""好他"",""好我"",""坏他""]","[""弱我"",""强他"",""强我"",""弱他""]","","","","","","","","no","","","","","","","","","SRET_EW","EW_practice","","key","j","6.943996784565912","960","536","朋友","忠实","Positive","morality","","","","","","","","","",""
"1607","","j","psychophysics","11","97937","0.0-7.0-1.0-0.2","3","4","4","3","3","4","3","3","3","4","4","0","0","-1","0","0","0","0","2","3","2","5","3","3","3","4","4","4","4","6","6","5","4","4","4","4","5","5","4","5","3","3","5","2","5","3","5","3","5","3","3","5","3","4","3","5","5","5","3","4","3","3","2","3","3","4","3","5","5","5","5","4","4","4","3","5","3","5","755771736343187458","左","Male","[""坏我"",""好他"",""好我"",""坏他""]","[""弱我"",""强他"",""强我"",""弱他""]","","","","","","","","no","","","","","","","","","SRET_EW","EW_practice","","key","j","6.943997326203228","960","536","自己","刻板","Negative","ability","","","","","","","","","",""
"2599","","j","psychophysics","12","101537","0.0-7.0-1.0-0.3","3","4","4","3","3","4","3","3","3","4","4","0","0","-1","0","0","0","0","2","3","2","5","3","3","3","4","4","4","4","6","6","5","4","4","4","4","5","5","4","5","3","3","5","2","5","3","5","3","5","3","3","5","3","4","3","5","5","5","3","4","3","3","2","3","3","4","3","5","5","5","5","4","4","4","3","5","3","5","755771736343187458","左","Male","[""坏我"",""好他"",""好我"",""坏他""]","[""弱我"",""强他"",""强我"",""弱他""]","","","","","","","","no","","","","","","","","","SRET_EW","EW_practice","","key","j","6.944075289575295","960","536","朋友","徇私","Negative","morality","","","","","","","","","",""
"3201","
    <p><div style='color:white;font-size:35px; line-height:20px;'>请您再次阅读实验要求</div></p><br>
    <p><div style='color:white;font-size:25px; line-height:20px;'>请回忆某一个亲密的朋友，你们至少2年前就认识了，并且最近2年经常见面。</div></p>
    <p><div style='color:white;font-size:25px; line-height:20px;'>在本实验中，您将会看到一些形容词。</div></p>
    <p><div style='color:yellow;font-size:25px; line-height:20px;'>您的任务是判断这些形容词是否符合对您自己或您的朋友的描述。</div></p>
    <p><div class='footer' style='font-size:25px; line-height:20px;'>如果对本实验还有不清楚之处，请立即向实验员咨询。</p><p style='font-size:25px; line-height:20px;'>如果您明白了规则：</p><p style='font-size:22px; line-height:20px;'>请按 继续 进入正式实验</p>
    </div>
    <p style='font-size:35px'>符合按<span style=""color:lightgreen""> f 键</span>，不符合按<span style=""color:red""> j 键</span></p>","0","html-button-response","13","104739","0.0-7.0-2.0","3","4","4","3","3","4","3","3","3","4","4","0","0","-1","0","0","0","0","2","3","2","5","3","3","3","4","4","4","4","6","6","5","4","4","4","4","5","5","4","5","3","3","5","2","5","3","5","3","5","3","3","5","3","4","3","5","5","5","3","4","3","3","2","3","3","4","3","5","5","5","5","4","4","4","3","5","3","5","755771736343187458","左","Male","[""坏我"",""好他"",""好我"",""坏他""]","[""弱我"",""强他"",""强我"",""弱他""]","","","","","","","","","","","","","","","","","SRET_EW","prac_instructions","Fri Sep 22 2023 20:52:28 GMT+0800 (中国标准时间)","","","","","","","","","","","","","","","","","","",""
"1524","","f","psychophysics","14","107265","0.0-7.0-3.0-0.0","3","4","4","3","3","4","3","3","3","4","4","0","0","-1","0","0","0","0","2","3","2","5","3","3","3","4","4","4","4","6","6","5","4","4","4","4","5","5","4","5","3","3","5","2","5","3","5","3","5","3","3","5","3","4","3","5","5","5","3","4","3","3","2","3","3","4","3","5","5","5","5","4","4","4","3","5","3","5","755771736343187458","左","Male","[""坏我"",""好他"",""好我"",""坏他""]","[""弱我"",""强他"",""强我"",""弱他""]","","","","","","","","yes","","","","","","","","","SRET","EW_formal","","key","f","6.944098901098906","960","536","朋友","务实","Positive","ability","","","","","","","","","",""
"1510","","f","psychophysics","15","109777","0.0-7.0-3.0-0.1","3","4","4","3","3","4","3","3","3","4","4","0","0","-1","0","0","0","0","2","3","2","5","3","3","3","4","4","4","4","6","6","5","4","4","4","4","5","5","4","5","3","3","5","2","5","3","5","3","5","3","3","5","3","4","3","5","5","5","3","4","3","3","2","3","3","4","3","5","5","5","5","4","4","4","3","5","3","5","755771736343187458","左","Male","[""坏我"",""好他"",""好我"",""坏他""]","[""弱我"",""强他"",""强我"",""弱他""]","","","","","","","","yes","","","","","","","","","SRET","EW_formal","","key","f","6.9439833333333","960","536","自己","坚贞","Positive","morality","","","","","","","","","",""
"1216","","j","psychophysics","16","111993","0.0-7.0-3.0-0.2","3","4","4","3","3","4","3","3","3","4","4","0","0","-1","0","0","0","0","2","3","2","5","3","3","3","4","4","4","4","6","6","5","4","4","4","4","5","5","4","5","3","3","5","2","5","3","5","3","5","3","3","5","3","4","3","5","5","5","3","4","3","3","2","3","3","4","3","5","5","5","5","4","4","4","3","5","3","5","755771736343187458","左","Male","[""坏我"",""好他"",""好我"",""坏他""]","[""弱我"",""强他"",""强我"",""弱他""]","","","","","","","","no","","","","","","","","","SRET","EW_formal","","key","j","6.9440752351096835","960","536","朋友","迷糊","Negative","ability","","","","","","","","","",""
"1271","","j","psychophysics","17","114265","0.0-7.0-3.0-0.3","3","4","4","3","3","4","3","3","3","4","4","0","0","-1","0","0","0","0","2","3","2","5","3","3","3","4","4","4","4","6","6","5","4","4","4","4","5","5","4","5","3","3","5","2","5","3","5","3","5","3","3","5","3","4","3","5","5","5","3","4","3","3","2","3","3","4","3","5","5","5","5","4","4","4","3","5","3","5","755771736343187458","左","Male","[""坏我"",""好他"",""好我"",""坏他""]","[""弱我"",""强他"",""强我"",""弱他""]","","","","","","","","no","","","","","","","","","SRET","EW_formal","","key","j","6.943981595092017","960","536","自己","说谎","Negative","morality","","","","","","","","","",""
"847","","j","psychophysics","18","116114","0.0-7.0-3.0-0.4","3","4","4","3","3","4","3","3","3","4","4","0","0","-1","0","0","0","0","2","3","2","5","3","3","3","4","4","4","4","6","6","5","4","4","4","4","5","5","4","5","3","3","5","2","5","3","5","3","5","3","3","5","3","4","3","5","5","5","3","4","3","3","2","3","3","4","3","5","5","5","5","4","4","4","3","5","3","5","755771736343187458","左","Male","[""坏我"",""好他"",""好我"",""坏他""]","[""弱我"",""强他"",""强我"",""弱他""]","","","","","","","","no","","","","","","","","","SRET","EW_formal","","key","j","6.944007547169798","960","536","自己","小人","Negative","morality","","","","","","","","","",""
"918","","f","psychophysics","19","118033","0.0-7.0-3.0-0.5","3","4","4","3","3","4","3","3","3","4","4","0","0","-1","0","0","0","0","2","3","2","5","3","3","3","4","4","4","4","6","6","5","4","4","4","4","5","5","4","5","3","3","5","2","5","3","5","3","5","3","3","5","3","4","3","5","5","5","3","4","3","3","2","3","3","4","3","5","5","5","5","4","4","4","3","5","3","5","755771736343187458","左","Male","[""坏我"",""好他"",""好我"",""坏他""]","[""弱我"",""强他"",""强我"",""弱他""]","","","","","","","","yes","","","","","","","","","SRET","EW_formal","","key","f","6.943960000000026","960","536","自己","周到","Positive","ability","","","","","","","","","",""
"767","","j","psychophysics","20","119801","0.0-7.0-3.0-0.6","3","4","4","3","3","4","3","3","3","4","4","0","0","-1","0","0","0","0","2","3","2","5","3","3","3","4","4","4","4","6","6","5","4","4","4","4","5","5","4","5","3","3","5","2","5","3","5","3","5","3","3","5","3","4","3","5","5","5","3","4","3","3","2","3","3","4","3","5","5","5","5","4","4","4","3","5","3","5","755771736343187458","左","Male","[""坏我"",""好他"",""好我"",""坏他""]","[""弱我"",""强他"",""强我"",""弱他""]","","","","","","","","no","","","","","","","","","SRET","EW_formal","","key","j","6.943992125984272","960","536","朋友","恶劣","Negative","morality","","","","","","","","","",""
"1039","","j","psychophysics","21","121841","0.0-7.0-3.0-0.7","3","4","4","3","3","4","3","3","3","4","4","0","0","-1","0","0","0","0","2","3","2","5","3","3","3","4","4","4","4","6","6","5","4","4","4","4","5","5","4","5","3","3","5","2","5","3","5","3","5","3","3","5","3","4","3","5","5","5","3","4","3","3","2","3","3","4","3","5","5","5","5","4","4","4","3","5","3","5","755771736343187458","左","Male","[""坏我"",""好他"",""好我"",""坏他""]","[""弱我"",""强他"",""强我"",""弱他""]","","","","","","","","no","","","","","","","","","SRET","EW_formal","","key","j","6.943962457337854","960","536","自己","无知","Negative","ability","","","","","","","","","",""
"790","","f","psychophysics","22","123633","0.0-7.0-3.0-0.8","3","4","4","3","3","4","3","3","3","4","4","0","0","-1","0","0","0","0","2","3","2","5","3","3","3","4","4","4","4","6","6","5","4","4","4","4","5","5","4","5","3","3","5","2","5","3","5","3","5","3","3","5","3","4","3","5","5","5","3","4","3","3","2","3","3","4","3","5","5","5","5","4","4","4","3","5","3","5","755771736343187458","左","Male","[""坏我"",""好他"",""好我"",""坏他""]","[""弱我"",""强他"",""强我"",""弱他""]","","","","","","","","yes","","","","","","","","","SRET","EW_formal","","key","f","6.943976653696494","960","536","自己","守法","Positive","morality","","","","","","","","","",""
"1023","","f","psychophysics","23","125657","0.0-7.0-3.0-0.9","3","4","4","3","3","4","3","3","3","4","4","0","0","-1","0","0","0","0","2","3","2","5","3","3","3","4","4","4","4","6","6","5","4","4","4","4","5","5","4","5","3","3","5","2","5","3","5","3","5","3","3","5","3","4","3","5","5","5","3","4","3","3","2","3","3","4","3","5","5","5","5","4","4","4","3","5","3","5","755771736343187458","左","Male","[""坏我"",""好他"",""好我"",""坏他""]","[""弱我"",""强他"",""强我"",""弱他""]","","","","","","","","yes","","","","","","","","","SRET","EW_formal","","key","f","6.943965517241379","960","536","朋友","干练","Positive","ability","","","","","","","","","",""
"864","","j","psychophysics","24","127522","0.0-7.0-3.0-0.10","3","4","4","3","3","4","3","3","3","4","4","0","0","-1","0","0","0","0","2","3","2","5","3","3","3","4","4","4","4","6","6","5","4","4","4","4","5","5","4","5","3","3","5","2","5","3","5","3","5","3","3","5","3","4","3","5","5","5","3","4","3","3","2","3","3","4","3","5","5","5","5","4","4","4","3","5","3","5","755771736343187458","左","Male","[""坏我"",""好他"",""好我"",""坏他""]","[""弱我"",""强他"",""强我"",""弱他""]","","","","","","","","no","","","","","","","","","SRET","EW_formal","","key","j","6.9439776119402605","960","536","朋友","毛糙","Negative","ability","","","","","","","","","",""
"853","","j","psychophysics","25","129377","0.0-7.0-3.0-0.11","3","4","4","3","3","4","3","3","3","4","4","0","0","-1","0","0","0","0","2","3","2","5","3","3","3","4","4","4","4","6","6","5","4","4","4","4","5","5","4","5","3","3","5","2","5","3","5","3","5","3","3","5","3","4","3","5","5","5","3","4","3","3","2","3","3","4","3","5","5","5","5","4","4","4","3","5","3","5","755771736343187458","左","Male","[""坏我"",""好他"",""好我"",""坏他""]","[""弱我"",""强他"",""强我"",""弱他""]","","","","","","","","no","","","","","","","","","SRET","EW_formal","","key","j","6.94397368421056","960","536","自己","不孝","Negative","morality","","","","","","","","","",""
"887","","f","psychophysics","26","131265","0.0-7.0-3.0-0.12","3","4","4","3","3","4","3","3","3","4","4","0","0","-1","0","0","0","0","2","3","2","5","3","3","3","4","4","4","4","6","6","5","4","4","4","4","5","5","4","5","3","3","5","2","5","3","5","3","5","3","3","5","3","4","3","5","5","5","3","4","3","3","2","3","3","4","3","5","5","5","5","4","4","4","3","5","3","5","755771736343187458","左","Male","[""坏我"",""好他"",""好我"",""坏他""]","[""弱我"",""强他"",""强我"",""弱他""]","","","","","","","","yes","","","","","","","","","SRET","EW_formal","","key","f","6.943988929889339","960","536","朋友","勤恳","Positive","morality","","","","","","","","","",""
"1103","","j","psychophysics","27","133369","0.0-7.0-3.0-0.13","3","4","4","3","3","4","3","3","3","4","4","0","0","-1","0","0","0","0","2","3","2","5","3","3","3","4","4","4","4","6","6","5","4","4","4","4","5","5","4","5","3","3","5","2","5","3","5","3","5","3","3","5","3","4","3","5","5","5","3","4","3","3","2","3","3","4","3","5","5","5","5","4","4","4","3","5","3","5","755771736343187458","左","Male","[""坏我"",""好他"",""好我"",""坏他""]","[""弱我"",""强他"",""强我"",""弱他""]","","","","","","","","no","","","","","","","","","SRET","EW_formal","","key","j","6.943966887417247","960","536","朋友","骁勇","Positive","ability","","","","","","","","","",""
"1351","","f","psychophysics","28","135721","0.0-7.0-3.0-0.14","3","4","4","3","3","4","3","3","3","4","4","0","0","-1","0","0","0","0","2","3","2","5","3","3","3","4","4","4","4","6","6","5","4","4","4","4","5","5","4","5","3","3","5","2","5","3","5","3","5","3","3","5","3","4","3","5","5","5","3","4","3","3","2","3","3","4","3","5","5","5","5","4","4","4","3","5","3","5","755771736343187458","左","Male","[""坏我"",""好他"",""好我"",""坏他""]","[""弱我"",""强他"",""强我"",""弱他""]","","","","","","","","yes","","","","","","","","","SRET","EW_formal","","key","f","6.943985207100622","960","536","自己","自律","Positive","ability","","","","","","","","","",""
"1976","","f","psychophysics","29","138698","0.0-7.0-3.0-0.15","3","4","4","3","3","4","3","3","3","4","4","0","0","-1","0","0","0","0","2","3","2","5","3","3","3","4","4","4","4","6","6","5","4","4","4","4","5","5","4","5","3","3","5","2","5","3","5","3","5","3","3","5","3","4","3","5","5","5","3","4","3","3","2","3","3","4","3","5","5","5","5","4","4","4","3","5","3","5","755771736343187458","左","Male","[""坏我"",""好他"",""好我"",""坏他""]","[""弱我"",""强他"",""强我"",""弱他""]","","","","","","","","yes","","","","","","","","","SRET","EW_formal","","key","f","6.944004683840741","960","536","朋友","慈悲","Positive","morality","","","","","","","","","",""
"1102","","f","psychophysics","30","140801","0.0-7.0-3.0-0.16","3","4","4","3","3","4","3","3","3","4","4","0","0","-1","0","0","0","0","2","3","2","5","3","3","3","4","4","4","4","6","6","5","4","4","4","4","5","5","4","5","3","3","5","2","5","3","5","3","5","3","3","5","3","4","3","5","5","5","3","4","3","3","2","3","3","4","3","5","5","5","5","4","4","4","3","5","3","5","755771736343187458","左","Male","[""坏我"",""好他"",""好我"",""坏他""]","[""弱我"",""强他"",""强我"",""弱他""]","","","","","","","","yes","","","","","","","","","SRET","EW_formal","","key","f","6.943976821192072","960","536","朋友","无敌","Positive","ability","","","","","","","","","",""
"711","","j","psychophysics","31","142513","0.0-7.0-3.0-0.17","3","4","4","3","3","4","3","3","3","4","4","0","0","-1","0","0","0","0","2","3","2","5","3","3","3","4","4","4","4","6","6","5","4","4","4","4","5","5","4","5","3","3","5","2","5","3","5","3","5","3","3","5","3","4","3","5","5","5","3","4","3","3","2","3","3","4","3","5","5","5","5","4","4","4","3","5","3","5","755771736343187458","左","Male","[""坏我"",""好他"",""好我"",""坏他""]","[""弱我"",""强他"",""强我"",""弱他""]","","","","","","","","no","","","","","","","","","SRET","EW_formal","","key","j","6.943947154471586","960","536","朋友","浅薄","Negative","ability","","","","","","","","","",""
"831","","j","psychophysics","32","144345","0.0-7.0-3.0-0.18","3","4","4","3","3","4","3","3","3","4","4","0","0","-1","0","0","0","0","2","3","2","5","3","3","3","4","4","4","4","6","6","5","4","4","4","4","5","5","4","5","3","3","5","2","5","3","5","3","5","3","3","5","3","4","3","5","5","5","3","4","3","3","2","3","3","4","3","5","5","5","5","4","4","4","3","5","3","5","755771736343187458","左","Male","[""坏我"",""好他"",""好我"",""坏他""]","[""弱我"",""强他"",""强我"",""弱他""]","","","","","","","","no","","","","","","","","","SRET","EW_formal","","key","j","6.943961832061066","960","536","朋友","马虎","Negative","ability","","","","","","","","","",""
"814","","j","psychophysics","33","146161","0.0-7.0-3.0-0.19","3","4","4","3","3","4","3","3","3","4","4","0","0","-1","0","0","0","0","2","3","2","5","3","3","3","4","4","4","4","6","6","5","4","4","4","4","5","5","4","5","3","3","5","2","5","3","5","3","5","3","3","5","3","4","3","5","5","5","3","4","3","3","2","3","3","4","3","5","5","5","5","4","4","4","3","5","3","5","755771736343187458","左","Male","[""坏我"",""好他"",""好我"",""坏他""]","[""弱我"",""强他"",""强我"",""弱他""]","","","","","","","","no","","","","","","","","","SRET","EW_formal","","key","j","6.944091954023084","960","536","自己","下流","Negative","morality","","","","","","","","","",""
"695","","j","psychophysics","34","147857","0.0-7.0-3.0-0.20","3","4","4","3","3","4","3","3","3","4","4","0","0","-1","0","0","0","0","2","3","2","5","3","3","3","4","4","4","4","6","6","5","4","4","4","4","5","5","4","5","3","3","5","2","5","3","5","3","5","3","3","5","3","4","3","5","5","5","3","4","3","3","2","3","3","4","3","5","5","5","5","4","4","4","3","5","3","5","755771736343187458","左","Male","[""坏我"",""好他"",""好我"",""坏他""]","[""弱我"",""强他"",""强我"",""弱他""]","","","","","","","","no","","","","","","","","","SRET","EW_formal","","key","j","6.94391358024685","960","536","朋友","腐败","Negative","morality","","","","","","","","","",""
"647","","j","psychophysics","35","149506","0.0-7.0-3.0-0.21","3","4","4","3","3","4","3","3","3","4","4","0","0","-1","0","0","0","0","2","3","2","5","3","3","3","4","4","4","4","6","6","5","4","4","4","4","5","5","4","5","3","3","5","2","5","3","5","3","5","3","3","5","3","4","3","5","5","5","3","4","3","3","2","3","3","4","3","5","5","5","5","4","4","4","3","5","3","5","755771736343187458","左","Male","[""坏我"",""好他"",""好我"",""坏他""]","[""弱我"",""强他"",""强我"",""弱他""]","","","","","","","","no","","","","","","","","","SRET","EW_formal","","key","j","6.943932489451475","960","536","朋友","驽钝","Negative","ability","","","","","","","","","",""
"622","","j","psychophysics","36","151129","0.0-7.0-3.0-0.22","3","4","4","3","3","4","3","3","3","4","4","0","0","-1","0","0","0","0","2","3","2","5","3","3","3","4","4","4","4","6","6","5","4","4","4","4","5","5","4","5","3","3","5","2","5","3","5","3","5","3","3","5","3","4","3","5","5","5","3","4","3","3","2","3","3","4","3","5","5","5","5","4","4","4","3","5","3","5","755771736343187458","左","Male","[""坏我"",""好他"",""好我"",""坏他""]","[""弱我"",""强他"",""强我"",""弱他""]","","","","","","","","no","","","","","","","","","SRET","EW_formal","","key","j","6.943956896551691","960","536","朋友","奸险","Negative","morality","","","","","","","","","",""
"704","","j","psychophysics","37","152833","0.0-7.0-3.0-0.23","3","4","4","3","3","4","3","3","3","4","4","0","0","-1","0","0","0","0","2","3","2","5","3","3","3","4","4","4","4","6","6","5","4","4","4","4","5","5","4","5","3","3","5","2","5","3","5","3","5","3","3","5","3","4","3","5","5","5","3","4","3","3","2","3","3","4","3","5","5","5","5","4","4","4","3","5","3","5","755771736343187458","左","Male","[""坏我"",""好他"",""好我"",""坏他""]","[""弱我"",""强他"",""强我"",""弱他""]","","","","","","","","no","","","","","","","","","SRET","EW_formal","","key","j","6.944069387755067","960","536","自己","废物","Negative","ability","","","","","","","","","",""
"2007","","j","psychophysics","38","155841","0.0-7.0-3.0-0.24","3","4","4","3","3","4","3","3","3","4","4","0","0","-1","0","0","0","0","2","3","2","5","3","3","3","4","4","4","4","6","6","5","4","4","4","4","5","5","4","5","3","3","5","2","5","3","5","3","5","3","3","5","3","4","3","5","5","5","3","4","3","3","2","3","3","4","3","5","5","5","5","4","4","4","3","5","3","5","755771736343187458","左","Male","[""坏我"",""好他"",""好我"",""坏他""]","[""弱我"",""强他"",""强我"",""弱他""]","","","","","","","","no","","","","","","","","","SRET","EW_formal","","key","j","6.944006944444482","960","536","自己","仗义","Positive","morality","","","","","","","","","",""
"1943","","j","psychophysics","39","158785","0.0-7.0-3.0-0.25","3","4","4","3","3","4","3","3","3","4","4","0","0","-1","0","0","0","0","2","3","2","5","3","3","3","4","4","4","4","6","6","5","4","4","4","4","5","5","4","5","3","3","5","2","5","3","5","3","5","3","3","5","3","4","3","5","5","5","3","4","3","3","2","3","3","4","3","5","5","5","5","4","4","4","3","5","3","5","755771736343187458","左","Male","[""坏我"",""好他"",""好我"",""坏他""]","[""弱我"",""强他"",""强我"",""弱他""]","","","","","","","","no","","","","","","","","","SRET","EW_formal","","key","j","6.9440070921985875","960","536","朋友","逞能","Negative","ability","","","","","","","","","",""
"760","","f","psychophysics","40","160546","0.0-7.0-3.0-0.26","3","4","4","3","3","4","3","3","3","4","4","0","0","-1","0","0","0","0","2","3","2","5","3","3","3","4","4","4","4","6","6","5","4","4","4","4","5","5","4","5","3","3","5","2","5","3","5","3","5","3","3","5","3","4","3","5","5","5","3","4","3","3","2","3","3","4","3","5","5","5","5","4","4","4","3","5","3","5","755771736343187458","左","Male","[""坏我"",""好他"",""好我"",""坏他""]","[""弱我"",""强他"",""强我"",""弱他""]","","","","","","","","yes","","","","","","","","","SRET","EW_formal","","key","f","6.944039682539745","960","536","自己","坚持","Positive","ability","","","","","","","","","",""
"1958","","f","psychophysics","41","163505","0.0-7.0-3.0-0.27","3","4","4","3","3","4","3","3","3","4","4","0","0","-1","0","0","0","0","2","3","2","5","3","3","3","4","4","4","4","6","6","5","4","4","4","4","5","5","4","5","3","3","5","2","5","3","5","3","5","3","3","5","3","4","3","5","5","5","3","4","3","3","2","3","3","4","3","5","5","5","5","4","4","4","3","5","3","5","755771736343187458","左","Male","[""坏我"",""好他"",""好我"",""坏他""]","[""弱我"",""强他"",""强我"",""弱他""]","","","","","","","","yes","","","","","","","","","SRET","EW_formal","","key","f","6.944056338028181","960","536","朋友","义气","Positive","morality","","","","","","","","","",""
"1223","","f","psychophysics","42","165729","0.0-7.0-3.0-0.28","3","4","4","3","3","4","3","3","3","4","4","0","0","-1","0","0","0","0","2","3","2","5","3","3","3","4","4","4","4","6","6","5","4","4","4","4","5","5","4","5","3","3","5","2","5","3","5","3","5","3","3","5","3","4","3","5","5","5","3","4","3","3","2","3","3","4","3","5","5","5","5","4","4","4","3","5","3","5","755771736343187458","左","Male","[""坏我"",""好他"",""好我"",""坏他""]","[""弱我"",""强他"",""强我"",""弱他""]","","","","","","","","yes","","","","","","","","","SRET","EW_formal","","key","f","6.944040752351112","960","536","朋友","变通","Positive","ability","","","","","","","","","",""
"774","","f","psychophysics","43","167505","0.0-7.0-3.0-0.29","3","4","4","3","3","4","3","3","3","4","4","0","0","-1","0","0","0","0","2","3","2","5","3","3","3","4","4","4","4","6","6","5","4","4","4","4","5","5","4","5","3","3","5","2","5","3","5","3","5","3","3","5","3","4","3","5","5","5","3","4","3","3","2","3","3","4","3","5","5","5","5","4","4","4","3","5","3","5","755771736343187458","左","Male","[""坏我"",""好他"",""好我"",""坏他""]","[""弱我"",""强他"",""强我"",""弱他""]","","","","","","","","yes","","","","","","","","","SRET","EW_formal","","key","f","6.943945098039237","960","536","自己","刻苦","Positive","ability","","","","","","","","","",""
"839","","j","psychophysics","44","169345","0.0-7.0-3.0-0.30","3","4","4","3","3","4","3","3","3","4","4","0","0","-1","0","0","0","0","2","3","2","5","3","3","3","4","4","4","4","6","6","5","4","4","4","4","5","5","4","5","3","3","5","2","5","3","5","3","5","3","3","5","3","4","3","5","5","5","3","4","3","3","2","3","3","4","3","5","5","5","5","4","4","4","3","5","3","5","755771736343187458","左","Male","[""坏我"",""好他"",""好我"",""坏他""]","[""弱我"",""强他"",""强我"",""弱他""]","","","","","","","","no","","","","","","","","","SRET","EW_formal","","key","j","6.943958333333285","960","536","朋友","伪善","Negative","morality","","","","","","","","","",""
"839","","f","psychophysics","45","171186","0.0-7.0-3.0-0.31","3","4","4","3","3","4","3","3","3","4","4","0","0","-1","0","0","0","0","2","3","2","5","3","3","3","4","4","4","4","6","6","5","4","4","4","4","5","5","4","5","3","3","5","2","5","3","5","3","5","3","3","5","3","4","3","5","5","5","3","4","3","3","2","3","3","4","3","5","5","5","5","4","4","4","3","5","3","5","755771736343187458","左","Male","[""坏我"",""好他"",""好我"",""坏他""]","[""弱我"",""强他"",""强我"",""弱他""]","","","","","","","","yes","","","","","","","","","SRET","EW_formal","","key","f","6.943958333333395","960","536","朋友","善良","Positive","morality","","","","","","","","","",""
"1134","","f","psychophysics","46","173321","0.0-7.0-3.0-0.32","3","4","4","3","3","4","3","3","3","4","4","0","0","-1","0","0","0","0","2","3","2","5","3","3","3","4","4","4","4","6","6","5","4","4","4","4","5","5","4","5","3","3","5","2","5","3","5","3","5","3","3","5","3","4","3","5","5","5","3","4","3","3","2","3","3","4","3","5","5","5","5","4","4","4","3","5","3","5","755771736343187458","左","Male","[""坏我"",""好他"",""好我"",""坏他""]","[""弱我"",""强他"",""强我"",""弱他""]","","","","","","","","yes","","","","","","","","","SRET","EW_formal","","key","f","6.9439738562091495","960","536","朋友","文明","Positive","morality","","","","","","","","","",""
"1606","","j","psychophysics","47","175929","0.0-7.0-3.0-0.33","3","4","4","3","3","4","3","3","3","4","4","0","0","-1","0","0","0","0","2","3","2","5","3","3","3","4","4","4","4","6","6","5","4","4","4","4","5","5","4","5","3","3","5","2","5","3","5","3","5","3","3","5","3","4","3","5","5","5","3","4","3","3","2","3","3","4","3","5","5","5","5","4","4","4","3","5","3","5","755771736343187458","左","Male","[""坏我"",""好他"",""好我"",""坏他""]","[""弱我"",""强他"",""强我"",""弱他""]","","","","","","","","no","","","","","","","","","SRET","EW_formal","","key","j","6.943997333333362","960","536","朋友","龌龊","Negative","morality","","","","","","","","","",""
"1095","","f","psychophysics","48","178025","0.0-7.0-3.0-0.34","3","4","4","3","3","4","3","3","3","4","4","0","0","-1","0","0","0","0","2","3","2","5","3","3","3","4","4","4","4","6","6","5","4","4","4","4","5","5","4","5","3","3","5","2","5","3","5","3","5","3","3","5","3","4","3","5","5","5","3","4","3","3","2","3","3","4","3","5","5","5","5","4","4","4","3","5","3","5","755771736343187458","左","Male","[""坏我"",""好他"",""好我"",""坏他""]","[""弱我"",""强他"",""强我"",""弱他""]","","","","","","","","yes","","","","","","","","","SRET","EW_formal","","key","f","6.9440033222591016","960","536","朋友","忠诚","Positive","morality","","","","","","","","","",""
"1103","","j","psychophysics","49","180129","0.0-7.0-3.0-0.35","3","4","4","3","3","4","3","3","3","4","4","0","0","-1","0","0","0","0","2","3","2","5","3","3","3","4","4","4","4","6","6","5","4","4","4","4","5","5","4","5","3","3","5","2","5","3","5","3","5","3","3","5","3","4","3","5","5","5","3","4","3","3","2","3","3","4","3","5","5","5","5","4","4","4","3","5","3","5","755771736343187458","左","Male","[""坏我"",""好他"",""好我"",""坏他""]","[""弱我"",""强他"",""强我"",""弱他""]","","","","","","","","no","","","","","","","","","SRET","EW_formal","","key","j","6.944066225165588","960","536","自己","无助","Negative","ability","","","","","","","","","",""
"967","","j","psychophysics","50","182098","0.0-7.0-3.0-0.36","3","4","4","3","3","4","3","3","3","4","4","0","0","-1","0","0","0","0","2","3","2","5","3","3","3","4","4","4","4","6","6","5","4","4","4","4","5","5","4","5","3","3","5","2","5","3","5","3","5","3","3","5","3","4","3","5","5","5","3","4","3","3","2","3","3","4","3","5","5","5","5","4","4","4","3","5","3","5","755771736343187458","左","Male","[""坏我"",""好他"",""好我"",""坏他""]","[""弱我"",""强他"",""强我"",""弱他""]","","","","","","","","no","","","","","","","","","SRET","EW_formal","","key","j","6.944060283687964","960","536","自己","无为","Negative","ability","","","","","","","","","",""
"662","","j","psychophysics","51","183761","0.0-7.0-3.0-0.37","3","4","4","3","3","4","3","3","3","4","4","0","0","-1","0","0","0","0","2","3","2","5","3","3","3","4","4","4","4","6","6","5","4","4","4","4","5","5","4","5","3","3","5","2","5","3","5","3","5","3","3","5","3","4","3","5","5","5","3","4","3","3","2","3","3","4","3","5","5","5","5","4","4","4","3","5","3","5","755771736343187458","左","Male","[""坏我"",""好他"",""好我"",""坏他""]","[""弱我"",""强他"",""强我"",""弱他""]","","","","","","","","no","","","","","","","","","SRET","EW_formal","","key","j","6.9439288702929565","960","536","自己","不仁","Negative","morality","","","","","","","","","",""
"2030","","f","psychophysics","52","186793","0.0-7.0-3.0-0.38","3","4","4","3","3","4","3","3","3","4","4","0","0","-1","0","0","0","0","2","3","2","5","3","3","3","4","4","4","4","6","6","5","4","4","4","4","5","5","4","5","3","3","5","2","5","3","5","3","5","3","3","5","3","4","3","5","5","5","3","4","3","3","2","3","3","4","3","5","5","5","5","4","4","4","3","5","3","5","755771736343187458","左","Male","[""坏我"",""好他"",""好我"",""坏他""]","[""弱我"",""强他"",""强我"",""弱他""]","","","","","","","","yes","","","","","","","","","SRET","EW_formal","","key","f","6.944052873563219","960","536","自己","扎实","Positive","ability","","","","","","","","","",""
"2079","","j","psychophysics","53","189873","0.0-7.0-3.0-0.39","3","4","4","3","3","4","3","3","3","4","4","0","0","-1","0","0","0","0","2","3","2","5","3","3","3","4","4","4","4","6","6","5","4","4","4","4","5","5","4","5","3","3","5","2","5","3","5","3","5","3","3","5","3","4","3","5","5","5","3","4","3","3","2","3","3","4","3","5","5","5","5","4","4","4","3","5","3","5","755771736343187458","左","Male","[""坏我"",""好他"",""好我"",""坏他""]","[""弱我"",""强他"",""强我"",""弱他""]","","","","","","","","no","","","","","","","","","SRET","EW_formal","","key","j","6.944038374717839","960","536","自己","外行","Negative","ability","","","","","","","","","",""
"655","","j","psychophysics","54","191529","0.0-7.0-3.0-0.40","3","4","4","3","3","4","3","3","3","4","4","0","0","-1","0","0","0","0","2","3","2","5","3","3","3","4","4","4","4","6","6","5","4","4","4","4","5","5","4","5","3","3","5","2","5","3","5","3","5","3","3","5","3","4","3","5","5","5","3","4","3","3","2","3","3","4","3","5","5","5","5","4","4","4","3","5","3","5","755771736343187458","左","Male","[""坏我"",""好他"",""好我"",""坏他""]","[""弱我"",""强他"",""强我"",""弱他""]","","","","","","","","no","","","","","","","","","SRET","EW_formal","","key","j","6.94402953586492","960","536","自己","愚痴","Negative","ability","","","","","","","","","",""
"904","","f","psychophysics","55","193434","0.0-7.0-3.0-0.41","3","4","4","3","3","4","3","3","3","4","4","0","0","-1","0","0","0","0","2","3","2","5","3","3","3","4","4","4","4","6","6","5","4","4","4","4","5","5","4","5","3","3","5","2","5","3","5","3","5","3","3","5","3","4","3","5","5","5","3","4","3","3","2","3","3","4","3","5","5","5","5","4","4","4","3","5","3","5","755771736343187458","左","Male","[""坏我"",""好他"",""好我"",""坏他""]","[""弱我"",""强他"",""强我"",""弱他""]","","","","","","","","yes","","","","","","","","","SRET","EW_formal","","key","f","6.944007299270058","960","536","自己","专注","Positive","ability","","","","","","","","","",""
"622","","j","psychophysics","56","195057","0.0-7.0-3.0-0.42","3","4","4","3","3","4","3","3","3","4","4","0","0","-1","0","0","0","0","2","3","2","5","3","3","3","4","4","4","4","6","6","5","4","4","4","4","5","5","4","5","3","3","5","2","5","3","5","3","5","3","3","5","3","4","3","5","5","5","3","4","3","3","2","3","3","4","3","5","5","5","5","4","4","4","3","5","3","5","755771736343187458","左","Male","[""坏我"",""好他"",""好我"",""坏他""]","[""弱我"",""强他"",""强我"",""弱他""]","","","","","","","","no","","","","","","","","","SRET","EW_formal","","key","j","6.944073275862044","960","536","朋友","迂拙","Negative","ability","","","","","","","","","",""
"855","","j","psychophysics","57","196913","0.0-7.0-3.0-0.43","3","4","4","3","3","4","3","3","3","4","4","0","0","-1","0","0","0","0","2","3","2","5","3","3","3","4","4","4","4","6","6","5","4","4","4","4","5","5","4","5","3","3","5","2","5","3","5","3","5","3","3","5","3","4","3","5","5","5","3","4","3","3","2","3","3","4","3","5","5","5","5","4","4","4","3","5","3","5","755771736343187458","左","Male","[""坏我"",""好他"",""好我"",""坏他""]","[""弱我"",""强他"",""强我"",""弱他""]","","","","","","","","no","","","","","","","","","SRET","EW_formal","","key","j","6.944041198501904","960","536","自己","虚伪","Negative","morality","","","","","","","","","",""
"966","","j","psychophysics","58","198881","0.0-7.0-3.0-0.44","3","4","4","3","3","4","3","3","3","4","4","0","0","-1","0","0","0","0","2","3","2","5","3","3","3","4","4","4","4","6","6","5","4","4","4","4","5","5","4","5","3","3","5","2","5","3","5","3","5","3","3","5","3","4","3","5","5","5","3","4","3","3","2","3","3","4","3","5","5","5","5","4","4","4","3","5","3","5","755771736343187458","左","Male","[""坏我"",""好他"",""好我"",""坏他""]","[""弱我"",""强他"",""强我"",""弱他""]","","","","","","","","no","","","","","","","","","SRET","EW_formal","","key","j","6.9440460992908495","960","536","朋友","博识","Positive","ability","","","","","","","","","",""
"750","","j","psychophysics","59","200633","0.0-7.0-3.0-0.45","3","4","4","3","3","4","3","3","3","4","4","0","0","-1","0","0","0","0","2","3","2","5","3","3","3","4","4","4","4","6","6","5","4","4","4","4","5","5","4","5","3","3","5","2","5","3","5","3","5","3","3","5","3","4","3","5","5","5","3","4","3","3","2","3","3","4","3","5","5","5","5","4","4","4","3","5","3","5","755771736343187458","左","Male","[""坏我"",""好他"",""好我"",""坏他""]","[""弱我"",""强他"",""强我"",""弱他""]","","","","","","","","no","","","","","","","","","SRET","EW_formal","","key","j","6.943956175298765","960","536","自己","高洁","Positive","morality","","","","","","","","","",""
"1511","","j","psychophysics","60","203146","0.0-7.0-3.0-0.46","3","4","4","3","3","4","3","3","3","4","4","0","0","-1","0","0","0","0","2","3","2","5","3","3","3","4","4","4","4","6","6","5","4","4","4","4","5","5","4","5","3","3","5","2","5","3","5","3","5","3","3","5","3","4","3","5","5","5","3","4","3","3","2","3","3","4","3","5","5","5","5","4","4","4","3","5","3","5","755771736343187458","左","Male","[""坏我"",""好他"",""好我"",""坏他""]","[""弱我"",""强他"",""强我"",""弱他""]","","","","","","","","no","","","","","","","","","SRET","EW_formal","","key","j","6.944058171745133","960","536","自己","仁爱","Positive","morality","","","","","","","","","",""
"864","","f","psychophysics","61","205010","0.0-7.0-3.0-0.47","3","4","4","3","3","4","3","3","3","4","4","0","0","-1","0","0","0","0","2","3","2","5","3","3","3","4","4","4","4","6","6","5","4","4","4","4","5","5","4","5","3","3","5","2","5","3","5","3","5","3","3","5","3","4","3","5","5","5","3","4","3","3","2","3","3","4","3","5","5","5","5","4","4","4","3","5","3","5","755771736343187458","左","Male","[""坏我"",""好他"",""好我"",""坏他""]","[""弱我"",""强他"",""强我"",""弱他""]","","","","","","","","yes","","","","","","","","","SRET","EW_formal","","key","f","6.943970149253719","960","536","自己","君子","Positive","morality","","","","","","","","","",""
"837","","f","psychophysics","62","206850","0.0-7.0-3.0-0.48","3","4","4","3","3","4","3","3","3","4","4","0","0","-1","0","0","0","0","2","3","2","5","3","3","3","4","4","4","4","6","6","5","4","4","4","4","5","5","4","5","3","3","5","2","5","3","5","3","5","3","3","5","3","4","3","5","5","5","3","4","3","3","2","3","3","4","3","5","5","5","5","4","4","4","3","5","3","5","755771736343187458","左","Male","[""坏我"",""好他"",""好我"",""坏他""]","[""弱我"",""强他"",""强我"",""弱他""]","","","","","","","","yes","","","","","","","","","SRET","EW_formal","","key","f","6.943996212121309","960","536","自己","黑心","Negative","morality","","","","","","","","","",""
"815","","f","psychophysics","63","208666","0.0-7.0-3.0-0.49","3","4","4","3","3","4","3","3","3","4","4","0","0","-1","0","0","0","0","2","3","2","5","3","3","3","4","4","4","4","6","6","5","4","4","4","4","5","5","4","5","3","3","5","2","5","3","5","3","5","3","3","5","3","4","3","5","5","5","3","4","3","3","2","3","3","4","3","5","5","5","5","4","4","4","3","5","3","5","755771736343187458","左","Male","[""坏我"",""好他"",""好我"",""坏他""]","[""弱我"",""强他"",""强我"",""弱他""]","","","","","","","","yes","","","","","","","","","SRET","EW_formal","","key","f","6.943953846153902","960","536","朋友","忠勇","Positive","morality","","","","","","","","","",""
"1174","","j","psychophysics","64","210842","0.0-7.0-3.0-0.50","3","4","4","3","3","4","3","3","3","4","4","0","0","-1","0","0","0","0","2","3","2","5","3","3","3","4","4","4","4","6","6","5","4","4","4","4","5","5","4","5","3","3","5","2","5","3","5","3","5","3","3","5","3","4","3","5","5","5","3","4","3","3","2","3","3","4","3","5","5","5","5","4","4","4","3","5","3","5","755771736343187458","左","Male","[""坏我"",""好他"",""好我"",""坏他""]","[""弱我"",""强他"",""强我"",""弱他""]","","","","","","","","no","","","","","","","","","SRET","EW_formal","","key","j","6.943971153846155","960","536","自己","廉明","Positive","morality","","","","","","","","","",""
"1439","","f","psychophysics","65","213282","0.0-7.0-3.0-0.51","3","4","4","3","3","4","3","3","3","4","4","0","0","-1","0","0","0","0","2","3","2","5","3","3","3","4","4","4","4","6","6","5","4","4","4","4","5","5","4","5","3","3","5","2","5","3","5","3","5","3","3","5","3","4","3","5","5","5","3","4","3","3","2","3","3","4","3","5","5","5","5","4","4","4","3","5","3","5","755771736343187458","左","Male","[""坏我"",""好他"",""好我"",""坏他""]","[""弱我"",""强他"",""强我"",""弱他""]","","","","","","","","yes","","","","","","","","","SRET","EW_formal","","key","f","6.944019943019929","960","536","朋友","侠义","Positive","morality","","","","","","","","","",""
"1255","","f","psychophysics","66","215538","0.0-7.0-3.0-0.52","3","4","4","3","3","4","3","3","3","4","4","0","0","-1","0","0","0","0","2","3","2","5","3","3","3","4","4","4","4","6","6","5","4","4","4","4","5","5","4","5","3","3","5","2","5","3","5","3","5","3","3","5","3","4","3","5","5","5","3","4","3","3","2","3","3","4","3","5","5","5","5","4","4","4","3","5","3","5","755771736343187458","左","Male","[""坏我"",""好他"",""好我"",""坏他""]","[""弱我"",""强他"",""强我"",""弱他""]","","","","","","","","yes","","","","","","","","","SRET","EW_formal","","key","f","6.9440061728394396","960","536","朋友","中用","Positive","ability","","","","","","","","","",""
"886","","f","psychophysics","67","217426","0.0-7.0-3.0-0.53","3","4","4","3","3","4","3","3","3","4","4","0","0","-1","0","0","0","0","2","3","2","5","3","3","3","4","4","4","4","6","6","5","4","4","4","4","5","5","4","5","3","3","5","2","5","3","5","3","5","3","3","5","3","4","3","5","5","5","3","4","3","3","2","3","3","4","3","5","5","5","5","4","4","4","3","5","3","5","755771736343187458","左","Male","[""坏我"",""好他"",""好我"",""坏他""]","[""弱我"",""强他"",""强我"",""弱他""]","","","","","","","","yes","","","","","","","","","SRET","EW_formal","","key","f","6.944011070110772","960","536","朋友","智慧","Positive","ability","","","","","","","","","",""
"766","","j","psychophysics","68","219194","0.0-7.0-3.0-0.54","3","4","4","3","3","4","3","3","3","4","4","0","0","-1","0","0","0","0","2","3","2","5","3","3","3","4","4","4","4","6","6","5","4","4","4","4","5","5","4","5","3","3","5","2","5","3","5","3","5","3","3","5","3","4","3","5","5","5","3","4","3","3","2","3","3","4","3","5","5","5","5","4","4","4","3","5","3","5","755771736343187458","左","Male","[""坏我"",""好他"",""好我"",""坏他""]","[""弱我"",""强他"",""强我"",""弱他""]","","","","","","","","no","","","","","","","","","SRET","EW_formal","","key","j","6.944063241106712","960","536","朋友","混账","Negative","morality","","","","","","","","","",""
"1375","","f","psychophysics","69","221570","0.0-7.0-3.0-0.55","3","4","4","3","3","4","3","3","3","4","4","0","0","-1","0","0","0","0","2","3","2","5","3","3","3","4","4","4","4","6","6","5","4","4","4","4","5","5","4","5","3","3","5","2","5","3","5","3","5","3","3","5","3","4","3","5","5","5","3","4","3","3","2","3","3","4","3","5","5","5","5","4","4","4","3","5","3","5","755771736343187458","左","Male","[""坏我"",""好他"",""好我"",""坏他""]","[""弱我"",""强他"",""强我"",""弱他""]","","","","","","","","yes","","","","","","","","","SRET","EW_formal","","key","f","6.94398826979479","960","536","自己","屈才","Negative","ability","","","","","","","","","",""
"1368","","j","psychophysics","70","223938","0.0-7.0-3.0-0.56","3","4","4","3","3","4","3","3","3","4","4","0","0","-1","0","0","0","0","2","3","2","5","3","3","3","4","4","4","4","6","6","5","4","4","4","4","5","5","4","5","3","3","5","2","5","3","5","3","5","3","3","5","3","4","3","5","5","5","3","4","3","3","2","3","3","4","3","5","5","5","5","4","4","4","3","5","3","5","755771736343187458","左","Male","[""坏我"",""好他"",""好我"",""坏他""]","[""弱我"",""强他"",""强我"",""弱他""]","","","","","","","","no","","","","","","","","","SRET","EW_formal","","key","j","6.9440029411765005","960","536","自己","畏难","Negative","ability","","","","","","","","","",""
"1320","","f","psychophysics","71","226258","0.0-7.0-3.0-0.57","3","4","4","3","3","4","3","3","3","4","4","0","0","-1","0","0","0","0","2","3","2","5","3","3","3","4","4","4","4","6","6","5","4","4","4","4","5","5","4","5","3","3","5","2","5","3","5","3","5","3","3","5","3","4","3","5","5","5","3","4","3","3","2","3","3","4","3","5","5","5","5","4","4","4","3","5","3","5","755771736343187458","左","Male","[""坏我"",""好他"",""好我"",""坏他""]","[""弱我"",""强他"",""强我"",""弱他""]","","","","","","","","yes","","","","","","","","","SRET","EW_formal","","key","f","6.944020958083788","960","536","自己","好心","Positive","morality","","","","","","","","","",""
"1358","","j","psychophysics","72","228618","0.0-7.0-3.0-0.58","3","4","4","3","3","4","3","3","3","4","4","0","0","-1","0","0","0","0","2","3","2","5","3","3","3","4","4","4","4","6","6","5","4","4","4","4","5","5","4","5","3","3","5","2","5","3","5","3","5","3","3","5","3","4","3","5","5","5","3","4","3","3","2","3","3","4","3","5","5","5","5","4","4","4","3","5","3","5","755771736343187458","左","Male","[""坏我"",""好他"",""好我"",""坏他""]","[""弱我"",""强他"",""强我"",""弱他""]","","","","","","","","no","","","","","","","","","SRET","EW_formal","","key","j","6.943994082840257","960","536","朋友","迟钝","Negative","ability","","","","","","","","","",""
"1639","","j","psychophysics","73","231258","0.0-7.0-3.0-0.59","3","4","4","3","3","4","3","3","3","4","4","0","0","-1","0","0","0","0","2","3","2","5","3","3","3","4","4","4","4","6","6","5","4","4","4","4","5","5","4","5","3","3","5","2","5","3","5","3","5","3","3","5","3","4","3","5","5","5","3","4","3","3","2","3","3","4","3","5","5","5","5","4","4","4","3","5","3","5","755771736343187458","左","Male","[""坏我"",""好他"",""好我"",""坏他""]","[""弱我"",""强他"",""强我"",""弱他""]","","","","","","","","no","","","","","","","","","SRET","EW_formal","","key","j","6.9440606860158285","960","536","自己","刻薄","Negative","morality","","","","","","","","","",""
"742","","j","psychophysics","74","233002","0.0-7.0-3.0-0.60","3","4","4","3","3","4","3","3","3","4","4","0","0","-1","0","0","0","0","2","3","2","5","3","3","3","4","4","4","4","6","6","5","4","4","4","4","5","5","4","5","3","3","5","2","5","3","5","3","5","3","3","5","3","4","3","5","5","5","3","4","3","3","2","3","3","4","3","5","5","5","5","4","4","4","3","5","3","5","755771736343187458","左","Male","[""坏我"",""好他"",""好我"",""坏他""]","[""弱我"",""强他"",""强我"",""弱他""]","","","","","","","","no","","","","","","","","","SRET","EW_formal","","key","j","6.944051792828665","960","536","自己","愚钝","Negative","ability","","","","","","","","","",""
"878","","j","psychophysics","75","234882","0.0-7.0-3.0-0.61","3","4","4","3","3","4","3","3","3","4","4","0","0","-1","0","0","0","0","2","3","2","5","3","3","3","4","4","4","4","6","6","5","4","4","4","4","5","5","4","5","3","3","5","2","5","3","5","3","5","3","3","5","3","4","3","5","5","5","3","4","3","3","2","3","3","4","3","5","5","5","5","4","4","4","3","5","3","5","755771736343187458","左","Male","[""坏我"",""好他"",""好我"",""坏他""]","[""弱我"",""强他"",""强我"",""弱他""]","","","","","","","","no","","","","","","","","","SRET","EW_formal","","key","j","6.944022304832751","960","536","朋友","淫乱","Negative","morality","","","","","","","","","",""
"576","","j","psychophysics","76","236458","0.0-7.0-3.0-0.62","3","4","4","3","3","4","3","3","3","4","4","0","0","-1","0","0","0","0","2","3","2","5","3","3","3","4","4","4","4","6","6","5","4","4","4","4","5","5","4","5","3","3","5","2","5","3","5","3","5","3","3","5","3","4","3","5","5","5","3","4","3","3","2","3","3","4","3","5","5","5","5","4","4","4","3","5","3","5","755771736343187458","左","Male","[""坏我"",""好他"",""好我"",""坏他""]","[""弱我"",""强他"",""强我"",""弱他""]","","","","","","","","no","","","","","","","","","SRET","EW_formal","","key","j","6.944030973451306","960","536","朋友","拖拉","Negative","ability","","","","","","","","","",""
"2335","","f","psychophysics","77","239794","0.0-7.0-3.0-0.63","3","4","4","3","3","4","3","3","3","4","4","0","0","-1","0","0","0","0","2","3","2","5","3","3","3","4","4","4","4","6","6","5","4","4","4","4","5","5","4","5","3","3","5","2","5","3","5","3","5","3","3","5","3","4","3","5","5","5","3","4","3","3","2","3","3","4","3","5","5","5","5","4","4","4","3","5","3","5","755771736343187458","左","Male","[""坏我"",""好他"",""好我"",""坏他""]","[""弱我"",""强他"",""强我"",""弱他""]","","","","","","","","yes","","","","","","","","","SRET","EW_formal","","key","f","6.944027083333337","960","536","自己","有力","Positive","ability","","","","","","","","","",""
"1095","","f","psychophysics","78","241890","0.0-7.0-3.0-0.64","3","4","4","3","3","4","3","3","3","4","4","0","0","-1","0","0","0","0","2","3","2","5","3","3","3","4","4","4","4","6","6","5","4","4","4","4","5","5","4","5","3","3","5","2","5","3","5","3","5","3","3","5","3","4","3","5","5","5","3","4","3","3","2","3","3","4","3","5","5","5","5","4","4","4","3","5","3","5","755771736343187458","左","Male","[""坏我"",""好他"",""好我"",""坏他""]","[""弱我"",""强他"",""强我"",""弱他""]","","","","","","","","yes","","","","","","","","","SRET","EW_formal","","key","f","6.943980066445107","960","536","朋友","高效","Positive","ability","","","","","","","","","",""
"671","","j","psychophysics","79","243562","0.0-7.0-3.0-0.65","3","4","4","3","3","4","3","3","3","4","4","0","0","-1","0","0","0","0","2","3","2","5","3","3","3","4","4","4","4","6","6","5","4","4","4","4","5","5","4","5","3","3","5","2","5","3","5","3","5","3","3","5","3","4","3","5","5","5","3","4","3","3","2","3","3","4","3","5","5","5","5","4","4","4","3","5","3","5","755771736343187458","左","Male","[""坏我"",""好他"",""好我"",""坏他""]","[""弱我"",""强他"",""强我"",""弱他""]","","","","","","","","no","","","","","","","","","SRET","EW_formal","","key","j","6.943924686192461","960","536","朋友","狡诈","Negative","morality","","","","","","","","","",""
"847","","f","psychophysics","80","245410","0.0-7.0-3.0-0.66","3","4","4","3","3","4","3","3","3","4","4","0","0","-1","0","0","0","0","2","3","2","5","3","3","3","4","4","4","4","6","6","5","4","4","4","4","5","5","4","5","3","3","5","2","5","3","5","3","5","3","3","5","3","4","3","5","5","5","3","4","3","3","2","3","3","4","3","5","5","5","5","4","4","4","3","5","3","5","755771736343187458","左","Male","[""坏我"",""好他"",""好我"",""坏他""]","[""弱我"",""强他"",""强我"",""弱他""]","","","","","","","","yes","","","","","","","","","SRET","EW_formal","","key","f","6.944045283018945","960","536","朋友","正气","Positive","morality","","","","","","","","","",""
"1656","","j","psychophysics","81","248066","0.0-7.0-3.0-0.67","3","4","4","3","3","4","3","3","3","4","4","0","0","-1","0","0","0","0","2","3","2","5","3","3","3","4","4","4","4","6","6","5","4","4","4","4","5","5","4","5","3","3","5","2","5","3","5","3","5","3","3","5","3","4","3","5","5","5","3","4","3","3","2","3","3","4","3","5","5","5","5","4","4","4","3","5","3","5","755771736343187458","左","Male","[""坏我"",""好他"",""好我"",""坏他""]","[""弱我"",""强他"",""强我"",""弱他""]","","","","","","","","no","","","","","","","","","SRET","EW_formal","","key","j","6.9440785340313536","960","536","自己","肯干","Positive","ability","","","","","","","","","",""
"598","","j","psychophysics","82","249666","0.0-7.0-3.0-0.68","3","4","4","3","3","4","3","3","3","4","4","0","0","-1","0","0","0","0","2","3","2","5","3","3","3","4","4","4","4","6","6","5","4","4","4","4","5","5","4","5","3","3","5","2","5","3","5","3","5","3","3","5","3","4","3","5","5","5","3","4","3","3","2","3","3","4","3","5","5","5","5","4","4","4","3","5","3","5","755771736343187458","左","Male","[""坏我"",""好他"",""好我"",""坏他""]","[""弱我"",""强他"",""强我"",""弱他""]","","","","","","","","no","","","","","","","","","SRET","EW_formal","","key","j","6.944030567685673","960","536","朋友","阴毒","Negative","morality","","","","","","","","","",""
"623","","j","psychophysics","83","251290","0.0-7.0-3.0-0.69","3","4","4","3","3","4","3","3","3","4","4","0","0","-1","0","0","0","0","2","3","2","5","3","3","3","4","4","4","4","6","6","5","4","4","4","4","5","5","4","5","3","3","5","2","5","3","5","3","5","3","3","5","3","4","3","5","5","5","3","4","3","3","2","3","3","4","3","5","5","5","5","4","4","4","3","5","3","5","755771736343187458","左","Male","[""坏我"",""好他"",""好我"",""坏他""]","[""弱我"",""强他"",""强我"",""弱他""]","","","","","","","","no","","","","","","","","","SRET","EW_formal","","key","j","6.9440042918455305","960","536","朋友","蛇蝎","Negative","morality","","","","","","","","","",""
"678","","j","psychophysics","84","252970","0.0-7.0-3.0-0.70","3","4","4","3","3","4","3","3","3","4","4","0","0","-1","0","0","0","0","2","3","2","5","3","3","3","4","4","4","4","6","6","5","4","4","4","4","5","5","4","5","3","3","5","2","5","3","5","3","5","3","3","5","3","4","3","5","5","5","3","4","3","3","2","3","3","4","3","5","5","5","5","4","4","4","3","5","3","5","755771736343187458","左","Male","[""坏我"",""好他"",""好我"",""坏他""]","[""弱我"",""强他"",""强我"",""弱他""]","","","","","","","","no","","","","","","","","","SRET","EW_formal","","key","j","6.9439543568464215","960","536","自己","不端","Negative","morality","","","","","","","","","",""
"631","","j","psychophysics","85","254602","0.0-7.0-3.0-0.71","3","4","4","3","3","4","3","3","3","4","4","0","0","-1","0","0","0","0","2","3","2","5","3","3","3","4","4","4","4","6","6","5","4","4","4","4","5","5","4","5","3","3","5","2","5","3","5","3","5","3","3","5","3","4","3","5","5","5","3","4","3","3","2","3","3","4","3","5","5","5","5","4","4","4","3","5","3","5","755771736343187458","左","Male","[""坏我"",""好他"",""好我"",""坏他""]","[""弱我"",""强他"",""强我"",""弱他""]","","","","","","","","no","","","","","","","","","SRET","EW_formal","","key","j","6.944008547008614","960","536","自己","无能","Negative","ability","","","","","","","","","",""
"903","","f","psychophysics","86","256506","0.0-7.0-3.0-0.72","3","4","4","3","3","4","3","3","3","4","4","0","0","-1","0","0","0","0","2","3","2","5","3","3","3","4","4","4","4","6","6","5","4","4","4","4","5","5","4","5","3","3","5","2","5","3","5","3","5","3","3","5","3","4","3","5","5","5","3","4","3","3","2","3","3","4","3","5","5","5","5","4","4","4","3","5","3","5","755771736343187458","左","Male","[""坏我"",""好他"",""好我"",""坏他""]","[""弱我"",""强他"",""强我"",""弱他""]","","","","","","","","yes","","","","","","","","","SRET","EW_formal","","key","f","6.943945054945108","960","536","朋友","利落","Positive","ability","","","","","","","","","",""
"1048","","j","psychophysics","87","258554","0.0-7.0-3.0-0.73","3","4","4","3","3","4","3","3","3","4","4","0","0","-1","0","0","0","0","2","3","2","5","3","3","3","4","4","4","4","6","6","5","4","4","4","4","5","5","4","5","3","3","5","2","5","3","5","3","5","3","3","5","3","4","3","5","5","5","3","4","3","3","2","3","3","4","3","5","5","5","5","4","4","4","3","5","3","5","755771736343187458","左","Male","[""坏我"",""好他"",""好我"",""坏他""]","[""弱我"",""强他"",""强我"",""弱他""]","","","","","","","","no","","","","","","","","","SRET","EW_formal","","key","j","6.944061224489809","960","536","自己","高明","Positive","ability","","","","","","","","","",""
"687","","f","psychophysics","88","260242","0.0-7.0-3.0-0.74","3","4","4","3","3","4","3","3","3","4","4","0","0","-1","0","0","0","0","2","3","2","5","3","3","3","4","4","4","4","6","6","5","4","4","4","4","5","5","4","5","3","3","5","2","5","3","5","3","5","3","3","5","3","4","3","5","5","5","3","4","3","3","2","3","3","4","3","5","5","5","5","4","4","4","3","5","3","5","755771736343187458","左","Male","[""坏我"",""好他"",""好我"",""坏他""]","[""弱我"",""强他"",""强我"",""弱他""]","","","","","","","","yes","","","","","","","","","SRET","EW_formal","","key","f","6.944033057851263","960","536","自己","淡泊","Positive","morality","","","","","","","","","",""
"719","","f","psychophysics","89","261962","0.0-7.0-3.0-0.75","3","4","4","3","3","4","3","3","3","4","4","0","0","-1","0","0","0","0","2","3","2","5","3","3","3","4","4","4","4","6","6","5","4","4","4","4","5","5","4","5","3","3","5","2","5","3","5","3","5","3","3","5","3","4","3","5","5","5","3","4","3","3","2","3","3","4","3","5","5","5","5","4","4","4","3","5","3","5","755771736343187458","左","Male","[""坏我"",""好他"",""好我"",""坏他""]","[""弱我"",""强他"",""强我"",""弱他""]","","","","","","","","yes","","","","","","","","","SRET","EW_formal","","key","f","6.9440404858299","960","536","自己","孝顺","Positive","morality","","","","","","","","","",""
"838","","j","psychophysics","90","263801","0.0-7.0-3.0-0.76","3","4","4","3","3","4","3","3","3","4","4","0","0","-1","0","0","0","0","2","3","2","5","3","3","3","4","4","4","4","6","6","5","4","4","4","4","5","5","4","5","3","3","5","2","5","3","5","3","5","3","3","5","3","4","3","5","5","5","3","4","3","3","2","3","3","4","3","5","5","5","5","4","4","4","3","5","3","5","755771736343187458","左","Male","[""坏我"",""好他"",""好我"",""坏他""]","[""弱我"",""强他"",""强我"",""弱他""]","","","","","","","","no","","","","","","","","","SRET","EW_formal","","key","j","6.9440340909092235","960","536","朋友","短浅","Negative","ability","","","","","","","","","",""
"1159","","j","psychophysics","91","265961","0.0-7.0-3.0-0.77","3","4","4","3","3","4","3","3","3","4","4","0","0","-1","0","0","0","0","2","3","2","5","3","3","3","4","4","4","4","6","6","5","4","4","4","4","5","5","4","5","3","3","5","2","5","3","5","3","5","3","3","5","3","4","3","5","5","5","3","4","3","3","2","3","3","4","3","5","5","5","5","4","4","4","3","5","3","5","755771736343187458","左","Male","[""坏我"",""好他"",""好我"",""坏他""]","[""弱我"",""强他"",""强我"",""弱他""]","","","","","","","","no","","","","","","","","","SRET","EW_formal","","key","j","6.943980645161167","960","536","自己","无赖","Negative","morality","","","","","","","","","",""
"718","","j","psychophysics","92","267681","0.0-7.0-3.0-0.78","3","4","4","3","3","4","3","3","3","4","4","0","0","-1","0","0","0","0","2","3","2","5","3","3","3","4","4","4","4","6","6","5","4","4","4","4","5","5","4","5","3","3","5","2","5","3","5","3","5","3","3","5","3","4","3","5","5","5","3","4","3","3","2","3","3","4","3","5","5","5","5","4","4","4","3","5","3","5","755771736343187458","左","Male","[""坏我"",""好他"",""好我"",""坏他""]","[""弱我"",""强他"",""强我"",""弱他""]","","","","","","","","no","","","","","","","","","SRET","EW_formal","","key","j","6.943971659918882","960","536","自己","拜金","Negative","morality","","","","","","","","","",""
"1023","","j","psychophysics","93","269706","0.0-7.0-3.0-0.79","3","4","4","3","3","4","3","3","3","4","4","0","0","-1","0","0","0","0","2","3","2","5","3","3","3","4","4","4","4","6","6","5","4","4","4","4","5","5","4","5","3","3","5","2","5","3","5","3","5","3","3","5","3","4","3","5","5","5","3","4","3","3","2","3","3","4","3","5","5","5","5","4","4","4","3","5","3","5","755771736343187458","左","Male","[""坏我"",""好他"",""好我"",""坏他""]","[""弱我"",""强他"",""强我"",""弱他""]","","","","","","","","no","","","","","","","","","SRET","EW_formal","","key","j","6.943968965517205","960","536","自己","敏捷","Positive","ability","","","","","","","","","",""
"814","","j","psychophysics","94","271521","0.0-7.0-3.0-0.80","3","4","4","3","3","4","3","3","3","4","4","0","0","-1","0","0","0","0","2","3","2","5","3","3","3","4","4","4","4","6","6","5","4","4","4","4","5","5","4","5","3","3","5","2","5","3","5","3","5","3","3","5","3","4","3","5","5","5","3","4","3","3","2","3","3","4","3","5","5","5","5","4","4","4","3","5","3","5","755771736343187458","左","Male","[""坏我"",""好他"",""好我"",""坏他""]","[""弱我"",""强他"",""强我"",""弱他""]","","","","","","","","no","","","","","","","","","SRET","EW_formal","","key","j","6.943973180076546","960","536","自己","清廉","Positive","morality","","","","","","","","","",""
"1335","","f","psychophysics","95","273857","0.0-7.0-3.0-0.81","3","4","4","3","3","4","3","3","3","4","4","0","0","-1","0","0","0","0","2","3","2","5","3","3","3","4","4","4","4","6","6","5","4","4","4","4","5","5","4","5","3","3","5","2","5","3","5","3","5","3","3","5","3","4","3","5","5","5","3","4","3","3","2","3","3","4","3","5","5","5","5","4","4","4","3","5","3","5","755771736343187458","左","Male","[""坏我"",""好他"",""好我"",""坏他""]","[""弱我"",""强他"",""强我"",""弱他""]","","","","","","","","yes","","","","","","","","","SRET","EW_formal","","key","f","6.944017910447715","960","536","朋友","热心","Positive","morality","","","","","","","","","",""
"719","","j","psychophysics","96","275577","0.0-7.0-3.0-0.82","3","4","4","3","3","4","3","3","3","4","4","0","0","-1","0","0","0","0","2","3","2","5","3","3","3","4","4","4","4","6","6","5","4","4","4","4","5","5","4","5","3","3","5","2","5","3","5","3","5","3","3","5","3","4","3","5","5","5","3","4","3","3","2","3","3","4","3","5","5","5","5","4","4","4","3","5","3","5","755771736343187458","左","Male","[""坏我"",""好他"",""好我"",""坏他""]","[""弱我"",""强他"",""强我"",""弱他""]","","","","","","","","no","","","","","","","","","SRET","EW_formal","","key","j","6.943955465587071","960","536","朋友","庸碌","Negative","ability","","","","","","","","","",""
"711","","j","psychophysics","97","277289","0.0-7.0-3.0-0.83","3","4","4","3","3","4","3","3","3","4","4","0","0","-1","0","0","0","0","2","3","2","5","3","3","3","4","4","4","4","6","6","5","4","4","4","4","5","5","4","5","3","3","5","2","5","3","5","3","5","3","3","5","3","4","3","5","5","5","3","4","3","3","2","3","3","4","3","5","5","5","5","4","4","4","3","5","3","5","755771736343187458","左","Male","[""坏我"",""好他"",""好我"",""坏他""]","[""弱我"",""强他"",""强我"",""弱他""]","","","","","","","","no","","","","","","","","","SRET","EW_formal","","key","j","6.943934693877414","960","536","朋友","稳健","Positive","ability","","","","","","","","","",""
"1384","","j","psychophysics","98","279673","0.0-7.0-3.0-0.84","3","4","4","3","3","4","3","3","3","4","4","0","0","-1","0","0","0","0","2","3","2","5","3","3","3","4","4","4","4","6","6","5","4","4","4","4","5","5","4","5","3","3","5","2","5","3","5","3","5","3","3","5","3","4","3","5","5","5","3","4","3","3","2","3","3","4","3","5","5","5","5","4","4","4","3","5","3","5","755771736343187458","左","Male","[""坏我"",""好他"",""好我"",""坏他""]","[""弱我"",""强他"",""强我"",""弱他""]","","","","","","","","no","","","","","","","","","SRET","EW_formal","","key","j","6.94407288629732","960","536","自己","缓慢","Negative","ability","","","","","","","","","",""
"1160","","j","psychophysics","99","281834","0.0-7.0-3.0-0.85","3","4","4","3","3","4","3","3","3","4","4","0","0","-1","0","0","0","0","2","3","2","5","3","3","3","4","4","4","4","6","6","5","4","4","4","4","5","5","4","5","3","3","5","2","5","3","5","3","5","3","3","5","3","4","3","5","5","5","3","4","3","3","2","3","3","4","3","5","5","5","5","4","4","4","3","5","3","5","755771736343187458","左","Male","[""坏我"",""好他"",""好我"",""坏他""]","[""弱我"",""强他"",""强我"",""弱他""]","","","","","","","","no","","","","","","","","","SRET","EW_formal","","key","j","6.943999999999857","960","536","自己","主见","Positive","ability","","","","","","","","","",""
"1095","","j","psychophysics","100","283929","0.0-7.0-3.0-0.86","3","4","4","3","3","4","3","3","3","4","4","0","0","-1","0","0","0","0","2","3","2","5","3","3","3","4","4","4","4","6","6","5","4","4","4","4","5","5","4","5","3","3","5","2","5","3","5","3","5","3","3","5","3","4","3","5","5","5","3","4","3","3","2","3","3","4","3","5","5","5","5","4","4","4","3","5","3","5","755771736343187458","左","Male","[""坏我"",""好他"",""好我"",""坏他""]","[""弱我"",""强他"",""强我"",""弱他""]","","","","","","","","no","","","","","","","","","SRET","EW_formal","","key","j","6.943963455149411","960","536","朋友","素养","Positive","morality","","","","","","","","","",""
"750","","j","psychophysics","101","285681","0.0-7.0-3.0-0.87","3","4","4","3","3","4","3","3","3","4","4","0","0","-1","0","0","0","0","2","3","2","5","3","3","3","4","4","4","4","6","6","5","4","4","4","4","5","5","4","5","3","3","5","2","5","3","5","3","5","3","3","5","3","4","3","5","5","5","3","4","3","3","2","3","3","4","3","5","5","5","5","4","4","4","3","5","3","5","755771736343187458","左","Male","[""坏我"",""好他"",""好我"",""坏他""]","[""弱我"",""强他"",""强我"",""弱他""]","","","","","","","","no","","","","","","","","","SRET","EW_formal","","key","j","6.944027888446219","960","536","朋友","低俗","Negative","morality","","","","","","","","","",""
"45132","
    <p><div style='color:white;font-size:35px; line-height:20px;'>计算任务</div></p><br>
    <p><div style='color:red;font-size:25px; line-height:20px;'>接下来，您将看到一些四则运算题，<b>请从键盘选择 0-9 进行反应。</b></div></p>
    <p><div class='footer' style='color:white;font-size:25px; line-height:20px;'>如果对本实验还有不清楚之处，请立即向实验员咨询。</p><p style='color:white;font-size:25px; line-height:20px;'>如果您明白了规则：</p><p style='color:white;font-size:22px; line-height:20px;'>请按 继续 进入练习</p>
    </div>
    ","0","html-button-response","102","330814","0.0-7.0-4.0","3","4","4","3","3","4","3","3","3","4","4","0","0","-1","0","0","0","0","2","3","2","5","3","3","3","4","4","4","4","6","6","5","4","4","4","4","5","5","4","5","3","3","5","2","5","3","5","3","5","3","3","5","3","4","3","5","5","5","3","4","3","3","2","3","3","4","3","5","5","5","5","4","4","4","3","5","3","5","755771736343187458","左","Male","[""坏我"",""好他"",""好我"",""坏他""]","[""弱我"",""强他"",""强我"",""弱他""]","","","","","","","","","","","","","","","","","SRET_math","math_instructions","Fri Sep 22 2023 20:52:28 GMT+0800 (中国标准时间)","","","","","","","","","","","","","","","","","","",""
"1993","","2","psychophysics","103","332810","0.0-7.0-5.0-0.0","3","4","4","3","3","4","3","3","3","4","4","0","0","-1","0","0","0","0","2","3","2","5","3","3","3","4","4","4","4","6","6","5","4","4","4","4","5","5","4","5","3","3","5","2","5","3","5","3","5","3","3","5","3","4","3","5","5","5","3","4","3","3","2","3","3","4","3","5","5","5","5","4","4","4","3","5","3","5","755771736343187458","左","Male","[""坏我"",""好他"",""好我"",""坏他""]","[""弱我"",""强他"",""强我"",""弱他""]","","","","","","","","2","","","","","","","","","SRET","SRET_math_calculate","","key","2","6.944083333333361","960","536","","","","","19-17= ?","2","1","","","","","","",""
"2159","","3","psychophysics","104","334970","0.0-7.0-5.0-0.1","3","4","4","3","3","4","3","3","3","4","4","0","0","-1","0","0","0","0","2","3","2","5","3","3","3","4","4","4","4","6","6","5","4","4","4","4","5","5","4","5","3","3","5","2","5","3","5","3","5","3","3","5","3","4","3","5","5","5","3","4","3","3","2","3","3","4","3","5","5","5","5","4","4","4","3","5","3","5","755771736343187458","左","Male","[""坏我"",""好他"",""好我"",""坏他""]","[""弱我"",""强他"",""强我"",""弱他""]","","","","","","","","3","","","","","","","","","SRET","SRET_math_calculate","","key","3","6.943993548387023","960","536","","","","","6/2= ?","3","1","","","","","","",""
"1807","","0","psychophysics","105","336778","0.0-7.0-5.0-0.2","3","4","4","3","3","4","3","3","3","4","4","0","0","-1","0","0","0","0","2","3","2","5","3","3","3","4","4","4","4","6","6","5","4","4","4","4","5","5","4","5","3","3","5","2","5","3","5","3","5","3","3","5","3","4","3","5","5","5","3","4","3","3","2","3","3","4","3","5","5","5","5","4","4","4","3","5","3","5","755771736343187458","左","Male","[""坏我"",""好他"",""好我"",""坏他""]","[""弱我"",""强他"",""强我"",""弱他""]","","","","","","","","0","","","","","","","","","SRET","SRET_math_calculate","","key","0","6.9439845559844375","960","536","","","","","9-9= ?","0","1","","","","","","",""
"1775","","3","psychophysics","106","338554","0.0-7.0-5.0-0.3","3","4","4","3","3","4","3","3","3","4","4","0","0","-1","0","0","0","0","2","3","2","5","3","3","3","4","4","4","4","6","6","5","4","4","4","4","5","5","4","5","3","3","5","2","5","3","5","3","5","3","3","5","3","4","3","5","5","5","3","4","3","3","2","3","3","4","3","5","5","5","5","4","4","4","3","5","3","5","755771736343187458","左","Male","[""坏我"",""好他"",""好我"",""坏他""]","[""弱我"",""强他"",""强我"",""弱他""]","","","","","","","","3","","","","","","","","","SRET","SRET_math_calculate","","key","3","6.943956862744994","960","536","","","","","9/3= ?","3","1","","","","","","",""
"1847","","9","psychophysics","107","340402","0.0-7.0-5.0-0.4","3","4","4","3","3","4","3","3","3","4","4","0","0","-1","0","0","0","0","2","3","2","5","3","3","3","4","4","4","4","6","6","5","4","4","4","4","5","5","4","5","3","3","5","2","5","3","5","3","5","3","3","5","3","4","3","5","5","5","3","4","3","3","2","3","3","4","3","5","5","5","5","4","4","4","3","5","3","5","755771736343187458","左","Male","[""坏我"",""好他"",""好我"",""坏他""]","[""弱我"",""强他"",""强我"",""弱他""]","","","","","","","","9","","","","","","","","","SRET","SRET_math_calculate","","key","9","6.944060377358406","960","536","","","","","7+2= ?","9","1","","","","","","",""
"2256","","8","psychophysics","108","342658","0.0-7.0-5.0-0.5","3","4","4","3","3","4","3","3","3","4","4","0","0","-1","0","0","0","0","2","3","2","5","3","3","3","4","4","4","4","6","6","5","4","4","4","4","5","5","4","5","3","3","5","2","5","3","5","3","5","3","3","5","3","4","3","5","5","5","3","4","3","3","2","3","3","4","3","5","5","5","5","4","4","4","3","5","3","5","755771736343187458","左","Male","[""坏我"",""好他"",""好我"",""坏他""]","[""弱我"",""强他"",""强我"",""弱他""]","","","","","","","","8","","","","","","","","","SRET","SRET_math_calculate","","key","8","6.94397222222225","960","536","","","","","2*4= ?","8","1","","","","","","",""
"1927","","2","psychophysics","109","344586","0.0-7.0-5.0-0.6","3","4","4","3","3","4","3","3","3","4","4","0","0","-1","0","0","0","0","2","3","2","5","3","3","3","4","4","4","4","6","6","5","4","4","4","4","5","5","4","5","3","3","5","2","5","3","5","3","5","3","3","5","3","4","3","5","5","5","3","4","3","3","2","3","3","4","3","5","5","5","5","4","4","4","3","5","3","5","755771736343187458","左","Male","[""坏我"",""好他"",""好我"",""坏他""]","[""弱我"",""强他"",""强我"",""弱他""]","","","","","","","","2","","","","","","","","","SRET","SRET_math_calculate","","key","2","6.943992779783304","960","536","","","","","22/11= ?","2","1","","","","","","",""
"1671","","5","psychophysics","110","346258","0.0-7.0-5.0-0.7","3","4","4","3","3","4","3","3","3","4","4","0","0","-1","0","0","0","0","2","3","2","5","3","3","3","4","4","4","4","6","6","5","4","4","4","4","5","5","4","5","3","3","5","2","5","3","5","3","5","3","3","5","3","4","3","5","5","5","3","4","3","3","2","3","3","4","3","5","5","5","5","4","4","4","3","5","3","5","755771736343187458","左","Male","[""坏我"",""好他"",""好我"",""坏他""]","[""弱我"",""强他"",""强我"",""弱他""]","","","","","","","","5","","","","","","","","","SRET","SRET_math_calculate","","key","5","6.943958158995693","960","536","","","","","2+3= ?","5","1","","","","","","",""
"2039","","9","psychophysics","111","348298","0.0-7.0-5.0-0.8","3","4","4","3","3","4","3","3","3","4","4","0","0","-1","0","0","0","0","2","3","2","5","3","3","3","4","4","4","4","6","6","5","4","4","4","4","5","5","4","5","3","3","5","2","5","3","5","3","5","3","3","5","3","4","3","5","5","5","3","4","3","3","2","3","3","4","3","5","5","5","5","4","4","4","3","5","3","5","755771736343187458","左","Male","[""坏我"",""好他"",""好我"",""坏他""]","[""弱我"",""强他"",""强我"",""弱他""]","","","","","","","","9","","","","","","","","","SRET","SRET_math_calculate","","key","9","6.944037542662126","960","536","","","","","5+4= ?","9","1","","","","","","",""
"2487","","7","psychophysics","112","350786","0.0-7.0-5.0-0.9","3","4","4","3","3","4","3","3","3","4","4","0","0","-1","0","0","0","0","2","3","2","5","3","3","3","4","4","4","4","6","6","5","4","4","4","4","5","5","4","5","3","3","5","2","5","3","5","3","5","3","3","5","3","4","3","5","5","5","3","4","3","3","2","3","3","4","3","5","5","5","5","4","4","4","3","5","3","5","755771736343187458","左","Male","[""坏我"",""好他"",""好我"",""坏他""]","[""弱我"",""强他"",""强我"",""弱他""]","","","","","","","","7","","","","","","","","","SRET","SRET_math_calculate","","key","7","6.943994397759087","960","536","","","","","5+2= ?","7","1","","","","","","",""
"1719","","6","psychophysics","113","352506","0.0-7.0-5.0-0.10","3","4","4","3","3","4","3","3","3","4","4","0","0","-1","0","0","0","0","2","3","2","5","3","3","3","4","4","4","4","6","6","5","4","4","4","4","5","5","4","5","3","3","5","2","5","3","5","3","5","3","3","5","3","4","3","5","5","5","3","4","3","3","2","3","3","4","3","5","5","5","5","4","4","4","3","5","3","5","755771736343187458","左","Male","[""坏我"",""好他"",""好我"",""坏他""]","[""弱我"",""强他"",""强我"",""弱他""]","","","","","","","","6","","","","","","","","","SRET","SRET_math_calculate","","key","6","6.944052631579112","960","536","","","","","3+3= ?","6","1","","","","","","",""
"1768","","9","psychophysics","114","354274","0.0-7.0-5.0-0.11","3","4","4","3","3","4","3","3","3","4","4","0","0","-1","0","0","0","0","2","3","2","5","3","3","3","4","4","4","4","6","6","5","4","4","4","4","5","5","4","5","3","3","5","2","5","3","5","3","5","3","3","5","3","4","3","5","5","5","3","4","3","3","2","3","3","4","3","5","5","5","5","4","4","4","3","5","3","5","755771736343187458","左","Male","[""坏我"",""好他"",""好我"",""坏他""]","[""弱我"",""强他"",""强我"",""弱他""]","","","","","","","","9","","","","","","","","","SRET","SRET_math_calculate","","key","9","6.94400000000005","960","536","","","","","8+1= ?","9","1","","","","","","",""
"2423","","5","psychophysics","115","356698","0.0-7.0-5.0-0.12","3","4","4","3","3","4","3","3","3","4","4","0","0","-1","0","0","0","0","2","3","2","5","3","3","3","4","4","4","4","6","6","5","4","4","4","4","5","5","4","5","3","3","5","2","5","3","5","3","5","3","3","5","3","4","3","5","5","5","3","4","3","3","2","3","3","4","3","5","5","5","5","4","4","4","3","5","3","5","755771736343187458","左","Male","[""坏我"",""好他"",""好我"",""坏他""]","[""弱我"",""强他"",""强我"",""弱他""]","","","","","","","","5","","","","","","","","","SRET","SRET_math_calculate","","key","5","6.944011494252883","960","536","","","","","14-9= ?","5","1","","","","","","",""
"1687","","3","psychophysics","116","358386","0.0-7.0-5.0-0.13","3","4","4","3","3","4","3","3","3","4","4","0","0","-1","0","0","0","0","2","3","2","5","3","3","3","4","4","4","4","6","6","5","4","4","4","4","5","5","4","5","3","3","5","2","5","3","5","3","5","3","3","5","3","4","3","5","5","5","3","4","3","3","2","3","3","4","3","5","5","5","5","4","4","4","3","5","3","5","755771736343187458","左","Male","[""坏我"",""好他"",""好我"",""坏他""]","[""弱我"",""强他"",""强我"",""弱他""]","","","","","","","","3","","","","","","","","","SRET","SRET_math_calculate","","key","3","6.9440454545453445","960","536","","","","","1+2= ?","3","1","","","","","","",""
"1823","","7","psychophysics","117","360210","0.0-7.0-5.0-0.14","3","4","4","3","3","4","3","3","3","4","4","0","0","-1","0","0","0","0","2","3","2","5","3","3","3","4","4","4","4","6","6","5","4","4","4","4","5","5","4","5","3","3","5","2","5","3","5","3","5","3","3","5","3","4","3","5","5","5","3","4","3","3","2","3","3","4","3","5","5","5","5","4","4","4","3","5","3","5","755771736343187458","左","Male","[""坏我"",""好他"",""好我"",""坏他""]","[""弱我"",""强他"",""强我"",""弱他""]","","","","","","","","7","","","","","","","","","SRET","SRET_math_calculate","","key","7","6.943946564885546","960","536","","","","","3+4= ?","7","1","","","","","","",""
"2111","","8","psychophysics","118","362322","0.0-7.0-5.0-0.15","3","4","4","3","3","4","3","3","3","4","4","0","0","-1","0","0","0","0","2","3","2","5","3","3","3","4","4","4","4","6","6","5","4","4","4","4","5","5","4","5","3","3","5","2","5","3","5","3","5","3","3","5","3","4","3","5","5","5","3","4","3","3","2","3","3","4","3","5","5","5","5","4","4","4","3","5","3","5","755771736343187458","左","Male","[""坏我"",""好他"",""好我"",""坏他""]","[""弱我"",""强他"",""强我"",""弱他""]","","","","","","","","8","","","","","","","","","SRET","SRET_math_calculate","","key","8","6.943973597359848","960","536","","","","","1*8= ?","8","1","","","","","","",""
"1895","","7","psychophysics","119","364218","0.0-7.0-5.0-0.16","3","4","4","3","3","4","3","3","3","4","4","0","0","-1","0","0","0","0","2","3","2","5","3","3","3","4","4","4","4","6","6","5","4","4","4","4","5","5","4","5","3","3","5","2","5","3","5","3","5","3","3","5","3","4","3","5","5","5","3","4","3","3","2","3","3","4","3","5","5","5","5","4","4","4","3","5","3","5","755771736343187458","左","Male","[""坏我"",""好他"",""好我"",""坏他""]","[""弱我"",""强他"",""强我"",""弱他""]","","","","","","","","7","","","","","","","","","SRET","SRET_math_calculate","","key","7","6.944062499999906","960","536","","","","","1+6= ?","7","1","","","","","","",""
"2207","","6","psychophysics","120","366426","0.0-7.0-5.0-0.17","3","4","4","3","3","4","3","3","3","4","4","0","0","-1","0","0","0","0","2","3","2","5","3","3","3","4","4","4","4","6","6","5","4","4","4","4","5","5","4","5","3","3","5","2","5","3","5","3","5","3","3","5","3","4","3","5","5","5","3","4","3","3","2","3","3","4","3","5","5","5","5","4","4","4","3","5","3","5","755771736343187458","左","Male","[""坏我"",""好他"",""好我"",""坏他""]","[""弱我"",""强他"",""强我"",""弱他""]","","","","","","","","6","","","","","","","","","SRET","SRET_math_calculate","","key","6","6.943996845425969","960","536","","","","","4+2= ?","6","1","","","","","","",""
"1830","","4","psychophysics","121","368258","0.0-7.0-5.0-0.18","3","4","4","3","3","4","3","3","3","4","4","0","0","-1","0","0","0","0","2","3","2","5","3","3","3","4","4","4","4","6","6","5","4","4","4","4","5","5","4","5","3","3","5","2","5","3","5","3","5","3","3","5","3","4","3","5","5","5","3","4","3","3","2","3","3","4","3","5","5","5","5","4","4","4","3","5","3","5","755771736343187458","左","Male","[""坏我"",""好他"",""好我"",""坏他""]","[""弱我"",""强他"",""强我"",""弱他""]","","","","","","","","4","","","","","","","","","SRET","SRET_math_calculate","","key","4","6.943977099236586","960","536","","","","","3+1= ?","4","1","","","","","","",""
"2294","","3","psychophysics","122","370554","0.0-7.0-5.0-0.19","3","4","4","3","3","4","3","3","3","4","4","0","0","-1","0","0","0","0","2","3","2","5","3","3","3","4","4","4","4","6","6","5","4","4","4","4","5","5","4","5","3","3","5","2","5","3","5","3","5","3","3","5","3","4","3","5","5","5","3","4","3","3","2","3","3","4","3","5","5","5","5","4","4","4","3","5","3","5","755771736343187458","左","Male","[""坏我"",""好他"",""好我"",""坏他""]","[""弱我"",""强他"",""强我"",""弱他""]","","","","","","","","3","","","","","","","","","SRET","SRET_math_calculate","","key","3","6.944087878787876","960","536","","","","","21/7=  ?","3","1","","","","","","",""
"1807","","0","psychophysics","123","372362","0.0-7.0-5.0-0.20","3","4","4","3","3","4","3","3","3","4","4","0","0","-1","0","0","0","0","2","3","2","5","3","3","3","4","4","4","4","6","6","5","4","4","4","4","5","5","4","5","3","3","5","2","5","3","5","3","5","3","3","5","3","4","3","5","5","5","3","4","3","3","2","3","3","4","3","5","5","5","5","4","4","4","3","5","3","5","755771736343187458","左","Male","[""坏我"",""好他"",""好我"",""坏他""]","[""弱我"",""强他"",""强我"",""弱他""]","","","","","","","","0","","","","","","","","","SRET","SRET_math_calculate","","key","0","6.943972972972978","960","536","","","","","22-22= ?","0","1","","","","","","",""
"2790","","5","psychophysics","124","375154","0.0-7.0-5.0-0.21","3","4","4","3","3","4","3","3","3","4","4","0","0","-1","0","0","0","0","2","3","2","5","3","3","3","4","4","4","4","6","6","5","4","4","4","4","5","5","4","5","3","3","5","2","5","3","5","3","5","3","3","5","3","4","3","5","5","5","3","4","3","3","2","3","3","4","3","5","5","5","5","4","4","4","3","5","3","5","755771736343187458","左","Male","[""坏我"",""好他"",""好我"",""坏他""]","[""弱我"",""强他"",""强我"",""弱他""]","","","","","","","","5","","","","","","","","","SRET","SRET_math_calculate","","key","5","6.944072139303464","960","536","","","","","8-3= ? ","5","1","","","","","","",""
"1864","","5","psychophysics","125","377018","0.0-7.0-5.0-0.22","3","4","4","3","3","4","3","3","3","4","4","0","0","-1","0","0","0","0","2","3","2","5","3","3","3","4","4","4","4","6","6","5","4","4","4","4","5","5","4","5","3","3","5","2","5","3","5","3","5","3","3","5","3","4","3","5","5","5","3","4","3","3","2","3","3","4","3","5","5","5","5","4","4","4","3","5","3","5","755771736343187458","左","Male","[""坏我"",""好他"",""好我"",""坏他""]","[""弱我"",""强他"",""强我"",""弱他""]","","","","","","","","5","","","","","","","","","SRET","SRET_math_calculate","","key","5","6.943943820224703","960","536","","","","","3+2= ?","5","1","","","","","","",""
"1886","","7","psychophysics","126","378906","0.0-7.0-5.0-0.23","3","4","4","3","3","4","3","3","3","4","4","0","0","-1","0","0","0","0","2","3","2","5","3","3","3","4","4","4","4","6","6","5","4","4","4","4","5","5","4","5","3","3","5","2","5","3","5","3","5","3","3","5","3","4","3","5","5","5","3","4","3","3","2","3","3","4","3","5","5","5","5","4","4","4","3","5","3","5","755771736343187458","左","Male","[""坏我"",""好他"",""好我"",""坏他""]","[""弱我"",""强他"",""强我"",""弱他""]","","","","","","","","7","","","","","","","","","SRET","SRET_math_calculate","","key","7","6.943999999999868","960","536","","","","","4+3= ?","7","1","","","","","","",""
"1687","","3","psychophysics","127","380594","0.0-7.0-5.0-0.24","3","4","4","3","3","4","3","3","3","4","4","0","0","-1","0","0","0","0","2","3","2","5","3","3","3","4","4","4","4","6","6","5","4","4","4","4","5","5","4","5","3","3","5","2","5","3","5","3","5","3","3","5","3","4","3","5","5","5","3","4","3","3","2","3","3","4","3","5","5","5","5","4","4","4","3","5","3","5","755771736343187458","左","Male","[""坏我"",""好他"",""好我"",""坏他""]","[""弱我"",""强他"",""强我"",""弱他""]","","","","","","","","3","","","","","","","","","SRET","SRET_math_calculate","","key","3","6.943929752066043","960","536","","","","","2+1= ?","3","1","","","","","","",""
"2927","","7","psychophysics","128","383522","0.0-7.0-5.0-0.25","3","4","4","3","3","4","3","3","3","4","4","0","0","-1","0","0","0","0","2","3","2","5","3","3","3","4","4","4","4","6","6","5","4","4","4","4","5","5","4","5","3","3","5","2","5","3","5","3","5","3","3","5","3","4","3","5","5","5","3","4","3","3","2","3","3","4","3","5","5","5","5","4","4","4","3","5","3","5","755771736343187458","左","Male","[""坏我"",""好他"",""好我"",""坏他""]","[""弱我"",""强他"",""强我"",""弱他""]","","","","","","","","7","","","","","","","","","SRET","SRET_math_calculate","","key","7","6.944059382422718","960","536","","","","","12-5= ?","7","1","","","","","","",""
"1943","","8","psychophysics","129","385466","0.0-7.0-5.0-0.26","3","4","4","3","3","4","3","3","3","4","4","0","0","-1","0","0","0","0","2","3","2","5","3","3","3","4","4","4","4","6","6","5","4","4","4","4","5","5","4","5","3","3","5","2","5","3","5","3","5","3","3","5","3","4","3","5","5","5","3","4","3","3","2","3","3","4","3","5","5","5","5","4","4","4","3","5","3","5","755771736343187458","左","Male","[""坏我"",""好他"",""好我"",""坏他""]","[""弱我"",""强他"",""强我"",""弱他""]","","","","","","","","8","","","","","","","","","SRET","SRET_math_calculate","","key","8","6.9439534050179645","960","536","","","","","5+3= ?","8","1","","","","","","",""
"2056","","8","psychophysics","130","387522","0.0-7.0-5.0-0.27","3","4","4","3","3","4","3","3","3","4","4","0","0","-1","0","0","0","0","2","3","2","5","3","3","3","4","4","4","4","6","6","5","4","4","4","4","5","5","4","5","3","3","5","2","5","3","5","3","5","3","3","5","3","4","3","5","5","5","3","4","3","3","2","3","3","4","3","5","5","5","5","4","4","4","3","5","3","5","755771736343187458","左","Male","[""坏我"",""好他"",""好我"",""坏他""]","[""弱我"",""强他"",""强我"",""弱他""]","","","","","","","","8","","","","","","","","","SRET","SRET_math_calculate","","key","8","6.9439864406780485","960","536","","","","","9-1= ?","8","1","","","","","","",""
"2326","","3","psychophysics","131","389850","0.0-7.0-5.0-0.28","3","4","4","3","3","4","3","3","3","4","4","0","0","-1","0","0","0","0","2","3","2","5","3","3","3","4","4","4","4","6","6","5","4","4","4","4","5","5","4","5","3","3","5","2","5","3","5","3","5","3","3","5","3","4","3","5","5","5","3","4","3","3","2","3","3","4","3","5","5","5","5","4","4","4","3","5","3","5","755771736343187458","左","Male","[""坏我"",""好他"",""好我"",""坏他""]","[""弱我"",""强他"",""强我"",""弱他""]","","","","","","","","3","","","","","","","","","SRET","SRET_math_calculate","","key","3","6.944017964071931","960","536","","","","","11-8= ?","3","1","","","","","","",""
"2055","","3","psychophysics","132","391906","0.0-7.0-5.0-0.29","3","4","4","3","3","4","3","3","3","4","4","0","0","-1","0","0","0","0","2","3","2","5","3","3","3","4","4","4","4","6","6","5","4","4","4","4","5","5","4","5","3","3","5","2","5","3","5","3","5","3","3","5","3","4","3","5","5","5","3","4","3","3","2","3","3","4","3","5","5","5","5","4","4","4","3","5","3","5","755771736343187458","左","Male","[""坏我"",""好他"",""好我"",""坏他""]","[""弱我"",""强他"",""强我"",""弱他""]","","","","","","","","3","","","","","","","","","SRET","SRET_math_calculate","","key","3","6.943979661016907","960","536","","","","","8-5= ?","3","1","","","","","","",""
"1855","","8","psychophysics","133","393762","0.0-7.0-5.0-0.30","3","4","4","3","3","4","3","3","3","4","4","0","0","-1","0","0","0","0","2","3","2","5","3","3","3","4","4","4","4","6","6","5","4","4","4","4","5","5","4","5","3","3","5","2","5","3","5","3","5","3","3","5","3","4","3","5","5","5","3","4","3","3","2","3","3","4","3","5","5","5","5","4","4","4","3","5","3","5","755771736343187458","左","Male","[""坏我"",""好他"",""好我"",""坏他""]","[""弱我"",""强他"",""强我"",""弱他""]","","","","","","","","8","","","","","","","","","SRET","SRET_math_calculate","","key","8","6.943951127819605","960","536","","","","","4*2= ?","8","1","","","","","","",""
"2655","","7","psychophysics","134","396418","0.0-7.0-5.0-0.31","3","4","4","3","3","4","3","3","3","4","4","0","0","-1","0","0","0","0","2","3","2","5","3","3","3","4","4","4","4","6","6","5","4","4","4","4","5","5","4","5","3","3","5","2","5","3","5","3","5","3","3","5","3","4","3","5","5","5","3","4","3","3","2","3","3","4","3","5","5","5","5","4","4","4","3","5","3","5","755771736343187458","左","Male","[""坏我"",""好他"",""好我"",""坏他""]","[""弱我"",""强他"",""强我"",""弱他""]","","","","","","","","7","","","","","","","","","SRET","SRET_math_calculate","","key","7","6.944013089005267","960","536","","","","","49/7 = ?","7","1","","","","","","",""
"2016","","8","psychophysics","135","398434","0.0-7.0-5.0-0.32","3","4","4","3","3","4","3","3","3","4","4","0","0","-1","0","0","0","0","2","3","2","5","3","3","3","4","4","4","4","6","6","5","4","4","4","4","5","5","4","5","3","3","5","2","5","3","5","3","5","3","3","5","3","4","3","5","5","5","3","4","3","3","2","3","3","4","3","5","5","5","5","4","4","4","3","5","3","5","755771736343187458","左","Male","[""坏我"",""好他"",""好我"",""坏他""]","[""弱我"",""强他"",""强我"",""弱他""]","","","","","","","","8","","","","","","","","","SRET","SRET_math_calculate","","key","8","6.943986159169669","960","536","","","","","56/7= ?","8","1","","","","","","",""
"1991","","3","psychophysics","136","400426","0.0-7.0-5.0-0.33","3","4","4","3","3","4","3","3","3","4","4","0","0","-1","0","0","0","0","2","3","2","5","3","3","3","4","4","4","4","6","6","5","4","4","4","4","5","5","4","5","3","3","5","2","5","3","5","3","5","3","3","5","3","4","3","5","5","5","3","4","3","3","2","3","3","4","3","5","5","5","5","4","4","4","3","5","3","5","755771736343187458","左","Male","[""坏我"",""好他"",""好我"",""坏他""]","[""弱我"",""强他"",""强我"",""弱他""]","","","","","","","","3","","","","","","","","","SRET","SRET_math_calculate","","key","3","6.944059440559403","960","536","","","","","3*1= ?","3","1","","","","","","",""
"2511","","7","psychophysics","137","402938","0.0-7.0-5.0-0.34","3","4","4","3","3","4","3","3","3","4","4","0","0","-1","0","0","0","0","2","3","2","5","3","3","3","4","4","4","4","6","6","5","4","4","4","4","5","5","4","5","3","3","5","2","5","3","5","3","5","3","3","5","3","4","3","5","5","5","3","4","3","3","2","3","3","4","3","5","5","5","5","4","4","4","3","5","3","5","755771736343187458","左","Male","[""坏我"",""好他"",""好我"",""坏他""]","[""弱我"",""强他"",""强我"",""弱他""]","","","","","","","","7","","","","","","","","","SRET","SRET_math_calculate","","key","7","6.944005540166265","960","536","","","","","13-6= ?","7","1","","","","","","",""
"1911","","5","psychophysics","138","404850","0.0-7.0-5.0-0.35","3","4","4","3","3","4","3","3","3","4","4","0","0","-1","0","0","0","0","2","3","2","5","3","3","3","4","4","4","4","6","6","5","4","4","4","4","5","5","4","5","3","3","5","2","5","3","5","3","5","3","3","5","3","4","3","5","5","5","3","4","3","3","2","3","3","4","3","5","5","5","5","4","4","4","3","5","3","5","755771736343187458","左","Male","[""坏我"",""好他"",""好我"",""坏他""]","[""弱我"",""强他"",""强我"",""弱他""]","","","","","","","","5","","","","","","","","","SRET","SRET_math_calculate","","key","5","6.9440401459854595","960","536","","","","","17-12= ? ","5","1","","","","","","",""
"2599","","4","psychophysics","139","407450","0.0-7.0-5.0-0.36","3","4","4","3","3","4","3","3","3","4","4","0","0","-1","0","0","0","0","2","3","2","5","3","3","3","4","4","4","4","6","6","5","4","4","4","4","5","5","4","5","3","3","5","2","5","3","5","3","5","3","3","5","3","4","3","5","5","5","3","4","3","3","2","3","3","4","3","5","5","5","5","4","4","4","3","5","3","5","755771736343187458","左","Male","[""坏我"",""好他"",""好我"",""坏他""]","[""弱我"",""强他"",""强我"",""弱他""]","","","","","","","","4","","","","","","","","","SRET","SRET_math_calculate","","key","4","6.943986595174311","960","536","","","","","13-9= ?","4","1","","","","","","",""
"2639","","8","psychophysics","140","410090","0.0-7.0-5.0-0.37","3","4","4","3","3","4","3","3","3","4","4","0","0","-1","0","0","0","0","2","3","2","5","3","3","3","4","4","4","4","6","6","5","4","4","4","4","5","5","4","5","3","3","5","2","5","3","5","3","5","3","3","5","3","4","3","5","5","5","3","4","3","3","2","3","3","4","3","5","5","5","5","4","4","4","3","5","3","5","755771736343187458","左","Male","[""坏我"",""好他"",""好我"",""坏他""]","[""弱我"",""强他"",""强我"",""弱他""]","","","","","","","","8","","","","","","","","","SRET","SRET_math_calculate","","key","8","6.944050000000003","960","536","","","","","13-5= ?","8","1","","","","","","",""
"1734","","8","psychophysics","141","411826","0.0-7.0-5.0-0.38","3","4","4","3","3","4","3","3","3","4","4","0","0","-1","0","0","0","0","2","3","2","5","3","3","3","4","4","4","4","6","6","5","4","4","4","4","5","5","4","5","3","3","5","2","5","3","5","3","5","3","3","5","3","4","3","5","5","5","3","4","3","3","2","3","3","4","3","5","5","5","5","4","4","4","3","5","3","5","755771736343187458","左","Male","[""坏我"",""好他"",""好我"",""坏他""]","[""弱我"",""强他"",""强我"",""弱他""]","","","","","","","","8","","","","","","","","","SRET","SRET_math_calculate","","key","8","6.943959839357321","960","536","","","","","1+7= ?","8","1","","","","","","",""
"1719","","6","psychophysics","142","413546","0.0-7.0-5.0-0.39","3","4","4","3","3","4","3","3","3","4","4","0","0","-1","0","0","0","0","2","3","2","5","3","3","3","4","4","4","4","6","6","5","4","4","4","4","5","5","4","5","3","3","5","2","5","3","5","3","5","3","3","5","3","4","3","5","5","5","3","4","3","3","2","3","3","4","3","5","5","5","5","4","4","4","3","5","3","5","755771736343187458","左","Male","[""坏我"",""好他"",""好我"",""坏他""]","[""弱我"",""强他"",""强我"",""弱他""]","","","","","","","","6","","","","","","","","","SRET","SRET_math_calculate","","key","6","6.9439552845528","960","536","","","","","2+4= ?","6","1","","","","","","",""
"2079","","0","psychophysics","143","415626","0.0-7.0-5.0-0.40","3","4","4","3","3","4","3","3","3","4","4","0","0","-1","0","0","0","0","2","3","2","5","3","3","3","4","4","4","4","6","6","5","4","4","4","4","5","5","4","5","3","3","5","2","5","3","5","3","5","3","3","5","3","4","3","5","5","5","3","4","3","3","2","3","3","4","3","5","5","5","5","4","4","4","3","5","3","5","755771736343187458","左","Male","[""坏我"",""好他"",""好我"",""坏他""]","[""弱我"",""强他"",""强我"",""弱他""]","","","","","","","","0","","","","","","","","","SRET","SRET_math_calculate","","key","0","6.944026755852731","960","536","","","","","6*0= ?","0","1","","","","","","",""
"2159","","1","psychophysics","144","417786","0.0-7.0-5.0-0.41","3","4","4","3","3","4","3","3","3","4","4","0","0","-1","0","0","0","0","2","3","2","5","3","3","3","4","4","4","4","6","6","5","4","4","4","4","5","5","4","5","3","3","5","2","5","3","5","3","5","3","3","5","3","4","3","5","5","5","3","4","3","3","2","3","3","4","3","5","5","5","5","4","4","4","3","5","3","5","755771736343187458","左","Male","[""坏我"",""好他"",""好我"",""坏他""]","[""弱我"",""强他"",""强我"",""弱他""]","","","","","","","","1","","","","","","","","","SRET","SRET_math_calculate","","key","1","6.943983870967772","960","536","","","","","9-8= ?","1","1","","","","","","",""
"1703","","0","psychophysics","145","419490","0.0-7.0-5.0-0.42","3","4","4","3","3","4","3","3","3","4","4","0","0","-1","0","0","0","0","2","3","2","5","3","3","3","4","4","4","4","6","6","5","4","4","4","4","5","5","4","5","3","3","5","2","5","3","5","3","5","3","3","5","3","4","3","5","5","5","3","4","3","3","2","3","3","4","3","5","5","5","5","4","4","4","3","5","3","5","755771736343187458","左","Male","[""坏我"",""好他"",""好我"",""坏他""]","[""弱我"",""强他"",""强我"",""弱他""]","","","","","","","","0","","","","","","","","","SRET","SRET_math_calculate","","key","0","6.943954918032834","960","536","","","","","32-32= ?","0","1","","","","","","",""
"2816","","7","psychophysics","146","422306","0.0-7.0-5.0-0.43","3","4","4","3","3","4","3","3","3","4","4","0","0","-1","0","0","0","0","2","3","2","5","3","3","3","4","4","4","4","6","6","5","4","4","4","4","5","5","4","5","3","3","5","2","5","3","5","3","5","3","3","5","3","4","3","5","5","5","3","4","3","3","2","3","3","4","3","5","5","5","5","4","4","4","3","5","3","5","755771736343187458","左","Male","[""坏我"",""好他"",""好我"",""坏他""]","[""弱我"",""强他"",""强我"",""弱他""]","","","","","","","","7","","","","","","","","","SRET","SRET_math_calculate","","key","7","6.944009876543121","960","536","","","","","11-4= ?","7","1","","","","","","",""
