"rt","stimulus","response","trial_type","trial_index","time_elapsed","internal_node_id","swb_1","swb_2","swb_3","swb_4","swb_5","LOT_1","LOT_2","LOT_3","LOT_4","LOT_5","LOT_6","IPC_1","IPC_2","IPC_3","IPC_4","IPC_5","IPC_6","IPC_7","IPC_8","MorIden_1","MorIden_2","MorIden_3","MorIden_4","MorIden_5","MorIden_6","MorIden_7","MorIden_8","MorIden_9","MorIden_10","moralSeImag_1","moralSeImag_2","moralSeImag_3","moralSeImag_4","moralSeImag_5","moralSeImag_6","moralSeImag_7","moralSeImag_8","moralSeImag_9","sde_1","sde_2","sde_3","sde_4","sde_5","sde_6","sde_7","sde_8","sde_9","sde_10","sde_11","sde_12","sde_13","sde_14","sde_15","sde_16","sde_17","sde_18","sde_19","sde_20","IM_1","IM_2","IM_3","IM_4","IM_5","IM_6","IM_7","IM_8","IM_9","IM_10","IM_11","IM_12","IM_13","IM_14","IM_15","IM_16","IM_17","IM_18","IM_19","IM_20","subj_idx","friend_name","Sex","Word","Word2","value","success","timeout","failed_images","failed_audio","failed_video","user_agent","responses","item_order","radio_event_ids","radio_event_times","key_event_times","mouse_event_times","straightlining","zigzagging","honeypot","view_history","response_type","key_press","avg_frame_time","center_x","center_y","correct_response","correct","identity","Image","word","condition","task_id","screen_id","time_stamp","person","valence","domain","math","status","duration","question_order"
"5294","
   <p><div style='color:white; font-size: 25px'>您好，欢迎参加本次实验。</div></p>
   <p><div style='color:white; font-size: 25px'>为充分保障您的权利，请确保您已经知晓并同意《参与实验同意书》以及《数据公开知情同意书》。</div></p>
   <p><div style='color:white; font-size: 25px'>如果您未见过上述内容，请咨询实验员。</div></p>
   <p style='color:white; font-size: 25px'>如果您选择继续实验，则表示您已经清楚两份知情同意书的内容并同意。</p>
   <p> <div style = ""color: green""><按空格键至下页></div> </p>
   "," ","html-keyboard-response","0","5297","0.0-0.0","5","4","5","4","5","5","2","3","4","5","5","0","0","-1","1","-1","0","0","1","5","4","5","4","3","3","2","3","4","3","4","3","3","6","5","4","6","6","7","4","6","5","4","5","2","5","4","3","4","2","3","4","3","4","5","2","5","4","3","3","4","6","6","5","4","5","4","7","5","7","3","6","6","3","6","6","5","5","2","742402460798423042","何","Female","[""好我"",""坏我"",""好她"",""坏她""]","[""强我"",""弱我"",""强她"",""弱她""]","","","","","","","","","","","","","","","","","","","","","","","","","","","","","","","","","","","","","",""
"","","","call-function","1","5298","0.0-1.0-0.0","5","4","5","4","5","5","2","3","4","5","5","0","0","-1","1","-1","0","0","1","5","4","5","4","3","3","2","3","4","3","4","3","3","6","5","4","6","6","7","4","6","5","4","5","2","5","4","3","4","2","3","4","3","4","5","2","5","4","3","3","4","6","6","5","4","5","4","7","5","7","3","6","6","3","6","6","5","5","2","742402460798423042","何","Female","[""好我"",""坏我"",""好她"",""坏她""]","[""强我"",""弱我"",""强她"",""弱她""]","","","","","","","","","","","","","","","","","","","","","","","","","","","","","","","","","","","","","",""
"17069","","[{""name"":""Sex"",""value"":""1""},{""name"":""friend_name"",""value"":""何""}]","survey-html-form","2","22368","0.0-1.0-1.0","5","4","5","4","5","5","2","3","4","5","5","0","0","-1","1","-1","0","0","1","5","4","5","4","3","3","2","3","4","3","4","3","3","6","5","4","6","6","7","4","6","5","4","5","2","5","4","3","4","2","3","4","3","4","5","2","5","4","3","3","4","6","6","5","4","5","4","7","5","7","3","6","6","3","6","6","5","5","2","742402460798423042","何","Female","[""好我"",""坏我"",""好她"",""坏她""]","[""强我"",""弱我"",""强她"",""弱她""]","","","","","","","","","","","","","","","","","","","","","","","","","","","","","","","","","","","","","",""
"","","","preload","3","22553","0.0-2.0","5","4","5","4","5","5","2","3","4","5","5","0","0","-1","1","-1","0","0","1","5","4","5","4","3","3","2","3","4","3","4","3","3","6","5","4","6","6","7","4","6","5","4","5","2","5","4","3","4","2","3","4","3","4","5","2","5","4","3","3","4","6","6","5","4","5","4","7","5","7","3","6","6","3","6","6","5","5","2","742402460798423042","何","Female","[""好我"",""坏我"",""好她"",""坏她""]","[""强我"",""弱我"",""强她"",""弱她""]","","true","false","[]","[]","[]","","","","","","","","","","","","","","","","","","","","","","","","","","","","","","","",""
"","","","fullscreen","4","30087","0.0-3.0","5","4","5","4","5","5","2","3","4","5","5","0","0","-1","1","-1","0","0","1","5","4","5","4","3","3","2","3","4","3","4","3","3","6","5","4","6","6","7","4","6","5","4","5","2","5","4","3","4","2","3","4","3","4","5","2","5","4","3","3","4","6","6","5","4","5","4","7","5","7","3","6","6","3","6","6","5","5","2","742402460798423042","何","Female","[""好我"",""坏我"",""好她"",""坏她""]","[""强我"",""弱我"",""强她"",""弱她""]","","true","","","","","{}","","","","","","","","","","","","","","","","","","","","","","","","","","","","","","",""
"23256.5","","{""Q01"":""5"",""Q02"":""4"",""Q03"":""5"",""Q04"":""4"",""Q05"":""5""}","survey-template","5","53346","0.0-4.0","5","4","5","4","5","5","2","3","4","5","5","0","0","-1","1","-1","0","0","1","5","4","5","4","3","3","2","3","4","3","4","3","3","6","5","4","6","6","7","4","6","5","4","5","2","5","4","3","4","2","3","4","3","4","5","2","5","4","3","3","4","6","6","5","4","5","4","7","5","7","3","6","6","3","6","6","5","5","2","742402460798423042","何","Female","[""好我"",""坏我"",""好她"",""坏她""]","[""强我"",""弱我"",""强她"",""弱她""]","","","","","","","","{""Q01"":""5"",""Q02"":""4"",""Q03"":""5"",""Q04"":""4"",""Q05"":""5""}","[0,1,2,3,4]","[""Q01"",""Q02"",""Q03"",""Q04"",""Q04"",""Q05""]","[9589.800000190735,11448.100000143051,12790,17267.10000014305,20641.300000190735,21842.700000047684]","[]","[9589.800000190735,11448.100000143051,12790,17267.10000014305,20641.300000190735,21842.700000047684,23255.200000047684]","0.6","1","0","","","","","","","","","","","","","","","","","","","","","",""
"37588.800000190735","","{""Q01"":""5"",""Q02"":""2"",""Q03"":""3"",""Q04"":""4"",""Q05"":""5"",""Q06"":""5""}","survey-template","6","90938","0.0-5.0","5","4","5","4","5","5","2","3","4","5","5","0","0","-1","1","-1","0","0","1","5","4","5","4","3","3","2","3","4","3","4","3","3","6","5","4","6","6","7","4","6","5","4","5","2","5","4","3","4","2","3","4","3","4","5","2","5","4","3","3","4","6","6","5","4","5","4","7","5","7","3","6","6","3","6","6","5","5","2","742402460798423042","何","Female","[""好我"",""坏我"",""好她"",""坏她""]","[""强我"",""弱我"",""强她"",""弱她""]","","","","","","","","{""Q01"":""5"",""Q02"":""2"",""Q03"":""3"",""Q04"":""4"",""Q05"":""5"",""Q06"":""5""}","[0,1,2,3,4,5]","[""Q01"",""Q02"",""Q03"",""Q04"",""Q05"",""Q05"",""Q06""]","[6961.700000047684,12807,16757.700000047684,24408.400000095367,28389.300000190735,34254.10000014305,36308.60000014305]","[]","[6961.700000047684,12807,16757.700000047684,22294.400000095367,24408.400000095367,28389.300000190735,31232.300000190735,33265,34254.10000014305,36308.60000014305,37588.10000014305]","0.3333333333333333","1","0","","","","","","","","","","","","","","","","","","","","","",""
"30957.10000014305","","{""Q01"":""0"",""Q02"":""0"",""Q03"":""-1"",""Q04"":""1"",""Q05"":""-1"",""Q06"":""0"",""Q07"":""0"",""Q08"":""1""}","survey-template","7","121898","0.0-6.0","5","4","5","4","5","5","2","3","4","5","5","0","0","-1","1","-1","0","0","1","5","4","5","4","3","3","2","3","4","3","4","3","3","6","5","4","6","6","7","4","6","5","4","5","2","5","4","3","4","2","3","4","3","4","5","2","5","4","3","3","4","6","6","5","4","5","4","7","5","7","3","6","6","3","6","6","5","5","2","742402460798423042","何","Female","[""好我"",""坏我"",""好她"",""坏她""]","[""强我"",""弱我"",""强她"",""弱她""]","","","","","","","","{""Q01"":""0"",""Q02"":""0"",""Q03"":""-1"",""Q04"":""1"",""Q05"":""-1"",""Q06"":""0"",""Q07"":""0"",""Q08"":""1""}","[0,1,2,3,4,5,6,7]","[""Q01"",""Q02"",""Q03"",""Q04"",""Q05"",""Q06"",""Q07"",""Q08""]","[6707.400000095367,10749.100000143051,13710.300000190735,17636.5,20705,22457.5,26571.700000047684,29540.900000095367]","[]","[4995.900000095367,6707.400000095367,10749.100000143051,13710.300000190735,17636.5,20705,22457.5,26571.700000047684,29540.900000095367,30956.300000190735]","0.5","0.42857142857142855","0","","","","","","","","","","","","","","","","","","","","","",""
"39863","","","instructions","8","161763","0.0-7.0","5","4","5","4","5","5","2","3","4","5","5","0","0","-1","1","-1","0","0","1","5","4","5","4","3","3","2","3","4","3","4","3","3","6","5","4","6","6","7","4","6","5","4","5","2","5","4","3","4","2","3","4","3","4","5","2","5","4","3","3","4","6","6","5","4","5","4","7","5","7","3","6","6","3","6","6","5","5","2","742402460798423042","何","Female","[""好我"",""坏我"",""好她"",""坏她""]","[""强我"",""弱我"",""强她"",""弱她""]","","","","","","","","","","","","","","","","","[{""page_index"":0,""viewing_time"":39863}]","","","","","","","","","","","","","","","","","","","","",""
"78737","","","instructions","9","240501","0.0-8.0-0.0-0.0","5","4","5","4","5","5","2","3","4","5","5","0","0","-1","1","-1","0","0","1","5","4","5","4","3","3","2","3","4","3","4","3","3","6","5","4","6","6","7","4","6","5","4","5","2","5","4","3","4","2","3","4","3","4","5","2","5","4","3","3","4","6","6","5","4","5","4","7","5","7","3","6","6","3","6","6","5","5","2","742402460798423042","何","Female","[""好我"",""坏我"",""好她"",""坏她""]","[""强我"",""弱我"",""强她"",""弱她""]","","","","","","","","","","","","","","","","","[{""page_index"":0,""viewing_time"":13575},{""page_index"":1,""viewing_time"":57236},{""page_index"":2,""viewing_time"":5454},{""page_index"":3,""viewing_time"":2473}]","","","","","","","","","","","","","","","","","","","","",""
"826","","j","psychophysics","10","242330","0.0-8.0-0.0-1.0-0.0-0.0","5","4","5","4","5","5","2","3","4","5","5","0","0","-1","1","-1","0","0","1","5","4","5","4","3","3","2","3","4","3","4","3","3","6","5","4","6","6","7","4","6","5","4","5","2","5","4","3","4","2","3","4","3","4","5","2","5","4","3","3","4","6","6","5","4","5","4","7","5","7","3","6","6","3","6","6","5","5","2","742402460798423042","何","Female","[""好我"",""坏我"",""好她"",""坏她""]","[""强我"",""弱我"",""强她"",""弱她""]","","","","","","","","nonmatch","","","","","","","","","","key","j","16.69004629629624","654.3181676362175","404.9999912218616","f","false","match","img/diamond.png","好她","好她","prac_ALT2_moral","practice_moral","","","","","","","",""
"null","<span style='color:red; font-size: 70px;'>错误! </span>","null","html-keyboard-response","11","242860","0.0-8.0-0.0-1.0-0.0-1.0","5","4","5","4","5","5","2","3","4","5","5","0","0","-1","1","-1","0","0","1","5","4","5","4","3","3","2","3","4","3","4","3","3","6","5","4","6","6","7","4","6","5","4","5","2","5","4","3","4","2","3","4","3","4","5","2","5","4","3","3","4","6","6","5","4","5","4","7","5","7","3","6","6","3","6","6","5","5","2","742402460798423042","何","Female","[""好我"",""坏我"",""好她"",""坏她""]","[""强我"",""弱我"",""强她"",""弱她""]","","","","","","","","","","","","","","","","","","","","","","","","","","","","","","feedback_test","","","","","","","",""
"886","","j","psychophysics","12","244759","0.0-8.0-0.0-1.0-0.0-0.1","5","4","5","4","5","5","2","3","4","5","5","0","0","-1","1","-1","0","0","1","5","4","5","4","3","3","2","3","4","3","4","3","3","6","5","4","6","6","7","4","6","5","4","5","2","5","4","3","4","2","3","4","3","4","5","2","5","4","3","3","4","6","6","5","4","5","4","7","5","7","3","6","6","3","6","6","5","5","2","742402460798423042","何","Female","[""好我"",""坏我"",""好她"",""坏她""]","[""强我"",""弱我"",""强她"",""弱她""]","","","","","","","","nonmatch","","","","","","","","","","key","j","16.68992920353982","654.3181676362175","404.9999912218616","f","false","match","img/diamond.png","好她","好她","prac_ALT2_moral","practice_moral","","","","","","","",""
"null","<span style='color:red; font-size: 70px;'>错误! </span>","null","html-keyboard-response","13","245262","0.0-8.0-0.0-1.0-0.0-1.1","5","4","5","4","5","5","2","3","4","5","5","0","0","-1","1","-1","0","0","1","5","4","5","4","3","3","2","3","4","3","4","3","3","6","5","4","6","6","7","4","6","5","4","5","2","5","4","3","4","2","3","4","3","4","5","2","5","4","3","3","4","6","6","5","4","5","4","7","5","7","3","6","6","3","6","6","5","5","2","742402460798423042","何","Female","[""好我"",""坏我"",""好她"",""坏她""]","[""强我"",""弱我"",""强她"",""弱她""]","","","","","","","","","","","","","","","","","","","","","","","","","","","","","","feedback_test","","","","","","","",""
"1087","","j","psychophysics","14","247362","0.0-8.0-0.0-1.0-0.0-0.2","5","4","5","4","5","5","2","3","4","5","5","0","0","-1","1","-1","0","0","1","5","4","5","4","3","3","2","3","4","3","4","3","3","6","5","4","6","6","7","4","6","5","4","5","2","5","4","3","4","2","3","4","3","4","5","2","5","4","3","3","4","6","6","5","4","5","4","7","5","7","3","6","6","3","6","6","5","5","2","742402460798423042","何","Female","[""好我"",""坏我"",""好她"",""坏她""]","[""强我"",""弱我"",""强她"",""弱她""]","","","","","","","","nonmatch","","","","","","","","","","key","j","16.69113599999994","654.3181676362175","404.9999912218616","f","false","match","img/hexagon.png","坏她","坏她","prac_ALT2_moral","practice_moral","","","","","","","",""
"null","<span style='color:red; font-size: 70px;'>错误! </span>","null","html-keyboard-response","15","247875","0.0-8.0-0.0-1.0-0.0-1.2","5","4","5","4","5","5","2","3","4","5","5","0","0","-1","1","-1","0","0","1","5","4","5","4","3","3","2","3","4","3","4","3","3","6","5","4","6","6","7","4","6","5","4","5","2","5","4","3","4","2","3","4","3","4","5","2","5","4","3","3","4","6","6","5","4","5","4","7","5","7","3","6","6","3","6","6","5","5","2","742402460798423042","何","Female","[""好我"",""坏我"",""好她"",""坏她""]","[""强我"",""弱我"",""强她"",""弱她""]","","","","","","","","","","","","","","","","","","","","","","","","","","","","","","feedback_test","","","","","","","",""
"null","","null","psychophysics","16","250113","0.0-8.0-0.0-1.0-0.0-0.3","5","4","5","4","5","5","2","3","4","5","5","0","0","-1","1","-1","0","0","1","5","4","5","4","3","3","2","3","4","3","4","3","3","6","5","4","6","6","7","4","6","5","4","5","2","5","4","3","4","2","3","4","3","4","5","2","5","4","3","3","4","6","6","5","4","5","4","7","5","7","3","6","6","3","6","6","5","5","2","742402460798423042","何","Female","[""好我"",""坏我"",""好她"",""坏她""]","[""强我"",""弱我"",""强她"",""弱她""]","","","","","","","","null","","","","","","","","","","key","null","16.690492424242343","654.3181676362175","404.9999912218616","j","false","nonmatch","img/trapezoid.png","坏她","坏我","prac_ALT2_moral","practice_moral","","","","","","","",""
"null","<span class='add_' style='color:yellow; font-size: 70px;'> 太慢! </span>","null","html-keyboard-response","17","250627","0.0-8.0-0.0-1.0-0.0-1.3","5","4","5","4","5","5","2","3","4","5","5","0","0","-1","1","-1","0","0","1","5","4","5","4","3","3","2","3","4","3","4","3","3","6","5","4","6","6","7","4","6","5","4","5","2","5","4","3","4","2","3","4","3","4","5","2","5","4","3","3","4","6","6","5","4","5","4","7","5","7","3","6","6","3","6","6","5","5","2","742402460798423042","何","Female","[""好我"",""坏我"",""好她"",""坏她""]","[""强我"",""弱我"",""强她"",""弱她""]","","","","","","","","","","","","","","","","","","","","","","","","","","","","","","feedback_test","","","","","","","",""
"984","","f","psychophysics","18","252616","0.0-8.0-0.0-1.0-0.0-0.4","5","4","5","4","5","5","2","3","4","5","5","0","0","-1","1","-1","0","0","1","5","4","5","4","3","3","2","3","4","3","4","3","3","6","5","4","6","6","7","4","6","5","4","5","2","5","4","3","4","2","3","4","3","4","5","2","5","4","3","3","4","6","6","5","4","5","4","7","5","7","3","6","6","3","6","6","5","5","2","742402460798423042","何","Female","[""好我"",""坏我"",""好她"",""坏她""]","[""强我"",""弱我"",""强她"",""弱她""]","","","","","","","","match","","","","","","","","","","key","f","16.692559322033972","654.3181676362175","404.9999912218616","f","true","match","img/diamond.png","好她","好她","prac_ALT2_moral","practice_moral","","","","","","","",""
"null","<span style='color:GreenYellow; font-size: 70px;'>正确! </span>","null","html-keyboard-response","19","253123","0.0-8.0-0.0-1.0-0.0-1.4","5","4","5","4","5","5","2","3","4","5","5","0","0","-1","1","-1","0","0","1","5","4","5","4","3","3","2","3","4","3","4","3","3","6","5","4","6","6","7","4","6","5","4","5","2","5","4","3","4","2","3","4","3","4","5","2","5","4","3","3","4","6","6","5","4","5","4","7","5","7","3","6","6","3","6","6","5","5","2","742402460798423042","何","Female","[""好我"",""坏我"",""好她"",""坏她""]","[""强我"",""弱我"",""强她"",""弱她""]","","","","","","","","","","","","","","","","","","","","","","","","","","","","","","feedback_test","","","","","","","",""
"937","","j","psychophysics","20","255072","0.0-8.0-0.0-1.0-0.0-0.5","5","4","5","4","5","5","2","3","4","5","5","0","0","-1","1","-1","0","0","1","5","4","5","4","3","3","2","3","4","3","4","3","3","6","5","4","6","6","7","4","6","5","4","5","2","5","4","3","4","2","3","4","3","4","5","2","5","4","3","3","4","6","6","5","4","5","4","7","5","7","3","6","6","3","6","6","5","5","2","742402460798423042","何","Female","[""好我"",""坏我"",""好她"",""坏她""]","[""强我"",""弱我"",""强她"",""弱她""]","","","","","","","","nonmatch","","","","","","","","","","key","j","16.689853448275745","654.3181676362175","404.9999912218616","j","true","nonmatch","img/circle.png","坏她","好我","prac_ALT2_moral","practice_moral","","","","","","","",""
"null","<span style='color:GreenYellow; font-size: 70px;'>正确! </span>","null","html-keyboard-response","21","255608","0.0-8.0-0.0-1.0-0.0-1.5","5","4","5","4","5","5","2","3","4","5","5","0","0","-1","1","-1","0","0","1","5","4","5","4","3","3","2","3","4","3","4","3","3","6","5","4","6","6","7","4","6","5","4","5","2","5","4","3","4","2","3","4","3","4","5","2","5","4","3","3","4","6","6","5","4","5","4","7","5","7","3","6","6","3","6","6","5","5","2","742402460798423042","何","Female","[""好我"",""坏我"",""好她"",""坏她""]","[""强我"",""弱我"",""强她"",""弱她""]","","","","","","","","","","","","","","","","","","","","","","","","","","","","","","feedback_test","","","","","","","",""
"1028","","j","psychophysics","22","257653","0.0-8.0-0.0-1.0-0.0-0.6","5","4","5","4","5","5","2","3","4","5","5","0","0","-1","1","-1","0","0","1","5","4","5","4","3","3","2","3","4","3","4","3","3","6","5","4","6","6","7","4","6","5","4","5","2","5","4","3","4","2","3","4","3","4","5","2","5","4","3","3","4","6","6","5","4","5","4","7","5","7","3","6","6","3","6","6","5","5","2","742402460798423042","何","Female","[""好我"",""坏我"",""好她"",""坏她""]","[""强我"",""弱我"",""强她"",""弱她""]","","","","","","","","nonmatch","","","","","","","","","","key","j","16.692958677685937","654.3181676362175","404.9999912218616","j","true","nonmatch","img/trapezoid.png","好我","坏我","prac_ALT2_moral","practice_moral","","","","","","","",""
"null","<span style='color:GreenYellow; font-size: 70px;'>正确! </span>","null","html-keyboard-response","23","258169","0.0-8.0-0.0-1.0-0.0-1.6","5","4","5","4","5","5","2","3","4","5","5","0","0","-1","1","-1","0","0","1","5","4","5","4","3","3","2","3","4","3","4","3","3","6","5","4","6","6","7","4","6","5","4","5","2","5","4","3","4","2","3","4","3","4","5","2","5","4","3","3","4","6","6","5","4","5","4","7","5","7","3","6","6","3","6","6","5","5","2","742402460798423042","何","Female","[""好我"",""坏我"",""好她"",""坏她""]","[""强我"",""弱我"",""强她"",""弱她""]","","","","","","","","","","","","","","","","","","","","","","","","","","","","","","feedback_test","","","","","","","",""
"704","","j","psychophysics","24","259880","0.0-8.0-0.0-1.0-0.0-0.7","5","4","5","4","5","5","2","3","4","5","5","0","0","-1","1","-1","0","0","1","5","4","5","4","3","3","2","3","4","3","4","3","3","6","5","4","6","6","7","4","6","5","4","5","2","5","4","3","4","2","3","4","3","4","5","2","5","4","3","3","4","6","6","5","4","5","4","7","5","7","3","6","6","3","6","6","5","5","2","742402460798423042","何","Female","[""好我"",""坏我"",""好她"",""坏她""]","[""强我"",""弱我"",""强她"",""弱她""]","","","","","","","","nonmatch","","","","","","","","","","key","j","16.693235294117567","654.3181676362175","404.9999912218616","f","false","match","img/circle.png","好我","好我","prac_ALT2_moral","practice_moral","","","","","","","",""
"null","<span style='color:red; font-size: 70px;'>错误! </span>","null","html-keyboard-response","25","260381","0.0-8.0-0.0-1.0-0.0-1.7","5","4","5","4","5","5","2","3","4","5","5","0","0","-1","1","-1","0","0","1","5","4","5","4","3","3","2","3","4","3","4","3","3","6","5","4","6","6","7","4","6","5","4","5","2","5","4","3","4","2","3","4","3","4","5","2","5","4","3","3","4","6","6","5","4","5","4","7","5","7","3","6","6","3","6","6","5","5","2","742402460798423042","何","Female","[""好我"",""坏我"",""好她"",""坏她""]","[""强我"",""弱我"",""强她"",""弱她""]","","","","","","","","","","","","","","","","","","","","","","","","","","","","","","feedback_test","","","","","","","",""
"null","","null","psychophysics","26","262595","0.0-8.0-0.0-1.0-0.0-0.8","5","4","5","4","5","5","2","3","4","5","5","0","0","-1","1","-1","0","0","1","5","4","5","4","3","3","2","3","4","3","4","3","3","6","5","4","6","6","7","4","6","5","4","5","2","5","4","3","4","2","3","4","3","4","5","2","5","4","3","3","4","6","6","5","4","5","4","7","5","7","3","6","6","3","6","6","5","5","2","742402460798423042","何","Female","[""好我"",""坏我"",""好她"",""坏她""]","[""强我"",""弱我"",""强她"",""弱她""]","","","","","","","","null","","","","","","","","","","key","null","16.689129770992242","654.3181676362175","404.9999912218616","j","false","nonmatch","img/diamond.png","坏她","好她","prac_ALT2_moral","practice_moral","","","","","","","",""
"null","<span class='add_' style='color:yellow; font-size: 70px;'> 太慢! </span>","null","html-keyboard-response","27","263101","0.0-8.0-0.0-1.0-0.0-1.8","5","4","5","4","5","5","2","3","4","5","5","0","0","-1","1","-1","0","0","1","5","4","5","4","3","3","2","3","4","3","4","3","3","6","5","4","6","6","7","4","6","5","4","5","2","5","4","3","4","2","3","4","3","4","5","2","5","4","3","3","4","6","6","5","4","5","4","7","5","7","3","6","6","3","6","6","5","5","2","742402460798423042","何","Female","[""好我"",""坏我"",""好她"",""坏她""]","[""强我"",""弱我"",""强她"",""弱她""]","","","","","","","","","","","","","","","","","","","","","","","","","","","","","","feedback_test","","","","","","","",""
"975","","j","psychophysics","28","265087","0.0-8.0-0.0-1.0-0.0-0.9","5","4","5","4","5","5","2","3","4","5","5","0","0","-1","1","-1","0","0","1","5","4","5","4","3","3","2","3","4","3","4","3","3","6","5","4","6","6","7","4","6","5","4","5","2","5","4","3","4","2","3","4","3","4","5","2","5","4","3","3","4","6","6","5","4","5","4","7","5","7","3","6","6","3","6","6","5","5","2","742402460798423042","何","Female","[""好我"",""坏我"",""好她"",""坏她""]","[""强我"",""弱我"",""强她"",""弱她""]","","","","","","","","nonmatch","","","","","","","","","","key","j","16.68882203389845","654.3181676362175","404.9999912218616","j","true","nonmatch","img/diamond.png","坏我","好她","prac_ALT2_moral","practice_moral","","","","","","","",""
"null","<span style='color:GreenYellow; font-size: 70px;'>正确! </span>","null","html-keyboard-response","29","265601","0.0-8.0-0.0-1.0-0.0-1.9","5","4","5","4","5","5","2","3","4","5","5","0","0","-1","1","-1","0","0","1","5","4","5","4","3","3","2","3","4","3","4","3","3","6","5","4","6","6","7","4","6","5","4","5","2","5","4","3","4","2","3","4","3","4","5","2","5","4","3","3","4","6","6","5","4","5","4","7","5","7","3","6","6","3","6","6","5","5","2","742402460798423042","何","Female","[""好我"",""坏我"",""好她"",""坏她""]","[""强我"",""弱我"",""强她"",""弱她""]","","","","","","","","","","","","","","","","","","","","","","","","","","","","","","feedback_test","","","","","","","",""
"896","","f","psychophysics","30","267499","0.0-8.0-0.0-1.0-0.0-0.10","5","4","5","4","5","5","2","3","4","5","5","0","0","-1","1","-1","0","0","1","5","4","5","4","3","3","2","3","4","3","4","3","3","6","5","4","6","6","7","4","6","5","4","5","2","5","4","3","4","2","3","4","3","4","5","2","5","4","3","3","4","6","6","5","4","5","4","7","5","7","3","6","6","3","6","6","5","5","2","742402460798423042","何","Female","[""好我"",""坏我"",""好她"",""坏她""]","[""强我"",""弱我"",""强她"",""弱她""]","","","","","","","","match","","","","","","","","","","key","f","16.68991071428588","654.3181676362175","404.9999912218616","f","true","match","img/trapezoid.png","坏我","坏我","prac_ALT2_moral","practice_moral","","","","","","","",""
"null","<span style='color:GreenYellow; font-size: 70px;'>正确! </span>","null","html-keyboard-response","31","268036","0.0-8.0-0.0-1.0-0.0-1.10","5","4","5","4","5","5","2","3","4","5","5","0","0","-1","1","-1","0","0","1","5","4","5","4","3","3","2","3","4","3","4","3","3","6","5","4","6","6","7","4","6","5","4","5","2","5","4","3","4","2","3","4","3","4","5","2","5","4","3","3","4","6","6","5","4","5","4","7","5","7","3","6","6","3","6","6","5","5","2","742402460798423042","何","Female","[""好我"",""坏我"",""好她"",""坏她""]","[""强我"",""弱我"",""强她"",""弱她""]","","","","","","","","","","","","","","","","","","","","","","","","","","","","","","feedback_test","","","","","","","",""
"588","","f","psychophysics","32","269636","0.0-8.0-0.0-1.0-0.0-0.11","5","4","5","4","5","5","2","3","4","5","5","0","0","-1","1","-1","0","0","1","5","4","5","4","3","3","2","3","4","3","4","3","3","6","5","4","6","6","7","4","6","5","4","5","2","5","4","3","4","2","3","4","3","4","5","2","5","4","3","3","4","6","6","5","4","5","4","7","5","7","3","6","6","3","6","6","5","5","2","742402460798423042","何","Female","[""好我"",""坏我"",""好她"",""坏她""]","[""强我"",""弱我"",""强她"",""弱她""]","","","","","","","","match","","","","","","","","","","key","f","16.69001063829761","654.3181676362175","404.9999912218616","f","true","match","img/circle.png","好我","好我","prac_ALT2_moral","practice_moral","","","","","","","",""
"null","<span style='color:GreenYellow; font-size: 70px;'>正确! </span>","null","html-keyboard-response","33","270147","0.0-8.0-0.0-1.0-0.0-1.11","5","4","5","4","5","5","2","3","4","5","5","0","0","-1","1","-1","0","0","1","5","4","5","4","3","3","2","3","4","3","4","3","3","6","5","4","6","6","7","4","6","5","4","5","2","5","4","3","4","2","3","4","3","4","5","2","5","4","3","3","4","6","6","5","4","5","4","7","5","7","3","6","6","3","6","6","5","5","2","742402460798423042","何","Female","[""好我"",""坏我"",""好她"",""坏她""]","[""强我"",""弱我"",""强她"",""弱她""]","","","","","","","","","","","","","","","","","","","","","","","","","","","","","","feedback_test","","","","","","","",""
"756","","j","psychophysics","34","271913","0.0-8.0-0.0-1.0-0.0-0.12","5","4","5","4","5","5","2","3","4","5","5","0","0","-1","1","-1","0","0","1","5","4","5","4","3","3","2","3","4","3","4","3","3","6","5","4","6","6","7","4","6","5","4","5","2","5","4","3","4","2","3","4","3","4","5","2","5","4","3","3","4","6","6","5","4","5","4","7","5","7","3","6","6","3","6","6","5","5","2","742402460798423042","何","Female","[""好我"",""坏我"",""好她"",""坏她""]","[""强我"",""弱我"",""强她"",""弱她""]","","","","","","","","nonmatch","","","","","","","","","","key","j","16.69186666666674","654.3181676362175","404.9999912218616","j","true","nonmatch","img/circle.png","坏我","好我","prac_ALT2_moral","practice_moral","","","","","","","",""
"null","<span style='color:GreenYellow; font-size: 70px;'>正确! </span>","null","html-keyboard-response","35","272425","0.0-8.0-0.0-1.0-0.0-1.12","5","4","5","4","5","5","2","3","4","5","5","0","0","-1","1","-1","0","0","1","5","4","5","4","3","3","2","3","4","3","4","3","3","6","5","4","6","6","7","4","6","5","4","5","2","5","4","3","4","2","3","4","3","4","5","2","5","4","3","3","4","6","6","5","4","5","4","7","5","7","3","6","6","3","6","6","5","5","2","742402460798423042","何","Female","[""好我"",""坏我"",""好她"",""坏她""]","[""强我"",""弱我"",""强她"",""弱她""]","","","","","","","","","","","","","","","","","","","","","","","","","","","","","","feedback_test","","","","","","","",""
"964","","j","psychophysics","36","274392","0.0-8.0-0.0-1.0-0.0-0.13","5","4","5","4","5","5","2","3","4","5","5","0","0","-1","1","-1","0","0","1","5","4","5","4","3","3","2","3","4","3","4","3","3","6","5","4","6","6","7","4","6","5","4","5","2","5","4","3","4","2","3","4","3","4","5","2","5","4","3","3","4","6","6","5","4","5","4","7","5","7","3","6","6","3","6","6","5","5","2","742402460798423042","何","Female","[""好我"",""坏我"",""好她"",""坏她""]","[""强我"",""弱我"",""强她"",""弱她""]","","","","","","","","nonmatch","","","","","","","","","","key","j","16.689353448275583","654.3181676362175","404.9999912218616","j","true","nonmatch","img/hexagon.png","坏我","坏她","prac_ALT2_moral","practice_moral","","","","","","","",""
"null","<span style='color:GreenYellow; font-size: 70px;'>正确! </span>","null","html-keyboard-response","37","274931","0.0-8.0-0.0-1.0-0.0-1.13","5","4","5","4","5","5","2","3","4","5","5","0","0","-1","1","-1","0","0","1","5","4","5","4","3","3","2","3","4","3","4","3","3","6","5","4","6","6","7","4","6","5","4","5","2","5","4","3","4","2","3","4","3","4","5","2","5","4","3","3","4","6","6","5","4","5","4","7","5","7","3","6","6","3","6","6","5","5","2","742402460798423042","何","Female","[""好我"",""坏我"",""好她"",""坏她""]","[""强我"",""弱我"",""强她"",""弱她""]","","","","","","","","","","","","","","","","","","","","","","","","","","","","","","feedback_test","","","","","","","",""
"979","","f","psychophysics","38","276926","0.0-8.0-0.0-1.0-0.0-0.14","5","4","5","4","5","5","2","3","4","5","5","0","0","-1","1","-1","0","0","1","5","4","5","4","3","3","2","3","4","3","4","3","3","6","5","4","6","6","7","4","6","5","4","5","2","5","4","3","4","2","3","4","3","4","5","2","5","4","3","3","4","6","6","5","4","5","4","7","5","7","3","6","6","3","6","6","5","5","2","742402460798423042","何","Female","[""好我"",""坏我"",""好她"",""坏她""]","[""强我"",""弱我"",""强她"",""弱她""]","","","","","","","","match","","","","","","","","","","key","f","16.692508474575906","654.3181676362175","404.9999912218616","j","false","nonmatch","img/circle.png","好她","好我","prac_ALT2_moral","practice_moral","","","","","","","",""
"null","<span style='color:red; font-size: 70px;'>错误! </span>","null","html-keyboard-response","39","277440","0.0-8.0-0.0-1.0-0.0-1.14","5","4","5","4","5","5","2","3","4","5","5","0","0","-1","1","-1","0","0","1","5","4","5","4","3","3","2","3","4","3","4","3","3","6","5","4","6","6","7","4","6","5","4","5","2","5","4","3","4","2","3","4","3","4","5","2","5","4","3","3","4","6","6","5","4","5","4","7","5","7","3","6","6","3","6","6","5","5","2","742402460798423042","何","Female","[""好我"",""坏我"",""好她"",""坏她""]","[""强我"",""弱我"",""强她"",""弱她""]","","","","","","","","","","","","","","","","","","","","","","","","","","","","","","feedback_test","","","","","","","",""
"812","","j","psychophysics","40","279262","0.0-8.0-0.0-1.0-0.0-0.15","5","4","5","4","5","5","2","3","4","5","5","0","0","-1","1","-1","0","0","1","5","4","5","4","3","3","2","3","4","3","4","3","3","6","5","4","6","6","7","4","6","5","4","5","2","5","4","3","4","2","3","4","3","4","5","2","5","4","3","3","4","6","6","5","4","5","4","7","5","7","3","6","6","3","6","6","5","5","2","742402460798423042","何","Female","[""好我"",""坏我"",""好她"",""坏她""]","[""强我"",""弱我"",""强她"",""弱她""]","","","","","","","","nonmatch","","","","","","","","","","key","j","16.69212037037047","654.3181676362175","404.9999912218616","j","true","nonmatch","img/diamond.png","好我","好她","prac_ALT2_moral","practice_moral","","","","","","","",""
"null","<span style='color:GreenYellow; font-size: 70px;'>正确! </span>","null","html-keyboard-response","41","279767","0.0-8.0-0.0-1.0-0.0-1.15","5","4","5","4","5","5","2","3","4","5","5","0","0","-1","1","-1","0","0","1","5","4","5","4","3","3","2","3","4","3","4","3","3","6","5","4","6","6","7","4","6","5","4","5","2","5","4","3","4","2","3","4","3","4","5","2","5","4","3","3","4","6","6","5","4","5","4","7","5","7","3","6","6","3","6","6","5","5","2","742402460798423042","何","Female","[""好我"",""坏我"",""好她"",""坏她""]","[""强我"",""弱我"",""强她"",""弱她""]","","","","","","","","","","","","","","","","","","","","","","","","","","","","","","feedback_test","","","","","","","",""
"1041","","j","psychophysics","42","281812","0.0-8.0-0.0-1.0-0.0-0.16","5","4","5","4","5","5","2","3","4","5","5","0","0","-1","1","-1","0","0","1","5","4","5","4","3","3","2","3","4","3","4","3","3","6","5","4","6","6","7","4","6","5","4","5","2","5","4","3","4","2","3","4","3","4","5","2","5","4","3","3","4","6","6","5","4","5","4","7","5","7","3","6","6","3","6","6","5","5","2","742402460798423042","何","Female","[""好我"",""坏我"",""好她"",""坏她""]","[""强我"",""弱我"",""强她"",""弱她""]","","","","","","","","nonmatch","","","","","","","","","","key","j","16.690264462810376","654.3181676362175","404.9999912218616","j","true","nonmatch","img/hexagon.png","好她","坏她","prac_ALT2_moral","practice_moral","","","","","","","",""
"null","<span style='color:GreenYellow; font-size: 70px;'>正确! </span>","null","html-keyboard-response","43","282315","0.0-8.0-0.0-1.0-0.0-1.16","5","4","5","4","5","5","2","3","4","5","5","0","0","-1","1","-1","0","0","1","5","4","5","4","3","3","2","3","4","3","4","3","3","6","5","4","6","6","7","4","6","5","4","5","2","5","4","3","4","2","3","4","3","4","5","2","5","4","3","3","4","6","6","5","4","5","4","7","5","7","3","6","6","3","6","6","5","5","2","742402460798423042","何","Female","[""好我"",""坏我"",""好她"",""坏她""]","[""强我"",""弱我"",""强她"",""弱她""]","","","","","","","","","","","","","","","","","","","","","","","","","","","","","","feedback_test","","","","","","","",""
"646","","j","psychophysics","44","283970","0.0-8.0-0.0-1.0-0.0-0.17","5","4","5","4","5","5","2","3","4","5","5","0","0","-1","1","-1","0","0","1","5","4","5","4","3","3","2","3","4","3","4","3","3","6","5","4","6","6","7","4","6","5","4","5","2","5","4","3","4","2","3","4","3","4","5","2","5","4","3","3","4","6","6","5","4","5","4","7","5","7","3","6","6","3","6","6","5","5","2","742402460798423042","何","Female","[""好我"",""坏我"",""好她"",""坏她""]","[""强我"",""弱我"",""强她"",""弱她""]","","","","","","","","nonmatch","","","","","","","","","","key","j","16.692214285714282","654.3181676362175","404.9999912218616","j","true","nonmatch","img/hexagon.png","好我","坏她","prac_ALT2_moral","practice_moral","","","","","","","",""
"null","<span style='color:GreenYellow; font-size: 70px;'>正确! </span>","null","html-keyboard-response","45","284474","0.0-8.0-0.0-1.0-0.0-1.17","5","4","5","4","5","5","2","3","4","5","5","0","0","-1","1","-1","0","0","1","5","4","5","4","3","3","2","3","4","3","4","3","3","6","5","4","6","6","7","4","6","5","4","5","2","5","4","3","4","2","3","4","3","4","5","2","5","4","3","3","4","6","6","5","4","5","4","7","5","7","3","6","6","3","6","6","5","5","2","742402460798423042","何","Female","[""好我"",""坏我"",""好她"",""坏她""]","[""强我"",""弱我"",""强她"",""弱她""]","","","","","","","","","","","","","","","","","","","","","","","","","","","","","","feedback_test","","","","","","","",""
"910","","f","psychophysics","46","286387","0.0-8.0-0.0-1.0-0.0-0.18","5","4","5","4","5","5","2","3","4","5","5","0","0","-1","1","-1","0","0","1","5","4","5","4","3","3","2","3","4","3","4","3","3","6","5","4","6","6","7","4","6","5","4","5","2","5","4","3","4","2","3","4","3","4","5","2","5","4","3","3","4","6","6","5","4","5","4","7","5","7","3","6","6","3","6","6","5","5","2","742402460798423042","何","Female","[""好我"",""坏我"",""好她"",""坏她""]","[""强我"",""弱我"",""强她"",""弱她""]","","","","","","","","match","","","","","","","","","","key","f","16.69307079646001","654.3181676362175","404.9999912218616","f","true","match","img/trapezoid.png","坏我","坏我","prac_ALT2_moral","practice_moral","","","","","","","",""
"null","<span style='color:GreenYellow; font-size: 70px;'>正确! </span>","null","html-keyboard-response","47","286903","0.0-8.0-0.0-1.0-0.0-1.18","5","4","5","4","5","5","2","3","4","5","5","0","0","-1","1","-1","0","0","1","5","4","5","4","3","3","2","3","4","3","4","3","3","6","5","4","6","6","7","4","6","5","4","5","2","5","4","3","4","2","3","4","3","4","5","2","5","4","3","3","4","6","6","5","4","5","4","7","5","7","3","6","6","3","6","6","5","5","2","742402460798423042","何","Female","[""好我"",""坏我"",""好她"",""坏她""]","[""强我"",""弱我"",""强她"",""弱她""]","","","","","","","","","","","","","","","","","","","","","","","","","","","","","","feedback_test","","","","","","","",""
"742","","f","psychophysics","48","288656","0.0-8.0-0.0-1.0-0.0-0.19","5","4","5","4","5","5","2","3","4","5","5","0","0","-1","1","-1","0","0","1","5","4","5","4","3","3","2","3","4","3","4","3","3","6","5","4","6","6","7","4","6","5","4","5","2","5","4","3","4","2","3","4","3","4","5","2","5","4","3","3","4","6","6","5","4","5","4","7","5","7","3","6","6","3","6","6","5","5","2","742402460798423042","何","Female","[""好我"",""坏我"",""好她"",""坏她""]","[""强我"",""弱我"",""强她"",""弱她""]","","","","","","","","match","","","","","","","","","","key","f","16.69529807692351","654.3181676362175","404.9999912218616","f","true","match","img/trapezoid.png","坏我","坏我","prac_ALT2_moral","practice_moral","","","","","","","",""
"null","<span style='color:GreenYellow; font-size: 70px;'>正确! </span>","null","html-keyboard-response","49","289168","0.0-8.0-0.0-1.0-0.0-1.19","5","4","5","4","5","5","2","3","4","5","5","0","0","-1","1","-1","0","0","1","5","4","5","4","3","3","2","3","4","3","4","3","3","6","5","4","6","6","7","4","6","5","4","5","2","5","4","3","4","2","3","4","3","4","5","2","5","4","3","3","4","6","6","5","4","5","4","7","5","7","3","6","6","3","6","6","5","5","2","742402460798423042","何","Female","[""好我"",""坏我"",""好她"",""坏她""]","[""强我"",""弱我"",""强她"",""弱她""]","","","","","","","","","","","","","","","","","","","","","","","","","","","","","","feedback_test","","","","","","","",""
"942","","f","psychophysics","50","291120","0.0-8.0-0.0-1.0-0.0-0.20","5","4","5","4","5","5","2","3","4","5","5","0","0","-1","1","-1","0","0","1","5","4","5","4","3","3","2","3","4","3","4","3","3","6","5","4","6","6","7","4","6","5","4","5","2","5","4","3","4","2","3","4","3","4","5","2","5","4","3","3","4","6","6","5","4","5","4","7","5","7","3","6","6","3","6","6","5","5","2","742402460798423042","何","Female","[""好我"",""坏我"",""好她"",""坏她""]","[""强我"",""弱我"",""强她"",""弱她""]","","","","","","","","match","","","","","","","","","","key","f","16.6825603448273","654.3181676362175","404.9999912218616","f","true","match","img/hexagon.png","坏她","坏她","prac_ALT2_moral","practice_moral","","","","","","","",""
"null","<span style='color:GreenYellow; font-size: 70px;'>正确! </span>","null","html-keyboard-response","51","291629","0.0-8.0-0.0-1.0-0.0-1.20","5","4","5","4","5","5","2","3","4","5","5","0","0","-1","1","-1","0","0","1","5","4","5","4","3","3","2","3","4","3","4","3","3","6","5","4","6","6","7","4","6","5","4","5","2","5","4","3","4","2","3","4","3","4","5","2","5","4","3","3","4","6","6","5","4","5","4","7","5","7","3","6","6","3","6","6","5","5","2","742402460798423042","何","Female","[""好我"",""坏我"",""好她"",""坏她""]","[""强我"",""弱我"",""强她"",""弱她""]","","","","","","","","","","","","","","","","","","","","","","","","","","","","","","feedback_test","","","","","","","",""
"756","","f","psychophysics","52","293392","0.0-8.0-0.0-1.0-0.0-0.21","5","4","5","4","5","5","2","3","4","5","5","0","0","-1","1","-1","0","0","1","5","4","5","4","3","3","2","3","4","3","4","3","3","6","5","4","6","6","7","4","6","5","4","5","2","5","4","3","4","2","3","4","3","4","5","2","5","4","3","3","4","6","6","5","4","5","4","7","5","7","3","6","6","3","6","6","5","5","2","742402460798423042","何","Female","[""好我"",""坏我"",""好她"",""坏她""]","[""强我"",""弱我"",""强她"",""弱她""]","","","","","","","","match","","","","","","","","","","key","f","16.6930285714284","654.3181676362175","404.9999912218616","f","true","match","img/circle.png","好我","好我","prac_ALT2_moral","practice_moral","","","","","","","",""
"null","<span style='color:GreenYellow; font-size: 70px;'>正确! </span>","null","html-keyboard-response","53","293914","0.0-8.0-0.0-1.0-0.0-1.21","5","4","5","4","5","5","2","3","4","5","5","0","0","-1","1","-1","0","0","1","5","4","5","4","3","3","2","3","4","3","4","3","3","6","5","4","6","6","7","4","6","5","4","5","2","5","4","3","4","2","3","4","3","4","5","2","5","4","3","3","4","6","6","5","4","5","4","7","5","7","3","6","6","3","6","6","5","5","2","742402460798423042","何","Female","[""好我"",""坏我"",""好她"",""坏她""]","[""强我"",""弱我"",""强她"",""弱她""]","","","","","","","","","","","","","","","","","","","","","","","","","","","","","","feedback_test","","","","","","","",""
"727","","j","psychophysics","54","295665","0.0-8.0-0.0-1.0-0.0-0.22","5","4","5","4","5","5","2","3","4","5","5","0","0","-1","1","-1","0","0","1","5","4","5","4","3","3","2","3","4","3","4","3","3","6","5","4","6","6","7","4","6","5","4","5","2","5","4","3","4","2","3","4","3","4","5","2","5","4","3","3","4","6","6","5","4","5","4","7","5","7","3","6","6","3","6","6","5","5","2","742402460798423042","何","Female","[""好我"",""坏我"",""好她"",""坏她""]","[""强我"",""弱我"",""强她"",""弱她""]","","","","","","","","nonmatch","","","","","","","","","","key","j","16.691980769230913","654.3181676362175","404.9999912218616","f","false","match","img/hexagon.png","坏她","坏她","prac_ALT2_moral","practice_moral","","","","","","","",""
"null","<span style='color:red; font-size: 70px;'>错误! </span>","null","html-keyboard-response","55","296169","0.0-8.0-0.0-1.0-0.0-1.22","5","4","5","4","5","5","2","3","4","5","5","0","0","-1","1","-1","0","0","1","5","4","5","4","3","3","2","3","4","3","4","3","3","6","5","4","6","6","7","4","6","5","4","5","2","5","4","3","4","2","3","4","3","4","5","2","5","4","3","3","4","6","6","5","4","5","4","7","5","7","3","6","6","3","6","6","5","5","2","742402460798423042","何","Female","[""好我"",""坏我"",""好她"",""坏她""]","[""强我"",""弱我"",""强她"",""弱她""]","","","","","","","","","","","","","","","","","","","","","","","","","","","","","","feedback_test","","","","","","","",""
"804","","j","psychophysics","56","297980","0.0-8.0-0.0-1.0-0.0-0.23","5","4","5","4","5","5","2","3","4","5","5","0","0","-1","1","-1","0","0","1","5","4","5","4","3","3","2","3","4","3","4","3","3","6","5","4","6","6","7","4","6","5","4","5","2","5","4","3","4","2","3","4","3","4","5","2","5","4","3","3","4","6","6","5","4","5","4","7","5","7","3","6","6","3","6","6","5","5","2","742402460798423042","何","Female","[""好我"",""坏我"",""好她"",""坏她""]","[""强我"",""弱我"",""强她"",""弱她""]","","","","","","","","nonmatch","","","","","","","","","","key","j","16.69299074074068","654.3181676362175","404.9999912218616","j","true","nonmatch","img/trapezoid.png","好她","坏我","prac_ALT2_moral","practice_moral","","","","","","","",""
"null","<span style='color:GreenYellow; font-size: 70px;'>正确! </span>","null","html-keyboard-response","57","298494","0.0-8.0-0.0-1.0-0.0-1.23","5","4","5","4","5","5","2","3","4","5","5","0","0","-1","1","-1","0","0","1","5","4","5","4","3","3","2","3","4","3","4","3","3","6","5","4","6","6","7","4","6","5","4","5","2","5","4","3","4","2","3","4","3","4","5","2","5","4","3","3","4","6","6","5","4","5","4","7","5","7","3","6","6","3","6","6","5","5","2","742402460798423042","何","Female","[""好我"",""坏我"",""好她"",""坏她""]","[""强我"",""弱我"",""强她"",""弱她""]","","","","","","","","","","","","","","","","","","","","","","","","","","","","","","feedback_test","","","","","","","",""
"1045","","f","psychophysics","58","300550","0.0-8.0-0.0-1.0-0.0-0.24","5","4","5","4","5","5","2","3","4","5","5","0","0","-1","1","-1","0","0","1","5","4","5","4","3","3","2","3","4","3","4","3","3","6","5","4","6","6","7","4","6","5","4","5","2","5","4","3","4","2","3","4","3","4","5","2","5","4","3","3","4","6","6","5","4","5","4","7","5","7","3","6","6","3","6","6","5","5","2","742402460798423042","何","Female","[""好我"",""坏我"",""好她"",""坏她""]","[""强我"",""弱我"",""强她"",""弱她""]","","","","","","","","match","","","","","","","","","","key","f","16.690557377049355","654.3181676362175","404.9999912218616","j","false","nonmatch","img/diamond.png","坏我","好她","prac_ALT2_moral","practice_moral","","","","","","","",""
"null","<span style='color:red; font-size: 70px;'>错误! </span>","null","html-keyboard-response","59","301063","0.0-8.0-0.0-1.0-0.0-1.24","5","4","5","4","5","5","2","3","4","5","5","0","0","-1","1","-1","0","0","1","5","4","5","4","3","3","2","3","4","3","4","3","3","6","5","4","6","6","7","4","6","5","4","5","2","5","4","3","4","2","3","4","3","4","5","2","5","4","3","3","4","6","6","5","4","5","4","7","5","7","3","6","6","3","6","6","5","5","2","742402460798423042","何","Female","[""好我"",""坏我"",""好她"",""坏她""]","[""强我"",""弱我"",""强她"",""弱她""]","","","","","","","","","","","","","","","","","","","","","","","","","","","","","","feedback_test","","","","","","","",""
"789","","f","psychophysics","60","302855","0.0-8.0-0.0-1.0-0.0-0.25","5","4","5","4","5","5","2","3","4","5","5","0","0","-1","1","-1","0","0","1","5","4","5","4","3","3","2","3","4","3","4","3","3","6","5","4","6","6","7","4","6","5","4","5","2","5","4","3","4","2","3","4","3","4","5","2","5","4","3","3","4","6","6","5","4","5","4","7","5","7","3","6","6","3","6","6","5","5","2","742402460798423042","何","Female","[""好我"",""坏我"",""好她"",""坏她""]","[""强我"",""弱我"",""强她"",""弱她""]","","","","","","","","match","","","","","","","","","","key","f","16.6938018867925","654.3181676362175","404.9999912218616","f","true","match","img/diamond.png","好她","好她","prac_ALT2_moral","practice_moral","","","","","","","",""
"null","<span style='color:GreenYellow; font-size: 70px;'>正确! </span>","null","html-keyboard-response","61","303371","0.0-8.0-0.0-1.0-0.0-1.25","5","4","5","4","5","5","2","3","4","5","5","0","0","-1","1","-1","0","0","1","5","4","5","4","3","3","2","3","4","3","4","3","3","6","5","4","6","6","7","4","6","5","4","5","2","5","4","3","4","2","3","4","3","4","5","2","5","4","3","3","4","6","6","5","4","5","4","7","5","7","3","6","6","3","6","6","5","5","2","742402460798423042","何","Female","[""好我"",""坏我"",""好她"",""坏她""]","[""强我"",""弱我"",""强她"",""弱她""]","","","","","","","","","","","","","","","","","","","","","","","","","","","","","","feedback_test","","","","","","","",""
"755","","j","psychophysics","62","305139","0.0-8.0-0.0-1.0-0.0-0.26","5","4","5","4","5","5","2","3","4","5","5","0","0","-1","1","-1","0","0","1","5","4","5","4","3","3","2","3","4","3","4","3","3","6","5","4","6","6","7","4","6","5","4","5","2","5","4","3","4","2","3","4","3","4","5","2","5","4","3","3","4","6","6","5","4","5","4","7","5","7","3","6","6","3","6","6","5","5","2","742402460798423042","何","Female","[""好我"",""坏我"",""好她"",""坏她""]","[""强我"",""弱我"",""强她"",""弱她""]","","","","","","","","nonmatch","","","","","","","","","","key","j","16.69149523809541","654.3181676362175","404.9999912218616","j","true","nonmatch","img/hexagon.png","好她","坏她","prac_ALT2_moral","practice_moral","","","","","","","",""
"null","<span style='color:GreenYellow; font-size: 70px;'>正确! </span>","null","html-keyboard-response","63","305646","0.0-8.0-0.0-1.0-0.0-1.26","5","4","5","4","5","5","2","3","4","5","5","0","0","-1","1","-1","0","0","1","5","4","5","4","3","3","2","3","4","3","4","3","3","6","5","4","6","6","7","4","6","5","4","5","2","5","4","3","4","2","3","4","3","4","5","2","5","4","3","3","4","6","6","5","4","5","4","7","5","7","3","6","6","3","6","6","5","5","2","742402460798423042","何","Female","[""好我"",""坏我"",""好她"",""坏她""]","[""强我"",""弱我"",""强她"",""弱她""]","","","","","","","","","","","","","","","","","","","","","","","","","","","","","","feedback_test","","","","","","","",""
"689","","j","psychophysics","64","307360","0.0-8.0-0.0-1.0-0.0-0.27","5","4","5","4","5","5","2","3","4","5","5","0","0","-1","1","-1","0","0","1","5","4","5","4","3","3","2","3","4","3","4","3","3","6","5","4","6","6","7","4","6","5","4","5","2","5","4","3","4","2","3","4","3","4","5","2","5","4","3","3","4","6","6","5","4","5","4","7","5","7","3","6","6","3","6","6","5","5","2","742402460798423042","何","Female","[""好我"",""坏我"",""好她"",""坏她""]","[""强我"",""弱我"",""强她"",""弱她""]","","","","","","","","nonmatch","","","","","","","","","","key","j","16.69328431372574","654.3181676362175","404.9999912218616","j","true","nonmatch","img/hexagon.png","坏我","坏她","prac_ALT2_moral","practice_moral","","","","","","","",""
"null","<span style='color:GreenYellow; font-size: 70px;'>正确! </span>","null","html-keyboard-response","65","307872","0.0-8.0-0.0-1.0-0.0-1.27","5","4","5","4","5","5","2","3","4","5","5","0","0","-1","1","-1","0","0","1","5","4","5","4","3","3","2","3","4","3","4","3","3","6","5","4","6","6","7","4","6","5","4","5","2","5","4","3","4","2","3","4","3","4","5","2","5","4","3","3","4","6","6","5","4","5","4","7","5","7","3","6","6","3","6","6","5","5","2","742402460798423042","何","Female","[""好我"",""坏我"",""好她"",""坏她""]","[""强我"",""弱我"",""强她"",""弱她""]","","","","","","","","","","","","","","","","","","","","","","","","","","","","","","feedback_test","","","","","","","",""
"948","","j","psychophysics","66","309822","0.0-8.0-0.0-1.0-0.0-0.28","5","4","5","4","5","5","2","3","4","5","5","0","0","-1","1","-1","0","0","1","5","4","5","4","3","3","2","3","4","3","4","3","3","6","5","4","6","6","7","4","6","5","4","5","2","5","4","3","4","2","3","4","3","4","5","2","5","4","3","3","4","6","6","5","4","5","4","7","5","7","3","6","6","3","6","6","5","5","2","742402460798423042","何","Female","[""好我"",""坏我"",""好她"",""坏她""]","[""强我"",""弱我"",""强她"",""弱她""]","","","","","","","","nonmatch","","","","","","","","","","key","j","16.690226086956933","654.3181676362175","404.9999912218616","f","false","match","img/hexagon.png","坏她","坏她","prac_ALT2_moral","practice_moral","","","","","","","",""
"null","<span style='color:red; font-size: 70px;'>错误! </span>","null","html-keyboard-response","67","310323","0.0-8.0-0.0-1.0-0.0-1.28","5","4","5","4","5","5","2","3","4","5","5","0","0","-1","1","-1","0","0","1","5","4","5","4","3","3","2","3","4","3","4","3","3","6","5","4","6","6","7","4","6","5","4","5","2","5","4","3","4","2","3","4","3","4","5","2","5","4","3","3","4","6","6","5","4","5","4","7","5","7","3","6","6","3","6","6","5","5","2","742402460798423042","何","Female","[""好我"",""坏我"",""好她"",""坏她""]","[""强我"",""弱我"",""强她"",""弱她""]","","","","","","","","","","","","","","","","","","","","","","","","","","","","","","feedback_test","","","","","","","",""
"872","","f","psychophysics","68","312199","0.0-8.0-0.0-1.0-0.0-0.29","5","4","5","4","5","5","2","3","4","5","5","0","0","-1","1","-1","0","0","1","5","4","5","4","3","3","2","3","4","3","4","3","3","6","5","4","6","6","7","4","6","5","4","5","2","5","4","3","4","2","3","4","3","4","5","2","5","4","3","3","4","6","6","5","4","5","4","7","5","7","3","6","6","3","6","6","5","5","2","742402460798423042","何","Female","[""好我"",""坏我"",""好她"",""坏她""]","[""强我"",""弱我"",""强她"",""弱她""]","","","","","","","","match","","","","","","","","","","key","f","16.689954954955144","654.3181676362175","404.9999912218616","f","true","match","img/diamond.png","好她","好她","prac_ALT2_moral","practice_moral","","","","","","","",""
"null","<span style='color:GreenYellow; font-size: 70px;'>正确! </span>","null","html-keyboard-response","69","312728","0.0-8.0-0.0-1.0-0.0-1.29","5","4","5","4","5","5","2","3","4","5","5","0","0","-1","1","-1","0","0","1","5","4","5","4","3","3","2","3","4","3","4","3","3","6","5","4","6","6","7","4","6","5","4","5","2","5","4","3","4","2","3","4","3","4","5","2","5","4","3","3","4","6","6","5","4","5","4","7","5","7","3","6","6","3","6","6","5","5","2","742402460798423042","何","Female","[""好我"",""坏我"",""好她"",""坏她""]","[""强我"",""弱我"",""强她"",""弱她""]","","","","","","","","","","","","","","","","","","","","","","","","","","","","","","feedback_test","","","","","","","",""
"659","","f","psychophysics","70","314406","0.0-8.0-0.0-1.0-0.0-0.30","5","4","5","4","5","5","2","3","4","5","5","0","0","-1","1","-1","0","0","1","5","4","5","4","3","3","2","3","4","3","4","3","3","6","5","4","6","6","7","4","6","5","4","5","2","5","4","3","4","2","3","4","3","4","5","2","5","4","3","3","4","6","6","5","4","5","4","7","5","7","3","6","6","3","6","6","5","5","2","742402460798423042","何","Female","[""好我"",""坏我"",""好她"",""坏她""]","[""强我"",""弱我"",""强她"",""弱她""]","","","","","","","","match","","","","","","","","","","key","f","16.692919191919064","654.3181676362175","404.9999912218616","f","true","match","img/trapezoid.png","坏我","坏我","prac_ALT2_moral","practice_moral","","","","","","","",""
"null","<span style='color:GreenYellow; font-size: 70px;'>正确! </span>","null","html-keyboard-response","71","314911","0.0-8.0-0.0-1.0-0.0-1.30","5","4","5","4","5","5","2","3","4","5","5","0","0","-1","1","-1","0","0","1","5","4","5","4","3","3","2","3","4","3","4","3","3","6","5","4","6","6","7","4","6","5","4","5","2","5","4","3","4","2","3","4","3","4","5","2","5","4","3","3","4","6","6","5","4","5","4","7","5","7","3","6","6","3","6","6","5","5","2","742402460798423042","何","Female","[""好我"",""坏我"",""好她"",""坏她""]","[""强我"",""弱我"",""强她"",""弱她""]","","","","","","","","","","","","","","","","","","","","","","","","","","","","","","feedback_test","","","","","","","",""
"778","","f","psychophysics","72","316694","0.0-8.0-0.0-1.0-0.0-0.31","5","4","5","4","5","5","2","3","4","5","5","0","0","-1","1","-1","0","0","1","5","4","5","4","3","3","2","3","4","3","4","3","3","6","5","4","6","6","7","4","6","5","4","5","2","5","4","3","4","2","3","4","3","4","5","2","5","4","3","3","4","6","6","5","4","5","4","7","5","7","3","6","6","3","6","6","5","5","2","742402460798423042","何","Female","[""好我"",""坏我"",""好她"",""坏她""]","[""强我"",""弱我"",""强她"",""弱她""]","","","","","","","","match","","","","","","","","","","key","f","16.69297169811336","654.3181676362175","404.9999912218616","f","true","match","img/trapezoid.png","坏我","坏我","prac_ALT2_moral","practice_moral","","","","","","","",""
"null","<span style='color:GreenYellow; font-size: 70px;'>正确! </span>","null","html-keyboard-response","73","317201","0.0-8.0-0.0-1.0-0.0-1.31","5","4","5","4","5","5","2","3","4","5","5","0","0","-1","1","-1","0","0","1","5","4","5","4","3","3","2","3","4","3","4","3","3","6","5","4","6","6","7","4","6","5","4","5","2","5","4","3","4","2","3","4","3","4","5","2","5","4","3","3","4","6","6","5","4","5","4","7","5","7","3","6","6","3","6","6","5","5","2","742402460798423042","何","Female","[""好我"",""坏我"",""好她"",""坏她""]","[""强我"",""弱我"",""强她"",""弱她""]","","","","","","","","","","","","","","","","","","","","","","","","","","","","","","feedback_test","","","","","","","",""
"738","","j","psychophysics","74","318942","0.0-8.0-0.0-1.0-0.0-0.32","5","4","5","4","5","5","2","3","4","5","5","0","0","-1","1","-1","0","0","1","5","4","5","4","3","3","2","3","4","3","4","3","3","6","5","4","6","6","7","4","6","5","4","5","2","5","4","3","4","2","3","4","3","4","5","2","5","4","3","3","4","6","6","5","4","5","4","7","5","7","3","6","6","3","6","6","5","5","2","742402460798423042","何","Female","[""好我"",""坏我"",""好她"",""坏她""]","[""强我"",""弱我"",""强她"",""弱她""]","","","","","","","","nonmatch","","","","","","","","","","key","j","16.693184466019286","654.3181676362175","404.9999912218616","j","true","nonmatch","img/circle.png","坏她","好我","prac_ALT2_moral","practice_moral","","","","","","","",""
"null","<span style='color:GreenYellow; font-size: 70px;'>正确! </span>","null","html-keyboard-response","75","319485","0.0-8.0-0.0-1.0-0.0-1.32","5","4","5","4","5","5","2","3","4","5","5","0","0","-1","1","-1","0","0","1","5","4","5","4","3","3","2","3","4","3","4","3","3","6","5","4","6","6","7","4","6","5","4","5","2","5","4","3","4","2","3","4","3","4","5","2","5","4","3","3","4","6","6","5","4","5","4","7","5","7","3","6","6","3","6","6","5","5","2","742402460798423042","何","Female","[""好我"",""坏我"",""好她"",""坏她""]","[""强我"",""弱我"",""强她"",""弱她""]","","","","","","","","","","","","","","","","","","","","","","","","","","","","","","feedback_test","","","","","","","",""
"1109","","j","psychophysics","76","321615","0.0-8.0-0.0-1.0-0.0-0.33","5","4","5","4","5","5","2","3","4","5","5","0","0","-1","1","-1","0","0","1","5","4","5","4","3","3","2","3","4","3","4","3","3","6","5","4","6","6","7","4","6","5","4","5","2","5","4","3","4","2","3","4","3","4","5","2","5","4","3","3","4","6","6","5","4","5","4","7","5","7","3","6","6","3","6","6","5","5","2","742402460798423042","何","Female","[""好我"",""坏我"",""好她"",""坏她""]","[""强我"",""弱我"",""强她"",""弱她""]","","","","","","","","nonmatch","","","","","","","","","","key","j","16.692496062992014","654.3181676362175","404.9999912218616","f","false","match","img/diamond.png","好她","好她","prac_ALT2_moral","practice_moral","","","","","","","",""
"null","<span style='color:red; font-size: 70px;'>错误! </span>","null","html-keyboard-response","77","322116","0.0-8.0-0.0-1.0-0.0-1.33","5","4","5","4","5","5","2","3","4","5","5","0","0","-1","1","-1","0","0","1","5","4","5","4","3","3","2","3","4","3","4","3","3","6","5","4","6","6","7","4","6","5","4","5","2","5","4","3","4","2","3","4","3","4","5","2","5","4","3","3","4","6","6","5","4","5","4","7","5","7","3","6","6","3","6","6","5","5","2","742402460798423042","何","Female","[""好我"",""坏我"",""好她"",""坏她""]","[""强我"",""弱我"",""强她"",""弱她""]","","","","","","","","","","","","","","","","","","","","","","","","","","","","","","feedback_test","","","","","","","",""
"977","","f","psychophysics","78","324102","0.0-8.0-0.0-1.0-0.0-0.34","5","4","5","4","5","5","2","3","4","5","5","0","0","-1","1","-1","0","0","1","5","4","5","4","3","3","2","3","4","3","4","3","3","6","5","4","6","6","7","4","6","5","4","5","2","5","4","3","4","2","3","4","3","4","5","2","5","4","3","3","4","6","6","5","4","5","4","7","5","7","3","6","6","3","6","6","5","5","2","742402460798423042","何","Female","[""好我"",""坏我"",""好她"",""坏她""]","[""强我"",""弱我"",""强她"",""弱她""]","","","","","","","","match","","","","","","","","","","key","f","16.695711864407127","654.3181676362175","404.9999912218616","f","true","match","img/hexagon.png","坏她","坏她","prac_ALT2_moral","practice_moral","","","","","","","",""
"null","<span style='color:GreenYellow; font-size: 70px;'>正确! </span>","null","html-keyboard-response","79","324609","0.0-8.0-0.0-1.0-0.0-1.34","5","4","5","4","5","5","2","3","4","5","5","0","0","-1","1","-1","0","0","1","5","4","5","4","3","3","2","3","4","3","4","3","3","6","5","4","6","6","7","4","6","5","4","5","2","5","4","3","4","2","3","4","3","4","5","2","5","4","3","3","4","6","6","5","4","5","4","7","5","7","3","6","6","3","6","6","5","5","2","742402460798423042","何","Female","[""好我"",""坏我"",""好她"",""坏她""]","[""强我"",""弱我"",""强她"",""弱她""]","","","","","","","","","","","","","","","","","","","","","","","","","","","","","","feedback_test","","","","","","","",""
"849","","j","psychophysics","80","326463","0.0-8.0-0.0-1.0-0.0-0.35","5","4","5","4","5","5","2","3","4","5","5","0","0","-1","1","-1","0","0","1","5","4","5","4","3","3","2","3","4","3","4","3","3","6","5","4","6","6","7","4","6","5","4","5","2","5","4","3","4","2","3","4","3","4","5","2","5","4","3","3","4","6","6","5","4","5","4","7","5","7","3","6","6","3","6","6","5","5","2","742402460798423042","何","Female","[""好我"",""坏我"",""好她"",""坏她""]","[""强我"",""弱我"",""强她"",""弱她""]","","","","","","","","nonmatch","","","","","","","","","","key","j","16.691018181818073","654.3181676362175","404.9999912218616","j","true","nonmatch","img/hexagon.png","好我","坏她","prac_ALT2_moral","practice_moral","","","","","","","",""
"null","<span style='color:GreenYellow; font-size: 70px;'>正确! </span>","null","html-keyboard-response","81","326986","0.0-8.0-0.0-1.0-0.0-1.35","5","4","5","4","5","5","2","3","4","5","5","0","0","-1","1","-1","0","0","1","5","4","5","4","3","3","2","3","4","3","4","3","3","6","5","4","6","6","7","4","6","5","4","5","2","5","4","3","4","2","3","4","3","4","5","2","5","4","3","3","4","6","6","5","4","5","4","7","5","7","3","6","6","3","6","6","5","5","2","742402460798423042","何","Female","[""好我"",""坏我"",""好她"",""坏她""]","[""强我"",""弱我"",""强她"",""弱她""]","","","","","","","","","","","","","","","","","","","","","","","","","","","","","","feedback_test","","","","","","","",""
"924","","f","psychophysics","82","328921","0.0-8.0-0.0-1.0-0.0-0.36","5","4","5","4","5","5","2","3","4","5","5","0","0","-1","1","-1","0","0","1","5","4","5","4","3","3","2","3","4","3","4","3","3","6","5","4","6","6","7","4","6","5","4","5","2","5","4","3","4","2","3","4","3","4","5","2","5","4","3","3","4","6","6","5","4","5","4","7","5","7","3","6","6","3","6","6","5","5","2","742402460798423042","何","Female","[""好我"",""坏我"",""好她"",""坏她""]","[""强我"",""弱我"",""强她"",""弱她""]","","","","","","","","match","","","","","","","","","","key","f","16.6906260869567","654.3181676362175","404.9999912218616","f","true","match","img/hexagon.png","坏她","坏她","prac_ALT2_moral","practice_moral","","","","","","","",""
"null","<span style='color:GreenYellow; font-size: 70px;'>正确! </span>","null","html-keyboard-response","83","329424","0.0-8.0-0.0-1.0-0.0-1.36","5","4","5","4","5","5","2","3","4","5","5","0","0","-1","1","-1","0","0","1","5","4","5","4","3","3","2","3","4","3","4","3","3","6","5","4","6","6","7","4","6","5","4","5","2","5","4","3","4","2","3","4","3","4","5","2","5","4","3","3","4","6","6","5","4","5","4","7","5","7","3","6","6","3","6","6","5","5","2","742402460798423042","何","Female","[""好我"",""坏我"",""好她"",""坏她""]","[""强我"",""弱我"",""强她"",""弱她""]","","","","","","","","","","","","","","","","","","","","","","","","","","","","","","feedback_test","","","","","","","",""
"544","","f","psychophysics","84","330979","0.0-8.0-0.0-1.0-0.0-0.37","5","4","5","4","5","5","2","3","4","5","5","0","0","-1","1","-1","0","0","1","5","4","5","4","3","3","2","3","4","3","4","3","3","6","5","4","6","6","7","4","6","5","4","5","2","5","4","3","4","2","3","4","3","4","5","2","5","4","3","3","4","6","6","5","4","5","4","7","5","7","3","6","6","3","6","6","5","5","2","742402460798423042","何","Female","[""好我"",""坏我"",""好她"",""坏她""]","[""强我"",""弱我"",""强她"",""弱她""]","","","","","","","","match","","","","","","","","","","key","f","16.69709782608729","654.3181676362175","404.9999912218616","f","true","match","img/circle.png","好我","好我","prac_ALT2_moral","practice_moral","","","","","","","",""
"null","<span style='color:GreenYellow; font-size: 70px;'>正确! </span>","null","html-keyboard-response","85","331493","0.0-8.0-0.0-1.0-0.0-1.37","5","4","5","4","5","5","2","3","4","5","5","0","0","-1","1","-1","0","0","1","5","4","5","4","3","3","2","3","4","3","4","3","3","6","5","4","6","6","7","4","6","5","4","5","2","5","4","3","4","2","3","4","3","4","5","2","5","4","3","3","4","6","6","5","4","5","4","7","5","7","3","6","6","3","6","6","5","5","2","742402460798423042","何","Female","[""好我"",""坏我"",""好她"",""坏她""]","[""强我"",""弱我"",""强她"",""弱她""]","","","","","","","","","","","","","","","","","","","","","","","","","","","","","","feedback_test","","","","","","","",""
"983","","j","psychophysics","86","333489","0.0-8.0-0.0-1.0-0.0-0.38","5","4","5","4","5","5","2","3","4","5","5","0","0","-1","1","-1","0","0","1","5","4","5","4","3","3","2","3","4","3","4","3","3","6","5","4","6","6","7","4","6","5","4","5","2","5","4","3","4","2","3","4","3","4","5","2","5","4","3","3","4","6","6","5","4","5","4","7","5","7","3","6","6","3","6","6","5","5","2","742402460798423042","何","Female","[""好我"",""坏我"",""好她"",""坏她""]","[""强我"",""弱我"",""强她"",""弱她""]","","","","","","","","nonmatch","","","","","","","","","","key","j","16.691559322034326","654.3181676362175","404.9999912218616","j","true","nonmatch","img/trapezoid.png","坏她","坏我","prac_ALT2_moral","practice_moral","","","","","","","",""
"null","<span style='color:GreenYellow; font-size: 70px;'>正确! </span>","null","html-keyboard-response","87","334003","0.0-8.0-0.0-1.0-0.0-1.38","5","4","5","4","5","5","2","3","4","5","5","0","0","-1","1","-1","0","0","1","5","4","5","4","3","3","2","3","4","3","4","3","3","6","5","4","6","6","7","4","6","5","4","5","2","5","4","3","4","2","3","4","3","4","5","2","5","4","3","3","4","6","6","5","4","5","4","7","5","7","3","6","6","3","6","6","5","5","2","742402460798423042","何","Female","[""好我"",""坏我"",""好她"",""坏她""]","[""强我"",""弱我"",""强她"",""弱她""]","","","","","","","","","","","","","","","","","","","","","","","","","","","","","","feedback_test","","","","","","","",""
"541","","f","psychophysics","88","335558","0.0-8.0-0.0-1.0-0.0-0.39","5","4","5","4","5","5","2","3","4","5","5","0","0","-1","1","-1","0","0","1","5","4","5","4","3","3","2","3","4","3","4","3","3","6","5","4","6","6","7","4","6","5","4","5","2","5","4","3","4","2","3","4","3","4","5","2","5","4","3","3","4","6","6","5","4","5","4","7","5","7","3","6","6","3","6","6","5","5","2","742402460798423042","何","Female","[""好我"",""坏我"",""好她"",""坏她""]","[""强我"",""弱我"",""强她"",""弱她""]","","","","","","","","match","","","","","","","","","","key","f","16.68927173913044","654.3181676362175","404.9999912218616","j","false","nonmatch","img/circle.png","坏我","好我","prac_ALT2_moral","practice_moral","","","","","","","",""
"null","<span style='color:red; font-size: 70px;'>错误! </span>","null","html-keyboard-response","89","336064","0.0-8.0-0.0-1.0-0.0-1.39","5","4","5","4","5","5","2","3","4","5","5","0","0","-1","1","-1","0","0","1","5","4","5","4","3","3","2","3","4","3","4","3","3","6","5","4","6","6","7","4","6","5","4","5","2","5","4","3","4","2","3","4","3","4","5","2","5","4","3","3","4","6","6","5","4","5","4","7","5","7","3","6","6","3","6","6","5","5","2","742402460798423042","何","Female","[""好我"",""坏我"",""好她"",""坏她""]","[""强我"",""弱我"",""强她"",""弱她""]","","","","","","","","","","","","","","","","","","","","","","","","","","","","","","feedback_test","","","","","","","",""
"728","","f","psychophysics","90","337807","0.0-8.0-0.0-1.0-0.0-0.40","5","4","5","4","5","5","2","3","4","5","5","0","0","-1","1","-1","0","0","1","5","4","5","4","3","3","2","3","4","3","4","3","3","6","5","4","6","6","7","4","6","5","4","5","2","5","4","3","4","2","3","4","3","4","5","2","5","4","3","3","4","6","6","5","4","5","4","7","5","7","3","6","6","3","6","6","5","5","2","742402460798423042","何","Female","[""好我"",""坏我"",""好她"",""坏她""]","[""强我"",""弱我"",""强她"",""弱她""]","","","","","","","","match","","","","","","","","","","key","f","16.68815533980587","654.3181676362175","404.9999912218616","f","true","match","img/circle.png","好我","好我","prac_ALT2_moral","practice_moral","","","","","","","",""
"null","<span style='color:GreenYellow; font-size: 70px;'>正确! </span>","null","html-keyboard-response","91","338317","0.0-8.0-0.0-1.0-0.0-1.40","5","4","5","4","5","5","2","3","4","5","5","0","0","-1","1","-1","0","0","1","5","4","5","4","3","3","2","3","4","3","4","3","3","6","5","4","6","6","7","4","6","5","4","5","2","5","4","3","4","2","3","4","3","4","5","2","5","4","3","3","4","6","6","5","4","5","4","7","5","7","3","6","6","3","6","6","5","5","2","742402460798423042","何","Female","[""好我"",""坏我"",""好她"",""坏她""]","[""强我"",""弱我"",""强她"",""弱她""]","","","","","","","","","","","","","","","","","","","","","","","","","","","","","","feedback_test","","","","","","","",""
"731","","j","psychophysics","92","340051","0.0-8.0-0.0-1.0-0.0-0.41","5","4","5","4","5","5","2","3","4","5","5","0","0","-1","1","-1","0","0","1","5","4","5","4","3","3","2","3","4","3","4","3","3","6","5","4","6","6","7","4","6","5","4","5","2","5","4","3","4","2","3","4","3","4","5","2","5","4","3","3","4","6","6","5","4","5","4","7","5","7","3","6","6","3","6","6","5","5","2","742402460798423042","何","Female","[""好我"",""坏我"",""好她"",""坏她""]","[""强我"",""弱我"",""强她"",""弱她""]","","","","","","","","nonmatch","","","","","","","","","","key","j","16.689873786408057","654.3181676362175","404.9999912218616","j","true","nonmatch","img/diamond.png","坏她","好她","prac_ALT2_moral","practice_moral","","","","","","","",""
"null","<span style='color:GreenYellow; font-size: 70px;'>正确! </span>","null","html-keyboard-response","93","340559","0.0-8.0-0.0-1.0-0.0-1.41","5","4","5","4","5","5","2","3","4","5","5","0","0","-1","1","-1","0","0","1","5","4","5","4","3","3","2","3","4","3","4","3","3","6","5","4","6","6","7","4","6","5","4","5","2","5","4","3","4","2","3","4","3","4","5","2","5","4","3","3","4","6","6","5","4","5","4","7","5","7","3","6","6","3","6","6","5","5","2","742402460798423042","何","Female","[""好我"",""坏我"",""好她"",""坏她""]","[""强我"",""弱我"",""强她"",""弱她""]","","","","","","","","","","","","","","","","","","","","","","","","","","","","","","feedback_test","","","","","","","",""
"724","","f","psychophysics","94","342308","0.0-8.0-0.0-1.0-0.0-0.42","5","4","5","4","5","5","2","3","4","5","5","0","0","-1","1","-1","0","0","1","5","4","5","4","3","3","2","3","4","3","4","3","3","6","5","4","6","6","7","4","6","5","4","5","2","5","4","3","4","2","3","4","3","4","5","2","5","4","3","3","4","6","6","5","4","5","4","7","5","7","3","6","6","3","6","6","5","5","2","742402460798423042","何","Female","[""好我"",""坏我"",""好她"",""坏她""]","[""强我"",""弱我"",""强她"",""弱她""]","","","","","","","","match","","","","","","","","","","key","f","16.694173076922688","654.3181676362175","404.9999912218616","f","true","match","img/trapezoid.png","坏我","坏我","prac_ALT2_moral","practice_moral","","","","","","","",""
"null","<span style='color:GreenYellow; font-size: 70px;'>正确! </span>","null","html-keyboard-response","95","342817","0.0-8.0-0.0-1.0-0.0-1.42","5","4","5","4","5","5","2","3","4","5","5","0","0","-1","1","-1","0","0","1","5","4","5","4","3","3","2","3","4","3","4","3","3","6","5","4","6","6","7","4","6","5","4","5","2","5","4","3","4","2","3","4","3","4","5","2","5","4","3","3","4","6","6","5","4","5","4","7","5","7","3","6","6","3","6","6","5","5","2","742402460798423042","何","Female","[""好我"",""坏我"",""好她"",""坏她""]","[""强我"",""弱我"",""强她"",""弱她""]","","","","","","","","","","","","","","","","","","","","","","","","","","","","","","feedback_test","","","","","","","",""
"966","","j","psychophysics","96","344787","0.0-8.0-0.0-1.0-0.0-0.43","5","4","5","4","5","5","2","3","4","5","5","0","0","-1","1","-1","0","0","1","5","4","5","4","3","3","2","3","4","3","4","3","3","6","5","4","6","6","7","4","6","5","4","5","2","5","4","3","4","2","3","4","3","4","5","2","5","4","3","3","4","6","6","5","4","5","4","7","5","7","3","6","6","3","6","6","5","5","2","742402460798423042","何","Female","[""好我"",""坏我"",""好她"",""坏她""]","[""强我"",""弱我"",""强她"",""弱她""]","","","","","","","","nonmatch","","","","","","","","","","key","j","16.692623931624027","654.3181676362175","404.9999912218616","j","true","nonmatch","img/diamond.png","好我","好她","prac_ALT2_moral","practice_moral","","","","","","","",""
"null","<span style='color:GreenYellow; font-size: 70px;'>正确! </span>","null","html-keyboard-response","97","345296","0.0-8.0-0.0-1.0-0.0-1.43","5","4","5","4","5","5","2","3","4","5","5","0","0","-1","1","-1","0","0","1","5","4","5","4","3","3","2","3","4","3","4","3","3","6","5","4","6","6","7","4","6","5","4","5","2","5","4","3","4","2","3","4","3","4","5","2","5","4","3","3","4","6","6","5","4","5","4","7","5","7","3","6","6","3","6","6","5","5","2","742402460798423042","何","Female","[""好我"",""坏我"",""好她"",""坏她""]","[""强我"",""弱我"",""强她"",""弱她""]","","","","","","","","","","","","","","","","","","","","","","","","","","","","","","feedback_test","","","","","","","",""
"826","","j","psychophysics","98","347130","0.0-8.0-0.0-1.0-0.0-0.44","5","4","5","4","5","5","2","3","4","5","5","0","0","-1","1","-1","0","0","1","5","4","5","4","3","3","2","3","4","3","4","3","3","6","5","4","6","6","7","4","6","5","4","5","2","5","4","3","4","2","3","4","3","4","5","2","5","4","3","3","4","6","6","5","4","5","4","7","5","7","3","6","6","3","6","6","5","5","2","742402460798423042","何","Female","[""好我"",""坏我"",""好她"",""坏她""]","[""强我"",""弱我"",""强她"",""弱她""]","","","","","","","","nonmatch","","","","","","","","","","key","j","16.69598165137582","654.3181676362175","404.9999912218616","j","true","nonmatch","img/trapezoid.png","好她","坏我","prac_ALT2_moral","practice_moral","","","","","","","",""
"null","<span style='color:GreenYellow; font-size: 70px;'>正确! </span>","null","html-keyboard-response","99","347647","0.0-8.0-0.0-1.0-0.0-1.44","5","4","5","4","5","5","2","3","4","5","5","0","0","-1","1","-1","0","0","1","5","4","5","4","3","3","2","3","4","3","4","3","3","6","5","4","6","6","7","4","6","5","4","5","2","5","4","3","4","2","3","4","3","4","5","2","5","4","3","3","4","6","6","5","4","5","4","7","5","7","3","6","6","3","6","6","5","5","2","742402460798423042","何","Female","[""好我"",""坏我"",""好她"",""坏她""]","[""强我"",""弱我"",""强她"",""弱她""]","","","","","","","","","","","","","","","","","","","","","","","","","","","","","","feedback_test","","","","","","","",""
"777","","f","psychophysics","100","349439","0.0-8.0-0.0-1.0-0.0-0.45","5","4","5","4","5","5","2","3","4","5","5","0","0","-1","1","-1","0","0","1","5","4","5","4","3","3","2","3","4","3","4","3","3","6","5","4","6","6","7","4","6","5","4","5","2","5","4","3","4","2","3","4","3","4","5","2","5","4","3","3","4","6","6","5","4","5","4","7","5","7","3","6","6","3","6","6","5","5","2","742402460798423042","何","Female","[""好我"",""坏我"",""好她"",""坏她""]","[""强我"",""弱我"",""强她"",""弱她""]","","","","","","","","match","","","","","","","","","","key","f","16.694745283019245","654.3181676362175","404.9999912218616","f","true","match","img/circle.png","好我","好我","prac_ALT2_moral","practice_moral","","","","","","","",""
"null","<span style='color:GreenYellow; font-size: 70px;'>正确! </span>","null","html-keyboard-response","101","349949","0.0-8.0-0.0-1.0-0.0-1.45","5","4","5","4","5","5","2","3","4","5","5","0","0","-1","1","-1","0","0","1","5","4","5","4","3","3","2","3","4","3","4","3","3","6","5","4","6","6","7","4","6","5","4","5","2","5","4","3","4","2","3","4","3","4","5","2","5","4","3","3","4","6","6","5","4","5","4","7","5","7","3","6","6","3","6","6","5","5","2","742402460798423042","何","Female","[""好我"",""坏我"",""好她"",""坏她""]","[""强我"",""弱我"",""强她"",""弱她""]","","","","","","","","","","","","","","","","","","","","","","","","","","","","","","feedback_test","","","","","","","",""
"791","","f","psychophysics","102","351751","0.0-8.0-0.0-1.0-0.0-0.46","5","4","5","4","5","5","2","3","4","5","5","0","0","-1","1","-1","0","0","1","5","4","5","4","3","3","2","3","4","3","4","3","3","6","5","4","6","6","7","4","6","5","4","5","2","5","4","3","4","2","3","4","3","4","5","2","5","4","3","3","4","6","6","5","4","5","4","7","5","7","3","6","6","3","6","6","5","5","2","742402460798423042","何","Female","[""好我"",""坏我"",""好她"",""坏她""]","[""强我"",""弱我"",""强她"",""弱她""]","","","","","","","","match","","","","","","","","","","key","f","16.69740186915918","654.3181676362175","404.9999912218616","j","false","nonmatch","img/trapezoid.png","好我","坏我","prac_ALT2_moral","practice_moral","","","","","","","",""
"null","<span style='color:red; font-size: 70px;'>错误! </span>","null","html-keyboard-response","103","352265","0.0-8.0-0.0-1.0-0.0-1.46","5","4","5","4","5","5","2","3","4","5","5","0","0","-1","1","-1","0","0","1","5","4","5","4","3","3","2","3","4","3","4","3","3","6","5","4","6","6","7","4","6","5","4","5","2","5","4","3","4","2","3","4","3","4","5","2","5","4","3","3","4","6","6","5","4","5","4","7","5","7","3","6","6","3","6","6","5","5","2","742402460798423042","何","Female","[""好我"",""坏我"",""好她"",""坏她""]","[""强我"",""弱我"",""强她"",""弱她""]","","","","","","","","","","","","","","","","","","","","","","","","","","","","","","feedback_test","","","","","","","",""
"789","","j","psychophysics","104","354056","0.0-8.0-0.0-1.0-0.0-0.47","5","4","5","4","5","5","2","3","4","5","5","0","0","-1","1","-1","0","0","1","5","4","5","4","3","3","2","3","4","3","4","3","3","6","5","4","6","6","7","4","6","5","4","5","2","5","4","3","4","2","3","4","3","4","5","2","5","4","3","3","4","6","6","5","4","5","4","7","5","7","3","6","6","3","6","6","5","5","2","742402460798423042","何","Female","[""好我"",""坏我"",""好她"",""坏她""]","[""强我"",""弱我"",""强她"",""弱她""]","","","","","","","","nonmatch","","","","","","","","","","key","j","16.69255660377324","654.3181676362175","404.9999912218616","j","true","nonmatch","img/circle.png","好她","好我","prac_ALT2_moral","practice_moral","","","","","","","",""
"null","<span style='color:GreenYellow; font-size: 70px;'>正确! </span>","null","html-keyboard-response","105","354578","0.0-8.0-0.0-1.0-0.0-1.47","5","4","5","4","5","5","2","3","4","5","5","0","0","-1","1","-1","0","0","1","5","4","5","4","3","3","2","3","4","3","4","3","3","6","5","4","6","6","7","4","6","5","4","5","2","5","4","3","4","2","3","4","3","4","5","2","5","4","3","3","4","6","6","5","4","5","4","7","5","7","3","6","6","3","6","6","5","5","2","742402460798423042","何","Female","[""好我"",""坏我"",""好她"",""坏她""]","[""强我"",""弱我"",""强她"",""弱她""]","","","","","","","","","","","","","","","","","","","","","","","","","","","","","","feedback_test","","","","","","","",""
"3147","<style>.context{color:white; font-size: 35px; line-height:40px}</style>                            <div><p class='context'>您正确回答了73% 的试次。</p><p class='context'>您的平均反应时为825毫秒。</p><p class='context'>恭喜您完成练习。按空格键进入正式实验。</p><p class='footer' style='font-size: 35px; line-height:40px;'>请在进入正式实验实验之前将您的<span style='color: lightgreen;'>食指</span>放在电脑键盘的相应键位上进行按键。</p>"," ","html-keyboard-response","106","357729","0.0-8.0-0.0-2.0","5","4","5","4","5","5","2","3","4","5","5","0","0","-1","1","-1","0","0","1","5","4","5","4","3","3","2","3","4","3","4","3","3","6","5","4","6","6","7","4","6","5","4","5","2","5","4","3","4","2","3","4","3","4","5","2","5","4","3","3","4","6","6","5","4","5","4","7","5","7","3","6","6","3","6","6","5","5","2","742402460798423042","何","Female","[""好我"",""坏我"",""好她"",""坏她""]","[""强我"",""弱我"",""强她"",""弱她""]","","","","","","","","","","","","","","","","","","","","","","","","","","","","","","","","","","","","","",""
"3332","
    <p style='color: white; font-size: 22px'>请您将手指放在按键上，准备进入正式的匹配任务。</p>
    <p> <div style = ""color: green""><按空格键进入下一阶段的匹配任务></div></p>
    "," ","html-keyboard-response","107","361062","0.0-8.0-0.0-3.0","5","4","5","4","5","5","2","3","4","5","5","0","0","-1","1","-1","0","0","1","5","4","5","4","3","3","2","3","4","3","4","3","3","6","5","4","6","6","7","4","6","5","4","5","2","5","4","3","4","2","3","4","3","4","5","2","5","4","3","3","4","6","6","5","4","5","4","7","5","7","3","6","6","3","6","6","5","5","2","742402460798423042","何","Female","[""好我"",""坏我"",""好她"",""坏她""]","[""强我"",""弱我"",""强她"",""弱她""]","","","","","","","","","","","","","","","","","","","","","","","","","","","","","","","","","","","","","",""
"1124","","j","psychophysics","108","363197","0.0-8.0-0.0-4.0-0.0-0.0","5","4","5","4","5","5","2","3","4","5","5","0","0","-1","1","-1","0","0","1","5","4","5","4","3","3","2","3","4","3","4","3","3","6","5","4","6","6","7","4","6","5","4","5","2","5","4","3","4","2","3","4","3","4","5","2","5","4","3","3","4","6","6","5","4","5","4","7","5","7","3","6","6","3","6","6","5","5","2","742402460798423042","何","Female","[""好我"",""坏我"",""好她"",""坏她""]","[""强我"",""弱我"",""强她"",""弱她""]","","","","","","","","nonmatch","","","","","","","","","","key","j","16.69023622047224","654.3181676362175","404.9999912218616","f","false","match","img/hexagon.png","坏她","坏她","ALT2","moral","","","","","","","",""
"null","<span style='color:red; font-size: 70px;'>错误! </span>","null","html-keyboard-response","109","363699","0.0-8.0-0.0-4.0-0.0-1.0","5","4","5","4","5","5","2","3","4","5","5","0","0","-1","1","-1","0","0","1","5","4","5","4","3","3","2","3","4","3","4","3","3","6","5","4","6","6","7","4","6","5","4","5","2","5","4","3","4","2","3","4","3","4","5","2","5","4","3","3","4","6","6","5","4","5","4","7","5","7","3","6","6","3","6","6","5","5","2","742402460798423042","何","Female","[""好我"",""坏我"",""好她"",""坏她""]","[""强我"",""弱我"",""强她"",""弱她""]","","","","","","","","","","","","","","","","","","","","","","","","","","","","","","feedback_test","","","","","","","",""
"904","","j","psychophysics","110","365616","0.0-8.0-0.0-4.0-0.0-0.1","5","4","5","4","5","5","2","3","4","5","5","0","0","-1","1","-1","0","0","1","5","4","5","4","3","3","2","3","4","3","4","3","3","6","5","4","6","6","7","4","6","5","4","5","2","5","4","3","4","2","3","4","3","4","5","2","5","4","3","3","4","6","6","5","4","5","4","7","5","7","3","6","6","3","6","6","5","5","2","742402460798423042","何","Female","[""好我"",""坏我"",""好她"",""坏她""]","[""强我"",""弱我"",""强她"",""弱她""]","","","","","","","","nonmatch","","","","","","","","","","key","j","16.69346902654836","654.3181676362175","404.9999912218616","j","true","nonmatch","img/trapezoid.png","坏她","坏我","ALT2","moral","","","","","","","",""
"null","<span style='color:GreenYellow; font-size: 70px;'>正确! </span>","null","html-keyboard-response","111","366128","0.0-8.0-0.0-4.0-0.0-1.1","5","4","5","4","5","5","2","3","4","5","5","0","0","-1","1","-1","0","0","1","5","4","5","4","3","3","2","3","4","3","4","3","3","6","5","4","6","6","7","4","6","5","4","5","2","5","4","3","4","2","3","4","3","4","5","2","5","4","3","3","4","6","6","5","4","5","4","7","5","7","3","6","6","3","6","6","5","5","2","742402460798423042","何","Female","[""好我"",""坏我"",""好她"",""坏她""]","[""强我"",""弱我"",""强她"",""弱她""]","","","","","","","","","","","","","","","","","","","","","","","","","","","","","","feedback_test","","","","","","","",""
"954","","j","psychophysics","112","368089","0.0-8.0-0.0-4.0-0.0-0.2","5","4","5","4","5","5","2","3","4","5","5","0","0","-1","1","-1","0","0","1","5","4","5","4","3","3","2","3","4","3","4","3","3","6","5","4","6","6","7","4","6","5","4","5","2","5","4","3","4","2","3","4","3","4","5","2","5","4","3","3","4","6","6","5","4","5","4","7","5","7","3","6","6","3","6","6","5","5","2","742402460798423042","何","Female","[""好我"",""坏我"",""好她"",""坏她""]","[""强我"",""弱我"",""强她"",""弱她""]","","","","","","","","nonmatch","","","","","","","","","","key","j","16.690589743589737","654.3181676362175","404.9999912218616","j","true","nonmatch","img/hexagon.png","好我","坏她","ALT2","moral","","","","","","","",""
"null","<span style='color:GreenYellow; font-size: 70px;'>正确! </span>","null","html-keyboard-response","113","368592","0.0-8.0-0.0-4.0-0.0-1.2","5","4","5","4","5","5","2","3","4","5","5","0","0","-1","1","-1","0","0","1","5","4","5","4","3","3","2","3","4","3","4","3","3","6","5","4","6","6","7","4","6","5","4","5","2","5","4","3","4","2","3","4","3","4","5","2","5","4","3","3","4","6","6","5","4","5","4","7","5","7","3","6","6","3","6","6","5","5","2","742402460798423042","何","Female","[""好我"",""坏我"",""好她"",""坏她""]","[""强我"",""弱我"",""强她"",""弱她""]","","","","","","","","","","","","","","","","","","","","","","","","","","","","","","feedback_test","","","","","","","",""
"512","","f","psychophysics","114","370116","0.0-8.0-0.0-4.0-0.0-0.3","5","4","5","4","5","5","2","3","4","5","5","0","0","-1","1","-1","0","0","1","5","4","5","4","3","3","2","3","4","3","4","3","3","6","5","4","6","6","7","4","6","5","4","5","2","5","4","3","4","2","3","4","3","4","5","2","5","4","3","3","4","6","6","5","4","5","4","7","5","7","3","6","6","3","6","6","5","5","2","742402460798423042","何","Female","[""好我"",""坏我"",""好她"",""坏她""]","[""强我"",""弱我"",""强她"",""弱她""]","","","","","","","","match","","","","","","","","","","key","f","16.695188888888676","654.3181676362175","404.9999912218616","f","true","match","img/circle.png","好我","好我","ALT2","moral","","","","","","","",""
"null","<span style='color:GreenYellow; font-size: 70px;'>正确! </span>","null","html-keyboard-response","115","370624","0.0-8.0-0.0-4.0-0.0-1.3","5","4","5","4","5","5","2","3","4","5","5","0","0","-1","1","-1","0","0","1","5","4","5","4","3","3","2","3","4","3","4","3","3","6","5","4","6","6","7","4","6","5","4","5","2","5","4","3","4","2","3","4","3","4","5","2","5","4","3","3","4","6","6","5","4","5","4","7","5","7","3","6","6","3","6","6","5","5","2","742402460798423042","何","Female","[""好我"",""坏我"",""好她"",""坏她""]","[""强我"",""弱我"",""强她"",""弱她""]","","","","","","","","","","","","","","","","","","","","","","","","","","","","","","feedback_test","","","","","","","",""
"637","","j","psychophysics","116","372263","0.0-8.0-0.0-4.0-0.0-0.4","5","4","5","4","5","5","2","3","4","5","5","0","0","-1","1","-1","0","0","1","5","4","5","4","3","3","2","3","4","3","4","3","3","6","5","4","6","6","7","4","6","5","4","5","2","5","4","3","4","2","3","4","3","4","5","2","5","4","3","3","4","6","6","5","4","5","4","7","5","7","3","6","6","3","6","6","5","5","2","742402460798423042","何","Female","[""好我"",""坏我"",""好她"",""坏她""]","[""强我"",""弱我"",""强她"",""弱她""]","","","","","","","","nonmatch","","","","","","","","","","key","j","16.690412371133732","654.3181676362175","404.9999912218616","j","true","nonmatch","img/trapezoid.png","好她","坏我","ALT2","moral","","","","","","","",""
"null","<span style='color:GreenYellow; font-size: 70px;'>正确! </span>","null","html-keyboard-response","117","372778","0.0-8.0-0.0-4.0-0.0-1.4","5","4","5","4","5","5","2","3","4","5","5","0","0","-1","1","-1","0","0","1","5","4","5","4","3","3","2","3","4","3","4","3","3","6","5","4","6","6","7","4","6","5","4","5","2","5","4","3","4","2","3","4","3","4","5","2","5","4","3","3","4","6","6","5","4","5","4","7","5","7","3","6","6","3","6","6","5","5","2","742402460798423042","何","Female","[""好我"",""坏我"",""好她"",""坏她""]","[""强我"",""弱我"",""强她"",""弱她""]","","","","","","","","","","","","","","","","","","","","","","","","","","","","","","feedback_test","","","","","","","",""
"631","","j","psychophysics","118","374441","0.0-8.0-0.0-4.0-0.0-0.5","5","4","5","4","5","5","2","3","4","5","5","0","0","-1","1","-1","0","0","1","5","4","5","4","3","3","2","3","4","3","4","3","3","6","5","4","6","6","7","4","6","5","4","5","2","5","4","3","4","2","3","4","3","4","5","2","5","4","3","3","4","6","6","5","4","5","4","7","5","7","3","6","6","3","6","6","5","5","2","742402460798423042","何","Female","[""好我"",""坏我"",""好她"",""坏她""]","[""强我"",""弱我"",""强她"",""弱她""]","","","","","","","","nonmatch","","","","","","","","","","key","j","16.69193877551018","654.3181676362175","404.9999912218616","j","true","nonmatch","img/circle.png","坏她","好我","ALT2","moral","","","","","","","",""
"null","<span style='color:GreenYellow; font-size: 70px;'>正确! </span>","null","html-keyboard-response","119","374955","0.0-8.0-0.0-4.0-0.0-1.5","5","4","5","4","5","5","2","3","4","5","5","0","0","-1","1","-1","0","0","1","5","4","5","4","3","3","2","3","4","3","4","3","3","6","5","4","6","6","7","4","6","5","4","5","2","5","4","3","4","2","3","4","3","4","5","2","5","4","3","3","4","6","6","5","4","5","4","7","5","7","3","6","6","3","6","6","5","5","2","742402460798423042","何","Female","[""好我"",""坏我"",""好她"",""坏她""]","[""强我"",""弱我"",""强她"",""弱她""]","","","","","","","","","","","","","","","","","","","","","","","","","","","","","","feedback_test","","","","","","","",""
"787","","f","psychophysics","120","376751","0.0-8.0-0.0-4.0-0.0-0.6","5","4","5","4","5","5","2","3","4","5","5","0","0","-1","1","-1","0","0","1","5","4","5","4","3","3","2","3","4","3","4","3","3","6","5","4","6","6","7","4","6","5","4","5","2","5","4","3","4","2","3","4","3","4","5","2","5","4","3","3","4","6","6","5","4","5","4","7","5","7","3","6","6","3","6","6","5","5","2","742402460798423042","何","Female","[""好我"",""坏我"",""好她"",""坏她""]","[""强我"",""弱我"",""强她"",""弱她""]","","","","","","","","match","","","","","","","","","","key","f","16.69210280373825","654.3181676362175","404.9999912218616","f","true","match","img/diamond.png","好她","好她","ALT2","moral","","","","","","","",""
"null","<span style='color:GreenYellow; font-size: 70px;'>正确! </span>","null","html-keyboard-response","121","377266","0.0-8.0-0.0-4.0-0.0-1.6","5","4","5","4","5","5","2","3","4","5","5","0","0","-1","1","-1","0","0","1","5","4","5","4","3","3","2","3","4","3","4","3","3","6","5","4","6","6","7","4","6","5","4","5","2","5","4","3","4","2","3","4","3","4","5","2","5","4","3","3","4","6","6","5","4","5","4","7","5","7","3","6","6","3","6","6","5","5","2","742402460798423042","何","Female","[""好我"",""坏我"",""好她"",""坏她""]","[""强我"",""弱我"",""强她"",""弱她""]","","","","","","","","","","","","","","","","","","","","","","","","","","","","","","feedback_test","","","","","","","",""
"711","","j","psychophysics","122","378978","0.0-8.0-0.0-4.0-0.0-0.7","5","4","5","4","5","5","2","3","4","5","5","0","0","-1","1","-1","0","0","1","5","4","5","4","3","3","2","3","4","3","4","3","3","6","5","4","6","6","7","4","6","5","4","5","2","5","4","3","4","2","3","4","3","4","5","2","5","4","3","3","4","6","6","5","4","5","4","7","5","7","3","6","6","3","6","6","5","5","2","742402460798423042","何","Female","[""好我"",""坏我"",""好她"",""坏她""]","[""强我"",""弱我"",""强她"",""弱她""]","","","","","","","","nonmatch","","","","","","","","","","key","j","16.689990099009453","654.3181676362175","404.9999912218616","j","true","nonmatch","img/circle.png","坏我","好我","ALT2","moral","","","","","","","",""
"null","<span style='color:GreenYellow; font-size: 70px;'>正确! </span>","null","html-keyboard-response","123","379511","0.0-8.0-0.0-4.0-0.0-1.7","5","4","5","4","5","5","2","3","4","5","5","0","0","-1","1","-1","0","0","1","5","4","5","4","3","3","2","3","4","3","4","3","3","6","5","4","6","6","7","4","6","5","4","5","2","5","4","3","4","2","3","4","3","4","5","2","5","4","3","3","4","6","6","5","4","5","4","7","5","7","3","6","6","3","6","6","5","5","2","742402460798423042","何","Female","[""好我"",""坏我"",""好她"",""坏她""]","[""强我"",""弱我"",""强她"",""弱她""]","","","","","","","","","","","","","","","","","","","","","","","","","","","","","","feedback_test","","","","","","","",""
"947","","f","psychophysics","124","381469","0.0-8.0-0.0-4.0-0.0-0.8","5","4","5","4","5","5","2","3","4","5","5","0","0","-1","1","-1","0","0","1","5","4","5","4","3","3","2","3","4","3","4","3","3","6","5","4","6","6","7","4","6","5","4","5","2","5","4","3","4","2","3","4","3","4","5","2","5","4","3","3","4","6","6","5","4","5","4","7","5","7","3","6","6","3","6","6","5","5","2","742402460798423042","何","Female","[""好我"",""坏我"",""好她"",""坏她""]","[""强我"",""弱我"",""强她"",""弱她""]","","","","","","","","match","","","","","","","","","","key","f","16.691801724138024","654.3181676362175","404.9999912218616","j","false","nonmatch","img/hexagon.png","好她","坏她","ALT2","moral","","","","","","","",""
"null","<span style='color:red; font-size: 70px;'>错误! </span>","null","html-keyboard-response","125","381976","0.0-8.0-0.0-4.0-0.0-1.8","5","4","5","4","5","5","2","3","4","5","5","0","0","-1","1","-1","0","0","1","5","4","5","4","3","3","2","3","4","3","4","3","3","6","5","4","6","6","7","4","6","5","4","5","2","5","4","3","4","2","3","4","3","4","5","2","5","4","3","3","4","6","6","5","4","5","4","7","5","7","3","6","6","3","6","6","5","5","2","742402460798423042","何","Female","[""好我"",""坏我"",""好她"",""坏她""]","[""强我"",""弱我"",""强她"",""弱她""]","","","","","","","","","","","","","","","","","","","","","","","","","","","","","","feedback_test","","","","","","","",""
"863","","f","psychophysics","126","383853","0.0-8.0-0.0-4.0-0.0-0.9","5","4","5","4","5","5","2","3","4","5","5","0","0","-1","1","-1","0","0","1","5","4","5","4","3","3","2","3","4","3","4","3","3","6","5","4","6","6","7","4","6","5","4","5","2","5","4","3","4","2","3","4","3","4","5","2","5","4","3","3","4","6","6","5","4","5","4","7","5","7","3","6","6","3","6","6","5","5","2","742402460798423042","何","Female","[""好我"",""坏我"",""好她"",""坏她""]","[""强我"",""弱我"",""强她"",""弱她""]","","","","","","","","match","","","","","","","","","","key","f","16.689072072071752","654.3181676362175","404.9999912218616","f","true","match","img/diamond.png","好她","好她","ALT2","moral","","","","","","","",""
"null","<span style='color:GreenYellow; font-size: 70px;'>正确! </span>","null","html-keyboard-response","127","384362","0.0-8.0-0.0-4.0-0.0-1.9","5","4","5","4","5","5","2","3","4","5","5","0","0","-1","1","-1","0","0","1","5","4","5","4","3","3","2","3","4","3","4","3","3","6","5","4","6","6","7","4","6","5","4","5","2","5","4","3","4","2","3","4","3","4","5","2","5","4","3","3","4","6","6","5","4","5","4","7","5","7","3","6","6","3","6","6","5","5","2","742402460798423042","何","Female","[""好我"",""坏我"",""好她"",""坏她""]","[""强我"",""弱我"",""强她"",""弱她""]","","","","","","","","","","","","","","","","","","","","","","","","","","","","","","feedback_test","","","","","","","",""
"824","","f","psychophysics","128","386200","0.0-8.0-0.0-4.0-0.0-0.10","5","4","5","4","5","5","2","3","4","5","5","0","0","-1","1","-1","0","0","1","5","4","5","4","3","3","2","3","4","3","4","3","3","6","5","4","6","6","7","4","6","5","4","5","2","5","4","3","4","2","3","4","3","4","5","2","5","4","3","3","4","6","6","5","4","5","4","7","5","7","3","6","6","3","6","6","5","5","2","742402460798423042","何","Female","[""好我"",""坏我"",""好她"",""坏她""]","[""强我"",""弱我"",""强她"",""弱她""]","","","","","","","","match","","","","","","","","","","key","f","16.690633027522757","654.3181676362175","404.9999912218616","f","true","match","img/hexagon.png","坏她","坏她","ALT2","moral","","","","","","","",""
"null","<span style='color:GreenYellow; font-size: 70px;'>正确! </span>","null","html-keyboard-response","129","386707","0.0-8.0-0.0-4.0-0.0-1.10","5","4","5","4","5","5","2","3","4","5","5","0","0","-1","1","-1","0","0","1","5","4","5","4","3","3","2","3","4","3","4","3","3","6","5","4","6","6","7","4","6","5","4","5","2","5","4","3","4","2","3","4","3","4","5","2","5","4","3","3","4","6","6","5","4","5","4","7","5","7","3","6","6","3","6","6","5","5","2","742402460798423042","何","Female","[""好我"",""坏我"",""好她"",""坏她""]","[""强我"",""弱我"",""强她"",""弱她""]","","","","","","","","","","","","","","","","","","","","","","","","","","","","","","feedback_test","","","","","","","",""
"743","","j","psychophysics","130","388472","0.0-8.0-0.0-4.0-0.0-0.11","5","4","5","4","5","5","2","3","4","5","5","0","0","-1","1","-1","0","0","1","5","4","5","4","3","3","2","3","4","3","4","3","3","6","5","4","6","6","7","4","6","5","4","5","2","5","4","3","4","2","3","4","3","4","5","2","5","4","3","3","4","6","6","5","4","5","4","7","5","7","3","6","6","3","6","6","5","5","2","742402460798423042","何","Female","[""好我"",""坏我"",""好她"",""坏她""]","[""强我"",""弱我"",""强她"",""弱她""]","","","","","","","","nonmatch","","","","","","","","","","key","j","16.69258095238114","654.3181676362175","404.9999912218616","j","true","nonmatch","img/hexagon.png","坏我","坏她","ALT2","moral","","","","","","","",""
"null","<span style='color:GreenYellow; font-size: 70px;'>正确! </span>","null","html-keyboard-response","131","388988","0.0-8.0-0.0-4.0-0.0-1.11","5","4","5","4","5","5","2","3","4","5","5","0","0","-1","1","-1","0","0","1","5","4","5","4","3","3","2","3","4","3","4","3","3","6","5","4","6","6","7","4","6","5","4","5","2","5","4","3","4","2","3","4","3","4","5","2","5","4","3","3","4","6","6","5","4","5","4","7","5","7","3","6","6","3","6","6","5","5","2","742402460798423042","何","Female","[""好我"",""坏我"",""好她"",""坏她""]","[""强我"",""弱我"",""强她"",""弱她""]","","","","","","","","","","","","","","","","","","","","","","","","","","","","","","feedback_test","","","","","","","",""
"903","","j","psychophysics","132","390902","0.0-8.0-0.0-4.0-0.0-0.12","5","4","5","4","5","5","2","3","4","5","5","0","0","-1","1","-1","0","0","1","5","4","5","4","3","3","2","3","4","3","4","3","3","6","5","4","6","6","7","4","6","5","4","5","2","5","4","3","4","2","3","4","3","4","5","2","5","4","3","3","4","6","6","5","4","5","4","7","5","7","3","6","6","3","6","6","5","5","2","742402460798423042","何","Female","[""好我"",""坏我"",""好她"",""坏她""]","[""强我"",""弱我"",""强她"",""弱她""]","","","","","","","","nonmatch","","","","","","","","","","key","j","16.689535087718948","654.3181676362175","404.9999912218616","f","false","match","img/hexagon.png","坏她","坏她","ALT2","moral","","","","","","","",""
"null","<span style='color:red; font-size: 70px;'>错误! </span>","null","html-keyboard-response","133","391417","0.0-8.0-0.0-4.0-0.0-1.12","5","4","5","4","5","5","2","3","4","5","5","0","0","-1","1","-1","0","0","1","5","4","5","4","3","3","2","3","4","3","4","3","3","6","5","4","6","6","7","4","6","5","4","5","2","5","4","3","4","2","3","4","3","4","5","2","5","4","3","3","4","6","6","5","4","5","4","7","5","7","3","6","6","3","6","6","5","5","2","742402460798423042","何","Female","[""好我"",""坏我"",""好她"",""坏她""]","[""强我"",""弱我"",""强她"",""弱她""]","","","","","","","","","","","","","","","","","","","","","","","","","","","","","","feedback_test","","","","","","","",""
"1058","","f","psychophysics","134","393477","0.0-8.0-0.0-4.0-0.0-0.13","5","4","5","4","5","5","2","3","4","5","5","0","0","-1","1","-1","0","0","1","5","4","5","4","3","3","2","3","4","3","4","3","3","6","5","4","6","6","7","4","6","5","4","5","2","5","4","3","4","2","3","4","3","4","5","2","5","4","3","3","4","6","6","5","4","5","4","7","5","7","3","6","6","3","6","6","5","5","2","742402460798423042","何","Female","[""好我"",""坏我"",""好她"",""坏她""]","[""强我"",""弱我"",""强她"",""弱她""]","","","","","","","","match","","","","","","","","","","key","f","16.691385245901536","654.3181676362175","404.9999912218616","f","true","match","img/diamond.png","好她","好她","ALT2","moral","","","","","","","",""
"null","<span style='color:GreenYellow; font-size: 70px;'>正确! </span>","null","html-keyboard-response","135","393988","0.0-8.0-0.0-4.0-0.0-1.13","5","4","5","4","5","5","2","3","4","5","5","0","0","-1","1","-1","0","0","1","5","4","5","4","3","3","2","3","4","3","4","3","3","6","5","4","6","6","7","4","6","5","4","5","2","5","4","3","4","2","3","4","3","4","5","2","5","4","3","3","4","6","6","5","4","5","4","7","5","7","3","6","6","3","6","6","5","5","2","742402460798423042","何","Female","[""好我"",""坏我"",""好她"",""坏她""]","[""强我"",""弱我"",""强她"",""弱她""]","","","","","","","","","","","","","","","","","","","","","","","","","","","","","","feedback_test","","","","","","","",""
"599","","f","psychophysics","136","395588","0.0-8.0-0.0-4.0-0.0-0.14","5","4","5","4","5","5","2","3","4","5","5","0","0","-1","1","-1","0","0","1","5","4","5","4","3","3","2","3","4","3","4","3","3","6","5","4","6","6","7","4","6","5","4","5","2","5","4","3","4","2","3","4","3","4","5","2","5","4","3","3","4","6","6","5","4","5","4","7","5","7","3","6","6","3","6","6","5","5","2","742402460798423042","何","Female","[""好我"",""坏我"",""好她"",""坏她""]","[""强我"",""弱我"",""强她"",""弱她""]","","","","","","","","match","","","","","","","","","","key","f","16.686755319148862","654.3181676362175","404.9999912218616","j","false","nonmatch","img/circle.png","好她","好我","ALT2","moral","","","","","","","",""
"null","<span style='color:red; font-size: 70px;'>错误! </span>","null","html-keyboard-response","137","396094","0.0-8.0-0.0-4.0-0.0-1.14","5","4","5","4","5","5","2","3","4","5","5","0","0","-1","1","-1","0","0","1","5","4","5","4","3","3","2","3","4","3","4","3","3","6","5","4","6","6","7","4","6","5","4","5","2","5","4","3","4","2","3","4","3","4","5","2","5","4","3","3","4","6","6","5","4","5","4","7","5","7","3","6","6","3","6","6","5","5","2","742402460798423042","何","Female","[""好我"",""坏我"",""好她"",""坏她""]","[""强我"",""弱我"",""强她"",""弱她""]","","","","","","","","","","","","","","","","","","","","","","","","","","","","","","feedback_test","","","","","","","",""
"675","","f","psychophysics","138","397778","0.0-8.0-0.0-4.0-0.0-0.15","5","4","5","4","5","5","2","3","4","5","5","0","0","-1","1","-1","0","0","1","5","4","5","4","3","3","2","3","4","3","4","3","3","6","5","4","6","6","7","4","6","5","4","5","2","5","4","3","4","2","3","4","3","4","5","2","5","4","3","3","4","6","6","5","4","5","4","7","5","7","3","6","6","3","6","6","5","5","2","742402460798423042","何","Female","[""好我"",""坏我"",""好她"",""坏她""]","[""强我"",""弱我"",""强她"",""弱她""]","","","","","","","","match","","","","","","","","","","key","f","16.680650000000025","654.3181676362175","404.9999912218616","f","true","match","img/trapezoid.png","坏我","坏我","ALT2","moral","","","","","","","",""
