"rt","stimulus","response","trial_type","trial_index","time_elapsed","internal_node_id","swb_1","swb_2","swb_3","swb_4","swb_5","LOT_1","LOT_2","LOT_3","LOT_4","LOT_5","LOT_6","IPC_1","IPC_2","IPC_3","IPC_4","IPC_5","IPC_6","IPC_7","IPC_8","MorIden_1","MorIden_2","MorIden_3","MorIden_4","MorIden_5","MorIden_6","MorIden_7","MorIden_8","MorIden_9","MorIden_10","moralSeImag_1","moralSeImag_2","moralSeImag_3","moralSeImag_4","moralSeImag_5","moralSeImag_6","moralSeImag_7","moralSeImag_8","moralSeImag_9","sde_1","sde_2","sde_3","sde_4","sde_5","sde_6","sde_7","sde_8","sde_9","sde_10","sde_11","sde_12","sde_13","sde_14","sde_15","sde_16","sde_17","sde_18","sde_19","sde_20","IM_1","IM_2","IM_3","IM_4","IM_5","IM_6","IM_7","IM_8","IM_9","IM_10","IM_11","IM_12","IM_13","IM_14","IM_15","IM_16","IM_17","IM_18","IM_19","IM_20","subj_idx","friend_name","Sex","Word","Word2","value","success","timeout","failed_images","failed_audio","failed_video","user_agent","responses","item_order","radio_event_ids","radio_event_times","key_event_times","mouse_event_times","straightlining","zigzagging","honeypot","view_history","response_type","key_press","avg_frame_time","center_x","center_y","correct_response","correct","identity","Image","word","condition","task_id","screen_id","time_stamp","person","valence","domain","math","status","duration","question_order"
"2828","
   <p><div style='color:white; font-size: 25px'>您好，欢迎参加本次实验。</div></p>
   <p><div style='color:white; font-size: 25px'>为充分保障您的权利，请确保您已经知晓并同意《参与实验同意书》以及《数据公开知情同意书》。</div></p>
   <p><div style='color:white; font-size: 25px'>如果您未见过上述内容，请咨询实验员。</div></p>
   <p style='color:white; font-size: 25px'>如果您选择继续实验，则表示您已经清楚两份知情同意书的内容并同意。</p>
   <p> <div style = ""color: green""><按空格键至下页></div> </p>
   "," ","html-keyboard-response","0","2833","0.0-0.0","3","3","2","2","3","3","3","2","4","4","4","-1","0","-2","-1","-2","0","-1","0","3","3","4","4","2","2","3","4","4","3","6","7","6","6","4","3","5","5","6","5","3","3","5","4","4","6","4","3","3","5","5","5","3","2","5","5","5","6","3","3","5","3","3","3","6","3","5","5","6","6","6","7","3","3","5","2","5","5","4","5","张","Female","[""好我"",""坏她"",""好她"",""坏我""]","[""强我"",""弱她"",""强她"",""弱我""]","","","","","","","","","","","","","","","","","","","","","","","","","","","","","","","","","","","","","",""
"","","","call-function","1","2834","0.0-1.0-0.0","3","3","2","2","3","3","3","2","4","4","4","-1","0","-2","-1","-2","0","-1","0","3","3","4","4","2","2","3","4","4","3","6","7","6","6","4","3","5","5","6","5","3","3","5","4","4","6","4","3","3","5","5","5","3","2","5","5","5","6","3","3","5","3","3","3","6","3","5","5","6","6","6","7","3","3","5","2","5","5","4","5","张","Female","[""好我"",""坏她"",""好她"",""坏我""]","[""强我"",""弱她"",""强她"",""弱我""]","","","","","","","","","","","","","","","","","","","","","","","","","","","","","","","","","","","","","",""
"26606","","[{""name"":""Sex"",""value"":""1""},{""name"":""friend_name"",""value"":""张""},{""name"":""subj_idx"",""value"":""5""}]","survey-html-form","2","29440","0.0-1.0-1.0","3","3","2","2","3","3","3","2","4","4","4","-1","0","-2","-1","-2","0","-1","0","3","3","4","4","2","2","3","4","4","3","6","7","6","6","4","3","5","5","6","5","3","3","5","4","4","6","4","3","3","5","5","5","3","2","5","5","5","6","3","3","5","3","3","3","6","3","5","5","6","6","6","7","3","3","5","2","5","5","4","5","张","Female","[""好我"",""坏她"",""好她"",""坏我""]","[""强我"",""弱她"",""强她"",""弱我""]","","","","","","","","","","","","","","","","","","","","","","","","","","","","","","","","","","","","","",""
"","","","preload","3","29712","0.0-2.0","3","3","2","2","3","3","3","2","4","4","4","-1","0","-2","-1","-2","0","-1","0","3","3","4","4","2","2","3","4","4","3","6","7","6","6","4","3","5","5","6","5","3","3","5","4","4","6","4","3","3","5","5","5","3","2","5","5","5","6","3","3","5","3","3","3","6","3","5","5","6","6","6","7","3","3","5","2","5","5","4","5","张","Female","[""好我"",""坏她"",""好她"",""坏我""]","[""强我"",""弱她"",""强她"",""弱我""]","","true","false","[]","[]","[]","","","","","","","","","","","","","","","","","","","","","","","","","","","","","","","",""
"","","","fullscreen","4","62953","0.0-3.0","3","3","2","2","3","3","3","2","4","4","4","-1","0","-2","-1","-2","0","-1","0","3","3","4","4","2","2","3","4","4","3","6","7","6","6","4","3","5","5","6","5","3","3","5","4","4","6","4","3","3","5","5","5","3","2","5","5","5","6","3","3","5","3","3","3","6","3","5","5","6","6","6","7","3","3","5","2","5","5","4","5","张","Female","[""好我"",""坏她"",""好她"",""坏我""]","[""强我"",""弱她"",""强她"",""弱我""]","","true","","","","","{}","","","","","","","","","","","","","","","","","","","","","","","","","","","","","","",""
"22499.099999999977","","{""Q01"":""3"",""Q02"":""3"",""Q03"":""2"",""Q04"":""2"",""Q05"":""3""}","survey-template","5","85464","0.0-4.0","3","3","2","2","3","3","3","2","4","4","4","-1","0","-2","-1","-2","0","-1","0","3","3","4","4","2","2","3","4","4","3","6","7","6","6","4","3","5","5","6","5","3","3","5","4","4","6","4","3","3","5","5","5","3","2","5","5","5","6","3","3","5","3","3","3","6","3","5","5","6","6","6","7","3","3","5","2","5","5","4","5","张","Female","[""好我"",""坏她"",""好她"",""坏我""]","[""强我"",""弱她"",""强她"",""弱我""]","","","","","","","","{""Q01"":""3"",""Q02"":""3"",""Q03"":""2"",""Q04"":""2"",""Q05"":""3""}","[0,1,2,3,4]","[""Q01"",""Q02"",""Q03"",""Q04"",""Q05""]","[12234.599999999977,15008.599999999977,15945.299999999988,19597.599999999977,21172.099999999977]","[]","[12234.599999999977,15008.599999999977,15945.299999999988,19597.599999999977,21172.099999999977,22497.29999999999]","0.6","0.5","0","","","","","","","","","","","","","","","","","","","","","",""
"34850.79999999999","","{""Q01"":""3"",""Q02"":""3"",""Q03"":""2"",""Q04"":""4"",""Q05"":""4"",""Q06"":""4""}","survey-template","6","120324","0.0-5.0","3","3","2","2","3","3","3","2","4","4","4","-1","0","-2","-1","-2","0","-1","0","3","3","4","4","2","2","3","4","4","3","6","7","6","6","4","3","5","5","6","5","3","3","5","4","4","6","4","3","3","5","5","5","3","2","5","5","5","6","3","3","5","3","3","3","6","3","5","5","6","6","6","7","3","3","5","2","5","5","4","5","张","Female","[""好我"",""坏她"",""好她"",""坏我""]","[""强我"",""弱她"",""强她"",""弱我""]","","","","","","","","{""Q01"":""3"",""Q02"":""3"",""Q03"":""2"",""Q04"":""4"",""Q05"":""4"",""Q06"":""4""}","[0,1,2,3,4,5]","[""Q01"",""Q02"",""Q03"",""Q04"",""Q05"",""Q06""]","[13253.100000000035,18320.600000000035,21151.5,25049.79999999999,29749.600000000035,33926.100000000035]","[]","[13253.100000000035,18320.600000000035,21151.5,24022.70000000001,25049.79999999999,29749.600000000035,33926.100000000035,34849.5]","0.5","0.2","0","","","","","","","","","","","","","","","","","","","","","",""
"39758.600000000035","","{""Q01"":""-1"",""Q02"":""0"",""Q03"":""-2"",""Q04"":""-1"",""Q05"":""-2"",""Q06"":""0"",""Q07"":""-1"",""Q08"":""0""}","survey-template","7","160089","0.0-6.0","3","3","2","2","3","3","3","2","4","4","4","-1","0","-2","-1","-2","0","-1","0","3","3","4","4","2","2","3","4","4","3","6","7","6","6","4","3","5","5","6","5","3","3","5","4","4","6","4","3","3","5","5","5","3","2","5","5","5","6","3","3","5","3","3","3","6","3","5","5","6","6","6","7","3","3","5","2","5","5","4","5","张","Female","[""好我"",""坏她"",""好她"",""坏我""]","[""强我"",""弱她"",""强她"",""弱我""]","","","","","","","","{""Q01"":""-1"",""Q02"":""0"",""Q03"":""-2"",""Q04"":""-1"",""Q05"":""-2"",""Q06"":""0"",""Q07"":""-1"",""Q08"":""0""}","[0,1,2,3,4,5,6,7]","[""Q01"",""Q02"",""Q03"",""Q04"",""Q05"",""Q06"",""Q07"",""Q08""]","[4321,10854.200000000012,13848.700000000012,18223.400000000023,23984.400000000023,28208.70000000001,33403.70000000001,38376.80000000005]","[]","[4321,10854.200000000012,13848.700000000012,18223.400000000023,22909.600000000035,23984.400000000023,28208.70000000001,33403.70000000001,38376.80000000005,39757.70000000001]","0.375","0.7142857142857143","0","","","","","","","","","","","","","","","","","","","","","",""
"16934","","","instructions","8","177025","0.0-7.0","3","3","2","2","3","3","3","2","4","4","4","-1","0","-2","-1","-2","0","-1","0","3","3","4","4","2","2","3","4","4","3","6","7","6","6","4","3","5","5","6","5","3","3","5","4","4","6","4","3","3","5","5","5","3","2","5","5","5","6","3","3","5","3","3","3","6","3","5","5","6","6","6","7","3","3","5","2","5","5","4","5","张","Female","[""好我"",""坏她"",""好她"",""坏我""]","[""强我"",""弱她"",""强她"",""弱我""]","","","","","","","","","","","","","","","","","[{""page_index"":0,""viewing_time"":16933}]","","","","","","","","","","","","","","","","","","","","",""
"186746","","","instructions","9","363773","0.0-8.0-0.0-0.0","3","3","2","2","3","3","3","2","4","4","4","-1","0","-2","-1","-2","0","-1","0","3","3","4","4","2","2","3","4","4","3","6","7","6","6","4","3","5","5","6","5","3","3","5","4","4","6","4","3","3","5","5","5","3","2","5","5","5","6","3","3","5","3","3","3","6","3","5","5","6","6","6","7","3","3","5","2","5","5","4","5","张","Female","[""好我"",""坏她"",""好她"",""坏我""]","[""强我"",""弱她"",""强她"",""弱我""]","","","","","","","","","","","","","","","","","[{""page_index"":0,""viewing_time"":33728},{""page_index"":1,""viewing_time"":149406},{""page_index"":2,""viewing_time"":2311},{""page_index"":3,""viewing_time"":1301}]","","","","","","","","","","","","","","","","","","","","",""
"949","","f","psychophysics","10","365726","0.0-8.0-0.0-1.0-0.0-0.0","3","3","2","2","3","3","3","2","4","4","4","-1","0","-2","-1","-2","0","-1","0","3","3","4","4","2","2","3","4","4","3","6","7","6","6","4","3","5","5","6","5","3","3","5","4","4","6","4","3","3","5","5","5","3","2","5","5","5","6","3","3","5","3","3","3","6","3","5","5","6","6","6","7","3","3","5","2","5","5","4","5","张","Female","[""好我"",""坏她"",""好她"",""坏我""]","[""强我"",""弱她"",""强她"",""弱我""]","","","","","","","","nonmatch","","","","","","","","","","key","f","16.662939655172522","640","356","j","false","match","img/diamond.png","坏她","坏她","prac_ALT2_moral","practice_moral","","","","","","","",""
"null","<span style='color:red; font-size: 70px;'>错误! </span>","null","html-keyboard-response","11","366234","0.0-8.0-0.0-1.0-0.0-1.0","3","3","2","2","3","3","3","2","4","4","4","-1","0","-2","-1","-2","0","-1","0","3","3","4","4","2","2","3","4","4","3","6","7","6","6","4","3","5","5","6","5","3","3","5","4","4","6","4","3","3","5","5","5","3","2","5","5","5","6","3","3","5","3","3","3","6","3","5","5","6","6","6","7","3","3","5","2","5","5","4","5","张","Female","[""好我"",""坏她"",""好她"",""坏我""]","[""强我"",""弱她"",""强她"",""弱我""]","","","","","","","","","","","","","","","","","","","","","","","","","","","","","","feedback_test","","","","","","","",""
"850","","f","psychophysics","12","368087","0.0-8.0-0.0-1.0-0.0-0.1","3","3","2","2","3","3","3","2","4","4","4","-1","0","-2","-1","-2","0","-1","0","3","3","4","4","2","2","3","4","4","3","6","7","6","6","4","3","5","5","6","5","3","3","5","4","4","6","4","3","3","5","5","5","3","2","5","5","5","6","3","3","5","3","3","3","6","3","5","5","6","6","6","7","3","3","5","2","5","5","4","5","张","Female","[""好我"",""坏她"",""好她"",""坏我""]","[""强我"",""弱她"",""强她"",""弱我""]","","","","","","","","nonmatch","","","","","","","","","","key","f","16.667436363635883","640","356","f","true","nonmatch","img/pentagon.png","好她","好我","prac_ALT2_moral","practice_moral","","","","","","","",""
"null","<span style='color:GreenYellow; font-size: 70px;'>正确! </span>","null","html-keyboard-response","13","368588","0.0-8.0-0.0-1.0-0.0-1.1","3","3","2","2","3","3","3","2","4","4","4","-1","0","-2","-1","-2","0","-1","0","3","3","4","4","2","2","3","4","4","3","6","7","6","6","4","3","5","5","6","5","3","3","5","4","4","6","4","3","3","5","5","5","3","2","5","5","5","6","3","3","5","3","3","3","6","3","5","5","6","6","6","7","3","3","5","2","5","5","4","5","张","Female","[""好我"",""坏她"",""好她"",""坏我""]","[""强我"",""弱她"",""强她"",""弱我""]","","","","","","","","","","","","","","","","","","","","","","","","","","","","","","feedback_test","","","","","","","",""
"646","","j","psychophysics","14","370237","0.0-8.0-0.0-1.0-0.0-0.2","3","3","2","2","3","3","3","2","4","4","4","-1","0","-2","-1","-2","0","-1","0","3","3","4","4","2","2","3","4","4","3","6","7","6","6","4","3","5","5","6","5","3","3","5","4","4","6","4","3","3","5","5","5","3","2","5","5","5","6","3","3","5","3","3","3","6","3","5","5","6","6","6","7","3","3","5","2","5","5","4","5","张","Female","[""好我"",""坏她"",""好她"",""坏我""]","[""强我"",""弱她"",""强她"",""弱我""]","","","","","","","","match","","","","","","","","","","key","j","16.662683673469676","640","356","j","true","match","img/pentagon.png","好我","好我","prac_ALT2_moral","practice_moral","","","","","","","",""
"null","<span style='color:GreenYellow; font-size: 70px;'>正确! </span>","null","html-keyboard-response","15","370739","0.0-8.0-0.0-1.0-0.0-1.2","3","3","2","2","3","3","3","2","4","4","4","-1","0","-2","-1","-2","0","-1","0","3","3","4","4","2","2","3","4","4","3","6","7","6","6","4","3","5","5","6","5","3","3","5","4","4","6","4","3","3","5","5","5","3","2","5","5","5","6","3","3","5","3","3","3","6","3","5","5","6","6","6","7","3","3","5","2","5","5","4","5","张","Female","[""好我"",""坏她"",""好她"",""坏我""]","[""强我"",""弱她"",""强她"",""弱我""]","","","","","","","","","","","","","","","","","","","","","","","","","","","","","","feedback_test","","","","","","","",""
"755","","j","psychophysics","16","372498","0.0-8.0-0.0-1.0-0.0-0.3","3","3","2","2","3","3","3","2","4","4","4","-1","0","-2","-1","-2","0","-1","0","3","3","4","4","2","2","3","4","4","3","6","7","6","6","4","3","5","5","6","5","3","3","5","4","4","6","4","3","3","5","5","5","3","2","5","5","5","6","3","3","5","3","3","3","6","3","5","5","6","6","6","7","3","3","5","2","5","5","4","5","张","Female","[""好我"",""坏她"",""好她"",""坏我""]","[""强我"",""弱她"",""强她"",""弱我""]","","","","","","","","match","","","","","","","","","","key","j","16.66280000000039","640","356","j","true","match","img/circle.png","坏我","坏我","prac_ALT2_moral","practice_moral","","","","","","","",""
"null","<span style='color:GreenYellow; font-size: 70px;'>正确! </span>","null","html-keyboard-response","17","372999","0.0-8.0-0.0-1.0-0.0-1.3","3","3","2","2","3","3","3","2","4","4","4","-1","0","-2","-1","-2","0","-1","0","3","3","4","4","2","2","3","4","4","3","6","7","6","6","4","3","5","5","6","5","3","3","5","4","4","6","4","3","3","5","5","5","3","2","5","5","5","6","3","3","5","3","3","3","6","3","5","5","6","6","6","7","3","3","5","2","5","5","4","5","张","Female","[""好我"",""坏她"",""好她"",""坏我""]","[""强我"",""弱她"",""强她"",""弱我""]","","","","","","","","","","","","","","","","","","","","","","","","","","","","","","feedback_test","","","","","","","",""
"796","","f","psychophysics","18","374798","0.0-8.0-0.0-1.0-0.0-0.4","3","3","2","2","3","3","3","2","4","4","4","-1","0","-2","-1","-2","0","-1","0","3","3","4","4","2","2","3","4","4","3","6","7","6","6","4","3","5","5","6","5","3","3","5","4","4","6","4","3","3","5","5","5","3","2","5","5","5","6","3","3","5","3","3","3","6","3","5","5","6","6","6","7","3","3","5","2","5","5","4","5","张","Female","[""好我"",""坏她"",""好她"",""坏我""]","[""强我"",""弱她"",""强她"",""弱我""]","","","","","","","","nonmatch","","","","","","","","","","key","f","16.664766355139687","640","356","f","true","nonmatch","img/trapezoid.png","坏她","好她","prac_ALT2_moral","practice_moral","","","","","","","",""
"null","<span style='color:GreenYellow; font-size: 70px;'>正确! </span>","null","html-keyboard-response","19","375301","0.0-8.0-0.0-1.0-0.0-1.4","3","3","2","2","3","3","3","2","4","4","4","-1","0","-2","-1","-2","0","-1","0","3","3","4","4","2","2","3","4","4","3","6","7","6","6","4","3","5","5","6","5","3","3","5","4","4","6","4","3","3","5","5","5","3","2","5","5","5","6","3","3","5","3","3","3","6","3","5","5","6","6","6","7","3","3","5","2","5","5","4","5","张","Female","[""好我"",""坏她"",""好她"",""坏我""]","[""强我"",""弱她"",""强她"",""弱我""]","","","","","","","","","","","","","","","","","","","","","","","","","","","","","","feedback_test","","","","","","","",""
"1054","","f","psychophysics","20","377358","0.0-8.0-0.0-1.0-0.0-0.5","3","3","2","2","3","3","3","2","4","4","4","-1","0","-2","-1","-2","0","-1","0","3","3","4","4","2","2","3","4","4","3","6","7","6","6","4","3","5","5","6","5","3","3","5","4","4","6","4","3","3","5","5","5","3","2","5","5","5","6","3","3","5","3","3","3","6","3","5","5","6","6","6","7","3","3","5","2","5","5","4","5","张","Female","[""好我"",""坏她"",""好她"",""坏我""]","[""强我"",""弱她"",""强她"",""弱我""]","","","","","","","","nonmatch","","","","","","","","","","key","f","16.66255737704914","640","356","f","true","nonmatch","img/diamond.png","好她","坏她","prac_ALT2_moral","practice_moral","","","","","","","",""
"null","<span style='color:GreenYellow; font-size: 70px;'>正确! </span>","null","html-keyboard-response","21","377859","0.0-8.0-0.0-1.0-0.0-1.5","3","3","2","2","3","3","3","2","4","4","4","-1","0","-2","-1","-2","0","-1","0","3","3","4","4","2","2","3","4","4","3","6","7","6","6","4","3","5","5","6","5","3","3","5","4","4","6","4","3","3","5","5","5","3","2","5","5","5","6","3","3","5","3","3","3","6","3","5","5","6","6","6","7","3","3","5","2","5","5","4","5","张","Female","[""好我"",""坏她"",""好她"",""坏我""]","[""强我"",""弱她"",""强她"",""弱我""]","","","","","","","","","","","","","","","","","","","","","","","","","","","","","","feedback_test","","","","","","","",""
"928","","f","psychophysics","22","379794","0.0-8.0-0.0-1.0-0.0-0.6","3","3","2","2","3","3","3","2","4","4","4","-1","0","-2","-1","-2","0","-1","0","3","3","4","4","2","2","3","4","4","3","6","7","6","6","4","3","5","5","6","5","3","3","5","4","4","6","4","3","3","5","5","5","3","2","5","5","5","6","3","3","5","3","3","3","6","3","5","5","6","6","6","7","3","3","5","2","5","5","4","5","张","Female","[""好我"",""坏她"",""好她"",""坏我""]","[""强我"",""弱她"",""强她"",""弱我""]","","","","","","","","nonmatch","","","","","","","","","","key","f","16.66268421052659","640","356","f","true","nonmatch","img/trapezoid.png","坏我","好她","prac_ALT2_moral","practice_moral","","","","","","","",""
"null","<span style='color:GreenYellow; font-size: 70px;'>正确! </span>","null","html-keyboard-response","23","380298","0.0-8.0-0.0-1.0-0.0-1.6","3","3","2","2","3","3","3","2","4","4","4","-1","0","-2","-1","-2","0","-1","0","3","3","4","4","2","2","3","4","4","3","6","7","6","6","4","3","5","5","6","5","3","3","5","4","4","6","4","3","3","5","5","5","3","2","5","5","5","6","3","3","5","3","3","3","6","3","5","5","6","6","6","7","3","3","5","2","5","5","4","5","张","Female","[""好我"",""坏她"",""好她"",""坏我""]","[""强我"",""弱她"",""强她"",""弱我""]","","","","","","","","","","","","","","","","","","","","","","","","","","","","","","feedback_test","","","","","","","",""
"867","","f","psychophysics","24","382169","0.0-8.0-0.0-1.0-0.0-0.7","3","3","2","2","3","3","3","2","4","4","4","-1","0","-2","-1","-2","0","-1","0","3","3","4","4","2","2","3","4","4","3","6","7","6","6","4","3","5","5","6","5","3","3","5","4","4","6","4","3","3","5","5","5","3","2","5","5","5","6","3","3","5","3","3","3","6","3","5","5","6","6","6","7","3","3","5","2","5","5","4","5","张","Female","[""好我"",""坏她"",""好她"",""坏我""]","[""强我"",""弱她"",""强她"",""弱我""]","","","","","","","","nonmatch","","","","","","","","","","key","f","16.814563636363758","640","356","j","false","match","img/trapezoid.png","好她","好她","prac_ALT2_moral","practice_moral","","","","","","","",""
"null","<span style='color:red; font-size: 70px;'>错误! </span>","null","html-keyboard-response","25","382671","0.0-8.0-0.0-1.0-0.0-1.7","3","3","2","2","3","3","3","2","4","4","4","-1","0","-2","-1","-2","0","-1","0","3","3","4","4","2","2","3","4","4","3","6","7","6","6","4","3","5","5","6","5","3","3","5","4","4","6","4","3","3","5","5","5","3","2","5","5","5","6","3","3","5","3","3","3","6","3","5","5","6","6","6","7","3","3","5","2","5","5","4","5","张","Female","[""好我"",""坏她"",""好她"",""坏我""]","[""强我"",""弱她"",""强她"",""弱我""]","","","","","","","","","","","","","","","","","","","","","","","","","","","","","","feedback_test","","","","","","","",""
"982","","f","psychophysics","26","384656","0.0-8.0-0.0-1.0-0.0-0.8","3","3","2","2","3","3","3","2","4","4","4","-1","0","-2","-1","-2","0","-1","0","3","3","4","4","2","2","3","4","4","3","6","7","6","6","4","3","5","5","6","5","3","3","5","4","4","6","4","3","3","5","5","5","3","2","5","5","5","6","3","3","5","3","3","3","6","3","5","5","6","6","6","7","3","3","5","2","5","5","4","5","张","Female","[""好我"",""坏她"",""好她"",""坏我""]","[""强我"",""弱她"",""强她"",""弱我""]","","","","","","","","nonmatch","","","","","","","","","","key","f","16.662694915254516","640","356","f","true","nonmatch","img/circle.png","好我","坏我","prac_ALT2_moral","practice_moral","","","","","","","",""
"null","<span style='color:GreenYellow; font-size: 70px;'>正确! </span>","null","html-keyboard-response","27","385168","0.0-8.0-0.0-1.0-0.0-1.8","3","3","2","2","3","3","3","2","4","4","4","-1","0","-2","-1","-2","0","-1","0","3","3","4","4","2","2","3","4","4","3","6","7","6","6","4","3","5","5","6","5","3","3","5","4","4","6","4","3","3","5","5","5","3","2","5","5","5","6","3","3","5","3","3","3","6","3","5","5","6","6","6","7","3","3","5","2","5","5","4","5","张","Female","[""好我"",""坏她"",""好她"",""坏我""]","[""强我"",""弱她"",""强她"",""弱我""]","","","","","","","","","","","","","","","","","","","","","","","","","","","","","","feedback_test","","","","","","","",""
"1137","","f","psychophysics","28","387306","0.0-8.0-0.0-1.0-0.0-0.9","3","3","2","2","3","3","3","2","4","4","4","-1","0","-2","-1","-2","0","-1","0","3","3","4","4","2","2","3","4","4","3","6","7","6","6","4","3","5","5","6","5","3","3","5","4","4","6","4","3","3","5","5","5","3","2","5","5","5","6","3","3","5","3","3","3","6","3","5","5","6","6","6","7","3","3","5","2","5","5","4","5","张","Female","[""好我"",""坏她"",""好她"",""坏我""]","[""强我"",""弱她"",""强她"",""弱我""]","","","","","","","","nonmatch","","","","","","","","","","key","f","16.66274218749959","640","356","f","true","nonmatch","img/pentagon.png","坏我","好我","prac_ALT2_moral","practice_moral","","","","","","","",""
"null","<span style='color:GreenYellow; font-size: 70px;'>正确! </span>","null","html-keyboard-response","29","387810","0.0-8.0-0.0-1.0-0.0-1.9","3","3","2","2","3","3","3","2","4","4","4","-1","0","-2","-1","-2","0","-1","0","3","3","4","4","2","2","3","4","4","3","6","7","6","6","4","3","5","5","6","5","3","3","5","4","4","6","4","3","3","5","5","5","3","2","5","5","5","6","3","3","5","3","3","3","6","3","5","5","6","6","6","7","3","3","5","2","5","5","4","5","张","Female","[""好我"",""坏她"",""好她"",""坏我""]","[""强我"",""弱她"",""强她"",""弱我""]","","","","","","","","","","","","","","","","","","","","","","","","","","","","","","feedback_test","","","","","","","",""
"751","","j","psychophysics","30","389565","0.0-8.0-0.0-1.0-0.0-0.10","3","3","2","2","3","3","3","2","4","4","4","-1","0","-2","-1","-2","0","-1","0","3","3","4","4","2","2","3","4","4","3","6","7","6","6","4","3","5","5","6","5","3","3","5","4","4","6","4","3","3","5","5","5","3","2","5","5","5","6","3","3","5","3","3","3","6","3","5","5","6","6","6","7","3","3","5","2","5","5","4","5","张","Female","[""好我"",""坏她"",""好她"",""坏我""]","[""强我"",""弱她"",""强她"",""弱我""]","","","","","","","","match","","","","","","","","","","key","j","16.662711538461174","640","356","f","false","nonmatch","img/trapezoid.png","好我","好她","prac_ALT2_moral","practice_moral","","","","","","","",""
"null","<span style='color:red; font-size: 70px;'>错误! </span>","null","html-keyboard-response","31","390067","0.0-8.0-0.0-1.0-0.0-1.10","3","3","2","2","3","3","3","2","4","4","4","-1","0","-2","-1","-2","0","-1","0","3","3","4","4","2","2","3","4","4","3","6","7","6","6","4","3","5","5","6","5","3","3","5","4","4","6","4","3","3","5","5","5","3","2","5","5","5","6","3","3","5","3","3","3","6","3","5","5","6","6","6","7","3","3","5","2","5","5","4","5","张","Female","[""好我"",""坏她"",""好她"",""坏我""]","[""强我"",""弱她"",""强她"",""弱我""]","","","","","","","","","","","","","","","","","","","","","","","","","","","","","","feedback_test","","","","","","","",""
"1068","","f","psychophysics","32","392137","0.0-8.0-0.0-1.0-0.0-0.11","3","3","2","2","3","3","3","2","4","4","4","-1","0","-2","-1","-2","0","-1","0","3","3","4","4","2","2","3","4","4","3","6","7","6","6","4","3","5","5","6","5","3","3","5","4","4","6","4","3","3","5","5","5","3","2","5","5","5","6","3","3","5","3","3","3","6","3","5","5","6","6","6","7","3","3","5","2","5","5","4","5","张","Female","[""好我"",""坏她"",""好她"",""坏我""]","[""强我"",""弱她"",""强她"",""弱我""]","","","","","","","","nonmatch","","","","","","","","","","key","f","16.665252032520332","640","356","f","true","nonmatch","img/pentagon.png","坏她","好我","prac_ALT2_moral","practice_moral","","","","","","","",""
"null","<span style='color:GreenYellow; font-size: 70px;'>正确! </span>","null","html-keyboard-response","33","392639","0.0-8.0-0.0-1.0-0.0-1.11","3","3","2","2","3","3","3","2","4","4","4","-1","0","-2","-1","-2","0","-1","0","3","3","4","4","2","2","3","4","4","3","6","7","6","6","4","3","5","5","6","5","3","3","5","4","4","6","4","3","3","5","5","5","3","2","5","5","5","6","3","3","5","3","3","3","6","3","5","5","6","6","6","7","3","3","5","2","5","5","4","5","张","Female","[""好我"",""坏她"",""好她"",""坏我""]","[""强我"",""弱她"",""强她"",""弱我""]","","","","","","","","","","","","","","","","","","","","","","","","","","","","","","feedback_test","","","","","","","",""
"null","","null","psychophysics","34","394848","0.0-8.0-0.0-1.0-0.0-0.12","3","3","2","2","3","3","3","2","4","4","4","-1","0","-2","-1","-2","0","-1","0","3","3","4","4","2","2","3","4","4","3","6","7","6","6","4","3","5","5","6","5","3","3","5","4","4","6","4","3","3","5","5","5","3","2","5","5","5","6","3","3","5","3","3","3","6","3","5","5","6","6","6","7","3","3","5","2","5","5","4","5","张","Female","[""好我"",""坏她"",""好她"",""坏我""]","[""强我"",""弱她"",""强她"",""弱我""]","","","","","","","","null","","","","","","","","","","key","null","16.662793893129777","640","356","j","false","match","img/pentagon.png","好我","好我","prac_ALT2_moral","practice_moral","","","","","","","",""
"null","<span class='add_' style='color:yellow; font-size: 70px;'> 太慢! </span>","null","html-keyboard-response","35","395351","0.0-8.0-0.0-1.0-0.0-1.12","3","3","2","2","3","3","3","2","4","4","4","-1","0","-2","-1","-2","0","-1","0","3","3","4","4","2","2","3","4","4","3","6","7","6","6","4","3","5","5","6","5","3","3","5","4","4","6","4","3","3","5","5","5","3","2","5","5","5","6","3","3","5","3","3","3","6","3","5","5","6","6","6","7","3","3","5","2","5","5","4","5","张","Female","[""好我"",""坏她"",""好她"",""坏我""]","[""强我"",""弱她"",""强她"",""弱我""]","","","","","","","","","","","","","","","","","","","","","","","","","","","","","","feedback_test","","","","","","","",""
"611","","j","psychophysics","36","396964","0.0-8.0-0.0-1.0-0.0-0.13","3","3","2","2","3","3","3","2","4","4","4","-1","0","-2","-1","-2","0","-1","0","3","3","4","4","2","2","3","4","4","3","6","7","6","6","4","3","5","5","6","5","3","3","5","4","4","6","4","3","3","5","5","5","3","2","5","5","5","6","3","3","5","3","3","3","6","3","5","5","6","6","6","7","3","3","5","2","5","5","4","5","张","Female","[""好我"",""坏她"",""好她"",""坏我""]","[""强我"",""弱她"",""强她"",""弱我""]","","","","","","","","match","","","","","","","","","","key","j","16.662479166666646","640","356","j","true","match","img/circle.png","坏我","坏我","prac_ALT2_moral","practice_moral","","","","","","","",""
"null","<span style='color:GreenYellow; font-size: 70px;'>正确! </span>","null","html-keyboard-response","37","397466","0.0-8.0-0.0-1.0-0.0-1.13","3","3","2","2","3","3","3","2","4","4","4","-1","0","-2","-1","-2","0","-1","0","3","3","4","4","2","2","3","4","4","3","6","7","6","6","4","3","5","5","6","5","3","3","5","4","4","6","4","3","3","5","5","5","3","2","5","5","5","6","3","3","5","3","3","3","6","3","5","5","6","6","6","7","3","3","5","2","5","5","4","5","张","Female","[""好我"",""坏她"",""好她"",""坏我""]","[""强我"",""弱她"",""强她"",""弱我""]","","","","","","","","","","","","","","","","","","","","","","","","","","","","","","feedback_test","","","","","","","",""
"870","","j","psychophysics","38","399340","0.0-8.0-0.0-1.0-0.0-0.14","3","3","2","2","3","3","3","2","4","4","4","-1","0","-2","-1","-2","0","-1","0","3","3","4","4","2","2","3","4","4","3","6","7","6","6","4","3","5","5","6","5","3","3","5","4","4","6","4","3","3","5","5","5","3","2","5","5","5","6","3","3","5","3","3","3","6","3","5","5","6","6","6","7","3","3","5","2","5","5","4","5","张","Female","[""好我"",""坏她"",""好她"",""坏我""]","[""强我"",""弱她"",""强她"",""弱我""]","","","","","","","","match","","","","","","","","","","key","j","16.66251785714277","640","356","j","true","match","img/diamond.png","坏她","坏她","prac_ALT2_moral","practice_moral","","","","","","","",""
"null","<span style='color:GreenYellow; font-size: 70px;'>正确! </span>","null","html-keyboard-response","39","399841","0.0-8.0-0.0-1.0-0.0-1.14","3","3","2","2","3","3","3","2","4","4","4","-1","0","-2","-1","-2","0","-1","0","3","3","4","4","2","2","3","4","4","3","6","7","6","6","4","3","5","5","6","5","3","3","5","4","4","6","4","3","3","5","5","5","3","2","5","5","5","6","3","3","5","3","3","3","6","3","5","5","6","6","6","7","3","3","5","2","5","5","4","5","张","Female","[""好我"",""坏她"",""好她"",""坏我""]","[""强我"",""弱她"",""强她"",""弱我""]","","","","","","","","","","","","","","","","","","","","","","","","","","","","","","feedback_test","","","","","","","",""
"1002","","f","psychophysics","40","401845","0.0-8.0-0.0-1.0-0.0-0.15","3","3","2","2","3","3","3","2","4","4","4","-1","0","-2","-1","-2","0","-1","0","3","3","4","4","2","2","3","4","4","3","6","7","6","6","4","3","5","5","6","5","3","3","5","4","4","6","4","3","3","5","5","5","3","2","5","5","5","6","3","3","5","3","3","3","6","3","5","5","6","6","6","7","3","3","5","2","5","5","4","5","张","Female","[""好我"",""坏她"",""好她"",""坏我""]","[""强我"",""弱她"",""强她"",""弱我""]","","","","","","","","nonmatch","","","","","","","","","","key","f","16.662058823529197","640","356","f","true","nonmatch","img/diamond.png","坏我","坏她","prac_ALT2_moral","practice_moral","","","","","","","",""
"null","<span style='color:GreenYellow; font-size: 70px;'>正确! </span>","null","html-keyboard-response","41","402348","0.0-8.0-0.0-1.0-0.0-1.15","3","3","2","2","3","3","3","2","4","4","4","-1","0","-2","-1","-2","0","-1","0","3","3","4","4","2","2","3","4","4","3","6","7","6","6","4","3","5","5","6","5","3","3","5","4","4","6","4","3","3","5","5","5","3","2","5","5","5","6","3","3","5","3","3","3","6","3","5","5","6","6","6","7","3","3","5","2","5","5","4","5","张","Female","[""好我"",""坏她"",""好她"",""坏我""]","[""强我"",""弱她"",""强她"",""弱我""]","","","","","","","","","","","","","","","","","","","","","","","","","","","","","","feedback_test","","","","","","","",""
"829","","f","psychophysics","42","404178","0.0-8.0-0.0-1.0-0.0-0.16","3","3","2","2","3","3","3","2","4","4","4","-1","0","-2","-1","-2","0","-1","0","3","3","4","4","2","2","3","4","4","3","6","7","6","6","4","3","5","5","6","5","3","3","5","4","4","6","4","3","3","5","5","5","3","2","5","5","5","6","3","3","5","3","3","3","6","3","5","5","6","6","6","7","3","3","5","2","5","5","4","5","张","Female","[""好我"",""坏她"",""好她"",""坏我""]","[""强我"",""弱她"",""强她"",""弱我""]","","","","","","","","nonmatch","","","","","","","","","","key","f","16.66300917431176","640","356","j","false","match","img/trapezoid.png","好她","好她","prac_ALT2_moral","practice_moral","","","","","","","",""
"null","<span style='color:red; font-size: 70px;'>错误! </span>","null","html-keyboard-response","43","404681","0.0-8.0-0.0-1.0-0.0-1.16","3","3","2","2","3","3","3","2","4","4","4","-1","0","-2","-1","-2","0","-1","0","3","3","4","4","2","2","3","4","4","3","6","7","6","6","4","3","5","5","6","5","3","3","5","4","4","6","4","3","3","5","5","5","3","2","5","5","5","6","3","3","5","3","3","3","6","3","5","5","6","6","6","7","3","3","5","2","5","5","4","5","张","Female","[""好我"",""坏她"",""好她"",""坏我""]","[""强我"",""弱她"",""强她"",""弱我""]","","","","","","","","","","","","","","","","","","","","","","","","","","","","","","feedback_test","","","","","","","",""
"762","","j","psychophysics","44","406445","0.0-8.0-0.0-1.0-0.0-0.17","3","3","2","2","3","3","3","2","4","4","4","-1","0","-2","-1","-2","0","-1","0","3","3","4","4","2","2","3","4","4","3","6","7","6","6","4","3","5","5","6","5","3","3","5","4","4","6","4","3","3","5","5","5","3","2","5","5","5","6","3","3","5","3","3","3","6","3","5","5","6","6","6","7","3","3","5","2","5","5","4","5","张","Female","[""好我"",""坏她"",""好她"",""坏我""]","[""强我"",""弱她"",""强她"",""弱我""]","","","","","","","","match","","","","","","","","","","key","j","16.662542857142675","640","356","f","false","nonmatch","img/diamond.png","好我","坏她","prac_ALT2_moral","practice_moral","","","","","","","",""
"null","<span style='color:red; font-size: 70px;'>错误! </span>","null","html-keyboard-response","45","406947","0.0-8.0-0.0-1.0-0.0-1.17","3","3","2","2","3","3","3","2","4","4","4","-1","0","-2","-1","-2","0","-1","0","3","3","4","4","2","2","3","4","4","3","6","7","6","6","4","3","5","5","6","5","3","3","5","4","4","6","4","3","3","5","5","5","3","2","5","5","5","6","3","3","5","3","3","3","6","3","5","5","6","6","6","7","3","3","5","2","5","5","4","5","张","Female","[""好我"",""坏她"",""好她"",""坏我""]","[""强我"",""弱她"",""强她"",""弱我""]","","","","","","","","","","","","","","","","","","","","","","","","","","","","","","feedback_test","","","","","","","",""
"738","","f","psychophysics","46","408687","0.0-8.0-0.0-1.0-0.0-0.18","3","3","2","2","3","3","3","2","4","4","4","-1","0","-2","-1","-2","0","-1","0","3","3","4","4","2","2","3","4","4","3","6","7","6","6","4","3","5","5","6","5","3","3","5","4","4","6","4","3","3","5","5","5","3","2","5","5","5","6","3","3","5","3","3","3","6","3","5","5","6","6","6","7","3","3","5","2","5","5","4","5","张","Female","[""好我"",""坏她"",""好她"",""坏我""]","[""强我"",""弱她"",""强她"",""弱我""]","","","","","","","","nonmatch","","","","","","","","","","key","f","16.66078640776743","640","356","j","false","match","img/trapezoid.png","好她","好她","prac_ALT2_moral","practice_moral","","","","","","","",""
"null","<span style='color:red; font-size: 70px;'>错误! </span>","null","html-keyboard-response","47","409189","0.0-8.0-0.0-1.0-0.0-1.18","3","3","2","2","3","3","3","2","4","4","4","-1","0","-2","-1","-2","0","-1","0","3","3","4","4","2","2","3","4","4","3","6","7","6","6","4","3","5","5","6","5","3","3","5","4","4","6","4","3","3","5","5","5","3","2","5","5","5","6","3","3","5","3","3","3","6","3","5","5","6","6","6","7","3","3","5","2","5","5","4","5","张","Female","[""好我"",""坏她"",""好她"",""坏我""]","[""强我"",""弱她"",""强她"",""弱我""]","","","","","","","","","","","","","","","","","","","","","","","","","","","","","","feedback_test","","","","","","","",""
"853","","f","psychophysics","48","411045","0.0-8.0-0.0-1.0-0.0-0.19","3","3","2","2","3","3","3","2","4","4","4","-1","0","-2","-1","-2","0","-1","0","3","3","4","4","2","2","3","4","4","3","6","7","6","6","4","3","5","5","6","5","3","3","5","4","4","6","4","3","3","5","5","5","3","2","5","5","5","6","3","3","5","3","3","3","6","3","5","5","6","6","6","7","3","3","5","2","5","5","4","5","张","Female","[""好我"",""坏她"",""好她"",""坏我""]","[""强我"",""弱她"",""强她"",""弱我""]","","","","","","","","nonmatch","","","","","","","","","","key","f","16.66277272727245","640","356","f","true","nonmatch","img/circle.png","坏她","坏我","prac_ALT2_moral","practice_moral","","","","","","","",""
"null","<span style='color:GreenYellow; font-size: 70px;'>正确! </span>","null","html-keyboard-response","49","411547","0.0-8.0-0.0-1.0-0.0-1.19","3","3","2","2","3","3","3","2","4","4","4","-1","0","-2","-1","-2","0","-1","0","3","3","4","4","2","2","3","4","4","3","6","7","6","6","4","3","5","5","6","5","3","3","5","4","4","6","4","3","3","5","5","5","3","2","5","5","5","6","3","3","5","3","3","3","6","3","5","5","6","6","6","7","3","3","5","2","5","5","4","5","张","Female","[""好我"",""坏她"",""好她"",""坏我""]","[""强我"",""弱她"",""强她"",""弱我""]","","","","","","","","","","","","","","","","","","","","","","","","","","","","","","feedback_test","","","","","","","",""
"564","","j","psychophysics","50","413112","0.0-8.0-0.0-1.0-0.0-0.20","3","3","2","2","3","3","3","2","4","4","4","-1","0","-2","-1","-2","0","-1","0","3","3","4","4","2","2","3","4","4","3","6","7","6","6","4","3","5","5","6","5","3","3","5","4","4","6","4","3","3","5","5","5","3","2","5","5","5","6","3","3","5","3","3","3","6","3","5","5","6","6","6","7","3","3","5","2","5","5","4","5","张","Female","[""好我"",""坏她"",""好她"",""坏我""]","[""强我"",""弱她"",""强她"",""弱我""]","","","","","","","","match","","","","","","","","","","key","j","16.662537634409013","640","356","j","true","match","img/circle.png","坏我","坏我","prac_ALT2_moral","practice_moral","","","","","","","",""
"null","<span style='color:GreenYellow; font-size: 70px;'>正确! </span>","null","html-keyboard-response","51","413614","0.0-8.0-0.0-1.0-0.0-1.20","3","3","2","2","3","3","3","2","4","4","4","-1","0","-2","-1","-2","0","-1","0","3","3","4","4","2","2","3","4","4","3","6","7","6","6","4","3","5","5","6","5","3","3","5","4","4","6","4","3","3","5","5","5","3","2","5","5","5","6","3","3","5","3","3","3","6","3","5","5","6","6","6","7","3","3","5","2","5","5","4","5","张","Female","[""好我"",""坏她"",""好她"",""坏我""]","[""强我"",""弱她"",""强她"",""弱我""]","","","","","","","","","","","","","","","","","","","","","","","","","","","","","","feedback_test","","","","","","","",""
"714","","f","psychophysics","52","415330","0.0-8.0-0.0-1.0-0.0-0.21","3","3","2","2","3","3","3","2","4","4","4","-1","0","-2","-1","-2","0","-1","0","3","3","4","4","2","2","3","4","4","3","6","7","6","6","4","3","5","5","6","5","3","3","5","4","4","6","4","3","3","5","5","5","3","2","5","5","5","6","3","3","5","3","3","3","6","3","5","5","6","6","6","7","3","3","5","2","5","5","4","5","张","Female","[""好我"",""坏她"",""好她"",""坏我""]","[""强我"",""弱她"",""强她"",""弱我""]","","","","","","","","nonmatch","","","","","","","","","","key","f","16.662603960396137","640","356","j","false","match","img/pentagon.png","好我","好我","prac_ALT2_moral","practice_moral","","","","","","","",""
"null","<span style='color:red; font-size: 70px;'>错误! </span>","null","html-keyboard-response","53","415834","0.0-8.0-0.0-1.0-0.0-1.21","3","3","2","2","3","3","3","2","4","4","4","-1","0","-2","-1","-2","0","-1","0","3","3","4","4","2","2","3","4","4","3","6","7","6","6","4","3","5","5","6","5","3","3","5","4","4","6","4","3","3","5","5","5","3","2","5","5","5","6","3","3","5","3","3","3","6","3","5","5","6","6","6","7","3","3","5","2","5","5","4","5","张","Female","[""好我"",""坏她"",""好她"",""坏我""]","[""强我"",""弱她"",""强她"",""弱我""]","","","","","","","","","","","","","","","","","","","","","","","","","","","","","","feedback_test","","","","","","","",""
"977","","j","psychophysics","54","417812","0.0-8.0-0.0-1.0-0.0-0.22","3","3","2","2","3","3","3","2","4","4","4","-1","0","-2","-1","-2","0","-1","0","3","3","4","4","2","2","3","4","4","3","6","7","6","6","4","3","5","5","6","5","3","3","5","4","4","6","4","3","3","5","5","5","3","2","5","5","5","6","3","3","5","3","3","3","6","3","5","5","6","6","6","7","3","3","5","2","5","5","4","5","张","Female","[""好我"",""坏她"",""好她"",""坏我""]","[""强我"",""弱她"",""强她"",""弱我""]","","","","","","","","match","","","","","","","","","","key","j","16.66311111111138","640","356","j","true","match","img/diamond.png","坏她","坏她","prac_ALT2_moral","practice_moral","","","","","","","",""
"null","<span style='color:GreenYellow; font-size: 70px;'>正确! </span>","null","html-keyboard-response","55","418315","0.0-8.0-0.0-1.0-0.0-1.22","3","3","2","2","3","3","3","2","4","4","4","-1","0","-2","-1","-2","0","-1","0","3","3","4","4","2","2","3","4","4","3","6","7","6","6","4","3","5","5","6","5","3","3","5","4","4","6","4","3","3","5","5","5","3","2","5","5","5","6","3","3","5","3","3","3","6","3","5","5","6","6","6","7","3","3","5","2","5","5","4","5","张","Female","[""好我"",""坏她"",""好她"",""坏我""]","[""强我"",""弱她"",""强她"",""弱我""]","","","","","","","","","","","","","","","","","","","","","","","","","","","","","","feedback_test","","","","","","","",""
"817","","f","psychophysics","56","420135","0.0-8.0-0.0-1.0-0.0-0.23","3","3","2","2","3","3","3","2","4","4","4","-1","0","-2","-1","-2","0","-1","0","3","3","4","4","2","2","3","4","4","3","6","7","6","6","4","3","5","5","6","5","3","3","5","4","4","6","4","3","3","5","5","5","3","2","5","5","5","6","3","3","5","3","3","3","6","3","5","5","6","6","6","7","3","3","5","2","5","5","4","5","张","Female","[""好我"",""坏她"",""好她"",""坏我""]","[""强我"",""弱她"",""强她"",""弱我""]","","","","","","","","nonmatch","","","","","","","","","","key","f","16.66263551401871","640","356","f","true","nonmatch","img/circle.png","好她","坏我","prac_ALT2_moral","practice_moral","","","","","","","",""
"null","<span style='color:GreenYellow; font-size: 70px;'>正确! </span>","null","html-keyboard-response","57","420637","0.0-8.0-0.0-1.0-0.0-1.23","3","3","2","2","3","3","3","2","4","4","4","-1","0","-2","-1","-2","0","-1","0","3","3","4","4","2","2","3","4","4","3","6","7","6","6","4","3","5","5","6","5","3","3","5","4","4","6","4","3","3","5","5","5","3","2","5","5","5","6","3","3","5","3","3","3","6","3","5","5","6","6","6","7","3","3","5","2","5","5","4","5","张","Female","[""好我"",""坏她"",""好她"",""坏我""]","[""强我"",""弱她"",""强她"",""弱我""]","","","","","","","","","","","","","","","","","","","","","","","","","","","","","","feedback_test","","","","","","","",""
"1059","","f","psychophysics","58","422699","0.0-8.0-0.0-1.0-0.0-0.24","3","3","2","2","3","3","3","2","4","4","4","-1","0","-2","-1","-2","0","-1","0","3","3","4","4","2","2","3","4","4","3","6","7","6","6","4","3","5","5","6","5","3","3","5","4","4","6","4","3","3","5","5","5","3","2","5","5","5","6","3","3","5","3","3","3","6","3","5","5","6","6","6","7","3","3","5","2","5","5","4","5","张","Female","[""好我"",""坏她"",""好她"",""坏我""]","[""强我"",""弱她"",""强她"",""弱我""]","","","","","","","","nonmatch","","","","","","","","","","key","f","16.66265040650449","640","356","j","false","match","img/trapezoid.png","好她","好她","prac_ALT2_moral","practice_moral","","","","","","","",""
"null","<span style='color:red; font-size: 70px;'>错误! </span>","null","html-keyboard-response","59","423204","0.0-8.0-0.0-1.0-0.0-1.24","3","3","2","2","3","3","3","2","4","4","4","-1","0","-2","-1","-2","0","-1","0","3","3","4","4","2","2","3","4","4","3","6","7","6","6","4","3","5","5","6","5","3","3","5","4","4","6","4","3","3","5","5","5","3","2","5","5","5","6","3","3","5","3","3","3","6","3","5","5","6","6","6","7","3","3","5","2","5","5","4","5","张","Female","[""好我"",""坏她"",""好她"",""坏我""]","[""强我"",""弱她"",""强她"",""弱我""]","","","","","","","","","","","","","","","","","","","","","","","","","","","","","","feedback_test","","","","","","","",""
"614","","j","psychophysics","60","424821","0.0-8.0-0.0-1.0-0.0-0.25","3","3","2","2","3","3","3","2","4","4","4","-1","0","-2","-1","-2","0","-1","0","3","3","4","4","2","2","3","4","4","3","6","7","6","6","4","3","5","5","6","5","3","3","5","4","4","6","4","3","3","5","5","5","3","2","5","5","5","6","3","3","5","3","3","3","6","3","5","5","6","6","6","7","3","3","5","2","5","5","4","5","张","Female","[""好我"",""坏她"",""好她"",""坏我""]","[""强我"",""弱她"",""强她"",""弱我""]","","","","","","","","match","","","","","","","","","","key","j","16.659072916666748","640","356","j","true","match","img/circle.png","坏我","坏我","prac_ALT2_moral","practice_moral","","","","","","","",""
"null","<span style='color:GreenYellow; font-size: 70px;'>正确! </span>","null","html-keyboard-response","61","425323","0.0-8.0-0.0-1.0-0.0-1.25","3","3","2","2","3","3","3","2","4","4","4","-1","0","-2","-1","-2","0","-1","0","3","3","4","4","2","2","3","4","4","3","6","7","6","6","4","3","5","5","6","5","3","3","5","4","4","6","4","3","3","5","5","5","3","2","5","5","5","6","3","3","5","3","3","3","6","3","5","5","6","6","6","7","3","3","5","2","5","5","4","5","张","Female","[""好我"",""坏她"",""好她"",""坏我""]","[""强我"",""弱她"",""强她"",""弱我""]","","","","","","","","","","","","","","","","","","","","","","","","","","","","","","feedback_test","","","","","","","",""
"730","","f","psychophysics","62","427057","0.0-8.0-0.0-1.0-0.0-0.26","3","3","2","2","3","3","3","2","4","4","4","-1","0","-2","-1","-2","0","-1","0","3","3","4","4","2","2","3","4","4","3","6","7","6","6","4","3","5","5","6","5","3","3","5","4","4","6","4","3","3","5","5","5","3","2","5","5","5","6","3","3","5","3","3","3","6","3","5","5","6","6","6","7","3","3","5","2","5","5","4","5","张","Female","[""好我"",""坏她"",""好她"",""坏我""]","[""强我"",""弱她"",""强她"",""弱我""]","","","","","","","","nonmatch","","","","","","","","","","key","f","16.66338834951426","640","356","j","false","match","img/pentagon.png","好我","好我","prac_ALT2_moral","practice_moral","","","","","","","",""
"null","<span style='color:red; font-size: 70px;'>错误! </span>","null","html-keyboard-response","63","427562","0.0-8.0-0.0-1.0-0.0-1.26","3","3","2","2","3","3","3","2","4","4","4","-1","0","-2","-1","-2","0","-1","0","3","3","4","4","2","2","3","4","4","3","6","7","6","6","4","3","5","5","6","5","3","3","5","4","4","6","4","3","3","5","5","5","3","2","5","5","5","6","3","3","5","3","3","3","6","3","5","5","6","6","6","7","3","3","5","2","5","5","4","5","张","Female","[""好我"",""坏她"",""好她"",""坏我""]","[""强我"",""弱她"",""强她"",""弱我""]","","","","","","","","","","","","","","","","","","","","","","","","","","","","","","feedback_test","","","","","","","",""
"803","","j","psychophysics","64","429367","0.0-8.0-0.0-1.0-0.0-0.27","3","3","2","2","3","3","3","2","4","4","4","-1","0","-2","-1","-2","0","-1","0","3","3","4","4","2","2","3","4","4","3","6","7","6","6","4","3","5","5","6","5","3","3","5","4","4","6","4","3","3","5","5","5","3","2","5","5","5","6","3","3","5","3","3","3","6","3","5","5","6","6","6","7","3","3","5","2","5","5","4","5","张","Female","[""好我"",""坏她"",""好她"",""坏我""]","[""强我"",""弱她"",""强她"",""弱我""]","","","","","","","","match","","","","","","","","","","key","j","16.66239252336493","640","356","j","true","match","img/diamond.png","坏她","坏她","prac_ALT2_moral","practice_moral","","","","","","","",""
"null","<span style='color:GreenYellow; font-size: 70px;'>正确! </span>","null","html-keyboard-response","65","429870","0.0-8.0-0.0-1.0-0.0-1.27","3","3","2","2","3","3","3","2","4","4","4","-1","0","-2","-1","-2","0","-1","0","3","3","4","4","2","2","3","4","4","3","6","7","6","6","4","3","5","5","6","5","3","3","5","4","4","6","4","3","3","5","5","5","3","2","5","5","5","6","3","3","5","3","3","3","6","3","5","5","6","6","6","7","3","3","5","2","5","5","4","5","张","Female","[""好我"",""坏她"",""好她"",""坏我""]","[""强我"",""弱她"",""强她"",""弱我""]","","","","","","","","","","","","","","","","","","","","","","","","","","","","","","feedback_test","","","","","","","",""
"925","","j","psychophysics","66","431799","0.0-8.0-0.0-1.0-0.0-0.28","3","3","2","2","3","3","3","2","4","4","4","-1","0","-2","-1","-2","0","-1","0","3","3","4","4","2","2","3","4","4","3","6","7","6","6","4","3","5","5","6","5","3","3","5","4","4","6","4","3","3","5","5","5","3","2","5","5","5","6","3","3","5","3","3","3","6","3","5","5","6","6","6","7","3","3","5","2","5","5","4","5","张","Female","[""好我"",""坏她"",""好她"",""坏我""]","[""强我"",""弱她"",""强她"",""弱我""]","","","","","","","","match","","","","","","","","","","key","j","16.663469565217383","640","356","j","true","match","img/pentagon.png","好我","好我","prac_ALT2_moral","practice_moral","","","","","","","",""
"null","<span style='color:GreenYellow; font-size: 70px;'>正确! </span>","null","html-keyboard-response","67","432302","0.0-8.0-0.0-1.0-0.0-1.28","3","3","2","2","3","3","3","2","4","4","4","-1","0","-2","-1","-2","0","-1","0","3","3","4","4","2","2","3","4","4","3","6","7","6","6","4","3","5","5","6","5","3","3","5","4","4","6","4","3","3","5","5","5","3","2","5","5","5","6","3","3","5","3","3","3","6","3","5","5","6","6","6","7","3","3","5","2","5","5","4","5","张","Female","[""好我"",""坏她"",""好她"",""坏我""]","[""强我"",""弱她"",""强她"",""弱我""]","","","","","","","","","","","","","","","","","","","","","","","","","","","","","","feedback_test","","","","","","","",""
"836","","f","psychophysics","68","434141","0.0-8.0-0.0-1.0-0.0-0.29","3","3","2","2","3","3","3","2","4","4","4","-1","0","-2","-1","-2","0","-1","0","3","3","4","4","2","2","3","4","4","3","6","7","6","6","4","3","5","5","6","5","3","3","5","4","4","6","4","3","3","5","5","5","3","2","5","5","5","6","3","3","5","3","3","3","6","3","5","5","6","6","6","7","3","3","5","2","5","5","4","5","张","Female","[""好我"",""坏她"",""好她"",""坏我""]","[""强我"",""弱她"",""强她"",""弱我""]","","","","","","","","nonmatch","","","","","","","","","","key","f","16.665880733945006","640","356","f","true","nonmatch","img/diamond.png","好她","坏她","prac_ALT2_moral","practice_moral","","","","","","","",""
"null","<span style='color:GreenYellow; font-size: 70px;'>正确! </span>","null","html-keyboard-response","69","434649","0.0-8.0-0.0-1.0-0.0-1.29","3","3","2","2","3","3","3","2","4","4","4","-1","0","-2","-1","-2","0","-1","0","3","3","4","4","2","2","3","4","4","3","6","7","6","6","4","3","5","5","6","5","3","3","5","4","4","6","4","3","3","5","5","5","3","2","5","5","5","6","3","3","5","3","3","3","6","3","5","5","6","6","6","7","3","3","5","2","5","5","4","5","张","Female","[""好我"",""坏她"",""好她"",""坏我""]","[""强我"",""弱她"",""强她"",""弱我""]","","","","","","","","","","","","","","","","","","","","","","","","","","","","","","feedback_test","","","","","","","",""
"551","","j","psychophysics","70","436206","0.0-8.0-0.0-1.0-0.0-0.30","3","3","2","2","3","3","3","2","4","4","4","-1","0","-2","-1","-2","0","-1","0","3","3","4","4","2","2","3","4","4","3","6","7","6","6","4","3","5","5","6","5","3","3","5","4","4","6","4","3","3","5","5","5","3","2","5","5","5","6","3","3","5","3","3","3","6","3","5","5","6","6","6","7","3","3","5","2","5","5","4","5","张","Female","[""好我"",""坏她"",""好她"",""坏我""]","[""强我"",""弱她"",""强她"",""弱我""]","","","","","","","","match","","","","","","","","","","key","j","16.666152173913282","640","356","f","false","nonmatch","img/circle.png","坏她","坏我","prac_ALT2_moral","practice_moral","","","","","","","",""
"null","<span style='color:red; font-size: 70px;'>错误! </span>","null","html-keyboard-response","71","436708","0.0-8.0-0.0-1.0-0.0-1.30","3","3","2","2","3","3","3","2","4","4","4","-1","0","-2","-1","-2","0","-1","0","3","3","4","4","2","2","3","4","4","3","6","7","6","6","4","3","5","5","6","5","3","3","5","4","4","6","4","3","3","5","5","5","3","2","5","5","5","6","3","3","5","3","3","3","6","3","5","5","6","6","6","7","3","3","5","2","5","5","4","5","张","Female","[""好我"",""坏她"",""好她"",""坏我""]","[""强我"",""弱她"",""强她"",""弱我""]","","","","","","","","","","","","","","","","","","","","","","","","","","","","","","feedback_test","","","","","","","",""
"null","","null","psychophysics","72","438915","0.0-8.0-0.0-1.0-0.0-0.31","3","3","2","2","3","3","3","2","4","4","4","-1","0","-2","-1","-2","0","-1","0","3","3","4","4","2","2","3","4","4","3","6","7","6","6","4","3","5","5","6","5","3","3","5","4","4","6","4","3","3","5","5","5","3","2","5","5","5","6","3","3","5","3","3","3","6","3","5","5","6","6","6","7","3","3","5","2","5","5","4","5","张","Female","[""好我"",""坏她"",""好她"",""坏我""]","[""强我"",""弱她"",""强她"",""弱我""]","","","","","","","","null","","","","","","","","","","key","null","16.663553030302864","640","356","f","false","nonmatch","img/pentagon.png","坏我","好我","prac_ALT2_moral","practice_moral","","","","","","","",""
"null","<span class='add_' style='color:yellow; font-size: 70px;'> 太慢! </span>","null","html-keyboard-response","73","439418","0.0-8.0-0.0-1.0-0.0-1.31","3","3","2","2","3","3","3","2","4","4","4","-1","0","-2","-1","-2","0","-1","0","3","3","4","4","2","2","3","4","4","3","6","7","6","6","4","3","5","5","6","5","3","3","5","4","4","6","4","3","3","5","5","5","3","2","5","5","5","6","3","3","5","3","3","3","6","3","5","5","6","6","6","7","3","3","5","2","5","5","4","5","张","Female","[""好我"",""坏她"",""好她"",""坏我""]","[""强我"",""弱她"",""强她"",""弱我""]","","","","","","","","","","","","","","","","","","","","","","","","","","","","","","feedback_test","","","","","","","",""
"637","","j","psychophysics","74","441059","0.0-8.0-0.0-1.0-0.0-0.32","3","3","2","2","3","3","3","2","4","4","4","-1","0","-2","-1","-2","0","-1","0","3","3","4","4","2","2","3","4","4","3","6","7","6","6","4","3","5","5","6","5","3","3","5","4","4","6","4","3","3","5","5","5","3","2","5","5","5","6","3","3","5","3","3","3","6","3","5","5","6","6","6","7","3","3","5","2","5","5","4","5","张","Female","[""好我"",""坏她"",""好她"",""坏我""]","[""强我"",""弱她"",""强她"",""弱我""]","","","","","","","","match","","","","","","","","","","key","j","16.661742268040772","640","356","f","false","nonmatch","img/diamond.png","好我","坏她","prac_ALT2_moral","practice_moral","","","","","","","",""
"null","<span style='color:red; font-size: 70px;'>错误! </span>","null","html-keyboard-response","75","441564","0.0-8.0-0.0-1.0-0.0-1.32","3","3","2","2","3","3","3","2","4","4","4","-1","0","-2","-1","-2","0","-1","0","3","3","4","4","2","2","3","4","4","3","6","7","6","6","4","3","5","5","6","5","3","3","5","4","4","6","4","3","3","5","5","5","3","2","5","5","5","6","3","3","5","3","3","3","6","3","5","5","6","6","6","7","3","3","5","2","5","5","4","5","张","Female","[""好我"",""坏她"",""好她"",""坏我""]","[""强我"",""弱她"",""强她"",""弱我""]","","","","","","","","","","","","","","","","","","","","","","","","","","","","","","feedback_test","","","","","","","",""
"719","","f","psychophysics","76","443285","0.0-8.0-0.0-1.0-0.0-0.33","3","3","2","2","3","3","3","2","4","4","4","-1","0","-2","-1","-2","0","-1","0","3","3","4","4","2","2","3","4","4","3","6","7","6","6","4","3","5","5","6","5","3","3","5","4","4","6","4","3","3","5","5","5","3","2","5","5","5","6","3","3","5","3","3","3","6","3","5","5","6","6","6","7","3","3","5","2","5","5","4","5","张","Female","[""好我"",""坏她"",""好她"",""坏我""]","[""强我"",""弱她"",""强她"",""弱我""]","","","","","","","","nonmatch","","","","","","","","","","key","f","16.82678217821787","640","356","j","false","match","img/pentagon.png","好我","好我","prac_ALT2_moral","practice_moral","","","","","","","",""
"null","<span style='color:red; font-size: 70px;'>错误! </span>","null","html-keyboard-response","77","443786","0.0-8.0-0.0-1.0-0.0-1.33","3","3","2","2","3","3","3","2","4","4","4","-1","0","-2","-1","-2","0","-1","0","3","3","4","4","2","2","3","4","4","3","6","7","6","6","4","3","5","5","6","5","3","3","5","4","4","6","4","3","3","5","5","5","3","2","5","5","5","6","3","3","5","3","3","3","6","3","5","5","6","6","6","7","3","3","5","2","5","5","4","5","张","Female","[""好我"",""坏她"",""好她"",""坏我""]","[""强我"",""弱她"",""强她"",""弱我""]","","","","","","","","","","","","","","","","","","","","","","","","","","","","","","feedback_test","","","","","","","",""
"887","","j","psychophysics","78","445674","0.0-8.0-0.0-1.0-0.0-0.34","3","3","2","2","3","3","3","2","4","4","4","-1","0","-2","-1","-2","0","-1","0","3","3","4","4","2","2","3","4","4","3","6","7","6","6","4","3","5","5","6","5","3","3","5","4","4","6","4","3","3","5","5","5","3","2","5","5","5","6","3","3","5","3","3","3","6","3","5","5","6","6","6","7","3","3","5","2","5","5","4","5","张","Female","[""好我"",""坏她"",""好她"",""坏我""]","[""强我"",""弱她"",""强她"",""弱我""]","","","","","","","","match","","","","","","","","","","key","j","16.664303571428587","640","356","f","false","nonmatch","img/trapezoid.png","坏她","好她","prac_ALT2_moral","practice_moral","","","","","","","",""
"null","<span style='color:red; font-size: 70px;'>错误! </span>","null","html-keyboard-response","79","446178","0.0-8.0-0.0-1.0-0.0-1.34","3","3","2","2","3","3","3","2","4","4","4","-1","0","-2","-1","-2","0","-1","0","3","3","4","4","2","2","3","4","4","3","6","7","6","6","4","3","5","5","6","5","3","3","5","4","4","6","4","3","3","5","5","5","3","2","5","5","5","6","3","3","5","3","3","3","6","3","5","5","6","6","6","7","3","3","5","2","5","5","4","5","张","Female","[""好我"",""坏她"",""好她"",""坏我""]","[""强我"",""弱她"",""强她"",""弱我""]","","","","","","","","","","","","","","","","","","","","","","","","","","","","","","feedback_test","","","","","","","",""
"633","","f","psychophysics","80","447817","0.0-8.0-0.0-1.0-0.0-0.35","3","3","2","2","3","3","3","2","4","4","4","-1","0","-2","-1","-2","0","-1","0","3","3","4","4","2","2","3","4","4","3","6","7","6","6","4","3","5","5","6","5","3","3","5","4","4","6","4","3","3","5","5","5","3","2","5","5","5","6","3","3","5","3","3","3","6","3","5","5","6","6","6","7","3","3","5","2","5","5","4","5","张","Female","[""好我"",""坏她"",""好她"",""坏我""]","[""强我"",""弱她"",""强她"",""弱我""]","","","","","","","","nonmatch","","","","","","","","","","key","f","16.656958762886358","640","356","f","true","nonmatch","img/circle.png","好我","坏我","prac_ALT2_moral","practice_moral","","","","","","","",""
"null","<span style='color:GreenYellow; font-size: 70px;'>正确! </span>","null","html-keyboard-response","81","448319","0.0-8.0-0.0-1.0-0.0-1.35","3","3","2","2","3","3","3","2","4","4","4","-1","0","-2","-1","-2","0","-1","0","3","3","4","4","2","2","3","4","4","3","6","7","6","6","4","3","5","5","6","5","3","3","5","4","4","6","4","3","3","5","5","5","3","2","5","5","5","6","3","3","5","3","3","3","6","3","5","5","6","6","6","7","3","3","5","2","5","5","4","5","张","Female","[""好我"",""坏她"",""好她"",""坏我""]","[""强我"",""弱她"",""强她"",""弱我""]","","","","","","","","","","","","","","","","","","","","","","","","","","","","","","feedback_test","","","","","","","",""
"668","","j","psychophysics","82","449990","0.0-8.0-0.0-1.0-0.0-0.36","3","3","2","2","3","3","3","2","4","4","4","-1","0","-2","-1","-2","0","-1","0","3","3","4","4","2","2","3","4","4","3","6","7","6","6","4","3","5","5","6","5","3","3","5","4","4","6","4","3","3","5","5","5","3","2","5","5","5","6","3","3","5","3","3","3","6","3","5","5","6","6","6","7","3","3","5","2","5","5","4","5","张","Female","[""好我"",""坏她"",""好她"",""坏我""]","[""强我"",""弱她"",""强她"",""弱我""]","","","","","","","","match","","","","","","","","","","key","j","16.663565656565943","640","356","j","true","match","img/circle.png","坏我","坏我","prac_ALT2_moral","practice_moral","","","","","","","",""
"null","<span style='color:GreenYellow; font-size: 70px;'>正确! </span>","null","html-keyboard-response","83","450492","0.0-8.0-0.0-1.0-0.0-1.36","3","3","2","2","3","3","3","2","4","4","4","-1","0","-2","-1","-2","0","-1","0","3","3","4","4","2","2","3","4","4","3","6","7","6","6","4","3","5","5","6","5","3","3","5","4","4","6","4","3","3","5","5","5","3","2","5","5","5","6","3","3","5","3","3","3","6","3","5","5","6","6","6","7","3","3","5","2","5","5","4","5","张","Female","[""好我"",""坏她"",""好她"",""坏我""]","[""强我"",""弱她"",""强她"",""弱我""]","","","","","","","","","","","","","","","","","","","","","","","","","","","","","","feedback_test","","","","","","","",""
"525","","j","psychophysics","84","452018","0.0-8.0-0.0-1.0-0.0-0.37","3","3","2","2","3","3","3","2","4","4","4","-1","0","-2","-1","-2","0","-1","0","3","3","4","4","2","2","3","4","4","3","6","7","6","6","4","3","5","5","6","5","3","3","5","4","4","6","4","3","3","5","5","5","3","2","5","5","5","6","3","3","5","3","3","3","6","3","5","5","6","6","6","7","3","3","5","2","5","5","4","5","张","Female","[""好我"",""坏她"",""好她"",""坏我""]","[""强我"",""弱她"",""强她"",""弱我""]","","","","","","","","match","","","","","","","","","","key","j","16.663077777778057","640","356","j","true","match","img/diamond.png","坏她","坏她","prac_ALT2_moral","practice_moral","","","","","","","",""
"null","<span style='color:GreenYellow; font-size: 70px;'>正确! </span>","null","html-keyboard-response","85","452521","0.0-8.0-0.0-1.0-0.0-1.37","3","3","2","2","3","3","3","2","4","4","4","-1","0","-2","-1","-2","0","-1","0","3","3","4","4","2","2","3","4","4","3","6","7","6","6","4","3","5","5","6","5","3","3","5","4","4","6","4","3","3","5","5","5","3","2","5","5","5","6","3","3","5","3","3","3","6","3","5","5","6","6","6","7","3","3","5","2","5","5","4","5","张","Female","[""好我"",""坏她"",""好她"",""坏我""]","[""强我"",""弱她"",""强她"",""弱我""]","","","","","","","","","","","","","","","","","","","","","","","","","","","","","","feedback_test","","","","","","","",""
"516","","j","psychophysics","86","454039","0.0-8.0-0.0-1.0-0.0-0.38","3","3","2","2","3","3","3","2","4","4","4","-1","0","-2","-1","-2","0","-1","0","3","3","4","4","2","2","3","4","4","3","6","7","6","6","4","3","5","5","6","5","3","3","5","4","4","6","4","3","3","5","5","5","3","2","5","5","5","6","3","3","5","3","3","3","6","3","5","5","6","6","6","7","3","3","5","2","5","5","4","5","张","Female","[""好我"",""坏她"",""好她"",""坏我""]","[""强我"",""弱她"",""强她"",""弱我""]","","","","","","","","match","","","","","","","","","","key","j","16.662833333332998","640","356","f","false","nonmatch","img/trapezoid.png","坏我","好她","prac_ALT2_moral","practice_moral","","","","","","","",""
"null","<span style='color:red; font-size: 70px;'>错误! </span>","null","html-keyboard-response","87","454540","0.0-8.0-0.0-1.0-0.0-1.38","3","3","2","2","3","3","3","2","4","4","4","-1","0","-2","-1","-2","0","-1","0","3","3","4","4","2","2","3","4","4","3","6","7","6","6","4","3","5","5","6","5","3","3","5","4","4","6","4","3","3","5","5","5","3","2","5","5","5","6","3","3","5","3","3","3","6","3","5","5","6","6","6","7","3","3","5","2","5","5","4","5","张","Female","[""好我"",""坏她"",""好她"",""坏我""]","[""强我"",""弱她"",""强她"",""弱我""]","","","","","","","","","","","","","","","","","","","","","","","","","","","","","","feedback_test","","","","","","","",""
"737","","f","psychophysics","88","456279","0.0-8.0-0.0-1.0-0.0-0.39","3","3","2","2","3","3","3","2","4","4","4","-1","0","-2","-1","-2","0","-1","0","3","3","4","4","2","2","3","4","4","3","6","7","6","6","4","3","5","5","6","5","3","3","5","4","4","6","4","3","3","5","5","5","3","2","5","5","5","6","3","3","5","3","3","3","6","3","5","5","6","6","6","7","3","3","5","2","5","5","4","5","张","Female","[""好我"",""坏她"",""好她"",""坏我""]","[""强我"",""弱她"",""强她"",""弱我""]","","","","","","","","nonmatch","","","","","","","","","","key","f","16.661048543689212","640","356","j","false","match","img/trapezoid.png","好她","好她","prac_ALT2_moral","practice_moral","","","","","","","",""
"null","<span style='color:red; font-size: 70px;'>错误! </span>","null","html-keyboard-response","89","456784","0.0-8.0-0.0-1.0-0.0-1.39","3","3","2","2","3","3","3","2","4","4","4","-1","0","-2","-1","-2","0","-1","0","3","3","4","4","2","2","3","4","4","3","6","7","6","6","4","3","5","5","6","5","3","3","5","4","4","6","4","3","3","5","5","5","3","2","5","5","5","6","3","3","5","3","3","3","6","3","5","5","6","6","6","7","3","3","5","2","5","5","4","5","张","Female","[""好我"",""坏她"",""好她"",""坏我""]","[""强我"",""弱她"",""强她"",""弱我""]","","","","","","","","","","","","","","","","","","","","","","","","","","","","","","feedback_test","","","","","","","",""
"478","","j","psychophysics","90","458266","0.0-8.0-0.0-1.0-0.0-0.40","3","3","2","2","3","3","3","2","4","4","4","-1","0","-2","-1","-2","0","-1","0","3","3","4","4","2","2","3","4","4","3","6","7","6","6","4","3","5","5","6","5","3","3","5","4","4","6","4","3","3","5","5","5","3","2","5","5","5","6","3","3","5","3","3","3","6","3","5","5","6","6","6","7","3","3","5","2","5","5","4","5","张","Female","[""好我"",""坏她"",""好她"",""坏我""]","[""强我"",""弱她"",""强她"",""弱我""]","","","","","","","","match","","","","","","","","","","key","j","16.860139534883825","640","356","j","true","match","img/circle.png","坏我","坏我","prac_ALT2_moral","practice_moral","","","","","","","",""
"null","<span style='color:GreenYellow; font-size: 70px;'>正确! </span>","null","html-keyboard-response","91","458768","0.0-8.0-0.0-1.0-0.0-1.40","3","3","2","2","3","3","3","2","4","4","4","-1","0","-2","-1","-2","0","-1","0","3","3","4","4","2","2","3","4","4","3","6","7","6","6","4","3","5","5","6","5","3","3","5","4","4","6","4","3","3","5","5","5","3","2","5","5","5","6","3","3","5","3","3","3","6","3","5","5","6","6","6","7","3","3","5","2","5","5","4","5","张","Female","[""好我"",""坏她"",""好她"",""坏我""]","[""强我"",""弱她"",""强她"",""弱我""]","","","","","","","","","","","","","","","","","","","","","","","","","","","","","","feedback_test","","","","","","","",""
"776","","f","psychophysics","92","460546","0.0-8.0-0.0-1.0-0.0-0.41","3","3","2","2","3","3","3","2","4","4","4","-1","0","-2","-1","-2","0","-1","0","3","3","4","4","2","2","3","4","4","3","6","7","6","6","4","3","5","5","6","5","3","3","5","4","4","6","4","3","3","5","5","5","3","2","5","5","5","6","3","3","5","3","3","3","6","3","5","5","6","6","6","7","3","3","5","2","5","5","4","5","张","Female","[""好我"",""坏她"",""好她"",""坏我""]","[""强我"",""弱她"",""强她"",""弱我""]","","","","","","","","nonmatch","","","","","","","","","","key","f","16.666358490565678","640","356","f","true","nonmatch","img/pentagon.png","好她","好我","prac_ALT2_moral","practice_moral","","","","","","","",""
"null","<span style='color:GreenYellow; font-size: 70px;'>正确! </span>","null","html-keyboard-response","93","461070","0.0-8.0-0.0-1.0-0.0-1.41","3","3","2","2","3","3","3","2","4","4","4","-1","0","-2","-1","-2","0","-1","0","3","3","4","4","2","2","3","4","4","3","6","7","6","6","4","3","5","5","6","5","3","3","5","4","4","6","4","3","3","5","5","5","3","2","5","5","5","6","3","3","5","3","3","3","6","3","5","5","6","6","6","7","3","3","5","2","5","5","4","5","张","Female","[""好我"",""坏她"",""好她"",""坏我""]","[""强我"",""弱她"",""强她"",""弱我""]","","","","","","","","","","","","","","","","","","","","","","","","","","","","","","feedback_test","","","","","","","",""
"702","","f","psychophysics","94","462776","0.0-8.0-0.0-1.0-0.0-0.42","3","3","2","2","3","3","3","2","4","4","4","-1","0","-2","-1","-2","0","-1","0","3","3","4","4","2","2","3","4","4","3","6","7","6","6","4","3","5","5","6","5","3","3","5","4","4","6","4","3","3","5","5","5","3","2","5","5","5","6","3","3","5","3","3","3","6","3","5","5","6","6","6","7","3","3","5","2","5","5","4","5","张","Female","[""好我"",""坏她"",""好她"",""坏我""]","[""强我"",""弱她"",""强她"",""弱我""]","","","","","","","","nonmatch","","","","","","","","","","key","f","16.66233333333352","640","356","f","true","nonmatch","img/trapezoid.png","好我","好她","prac_ALT2_moral","practice_moral","","","","","","","",""
"null","<span style='color:GreenYellow; font-size: 70px;'>正确! </span>","null","html-keyboard-response","95","463278","0.0-8.0-0.0-1.0-0.0-1.42","3","3","2","2","3","3","3","2","4","4","4","-1","0","-2","-1","-2","0","-1","0","3","3","4","4","2","2","3","4","4","3","6","7","6","6","4","3","5","5","6","5","3","3","5","4","4","6","4","3","3","5","5","5","3","2","5","5","5","6","3","3","5","3","3","3","6","3","5","5","6","6","6","7","3","3","5","2","5","5","4","5","张","Female","[""好我"",""坏她"",""好她"",""坏我""]","[""强我"",""弱她"",""强她"",""弱我""]","","","","","","","","","","","","","","","","","","","","","","","","","","","","","","feedback_test","","","","","","","",""
"834","","f","psychophysics","96","465113","0.0-8.0-0.0-1.0-0.0-0.43","3","3","2","2","3","3","3","2","4","4","4","-1","0","-2","-1","-2","0","-1","0","3","3","4","4","2","2","3","4","4","3","6","7","6","6","4","3","5","5","6","5","3","3","5","4","4","6","4","3","3","5","5","5","3","2","5","5","5","6","3","3","5","3","3","3","6","3","5","5","6","6","6","7","3","3","5","2","5","5","4","5","张","Female","[""好我"",""坏她"",""好她"",""坏我""]","[""强我"",""弱她"",""强她"",""弱我""]","","","","","","","","nonmatch","","","","","","","","","","key","f","16.662587155963383","640","356","j","false","match","img/diamond.png","坏她","坏她","prac_ALT2_moral","practice_moral","","","","","","","",""
"null","<span style='color:red; font-size: 70px;'>错误! </span>","null","html-keyboard-response","97","465621","0.0-8.0-0.0-1.0-0.0-1.43","3","3","2","2","3","3","3","2","4","4","4","-1","0","-2","-1","-2","0","-1","0","3","3","4","4","2","2","3","4","4","3","6","7","6","6","4","3","5","5","6","5","3","3","5","4","4","6","4","3","3","5","5","5","3","2","5","5","5","6","3","3","5","3","3","3","6","3","5","5","6","6","6","7","3","3","5","2","5","5","4","5","张","Female","[""好我"",""坏她"",""好她"",""坏我""]","[""强我"",""弱她"",""强她"",""弱我""]","","","","","","","","","","","","","","","","","","","","","","","","","","","","","","feedback_test","","","","","","","",""
"767","","j","psychophysics","98","467390","0.0-8.0-0.0-1.0-0.0-0.44","3","3","2","2","3","3","3","2","4","4","4","-1","0","-2","-1","-2","0","-1","0","3","3","4","4","2","2","3","4","4","3","6","7","6","6","4","3","5","5","6","5","3","3","5","4","4","6","4","3","3","5","5","5","3","2","5","5","5","6","3","3","5","3","3","3","6","3","5","5","6","6","6","7","3","3","5","2","5","5","4","5","张","Female","[""好我"",""坏她"",""好她"",""坏我""]","[""强我"",""弱她"",""强她"",""弱我""]","","","","","","","","match","","","","","","","","","","key","j","16.662542857142675","640","356","f","false","nonmatch","img/pentagon.png","坏她","好我","prac_ALT2_moral","practice_moral","","","","","","","",""
"null","<span style='color:red; font-size: 70px;'>错误! </span>","null","html-keyboard-response","99","467892","0.0-8.0-0.0-1.0-0.0-1.44","3","3","2","2","3","3","3","2","4","4","4","-1","0","-2","-1","-2","0","-1","0","3","3","4","4","2","2","3","4","4","3","6","7","6","6","4","3","5","5","6","5","3","3","5","4","4","6","4","3","3","5","5","5","3","2","5","5","5","6","3","3","5","3","3","3","6","3","5","5","6","6","6","7","3","3","5","2","5","5","4","5","张","Female","[""好我"",""坏她"",""好她"",""坏我""]","[""强我"",""弱她"",""强她"",""弱我""]","","","","","","","","","","","","","","","","","","","","","","","","","","","","","","feedback_test","","","","","","","",""
"708","","f","psychophysics","100","469602","0.0-8.0-0.0-1.0-0.0-0.45","3","3","2","2","3","3","3","2","4","4","4","-1","0","-2","-1","-2","0","-1","0","3","3","4","4","2","2","3","4","4","3","6","7","6","6","4","3","5","5","6","5","3","3","5","4","4","6","4","3","3","5","5","5","3","2","5","5","5","6","3","3","5","3","3","3","6","3","5","5","6","6","6","7","3","3","5","2","5","5","4","5","张","Female","[""好我"",""坏她"",""好她"",""坏我""]","[""强我"",""弱她"",""强她"",""弱我""]","","","","","","","","nonmatch","","","","","","","","","","key","f","16.66231683168346","640","356","j","false","match","img/trapezoid.png","好她","好她","prac_ALT2_moral","practice_moral","","","","","","","",""
"null","<span style='color:red; font-size: 70px;'>错误! </span>","null","html-keyboard-response","101","470105","0.0-8.0-0.0-1.0-0.0-1.45","3","3","2","2","3","3","3","2","4","4","4","-1","0","-2","-1","-2","0","-1","0","3","3","4","4","2","2","3","4","4","3","6","7","6","6","4","3","5","5","6","5","3","3","5","4","4","6","4","3","3","5","5","5","3","2","5","5","5","6","3","3","5","3","3","3","6","3","5","5","6","6","6","7","3","3","5","2","5","5","4","5","张","Female","[""好我"",""坏她"",""好她"",""坏我""]","[""强我"",""弱她"",""强她"",""弱我""]","","","","","","","","","","","","","","","","","","","","","","","","","","","","","","feedback_test","","","","","","","",""
"737","","f","psychophysics","102","471844","0.0-8.0-0.0-1.0-0.0-0.46","3","3","2","2","3","3","3","2","4","4","4","-1","0","-2","-1","-2","0","-1","0","3","3","4","4","2","2","3","4","4","3","6","7","6","6","4","3","5","5","6","5","3","3","5","4","4","6","4","3","3","5","5","5","3","2","5","5","5","6","3","3","5","3","3","3","6","3","5","5","6","6","6","7","3","3","5","2","5","5","4","5","张","Female","[""好我"",""坏她"",""好她"",""坏我""]","[""强我"",""弱她"",""强她"",""弱我""]","","","","","","","","nonmatch","","","","","","","","","","key","f","16.662592233009455","640","356","f","true","nonmatch","img/circle.png","好她","坏我","prac_ALT2_moral","practice_moral","","","","","","","",""
"null","<span style='color:GreenYellow; font-size: 70px;'>正确! </span>","null","html-keyboard-response","103","472347","0.0-8.0-0.0-1.0-0.0-1.46","3","3","2","2","3","3","3","2","4","4","4","-1","0","-2","-1","-2","0","-1","0","3","3","4","4","2","2","3","4","4","3","6","7","6","6","4","3","5","5","6","5","3","3","5","4","4","6","4","3","3","5","5","5","3","2","5","5","5","6","3","3","5","3","3","3","6","3","5","5","6","6","6","7","3","3","5","2","5","5","4","5","张","Female","[""好我"",""坏她"",""好她"",""坏我""]","[""强我"",""弱她"",""强她"",""弱我""]","","","","","","","","","","","","","","","","","","","","","","","","","","","","","","feedback_test","","","","","","","",""
"678","","f","psychophysics","104","474027","0.0-8.0-0.0-1.0-0.0-0.47","3","3","2","2","3","3","3","2","4","4","4","-1","0","-2","-1","-2","0","-1","0","3","3","4","4","2","2","3","4","4","3","6","7","6","6","4","3","5","5","6","5","3","3","5","4","4","6","4","3","3","5","5","5","3","2","5","5","5","6","3","3","5","3","3","3","6","3","5","5","6","6","6","7","3","3","5","2","5","5","4","5","张","Female","[""好我"",""坏她"",""好她"",""坏我""]","[""强我"",""弱她"",""强她"",""弱我""]","","","","","","","","nonmatch","","","","","","","","","","key","f","16.66298999999999","640","356","f","true","nonmatch","img/diamond.png","坏我","坏她","prac_ALT2_moral","practice_moral","","","","","","","",""
"null","<span style='color:GreenYellow; font-size: 70px;'>正确! </span>","null","html-keyboard-response","105","474529","0.0-8.0-0.0-1.0-0.0-1.47","3","3","2","2","3","3","3","2","4","4","4","-1","0","-2","-1","-2","0","-1","0","3","3","4","4","2","2","3","4","4","3","6","7","6","6","4","3","5","5","6","5","3","3","5","4","4","6","4","3","3","5","5","5","3","2","5","5","5","6","3","3","5","3","3","3","6","3","5","5","6","6","6","7","3","3","5","2","5","5","4","5","张","Female","[""好我"",""坏她"",""好她"",""坏我""]","[""强我"",""弱她"",""强她"",""弱我""]","","","","","","","","","","","","","","","","","","","","","","","","","","","","","","feedback_test","","","","","","","",""
"5942","<style>.context{color:white; font-size: 35px; line-height:40px}</style>                            <div><p class='context'>您正确回答了58% 的试次。</p><p class='context'>您的平均反应时为796毫秒。</p><p class='context'>按空格键继续。</p></div>"," ","html-keyboard-response","106","480474","0.0-8.0-0.0-1.0-1.0-0.0","3","3","2","2","3","3","3","2","4","4","4","-1","0","-2","-1","-2","0","-1","0","3","3","4","4","2","2","3","4","4","3","6","7","6","6","4","3","5","5","6","5","3","3","5","4","4","6","4","3","3","5","5","5","3","2","5","5","5","6","3","3","5","3","3","3","6","3","5","5","6","6","6","7","3","3","5","2","5","5","4","5","张","Female","[""好我"",""坏她"",""好她"",""坏我""]","[""强我"",""弱她"",""强她"",""弱我""]","","","","","","","","","","","","","","","","","","","","","","","","","","","","","","","","","","","","","",""
"176545","","","instructions","107","657023","0.0-8.0-0.0-1.0-1.0-1.0","3","3","2","2","3","3","3","2","4","4","4","-1","0","-2","-1","-2","0","-1","0","3","3","4","4","2","2","3","4","4","3","6","7","6","6","4","3","5","5","6","5","3","3","5","4","4","6","4","3","3","5","5","5","3","2","5","5","5","6","3","3","5","3","3","3","6","3","5","5","6","6","6","7","3","3","5","2","5","5","4","5","张","Female","[""好我"",""坏她"",""好她"",""坏我""]","[""强我"",""弱她"",""强她"",""弱我""]","","","","","","","","","","","","","","","","","[{""page_index"":0,""viewing_time"":5726},{""page_index"":1,""viewing_time"":167872},{""page_index"":2,""viewing_time"":2946}]","","","","","","","","","","","","","","","","","","","","",""
"624","","j","psychophysics","108","658653","0.0-8.0-0.0-1.1-0.1-0.48","3","3","2","2","3","3","3","2","4","4","4","-1","0","-2","-1","-2","0","-1","0","3","3","4","4","2","2","3","4","4","3","6","7","6","6","4","3","5","5","6","5","3","3","5","4","4","6","4","3","3","5","5","5","3","2","5","5","5","6","3","3","5","3","3","3","6","3","5","5","6","6","6","7","3","3","5","2","5","5","4","5","张","Female","[""好我"",""坏她"",""好她"",""坏我""]","[""强我"",""弱她"",""强她"",""弱我""]","","","","","","","","match","","","","","","","","","","key","j","16.66226041666717","640","356","j","true","match","img/circle.png","坏我","坏我","prac_ALT2_moral","practice_moral","","","","","","","",""
"null","<span style='color:GreenYellow; font-size: 70px;'>正确! </span>","null","html-keyboard-response","109","659156","0.0-8.0-0.0-1.1-0.1-1.48","3","3","2","2","3","3","3","2","4","4","4","-1","0","-2","-1","-2","0","-1","0","3","3","4","4","2","2","3","4","4","3","6","7","6","6","4","3","5","5","6","5","3","3","5","4","4","6","4","3","3","5","5","5","3","2","5","5","5","6","3","3","5","3","3","3","6","3","5","5","6","6","6","7","3","3","5","2","5","5","4","5","张","Female","[""好我"",""坏她"",""好她"",""坏我""]","[""强我"",""弱她"",""强她"",""弱我""]","","","","","","","","","","","","","","","","","","","","","","","","","","","","","","feedback_test","","","","","","","",""
"666","","f","psychophysics","110","660826","0.0-8.0-0.0-1.1-0.1-0.49","3","3","2","2","3","3","3","2","4","4","4","-1","0","-2","-1","-2","0","-1","0","3","3","4","4","2","2","3","4","4","3","6","7","6","6","4","3","5","5","6","5","3","3","5","4","4","6","4","3","3","5","5","5","3","2","5","5","5","6","3","3","5","3","3","3","6","3","5","5","6","6","6","7","3","3","5","2","5","5","4","5","张","Female","[""好我"",""坏她"",""好她"",""坏我""]","[""强我"",""弱她"",""强她"",""弱我""]","","","","","","","","nonmatch","","","","","","","","","","key","f","16.662636363636608","640","356","f","true","nonmatch","img/circle.png","好我","坏我","prac_ALT2_moral","practice_moral","","","","","","","",""
"null","<span style='color:GreenYellow; font-size: 70px;'>正确! </span>","null","html-keyboard-response","111","661328","0.0-8.0-0.0-1.1-0.1-1.49","3","3","2","2","3","3","3","2","4","4","4","-1","0","-2","-1","-2","0","-1","0","3","3","4","4","2","2","3","4","4","3","6","7","6","6","4","3","5","5","6","5","3","3","5","4","4","6","4","3","3","5","5","5","3","2","5","5","5","6","3","3","5","3","3","3","6","3","5","5","6","6","6","7","3","3","5","2","5","5","4","5","张","Female","[""好我"",""坏她"",""好她"",""坏我""]","[""强我"",""弱她"",""强她"",""弱我""]","","","","","","","","","","","","","","","","","","","","","","","","","","","","","","feedback_test","","","","","","","",""
"744","","f","psychophysics","112","663077","0.0-8.0-0.0-1.1-0.1-0.50","3","3","2","2","3","3","3","2","4","4","4","-1","0","-2","-1","-2","0","-1","0","3","3","4","4","2","2","3","4","4","3","6","7","6","6","4","3","5","5","6","5","3","3","5","4","4","6","4","3","3","5","5","5","3","2","5","5","5","6","3","3","5","3","3","3","6","3","5","5","6","6","6","7","3","3","5","2","5","5","4","5","张","Female","[""好我"",""坏她"",""好她"",""坏我""]","[""强我"",""弱她"",""强她"",""弱我""]","","","","","","","","nonmatch","","","","","","","","","","key","f","16.662942307692273","640","356","f","true","nonmatch","img/diamond.png","好她","坏她","prac_ALT2_moral","practice_moral","","","","","","","",""
"null","<span style='color:GreenYellow; font-size: 70px;'>正确! </span>","null","html-keyboard-response","113","663585","0.0-8.0-0.0-1.1-0.1-1.50","3","3","2","2","3","3","3","2","4","4","4","-1","0","-2","-1","-2","0","-1","0","3","3","4","4","2","2","3","4","4","3","6","7","6","6","4","3","5","5","6","5","3","3","5","4","4","6","4","3","3","5","5","5","3","2","5","5","5","6","3","3","5","3","3","3","6","3","5","5","6","6","6","7","3","3","5","2","5","5","4","5","张","Female","[""好我"",""坏她"",""好她"",""坏我""]","[""强我"",""弱她"",""强她"",""弱我""]","","","","","","","","","","","","","","","","","","","","","","","","","","","","","","feedback_test","","","","","","","",""
"952","","f","psychophysics","114","665541","0.0-8.0-0.0-1.1-0.1-0.51","3","3","2","2","3","3","3","2","4","4","4","-1","0","-2","-1","-2","0","-1","0","3","3","4","4","2","2","3","4","4","3","6","7","6","6","4","3","5","5","6","5","3","3","5","4","4","6","4","3","3","5","5","5","3","2","5","5","5","6","3","3","5","3","3","3","6","3","5","5","6","6","6","7","3","3","5","2","5","5","4","5","张","Female","[""好我"",""坏她"",""好她"",""坏我""]","[""强我"",""弱她"",""强她"",""弱我""]","","","","","","","","nonmatch","","","","","","","","","","key","f","16.66317948718002","640","356","f","true","nonmatch","img/trapezoid.png","坏我","好她","prac_ALT2_moral","practice_moral","","","","","","","",""
"null","<span style='color:GreenYellow; font-size: 70px;'>正确! </span>","null","html-keyboard-response","115","666046","0.0-8.0-0.0-1.1-0.1-1.51","3","3","2","2","3","3","3","2","4","4","4","-1","0","-2","-1","-2","0","-1","0","3","3","4","4","2","2","3","4","4","3","6","7","6","6","4","3","5","5","6","5","3","3","5","4","4","6","4","3","3","5","5","5","3","2","5","5","5","6","3","3","5","3","3","3","6","3","5","5","6","6","6","7","3","3","5","2","5","5","4","5","张","Female","[""好我"",""坏她"",""好她"",""坏我""]","[""强我"",""弱她"",""强她"",""弱我""]","","","","","","","","","","","","","","","","","","","","","","","","","","","","","","feedback_test","","","","","","","",""
"849","","f","psychophysics","116","667896","0.0-8.0-0.0-1.1-0.1-0.52","3","3","2","2","3","3","3","2","4","4","4","-1","0","-2","-1","-2","0","-1","0","3","3","4","4","2","2","3","4","4","3","6","7","6","6","4","3","5","5","6","5","3","3","5","4","4","6","4","3","3","5","5","5","3","2","5","5","5","6","3","3","5","3","3","3","6","3","5","5","6","6","6","7","3","3","5","2","5","5","4","5","张","Female","[""好我"",""坏她"",""好她"",""坏我""]","[""强我"",""弱她"",""强她"",""弱我""]","","","","","","","","nonmatch","","","","","","","","","","key","f","16.662618181818505","640","356","j","false","match","img/pentagon.png","好我","好我","prac_ALT2_moral","practice_moral","","","","","","","",""
"null","<span style='color:red; font-size: 70px;'>错误! </span>","null","html-keyboard-response","117","668397","0.0-8.0-0.0-1.1-0.1-1.52","3","3","2","2","3","3","3","2","4","4","4","-1","0","-2","-1","-2","0","-1","0","3","3","4","4","2","2","3","4","4","3","6","7","6","6","4","3","5","5","6","5","3","3","5","4","4","6","4","3","3","5","5","5","3","2","5","5","5","6","3","3","5","3","3","3","6","3","5","5","6","6","6","7","3","3","5","2","5","5","4","5","张","Female","[""好我"",""坏她"",""好她"",""坏我""]","[""强我"",""弱她"",""强她"",""弱我""]","","","","","","","","","","","","","","","","","","","","","","","","","","","","","","feedback_test","","","","","","","",""
"608","","j","psychophysics","118","670008","0.0-8.0-0.0-1.1-0.1-0.53","3","3","2","2","3","3","3","2","4","4","4","-1","0","-2","-1","-2","0","-1","0","3","3","4","4","2","2","3","4","4","3","6","7","6","6","4","3","5","5","6","5","3","3","5","4","4","6","4","3","3","5","5","5","3","2","5","5","5","6","3","3","5","3","3","3","6","3","5","5","6","6","6","7","3","3","5","2","5","5","4","5","张","Female","[""好我"",""坏她"",""好她"",""坏我""]","[""强我"",""弱她"",""强她"",""弱我""]","","","","","","","","match","","","","","","","","","","key","j","16.666385416666646","640","356","j","true","match","img/trapezoid.png","好她","好她","prac_ALT2_moral","practice_moral","","","","","","","",""
"null","<span style='color:GreenYellow; font-size: 70px;'>正确! </span>","null","html-keyboard-response","119","670512","0.0-8.0-0.0-1.1-0.1-1.53","3","3","2","2","3","3","3","2","4","4","4","-1","0","-2","-1","-2","0","-1","0","3","3","4","4","2","2","3","4","4","3","6","7","6","6","4","3","5","5","6","5","3","3","5","4","4","6","4","3","3","5","5","5","3","2","5","5","5","6","3","3","5","3","3","3","6","3","5","5","6","6","6","7","3","3","5","2","5","5","4","5","张","Female","[""好我"",""坏她"",""好她"",""坏我""]","[""强我"",""弱她"",""强她"",""弱我""]","","","","","","","","","","","","","","","","","","","","","","","","","","","","","","feedback_test","","","","","","","",""
"851","","f","psychophysics","120","672367","0.0-8.0-0.0-1.1-0.1-0.54","3","3","2","2","3","3","3","2","4","4","4","-1","0","-2","-1","-2","0","-1","0","3","3","4","4","2","2","3","4","4","3","6","7","6","6","4","3","5","5","6","5","3","3","5","4","4","6","4","3","3","5","5","5","3","2","5","5","5","6","3","3","5","3","3","3","6","3","5","5","6","6","6","7","3","3","5","2","5","5","4","5","张","Female","[""好我"",""坏她"",""好她"",""坏我""]","[""强我"",""弱她"",""强她"",""弱我""]","","","","","","","","nonmatch","","","","","","","","","","key","f","16.663345454545397","640","356","f","true","nonmatch","img/diamond.png","坏我","坏她","prac_ALT2_moral","practice_moral","","","","","","","",""
"null","<span style='color:GreenYellow; font-size: 70px;'>正确! </span>","null","html-keyboard-response","121","672868","0.0-8.0-0.0-1.1-0.1-1.54","3","3","2","2","3","3","3","2","4","4","4","-1","0","-2","-1","-2","0","-1","0","3","3","4","4","2","2","3","4","4","3","6","7","6","6","4","3","5","5","6","5","3","3","5","4","4","6","4","3","3","5","5","5","3","2","5","5","5","6","3","3","5","3","3","3","6","3","5","5","6","6","6","7","3","3","5","2","5","5","4","5","张","Female","[""好我"",""坏她"",""好她"",""坏我""]","[""强我"",""弱她"",""强她"",""弱我""]","","","","","","","","","","","","","","","","","","","","","","","","","","","","","","feedback_test","","","","","","","",""
"575","","j","psychophysics","122","674445","0.0-8.0-0.0-1.1-0.1-0.55","3","3","2","2","3","3","3","2","4","4","4","-1","0","-2","-1","-2","0","-1","0","3","3","4","4","2","2","3","4","4","3","6","7","6","6","4","3","5","5","6","5","3","3","5","4","4","6","4","3","3","5","5","5","3","2","5","5","5","6","3","3","5","3","3","3","6","3","5","5","6","6","6","7","3","3","5","2","5","5","4","5","张","Female","[""好我"",""坏她"",""好她"",""坏我""]","[""强我"",""弱她"",""强她"",""弱我""]","","","","","","","","match","","","","","","","","","","key","j","16.654333333333362","640","356","j","true","match","img/circle.png","坏我","坏我","prac_ALT2_moral","practice_moral","","","","","","","",""
"null","<span style='color:GreenYellow; font-size: 70px;'>正确! </span>","null","html-keyboard-response","123","674947","0.0-8.0-0.0-1.1-0.1-1.55","3","3","2","2","3","3","3","2","4","4","4","-1","0","-2","-1","-2","0","-1","0","3","3","4","4","2","2","3","4","4","3","6","7","6","6","4","3","5","5","6","5","3","3","5","4","4","6","4","3","3","5","5","5","3","2","5","5","5","6","3","3","5","3","3","3","6","3","5","5","6","6","6","7","3","3","5","2","5","5","4","5","张","Female","[""好我"",""坏她"",""好她"",""坏我""]","[""强我"",""弱她"",""强她"",""弱我""]","","","","","","","","","","","","","","","","","","","","","","","","","","","","","","feedback_test","","","","","","","",""
"696","","f","psychophysics","124","676645","0.0-8.0-0.0-1.1-0.1-0.56","3","3","2","2","3","3","3","2","4","4","4","-1","0","-2","-1","-2","0","-1","0","3","3","4","4","2","2","3","4","4","3","6","7","6","6","4","3","5","5","6","5","3","3","5","4","4","6","4","3","3","5","5","5","3","2","5","5","5","6","3","3","5","3","3","3","6","3","5","5","6","6","6","7","3","3","5","2","5","5","4","5","张","Female","[""好我"",""坏她"",""好她"",""坏我""]","[""强我"",""弱她"",""强她"",""弱我""]","","","","","","","","nonmatch","","","","","","","","","","key","f","16.662801980197724","640","356","f","true","nonmatch","img/circle.png","坏她","坏我","prac_ALT2_moral","practice_moral","","","","","","","",""
"null","<span style='color:GreenYellow; font-size: 70px;'>正确! </span>","null","html-keyboard-response","125","677158","0.0-8.0-0.0-1.1-0.1-1.56","3","3","2","2","3","3","3","2","4","4","4","-1","0","-2","-1","-2","0","-1","0","3","3","4","4","2","2","3","4","4","3","6","7","6","6","4","3","5","5","6","5","3","3","5","4","4","6","4","3","3","5","5","5","3","2","5","5","5","6","3","3","5","3","3","3","6","3","5","5","6","6","6","7","3","3","5","2","5","5","4","5","张","Female","[""好我"",""坏她"",""好她"",""坏我""]","[""强我"",""弱她"",""强她"",""弱我""]","","","","","","","","","","","","","","","","","","","","","","","","","","","","","","feedback_test","","","","","","","",""
"816","","f","psychophysics","126","678977","0.0-8.0-0.0-1.1-0.1-0.57","3","3","2","2","3","3","3","2","4","4","4","-1","0","-2","-1","-2","0","-1","0","3","3","4","4","2","2","3","4","4","3","6","7","6","6","4","3","5","5","6","5","3","3","5","4","4","6","4","3","3","5","5","5","3","2","5","5","5","6","3","3","5","3","3","3","6","3","5","5","6","6","6","7","3","3","5","2","5","5","4","5","张","Female","[""好我"",""坏她"",""好她"",""坏我""]","[""强我"",""弱她"",""强她"",""弱我""]","","","","","","","","nonmatch","","","","","","","","","","key","f","16.663101851851767","640","356","f","true","nonmatch","img/diamond.png","好我","坏她","prac_ALT2_moral","practice_moral","","","","","","","",""
"null","<span style='color:GreenYellow; font-size: 70px;'>正确! </span>","null","html-keyboard-response","127","679479","0.0-8.0-0.0-1.1-0.1-1.57","3","3","2","2","3","3","3","2","4","4","4","-1","0","-2","-1","-2","0","-1","0","3","3","4","4","2","2","3","4","4","3","6","7","6","6","4","3","5","5","6","5","3","3","5","4","4","6","4","3","3","5","5","5","3","2","5","5","5","6","3","3","5","3","3","3","6","3","5","5","6","6","6","7","3","3","5","2","5","5","4","5","张","Female","[""好我"",""坏她"",""好她"",""坏我""]","[""强我"",""弱她"",""强她"",""弱我""]","","","","","","","","","","","","","","","","","","","","","","","","","","","","","","feedback_test","","","","","","","",""
"601","","f","psychophysics","128","681083","0.0-8.0-0.0-1.1-0.1-0.58","3","3","2","2","3","3","3","2","4","4","4","-1","0","-2","-1","-2","0","-1","0","3","3","4","4","2","2","3","4","4","3","6","7","6","6","4","3","5","5","6","5","3","3","5","4","4","6","4","3","3","5","5","5","3","2","5","5","5","6","3","3","5","3","3","3","6","3","5","5","6","6","6","7","3","3","5","2","5","5","4","5","张","Female","[""好我"",""坏她"",""好她"",""坏我""]","[""强我"",""弱她"",""强她"",""弱我""]","","","","","","","","nonmatch","","","","","","","","","","key","f","16.665336842105823","640","356","f","true","nonmatch","img/trapezoid.png","好我","好她","prac_ALT2_moral","practice_moral","","","","","","","",""
"null","<span style='color:GreenYellow; font-size: 70px;'>正确! </span>","null","html-keyboard-response","129","681584","0.0-8.0-0.0-1.1-0.1-1.58","3","3","2","2","3","3","3","2","4","4","4","-1","0","-2","-1","-2","0","-1","0","3","3","4","4","2","2","3","4","4","3","6","7","6","6","4","3","5","5","6","5","3","3","5","4","4","6","4","3","3","5","5","5","3","2","5","5","5","6","3","3","5","3","3","3","6","3","5","5","6","6","6","7","3","3","5","2","5","5","4","5","张","Female","[""好我"",""坏她"",""好她"",""坏我""]","[""强我"",""弱她"",""强她"",""弱我""]","","","","","","","","","","","","","","","","","","","","","","","","","","","","","","feedback_test","","","","","","","",""
"752","","f","psychophysics","130","683339","0.0-8.0-0.0-1.1-0.1-0.59","3","3","2","2","3","3","3","2","4","4","4","-1","0","-2","-1","-2","0","-1","0","3","3","4","4","2","2","3","4","4","3","6","7","6","6","4","3","5","5","6","5","3","3","5","4","4","6","4","3","3","5","5","5","3","2","5","5","5","6","3","3","5","3","3","3","6","3","5","5","6","6","6","7","3","3","5","2","5","5","4","5","张","Female","[""好我"",""坏她"",""好她"",""坏我""]","[""强我"",""弱她"",""强她"",""弱我""]","","","","","","","","nonmatch","","","","","","","","","","key","f","16.662673076922566","640","356","f","true","nonmatch","img/circle.png","好她","坏我","prac_ALT2_moral","practice_moral","","","","","","","",""
"null","<span style='color:GreenYellow; font-size: 70px;'>正确! </span>","null","html-keyboard-response","131","683843","0.0-8.0-0.0-1.1-0.1-1.59","3","3","2","2","3","3","3","2","4","4","4","-1","0","-2","-1","-2","0","-1","0","3","3","4","4","2","2","3","4","4","3","6","7","6","6","4","3","5","5","6","5","3","3","5","4","4","6","4","3","3","5","5","5","3","2","5","5","5","6","3","3","5","3","3","3","6","3","5","5","6","6","6","7","3","3","5","2","5","5","4","5","张","Female","[""好我"",""坏她"",""好她"",""坏我""]","[""强我"",""弱她"",""强她"",""弱我""]","","","","","","","","","","","","","","","","","","","","","","","","","","","","","","feedback_test","","","","","","","",""
"738","","f","psychophysics","132","685582","0.0-8.0-0.0-1.1-0.1-0.60","3","3","2","2","3","3","3","2","4","4","4","-1","0","-2","-1","-2","0","-1","0","3","3","4","4","2","2","3","4","4","3","6","7","6","6","4","3","5","5","6","5","3","3","5","4","4","6","4","3","3","5","5","5","3","2","5","5","5","6","3","3","5","3","3","3","6","3","5","5","6","6","6","7","3","3","5","2","5","5","4","5","张","Female","[""好我"",""坏她"",""好她"",""坏我""]","[""强我"",""弱她"",""强她"",""弱我""]","","","","","","","","nonmatch","","","","","","","","","","key","f","16.664980582524436","640","356","j","false","match","img/trapezoid.png","好她","好她","prac_ALT2_moral","practice_moral","","","","","","","",""
"null","<span style='color:red; font-size: 70px;'>错误! </span>","null","html-keyboard-response","133","686085","0.0-8.0-0.0-1.1-0.1-1.60","3","3","2","2","3","3","3","2","4","4","4","-1","0","-2","-1","-2","0","-1","0","3","3","4","4","2","2","3","4","4","3","6","7","6","6","4","3","5","5","6","5","3","3","5","4","4","6","4","3","3","5","5","5","3","2","5","5","5","6","3","3","5","3","3","3","6","3","5","5","6","6","6","7","3","3","5","2","5","5","4","5","张","Female","[""好我"",""坏她"",""好她"",""坏我""]","[""强我"",""弱她"",""强她"",""弱我""]","","","","","","","","","","","","","","","","","","","","","","","","","","","","","","feedback_test","","","","","","","",""
"974","","f","psychophysics","134","688063","0.0-8.0-0.0-1.1-0.1-0.61","3","3","2","2","3","3","3","2","4","4","4","-1","0","-2","-1","-2","0","-1","0","3","3","4","4","2","2","3","4","4","3","6","7","6","6","4","3","5","5","6","5","3","3","5","4","4","6","4","3","3","5","5","5","3","2","5","5","5","6","3","3","5","3","3","3","6","3","5","5","6","6","6","7","3","3","5","2","5","5","4","5","张","Female","[""好我"",""坏她"",""好她"",""坏我""]","[""强我"",""弱她"",""强她"",""弱我""]","","","","","","","","nonmatch","","","","","","","","","","key","f","16.662598290598083","640","356","j","false","match","img/diamond.png","坏她","坏她","prac_ALT2_moral","practice_moral","","","","","","","",""
"null","<span style='color:red; font-size: 70px;'>错误! </span>","null","html-keyboard-response","135","688569","0.0-8.0-0.0-1.1-0.1-1.61","3","3","2","2","3","3","3","2","4","4","4","-1","0","-2","-1","-2","0","-1","0","3","3","4","4","2","2","3","4","4","3","6","7","6","6","4","3","5","5","6","5","3","3","5","4","4","6","4","3","3","5","5","5","3","2","5","5","5","6","3","3","5","3","3","3","6","3","5","5","6","6","6","7","3","3","5","2","5","5","4","5","张","Female","[""好我"",""坏她"",""好她"",""坏我""]","[""强我"",""弱她"",""强她"",""弱我""]","","","","","","","","","","","","","","","","","","","","","","","","","","","","","","feedback_test","","","","","","","",""
"899","","j","psychophysics","136","690470","0.0-8.0-0.0-1.1-0.1-0.62","3","3","2","2","3","3","3","2","4","4","4","-1","0","-2","-1","-2","0","-1","0","3","3","4","4","2","2","3","4","4","3","6","7","6","6","4","3","5","5","6","5","3","3","5","4","4","6","4","3","3","5","5","5","3","2","5","5","5","6","3","3","5","3","3","3","6","3","5","5","6","6","6","7","3","3","5","2","5","5","4","5","张","Female","[""好我"",""坏她"",""好她"",""坏我""]","[""强我"",""弱她"",""强她"",""弱我""]","","","","","","","","match","","","","","","","","","","key","j","16.665371681416236","640","356","j","true","match","img/trapezoid.png","好她","好她","prac_ALT2_moral","practice_moral","","","","","","","",""
"null","<span style='color:GreenYellow; font-size: 70px;'>正确! </span>","null","html-keyboard-response","137","690972","0.0-8.0-0.0-1.1-0.1-1.62","3","3","2","2","3","3","3","2","4","4","4","-1","0","-2","-1","-2","0","-1","0","3","3","4","4","2","2","3","4","4","3","6","7","6","6","4","3","5","5","6","5","3","3","5","4","4","6","4","3","3","5","5","5","3","2","5","5","5","6","3","3","5","3","3","3","6","3","5","5","6","6","6","7","3","3","5","2","5","5","4","5","张","Female","[""好我"",""坏她"",""好她"",""坏我""]","[""强我"",""弱她"",""强她"",""弱我""]","","","","","","","","","","","","","","","","","","","","","","","","","","","","","","feedback_test","","","","","","","",""
"935","","j","psychophysics","138","692909","0.0-8.0-0.0-1.1-0.1-0.63","3","3","2","2","3","3","3","2","4","4","4","-1","0","-2","-1","-2","0","-1","0","3","3","4","4","2","2","3","4","4","3","6","7","6","6","4","3","5","5","6","5","3","3","5","4","4","6","4","3","3","5","5","5","3","2","5","5","5","6","3","3","5","3","3","3","6","3","5","5","6","6","6","7","3","3","5","2","5","5","4","5","张","Female","[""好我"",""坏她"",""好她"",""坏我""]","[""强我"",""弱她"",""强她"",""弱我""]","","","","","","","","match","","","","","","","","","","key","j","16.662817391303733","640","356","j","true","match","img/pentagon.png","好我","好我","prac_ALT2_moral","practice_moral","","","","","","","",""
"null","<span style='color:GreenYellow; font-size: 70px;'>正确! </span>","null","html-keyboard-response","139","693412","0.0-8.0-0.0-1.1-0.1-1.63","3","3","2","2","3","3","3","2","4","4","4","-1","0","-2","-1","-2","0","-1","0","3","3","4","4","2","2","3","4","4","3","6","7","6","6","4","3","5","5","6","5","3","3","5","4","4","6","4","3","3","5","5","5","3","2","5","5","5","6","3","3","5","3","3","3","6","3","5","5","6","6","6","7","3","3","5","2","5","5","4","5","张","Female","[""好我"",""坏她"",""好她"",""坏我""]","[""强我"",""弱她"",""强她"",""弱我""]","","","","","","","","","","","","","","","","","","","","","","","","","","","","","","feedback_test","","","","","","","",""
"949","","j","psychophysics","140","695363","0.0-8.0-0.0-1.1-0.1-0.64","3","3","2","2","3","3","3","2","4","4","4","-1","0","-2","-1","-2","0","-1","0","3","3","4","4","2","2","3","4","4","3","6","7","6","6","4","3","5","5","6","5","3","3","5","4","4","6","4","3","3","5","5","5","3","2","5","5","5","6","3","3","5","3","3","3","6","3","5","5","6","6","6","7","3","3","5","2","5","5","4","5","张","Female","[""好我"",""坏她"",""好她"",""坏我""]","[""强我"",""弱她"",""强她"",""弱我""]","","","","","","","","match","","","","","","","","","","key","j","16.662965217391637","640","356","j","true","match","img/pentagon.png","好我","好我","prac_ALT2_moral","practice_moral","","","","","","","",""
"null","<span style='color:GreenYellow; font-size: 70px;'>正确! </span>","null","html-keyboard-response","141","695876","0.0-8.0-0.0-1.1-0.1-1.64","3","3","2","2","3","3","3","2","4","4","4","-1","0","-2","-1","-2","0","-1","0","3","3","4","4","2","2","3","4","4","3","6","7","6","6","4","3","5","5","6","5","3","3","5","4","4","6","4","3","3","5","5","5","3","2","5","5","5","6","3","3","5","3","3","3","6","3","5","5","6","6","6","7","3","3","5","2","5","5","4","5","张","Female","[""好我"",""坏她"",""好她"",""坏我""]","[""强我"",""弱她"",""强她"",""弱我""]","","","","","","","","","","","","","","","","","","","","","","","","","","","","","","feedback_test","","","","","","","",""
"828","","f","psychophysics","142","697706","0.0-8.0-0.0-1.1-0.1-0.65","3","3","2","2","3","3","3","2","4","4","4","-1","0","-2","-1","-2","0","-1","0","3","3","4","4","2","2","3","4","4","3","6","7","6","6","4","3","5","5","6","5","3","3","5","4","4","6","4","3","3","5","5","5","3","2","5","5","5","6","3","3","5","3","3","3","6","3","5","5","6","6","6","7","3","3","5","2","5","5","4","5","张","Female","[""好我"",""坏她"",""好她"",""坏我""]","[""强我"",""弱她"",""强她"",""弱我""]","","","","","","","","nonmatch","","","","","","","","","","key","f","16.662222222222393","640","356","f","true","nonmatch","img/pentagon.png","坏她","好我","prac_ALT2_moral","practice_moral","","","","","","","",""
"null","<span style='color:GreenYellow; font-size: 70px;'>正确! </span>","null","html-keyboard-response","143","698208","0.0-8.0-0.0-1.1-0.1-1.65","3","3","2","2","3","3","3","2","4","4","4","-1","0","-2","-1","-2","0","-1","0","3","3","4","4","2","2","3","4","4","3","6","7","6","6","4","3","5","5","6","5","3","3","5","4","4","6","4","3","3","5","5","5","3","2","5","5","5","6","3","3","5","3","3","3","6","3","5","5","6","6","6","7","3","3","5","2","5","5","4","5","张","Female","[""好我"",""坏她"",""好她"",""坏我""]","[""强我"",""弱她"",""强她"",""弱我""]","","","","","","","","","","","","","","","","","","","","","","","","","","","","","","feedback_test","","","","","","","",""
