"rt","stimulus","response","trial_type","trial_index","time_elapsed","internal_node_id","swb_1","swb_2","swb_3","swb_4","swb_5","LOT_1","LOT_2","LOT_3","LOT_4","LOT_5","LOT_6","IPC_1","IPC_2","IPC_3","IPC_4","IPC_5","IPC_6","IPC_7","IPC_8","MorIden_1","MorIden_2","MorIden_3","MorIden_4","MorIden_5","MorIden_6","MorIden_7","MorIden_8","MorIden_9","MorIden_10","moralSeImag_1","moralSeImag_2","moralSeImag_3","moralSeImag_4","moralSeImag_5","moralSeImag_6","moralSeImag_7","moralSeImag_8","moralSeImag_9","sde_1","sde_2","sde_3","sde_4","sde_5","sde_6","sde_7","sde_8","sde_9","sde_10","sde_11","sde_12","sde_13","sde_14","sde_15","sde_16","sde_17","sde_18","sde_19","sde_20","IM_1","IM_2","IM_3","IM_4","IM_5","IM_6","IM_7","IM_8","IM_9","IM_10","IM_11","IM_12","IM_13","IM_14","IM_15","IM_16","IM_17","IM_18","IM_19","IM_20","subj_idx","friend_name","Sex","Word","Word2","value","success","timeout","failed_images","failed_audio","failed_video","user_agent","responses","item_order","radio_event_ids","radio_event_times","key_event_times","mouse_event_times","straightlining","zigzagging","honeypot","task_id","screen_id","time_stamp","response_type","key_press","avg_frame_time","center_x","center_y","person","word","valence","domain","math","correct_response","correct","status","view_history","identity","duration","Image","condition","question_order"
"333907","
   <p><div style='color:white; font-size: 25px'>您好，欢迎参加本次实验。</div></p>
   <p><div style='color:white; font-size: 25px'>为充分保障您的权利，请确保您已经知晓并同意《参与实验同意书》以及《数据公开知情同意书》。</div></p>
   <p><div style='color:white; font-size: 25px'>如果您未见过上述内容，请咨询实验员。</div></p>
   <p style='color:white; font-size: 25px'>如果您选择继续实验，则表示您已经清楚两份知情同意书的内容并同意。</p>
   <p> <div style = ""color: green""><按空格键至下页></div> </p>
   "," ","html-keyboard-response","0","333918","0.0-0.0","4","4","4","2","1","2","4","3","4","4","4","1","-1","-1","1","-2","0","1","1","5","4","5","4","4","3","3","2","3","4","3","4","4","4","3","3","3","4","4","5","3","3","3","5","2","5","2","4","3","3","3","5","3","2","5","4","4","3","3","3","5","4","3","3","5","3","5","5","5","3","5","6","4","5","5","3","6","3","5","742006860881858562","刘","Female","[""好她"",""坏她"",""好我"",""坏我""]","[""强她"",""弱她"",""强我"",""弱我""]","","","","","","","","","","","","","","","","","","","","","","","","","","","","","","","","","","","","","",""
"","","","call-function","1","333923","0.0-1.0-0.0","4","4","4","2","1","2","4","3","4","4","4","1","-1","-1","1","-2","0","1","1","5","4","5","4","4","3","3","2","3","4","3","4","4","4","3","3","3","4","4","5","3","3","3","5","2","5","2","4","3","3","3","5","3","2","5","4","4","3","3","3","5","4","3","3","5","3","5","5","5","3","5","6","4","5","5","3","6","3","5","742006860881858562","刘","Female","[""好她"",""坏她"",""好我"",""坏我""]","[""强她"",""弱她"",""强我"",""弱我""]","","","","","","","","","","","","","","","","","","","","","","","","","","","","","","","","","","","","","",""
"30881","","[{""name"":""Sex"",""value"":""1""},{""name"":""friend_name"",""value"":""刘""},{""name"":""subj_idx"",""value"":""742006860881858562""}]","survey-html-form","2","364806","0.0-1.0-1.0","4","4","4","2","1","2","4","3","4","4","4","1","-1","-1","1","-2","0","1","1","5","4","5","4","4","3","3","2","3","4","3","4","4","4","3","3","3","4","4","5","3","3","3","5","2","5","2","4","3","3","3","5","3","2","5","4","4","3","3","3","5","4","3","3","5","3","5","5","5","3","5","6","4","5","5","3","6","3","5","742006860881858562","刘","Female","[""好她"",""坏她"",""好我"",""坏我""]","[""强她"",""弱她"",""强我"",""弱我""]","","","","","","","","","","","","","","","","","","","","","","","","","","","","","","","","","","","","","",""
"","","","preload","3","365139","0.0-2.0","4","4","4","2","1","2","4","3","4","4","4","1","-1","-1","1","-2","0","1","1","5","4","5","4","4","3","3","2","3","4","3","4","4","4","3","3","3","4","4","5","3","3","3","5","2","5","2","4","3","3","3","5","3","2","5","4","4","3","3","3","5","4","3","3","5","3","5","5","5","3","5","6","4","5","5","3","6","3","5","742006860881858562","刘","Female","[""好她"",""坏她"",""好我"",""坏我""]","[""强她"",""弱她"",""强我"",""弱我""]","","true","false","[]","[]","[]","","","","","","","","","","","","","","","","","","","","","","","","","","","","","","","",""
"","","","fullscreen","4","383424","0.0-3.0","4","4","4","2","1","2","4","3","4","4","4","1","-1","-1","1","-2","0","1","1","5","4","5","4","4","3","3","2","3","4","3","4","4","4","3","3","3","4","4","5","3","3","3","5","2","5","2","4","3","3","3","5","3","2","5","4","4","3","3","3","5","4","3","3","5","3","5","5","5","3","5","6","4","5","5","3","6","3","5","742006860881858562","刘","Female","[""好她"",""坏她"",""好我"",""坏我""]","[""强她"",""弱她"",""强我"",""弱我""]","","true","","","","","{}","","","","","","","","","","","","","","","","","","","","","","","","","","","","","","",""
"19380.89999999851","","{""Q01"":""4"",""Q02"":""4"",""Q03"":""4"",""Q04"":""2"",""Q05"":""1""}","survey-template","5","402809","0.0-4.0","4","4","4","2","1","2","4","3","4","4","4","1","-1","-1","1","-2","0","1","1","5","4","5","4","4","3","3","2","3","4","3","4","4","4","3","3","3","4","4","5","3","3","3","5","2","5","2","4","3","3","3","5","3","2","5","4","4","3","3","3","5","4","3","3","5","3","5","5","5","3","5","6","4","5","5","3","6","3","5","742006860881858562","刘","Female","[""好她"",""坏她"",""好我"",""坏我""]","[""强她"",""弱她"",""强我"",""弱我""]","","","","","","","","{""Q01"":""4"",""Q02"":""4"",""Q03"":""4"",""Q04"":""2"",""Q05"":""1""}","[0,1,2,3,4]","[""Q01"",""Q02"",""Q03"",""Q04"",""Q05""]","[7367,11915.699999999255,13722.800000000745,15686.599999997765,18139.099999997765]","[]","[7367,11915.699999999255,13722.800000000745,15686.599999997765,18139.099999997765,19379]","0.6","0.25","0","","","","","","","","","","","","","","","","","","","","","",""
"47810.70000000298","","{""Q01"":""2"",""Q02"":""4"",""Q03"":""3"",""Q04"":""4"",""Q05"":""4"",""Q06"":""4""}","survey-template","6","450625","0.0-5.0","4","4","4","2","1","2","4","3","4","4","4","1","-1","-1","1","-2","0","1","1","5","4","5","4","4","3","3","2","3","4","3","4","4","4","3","3","3","4","4","5","3","3","3","5","2","5","2","4","3","3","3","5","3","2","5","4","4","3","3","3","5","4","3","3","5","3","5","5","5","3","5","6","4","5","5","3","6","3","5","742006860881858562","刘","Female","[""好她"",""坏她"",""好我"",""坏我""]","[""强她"",""弱她"",""强我"",""弱我""]","","","","","","","","{""Q01"":""2"",""Q02"":""4"",""Q03"":""3"",""Q04"":""4"",""Q05"":""4"",""Q06"":""4""}","[0,1,2,3,4,5]","[""Q01"",""Q02"",""Q03"",""Q04"",""Q05"",""Q06"",""Q06""]","[5146.60000000149,36851.400000002235,38847.60000000149,42463.5,43814.20000000298,46561.60000000149,47275.400000002235]","[]","[5146.60000000149,20897.300000000745,36851.400000002235,38847.60000000149,41687.60000000149,42463.5,43814.20000000298,46561.60000000149,47275.400000002235,47809.60000000149]","0.6666666666666666","0.4","0","","","","","","","","","","","","","","","","","","","","","",""
"30778.800000000745","","{""Q01"":""1"",""Q02"":""-1"",""Q03"":""-1"",""Q04"":""1"",""Q05"":""-2"",""Q06"":""0"",""Q07"":""1"",""Q08"":""1""}","survey-template","7","481409","0.0-6.0","4","4","4","2","1","2","4","3","4","4","4","1","-1","-1","1","-2","0","1","1","5","4","5","4","4","3","3","2","3","4","3","4","4","4","3","3","3","4","4","5","3","3","3","5","2","5","2","4","3","3","3","5","3","2","5","4","4","3","3","3","5","4","3","3","5","3","5","5","5","3","5","6","4","5","5","3","6","3","5","742006860881858562","刘","Female","[""好她"",""坏她"",""好我"",""坏我""]","[""强她"",""弱她"",""强我"",""弱我""]","","","","","","","","{""Q01"":""1"",""Q02"":""-1"",""Q03"":""-1"",""Q04"":""1"",""Q05"":""-2"",""Q06"":""0"",""Q07"":""1"",""Q08"":""1""}","[0,1,2,3,4,5,6,7]","[""Q01"",""Q02"",""Q03"",""Q04"",""Q05"",""Q06"",""Q07"",""Q08""]","[5441.900000002235,11347.900000002235,16012.300000000745,19100.300000000745,22110.400000002235,24710.300000000745,28495.900000002235,30256.20000000298]","[]","[5441.900000002235,11347.900000002235,15306.10000000149,15655.300000000745,16012.300000000745,19100.300000000745,22110.400000002235,24710.300000000745,28495.900000002235,30256.20000000298,30776.5]","0.5","0.14285714285714285","0","","","","","","","","","","","","","","","","","","","","","",""
"13749","
    <p><div style='color:white;font-size:35px; line-height:20px;'>词汇评估任务</div></p><br>
    <p><div style='color:white;font-size:25px; line-height:20px;'>请再次回忆该亲密的朋友，你们至少2年前就认识了，并且最近2年经常见面。</div></p>
    <p><div style='color:white;font-size:25px; line-height:20px;'>在本实验中，您将会看到一些形容词。</div></p>
    <p><div style='color:yellow;font-size:25px; line-height:20px;'>您的任务是判断这些形容词是否符合对您自己或您的朋友的描述。</div></p><p font-size:35px'>符合按<span style=""color:lightgreen""> f 键</span>，不符合按<span style=""color:red""> j 键</span></p>","0","html-button-response","8","495165","0.0-7.0-0.0","4","4","4","2","1","2","4","3","4","4","4","1","-1","-1","1","-2","0","1","1","5","4","5","4","4","3","3","2","3","4","3","4","4","4","3","3","3","4","4","5","3","3","3","5","2","5","2","4","3","3","3","5","3","2","5","4","4","3","3","3","5","4","3","3","5","3","5","5","5","3","5","6","4","5","5","3","6","3","5","742006860881858562","刘","Female","[""好她"",""坏她"",""好我"",""坏我""]","[""强她"",""弱她"",""强我"",""弱我""]","","","","","","","","","","","","","","","","","SRET_EW","EW_instructions","Tue Aug 22 2023 21:38:52 GMT+0800 (中国标准时间)","","","","","","","","","","","","","","","","","","",""
"87494","","f","psychophysics","9","583665","0.0-7.0-1.0-0.0","4","4","4","2","1","2","4","3","4","4","4","1","-1","-1","1","-2","0","1","1","5","4","5","4","4","3","3","2","3","4","3","4","4","4","3","3","3","4","4","5","3","3","3","5","2","5","2","4","3","3","3","5","3","2","5","4","4","3","3","3","5","4","3","3","5","3","5","5","5","3","5","6","4","5","5","3","6","3","5","742006860881858562","刘","Female","[""好她"",""坏她"",""好我"",""坏我""]","[""强她"",""弱她"",""强我"",""弱我""]","","","","","","","","yes","","","","","","","","","SRET_EW","EW_practice","","key","f","17.17087543655413","581.8181692076126","359.9999921972103","朋友","徇私","Negative","morality","","","","","","","","","",""
"3246","","j","psychophysics","10","587917","0.0-7.0-1.0-0.1","4","4","4","2","1","2","4","3","4","4","4","1","-1","-1","1","-2","0","1","1","5","4","5","4","4","3","3","2","3","4","3","4","4","4","3","3","3","4","4","5","3","3","3","5","2","5","2","4","3","3","3","5","3","2","5","4","4","3","3","3","5","4","3","3","5","3","5","5","5","3","5","6","4","5","5","3","6","3","5","742006860881858562","刘","Female","[""好她"",""坏她"",""好我"",""坏我""]","[""强她"",""弱她"",""强我"",""弱我""]","","","","","","","","no","","","","","","","","","SRET_EW","EW_practice","","key","j","16.667637795275425","581.8181692076126","359.9999921972103","自己","严谨","Positive","ability","","","","","","","","","",""
"1537","","j","psychophysics","11","590457","0.0-7.0-1.0-0.2","4","4","4","2","1","2","4","3","4","4","4","1","-1","-1","1","-2","0","1","1","5","4","5","4","4","3","3","2","3","4","3","4","4","4","3","3","3","4","4","5","3","3","3","5","2","5","2","4","3","3","3","5","3","2","5","4","4","3","3","3","5","4","3","3","5","3","5","5","5","3","5","6","4","5","5","3","6","3","5","742006860881858562","刘","Female","[""好她"",""坏她"",""好我"",""坏我""]","[""强她"",""弱她"",""强我"",""弱我""]","","","","","","","","no","","","","","","","","","SRET_EW","EW_practice","","key","j","17.11553378378409","581.8181692076126","359.9999921972103","朋友","忠实","Positive","morality","","","","","","","","","",""
"1392","","j","psychophysics","12","592853","0.0-7.0-1.0-0.3","4","4","4","2","1","2","4","3","4","4","4","1","-1","-1","1","-2","0","1","1","5","4","5","4","4","3","3","2","3","4","3","4","4","4","3","3","3","4","4","5","3","3","3","5","2","5","2","4","3","3","3","5","3","2","5","4","4","3","3","3","5","4","3","3","5","3","5","5","5","3","5","6","4","5","5","3","6","3","5","742006860881858562","刘","Female","[""好她"",""坏她"",""好我"",""坏我""]","[""强她"",""弱她"",""强我"",""弱我""]","","","","","","","","no","","","","","","","","","SRET_EW","EW_practice","","key","j","17.276897810218536","581.8181692076126","359.9999921972103","自己","刻板","Negative","ability","","","","","","","","","",""
"11399","
    <p><div style='color:white;font-size:35px; line-height:20px;'>请您再次阅读实验要求</div></p><br>
    <p><div style='color:white;font-size:25px; line-height:20px;'>请回忆某一个亲密的朋友，你们至少2年前就认识了，并且最近2年经常见面。</div></p>
    <p><div style='color:white;font-size:25px; line-height:20px;'>在本实验中，您将会看到一些形容词。</div></p>
    <p><div style='color:yellow;font-size:25px; line-height:20px;'>您的任务是判断这些形容词是否符合对您自己或您的朋友的描述。</div></p>
    <p><div class='footer' style='font-size:25px; line-height:20px;'>如果对本实验还有不清楚之处，请立即向实验员咨询。</p><p style='font-size:25px; line-height:20px;'>如果您明白了规则：</p><p style='font-size:22px; line-height:20px;'>请按 继续 进入正式实验</p>
    </div>
    <p font-size:35px'>符合按<span style=""color:lightgreen""> f 键</span>，不符合按<span style=""color:red""> j 键</span></p>","0","html-button-response","13","604255","0.0-7.0-2.0","4","4","4","2","1","2","4","3","4","4","4","1","-1","-1","1","-2","0","1","1","5","4","5","4","4","3","3","2","3","4","3","4","4","4","3","3","3","4","4","5","3","3","3","5","2","5","2","4","3","3","3","5","3","2","5","4","4","3","3","3","5","4","3","3","5","3","5","5","5","3","5","6","4","5","5","3","6","3","5","742006860881858562","刘","Female","[""好她"",""坏她"",""好我"",""坏我""]","[""强她"",""弱她"",""强我"",""弱我""]","","","","","","","","","","","","","","","","","SRET_EW","prac_instructions","Tue Aug 22 2023 21:38:52 GMT+0800 (中国标准时间)","","","","","","","","","","","","","","","","","","",""
"1734","","f","psychophysics","14","606991","0.0-7.0-3.0-0.0","4","4","4","2","1","2","4","3","4","4","4","1","-1","-1","1","-2","0","1","1","5","4","5","4","4","3","3","2","3","4","3","4","4","4","3","3","3","4","4","5","3","3","3","5","2","5","2","4","3","3","3","5","3","2","5","4","4","3","3","3","5","4","3","3","5","3","5","5","5","3","5","6","4","5","5","3","6","3","5","742006860881858562","刘","Female","[""好她"",""坏她"",""好我"",""坏我""]","[""强她"",""弱她"",""强我"",""弱我""]","","","","","","","","yes","","","","","","","","","SRET","EW_formal","","key","f","19.807920289855193","581.8181692076126","359.9999921972103","朋友","务实","Positive","ability","","","","","","","","","",""
"1011","","j","psychophysics","15","609005","0.0-7.0-3.0-0.1","4","4","4","2","1","2","4","3","4","4","4","1","-1","-1","1","-2","0","1","1","5","4","5","4","4","3","3","2","3","4","3","4","4","4","3","3","3","4","4","5","3","3","3","5","2","5","2","4","3","3","3","5","3","2","5","4","4","3","3","3","5","4","3","3","5","3","5","5","5","3","5","6","4","5","5","3","6","3","5","742006860881858562","刘","Female","[""好她"",""坏她"",""好我"",""坏我""]","[""强她"",""弱她"",""强我"",""弱我""]","","","","","","","","no","","","","","","","","","SRET","EW_formal","","key","j","18.19511009174305","581.8181692076126","359.9999921972103","自己","说谎","Negative","morality","","","","","","","","","",""
"1922","","f","psychophysics","16","611930","0.0-7.0-3.0-0.2","4","4","4","2","1","2","4","3","4","4","4","1","-1","-1","1","-2","0","1","1","5","4","5","4","4","3","3","2","3","4","3","4","4","4","3","3","3","4","4","5","3","3","3","5","2","5","2","4","3","3","3","5","3","2","5","4","4","3","3","3","5","4","3","3","5","3","5","5","5","3","5","6","4","5","5","3","6","3","5","742006860881858562","刘","Female","[""好她"",""坏她"",""好我"",""坏我""]","[""强她"",""弱她"",""强我"",""弱我""]","","","","","","","","yes","","","","","","","","","SRET","EW_formal","","key","f","17.472114457831584","581.8181692076126","359.9999921972103","自己","坚贞","Positive","morality","","","","","","","","","",""
"1642","","j","psychophysics","17","614575","0.0-7.0-3.0-0.3","4","4","4","2","1","2","4","3","4","4","4","1","-1","-1","1","-2","0","1","1","5","4","5","4","4","3","3","2","3","4","3","4","4","4","3","3","3","4","4","5","3","3","3","5","2","5","2","4","3","3","3","5","3","2","5","4","4","3","3","3","5","4","3","3","5","3","5","5","5","3","5","6","4","5","5","3","6","3","5","742006860881858562","刘","Female","[""好她"",""坏她"",""好我"",""坏我""]","[""强她"",""弱她"",""强我"",""弱我""]","","","","","","","","no","","","","","","","","","SRET","EW_formal","","key","j","17.557479999999828","581.8181692076126","359.9999921972103","朋友","迷糊","Negative","ability","","","","","","","","","",""
"1390","","f","psychophysics","18","616968","0.0-7.0-3.0-0.4","4","4","4","2","1","2","4","3","4","4","4","1","-1","-1","1","-2","0","1","1","5","4","5","4","4","3","3","2","3","4","3","4","4","4","3","3","3","4","4","5","3","3","3","5","2","5","2","4","3","3","3","5","3","2","5","4","4","3","3","3","5","4","3","3","5","3","5","5","5","3","5","6","4","5","5","3","6","3","5","742006860881858562","刘","Female","[""好她"",""坏她"",""好我"",""坏我""]","[""强她"",""弱她"",""强我"",""弱我""]","","","","","","","","yes","","","","","","","","","SRET","EW_formal","","key","f","17.40066911764734","581.8181692076126","359.9999921972103","朋友","娴熟","Positive","ability","","","","","","","","","",""
"1561","","j","psychophysics","19","619537","0.0-7.0-3.0-0.5","4","4","4","2","1","2","4","3","4","4","4","1","-1","-1","1","-2","0","1","1","5","4","5","4","4","3","3","2","3","4","3","4","4","4","3","3","3","4","4","5","3","3","3","5","2","5","2","4","3","3","3","5","3","2","5","4","4","3","3","3","5","4","3","3","5","3","5","5","5","3","5","6","4","5","5","3","6","3","5","742006860881858562","刘","Female","[""好她"",""坏她"",""好我"",""坏我""]","[""强她"",""弱她"",""强我"",""弱我""]","","","","","","","","no","","","","","","","","","SRET","EW_formal","","key","j","17.00269999999941","581.8181692076126","359.9999921972103","自己","逞能","Negative","ability","","","","","","","","","",""
"1926","","j","psychophysics","20","622467","0.0-7.0-3.0-0.6","4","4","4","2","1","2","4","3","4","4","4","1","-1","-1","1","-2","0","1","1","5","4","5","4","4","3","3","2","3","4","3","4","4","4","3","3","3","4","4","5","3","3","3","5","2","5","2","4","3","3","3","5","3","2","5","4","4","3","3","3","5","4","3","3","5","3","5","5","5","3","5","6","4","5","5","3","6","3","5","742006860881858562","刘","Female","[""好她"",""坏她"",""好我"",""坏我""]","[""强她"",""弱她"",""强我"",""弱我""]","","","","","","","","no","","","","","","","","","SRET","EW_formal","","key","j","16.764034482758845","581.8181692076126","359.9999921972103","自己","思辨","Positive","ability","","","","","","","","","",""
"1308","","j","psychophysics","21","624778","0.0-7.0-3.0-0.7","4","4","4","2","1","2","4","3","4","4","4","1","-1","-1","1","-2","0","1","1","5","4","5","4","4","3","3","2","3","4","3","4","4","4","3","3","3","4","4","5","3","3","3","5","2","5","2","4","3","3","3","5","3","2","5","4","4","3","3","3","5","4","3","3","5","3","5","5","5","3","5","6","4","5","5","3","6","3","5","742006860881858562","刘","Female","[""好她"",""坏她"",""好我"",""坏我""]","[""强她"",""弱她"",""强我"",""弱我""]","","","","","","","","no","","","","","","","","","SRET","EW_formal","","key","j","16.789941605839907","581.8181692076126","359.9999921972103","朋友","犹豫","Negative","ability","","","","","","","","","",""
"3236","","f","psychophysics","22","629017","0.0-7.0-3.0-0.8","4","4","4","2","1","2","4","3","4","4","4","1","-1","-1","1","-2","0","1","1","5","4","5","4","4","3","3","2","3","4","3","4","4","4","3","3","3","4","4","5","3","3","3","5","2","5","2","4","3","3","3","5","3","2","5","4","4","3","3","3","5","4","3","3","5","3","5","5","5","3","5","6","4","5","5","3","6","3","5","742006860881858562","刘","Female","[""好她"",""坏她"",""好我"",""坏我""]","[""强她"",""弱她"",""强我"",""弱我""]","","","","","","","","yes","","","","","","","","","SRET","EW_formal","","key","f","16.732468253968463","581.8181692076126","359.9999921972103","朋友","淡泊","Positive","morality","","","","","","","","","",""
"793","","f","psychophysics","23","630812","0.0-7.0-3.0-0.9","4","4","4","2","1","2","4","3","4","4","4","1","-1","-1","1","-2","0","1","1","5","4","5","4","4","3","3","2","3","4","3","4","4","4","3","3","3","4","4","5","3","3","3","5","2","5","2","4","3","3","3","5","3","2","5","4","4","3","3","3","5","4","3","3","5","3","5","5","5","3","5","6","4","5","5","3","6","3","5","742006860881858562","刘","Female","[""好她"",""坏她"",""好我"",""坏我""]","[""强她"",""弱她"",""强我"",""弱我""]","","","","","","","","yes","","","","","","","","","SRET","EW_formal","","key","f","16.823566037735393","581.8181692076126","359.9999921972103","朋友","宽容","Positive","morality","","","","","","","","","",""
"916","","j","psychophysics","24","632732","0.0-7.0-3.0-0.10","4","4","4","2","1","2","4","3","4","4","4","1","-1","-1","1","-2","0","1","1","5","4","5","4","4","3","3","2","3","4","3","4","4","4","3","3","3","4","4","5","3","3","3","5","2","5","2","4","3","3","3","5","3","2","5","4","4","3","3","3","5","4","3","3","5","3","5","5","5","3","5","6","4","5","5","3","6","3","5","742006860881858562","刘","Female","[""好她"",""坏她"",""好我"",""坏我""]","[""强她"",""弱她"",""强我"",""弱我""]","","","","","","","","no","","","","","","","","","SRET","EW_formal","","key","j","16.96716964285692","581.8181692076126","359.9999921972103","朋友","虚伪","Negative","morality","","","","","","","","","",""
"2259","","f","psychophysics","25","635993","0.0-7.0-3.0-0.11","4","4","4","2","1","2","4","3","4","4","4","1","-1","-1","1","-2","0","1","1","5","4","5","4","4","3","3","2","3","4","3","4","4","4","3","3","3","4","4","5","3","3","3","5","2","5","2","4","3","3","3","5","3","2","5","4","4","3","3","3","5","4","3","3","5","3","5","5","5","3","5","6","4","5","5","3","6","3","5","742006860881858562","刘","Female","[""好她"",""坏她"",""好我"",""坏我""]","[""强她"",""弱她"",""强我"",""弱我""]","","","","","","","","yes","","","","","","","","","SRET","EW_formal","","key","f","16.927765625000273","581.8181692076126","359.9999921972103","自己","正气","Positive","morality","","","","","","","","","",""
"1207","","j","psychophysics","26","638204","0.0-7.0-3.0-0.12","4","4","4","2","1","2","4","3","4","4","4","1","-1","-1","1","-2","0","1","1","5","4","5","4","4","3","3","2","3","4","3","4","4","4","3","3","3","4","4","5","3","3","3","5","2","5","2","4","3","3","3","5","3","2","5","4","4","3","3","3","5","4","3","3","5","3","5","5","5","3","5","6","4","5","5","3","6","3","5","742006860881858562","刘","Female","[""好她"",""坏她"",""好我"",""坏我""]","[""强她"",""弱她"",""强我"",""弱我""]","","","","","","","","no","","","","","","","","","SRET","EW_formal","","key","j","16.792519083969076","581.8181692076126","359.9999921972103","自己","果断","Positive","ability","","","","","","","","","",""
"1006","","j","psychophysics","27","640213","0.0-7.0-3.0-0.13","4","4","4","2","1","2","4","3","4","4","4","1","-1","-1","1","-2","0","1","1","5","4","5","4","4","3","3","2","3","4","3","4","4","4","3","3","3","4","4","5","3","3","3","5","2","5","2","4","3","3","3","5","3","2","5","4","4","3","3","3","5","4","3","3","5","3","5","5","5","3","5","6","4","5","5","3","6","3","5","742006860881858562","刘","Female","[""好她"",""坏她"",""好我"",""坏我""]","[""强她"",""弱她"",""强我"",""弱我""]","","","","","","","","no","","","","","","","","","SRET","EW_formal","","key","j","16.807389830508452","581.8181692076126","359.9999921972103","自己","小人","Negative","morality","","","","","","","","","",""
"1069","","j","psychophysics","28","642284","0.0-7.0-3.0-0.14","4","4","4","2","1","2","4","3","4","4","4","1","-1","-1","1","-2","0","1","1","5","4","5","4","4","3","3","2","3","4","3","4","4","4","3","3","3","4","4","5","3","3","3","5","2","5","2","4","3","3","3","5","3","2","5","4","4","3","3","3","5","4","3","3","5","3","5","5","5","3","5","6","4","5","5","3","6","3","5","742006860881858562","刘","Female","[""好她"",""坏她"",""好我"",""坏我""]","[""强她"",""弱她"",""强我"",""弱我""]","","","","","","","","no","","","","","","","","","SRET","EW_formal","","key","j","16.80294262295108","581.8181692076126","359.9999921972103","朋友","蛇蝎","Negative","morality","","","","","","","","","",""
"888","","j","psychophysics","29","644176","0.0-7.0-3.0-0.15","4","4","4","2","1","2","4","3","4","4","4","1","-1","-1","1","-2","0","1","1","5","4","5","4","4","3","3","2","3","4","3","4","4","4","3","3","3","4","4","5","3","3","3","5","2","5","2","4","3","3","3","5","3","2","5","4","4","3","3","3","5","4","3","3","5","3","5","5","5","3","5","6","4","5","5","3","6","3","5","742006860881858562","刘","Female","[""好她"",""坏她"",""好我"",""坏我""]","[""强她"",""弱她"",""强我"",""弱我""]","","","","","","","","no","","","","","","","","","SRET","EW_formal","","key","j","17.12330909090921","581.8181692076126","359.9999921972103","自己","混账","Negative","morality","","","","","","","","","",""
"927","","f","psychophysics","30","646106","0.0-7.0-3.0-0.16","4","4","4","2","1","2","4","3","4","4","4","1","-1","-1","1","-2","0","1","1","5","4","5","4","4","3","3","2","3","4","3","4","4","4","3","3","3","4","4","5","3","3","3","5","2","5","2","4","3","3","3","5","3","2","5","4","4","3","3","3","5","4","3","3","5","3","5","5","5","3","5","6","4","5","5","3","6","3","5","742006860881858562","刘","Female","[""好她"",""坏她"",""好我"",""坏我""]","[""强她"",""弱她"",""强我"",""弱我""]","","","","","","","","yes","","","","","","","","","SRET","EW_formal","","key","f","16.81325438596398","581.8181692076126","359.9999921972103","朋友","忠诚","Positive","morality","","","","","","","","","",""
"1061","","f","psychophysics","31","648170","0.0-7.0-3.0-0.17","4","4","4","2","1","2","4","3","4","4","4","1","-1","-1","1","-2","0","1","1","5","4","5","4","4","3","3","2","3","4","3","4","4","4","3","3","3","4","4","5","3","3","3","5","2","5","2","4","3","3","3","5","3","2","5","4","4","3","3","3","5","4","3","3","5","3","5","5","5","3","5","6","4","5","5","3","6","3","5","742006860881858562","刘","Female","[""好她"",""坏她"",""好我"",""坏我""]","[""强她"",""弱她"",""强我"",""弱我""]","","","","","","","","yes","","","","","","","","","SRET","EW_formal","","key","f","16.942675000000357","581.8181692076126","359.9999921972103","自己","好心","Positive","morality","","","","","","","","","",""
"2016","","j","psychophysics","32","651190","0.0-7.0-3.0-0.18","4","4","4","2","1","2","4","3","4","4","4","1","-1","-1","1","-2","0","1","1","5","4","5","4","4","3","3","2","3","4","3","4","4","4","3","3","3","4","4","5","3","3","3","5","2","5","2","4","3","3","3","5","3","2","5","4","4","3","3","3","5","4","3","3","5","3","5","5","5","3","5","6","4","5","5","3","6","3","5","742006860881858562","刘","Female","[""好她"",""坏她"",""好我"",""坏我""]","[""强她"",""弱她"",""强我"",""弱我""]","","","","","","","","no","","","","","","","","","SRET","EW_formal","","key","j","16.667060773480088","581.8181692076126","359.9999921972103","朋友","逞强","Negative","ability","","","","","","","","","",""
"1314","","f","psychophysics","33","653506","0.0-7.0-3.0-0.19","4","4","4","2","1","2","4","3","4","4","4","1","-1","-1","1","-2","0","1","1","5","4","5","4","4","3","3","2","3","4","3","4","4","4","3","3","3","4","4","5","3","3","3","5","2","5","2","4","3","3","3","5","3","2","5","4","4","3","3","3","5","4","3","3","5","3","5","5","5","3","5","6","4","5","5","3","6","3","5","742006860881858562","刘","Female","[""好她"",""坏她"",""好我"",""坏我""]","[""强她"",""弱她"",""强我"",""弱我""]","","","","","","","","yes","","","","","","","","","SRET","EW_formal","","key","f","16.78943795620474","581.8181692076126","359.9999921972103","自己","自私","Negative","morality","","","","","","","","","",""
"1088","","j","psychophysics","34","655598","0.0-7.0-3.0-0.20","4","4","4","2","1","2","4","3","4","4","4","1","-1","-1","1","-2","0","1","1","5","4","5","4","4","3","3","2","3","4","3","4","4","4","3","3","3","4","4","5","3","3","3","5","2","5","2","4","3","3","3","5","3","2","5","4","4","3","3","3","5","4","3","3","5","3","5","5","5","3","5","6","4","5","5","3","6","3","5","742006860881858562","刘","Female","[""好她"",""坏她"",""好我"",""坏我""]","[""强她"",""弱她"",""强我"",""弱我""]","","","","","","","","no","","","","","","","","","SRET","EW_formal","","key","j","17.22415000000037","581.8181692076126","359.9999921972103","自己","拜金","Negative","morality","","","","","","","","","",""
"1039","","j","psychophysics","35","657641","0.0-7.0-3.0-0.21","4","4","4","2","1","2","4","3","4","4","4","1","-1","-1","1","-2","0","1","1","5","4","5","4","4","3","3","2","3","4","3","4","4","4","3","3","3","4","4","5","3","3","3","5","2","5","2","4","3","3","3","5","3","2","5","4","4","3","3","3","5","4","3","3","5","3","5","5","5","3","5","6","4","5","5","3","6","3","5","742006860881858562","刘","Female","[""好她"",""坏她"",""好我"",""坏我""]","[""强她"",""弱她"",""强我"",""弱我""]","","","","","","","","no","","","","","","","","","SRET","EW_formal","","key","j","17.089495798318545","581.8181692076126","359.9999921972103","朋友","失信","Negative","morality","","","","","","","","","",""
"1246","","j","psychophysics","36","659890","0.0-7.0-3.0-0.22","4","4","4","2","1","2","4","3","4","4","4","1","-1","-1","1","-2","0","1","1","5","4","5","4","4","3","3","2","3","4","3","4","4","4","3","3","3","4","4","5","3","3","3","5","2","5","2","4","3","3","3","5","3","2","5","4","4","3","3","3","5","4","3","3","5","3","5","5","5","3","5","6","4","5","5","3","6","3","5","742006860881858562","刘","Female","[""好她"",""坏她"",""好我"",""坏我""]","[""强她"",""弱她"",""强我"",""弱我""]","","","","","","","","no","","","","","","","","","SRET","EW_formal","","key","j","17.050404580152694","581.8181692076126","359.9999921972103","朋友","盲目","Negative","ability","","","","","","","","","",""
"1253","","f","psychophysics","37","662146","0.0-7.0-3.0-0.23","4","4","4","2","1","2","4","3","4","4","4","1","-1","-1","1","-2","0","1","1","5","4","5","4","4","3","3","2","3","4","3","4","4","4","3","3","3","4","4","5","3","3","3","5","2","5","2","4","3","3","3","5","3","2","5","4","4","3","3","3","5","4","3","3","5","3","5","5","5","3","5","6","4","5","5","3","6","3","5","742006860881858562","刘","Female","[""好她"",""坏她"",""好我"",""坏我""]","[""强她"",""弱她"",""强我"",""弱我""]","","","","","","","","yes","","","","","","","","","SRET","EW_formal","","key","f","17.0469923664119","581.8181692076126","359.9999921972103","自己","拖延","Negative","ability","","","","","","","","","",""
"984","","j","psychophysics","38","664132","0.0-7.0-3.0-0.24","4","4","4","2","1","2","4","3","4","4","4","1","-1","-1","1","-2","0","1","1","5","4","5","4","4","3","3","2","3","4","3","4","4","4","3","3","3","4","4","5","3","3","3","5","2","5","2","4","3","3","3","5","3","2","5","4","4","3","3","3","5","4","3","3","5","3","5","5","5","3","5","6","4","5","5","3","6","3","5","742006860881858562","刘","Female","[""好她"",""坏她"",""好我"",""坏我""]","[""强她"",""弱她"",""强我"",""弱我""]","","","","","","","","no","","","","","","","","","SRET","EW_formal","","key","j","17.56135714285795","581.8181692076126","359.9999921972103","朋友","刻薄","Negative","morality","","","","","","","","","",""
"1487","","f","psychophysics","39","666622","0.0-7.0-3.0-0.25","4","4","4","2","1","2","4","3","4","4","4","1","-1","-1","1","-2","0","1","1","5","4","5","4","4","3","3","2","3","4","3","4","4","4","3","3","3","4","4","5","3","3","3","5","2","5","2","4","3","3","3","5","3","2","5","4","4","3","3","3","5","4","3","3","5","3","5","5","5","3","5","6","4","5","5","3","6","3","5","742006860881858562","刘","Female","[""好她"",""坏她"",""好我"",""坏我""]","[""强她"",""弱她"",""强我"",""弱我""]","","","","","","","","yes","","","","","","","","","SRET","EW_formal","","key","f","17.36629370629374","581.8181692076126","359.9999921972103","自己","善心","Positive","morality","","","","","","","","","",""
"1299","","f","psychophysics","40","668924","0.0-7.0-3.0-0.26","4","4","4","2","1","2","4","3","4","4","4","1","-1","-1","1","-2","0","1","1","5","4","5","4","4","3","3","2","3","4","3","4","4","4","3","3","3","4","4","5","3","3","3","5","2","5","2","4","3","3","3","5","3","2","5","4","4","3","3","3","5","4","3","3","5","3","5","5","5","3","5","6","4","5","5","3","6","3","5","742006860881858562","刘","Female","[""好她"",""坏她"",""好我"",""坏我""]","[""强她"",""弱她"",""强我"",""弱我""]","","","","","","","","yes","","","","","","","","","SRET","EW_formal","","key","f","17.040597014924955","581.8181692076126","359.9999921972103","朋友","博识","Positive","ability","","","","","","","","","",""
"1306","","f","psychophysics","41","671232","0.0-7.0-3.0-0.27","4","4","4","2","1","2","4","3","4","4","4","1","-1","-1","1","-2","0","1","1","5","4","5","4","4","3","3","2","3","4","3","4","4","4","3","3","3","4","4","5","3","3","3","5","2","5","2","4","3","3","3","5","3","2","5","4","4","3","3","3","5","4","3","3","5","3","5","5","5","3","5","6","4","5","5","3","6","3","5","742006860881858562","刘","Female","[""好她"",""坏她"",""好我"",""坏我""]","[""强她"",""弱她"",""强我"",""弱我""]","","","","","","","","yes","","","","","","","","","SRET","EW_formal","","key","f","17.039104477611872","581.8181692076126","359.9999921972103","朋友","仗义","Positive","morality","","","","","","","","","",""
"863","","j","psychophysics","42","673100","0.0-7.0-3.0-0.28","4","4","4","2","1","2","4","3","4","4","4","1","-1","-1","1","-2","0","1","1","5","4","5","4","4","3","3","2","3","4","3","4","4","4","3","3","3","4","4","5","3","3","3","5","2","5","2","4","3","3","3","5","3","2","5","4","4","3","3","3","5","4","3","3","5","3","5","5","5","3","5","6","4","5","5","3","6","3","5","742006860881858562","刘","Female","[""好她"",""坏她"",""好我"",""坏我""]","[""强她"",""弱她"",""强我"",""弱我""]","","","","","","","","no","","","","","","","","","SRET","EW_formal","","key","j","17.786317307692325","581.8181692076126","359.9999921972103","自己","无赖","Negative","morality","","","","","","","","","",""
"1823","","f","psychophysics","43","675927","0.0-7.0-3.0-0.29","4","4","4","2","1","2","4","3","4","4","4","1","-1","-1","1","-2","0","1","1","5","4","5","4","4","3","3","2","3","4","3","4","4","4","3","3","3","4","4","5","3","3","3","5","2","5","2","4","3","3","3","5","3","2","5","4","4","3","3","3","5","4","3","3","5","3","5","5","5","3","5","6","4","5","5","3","6","3","5","742006860881858562","刘","Female","[""好她"",""坏她"",""好我"",""坏我""]","[""强她"",""弱她"",""强我"",""弱我""]","","","","","","","","yes","","","","","","","","","SRET","EW_formal","","key","f","17.06985454545427","581.8181692076126","359.9999921972103","自己","干练","Positive","ability","","","","","","","","","",""
"1363","","j","psychophysics","44","678294","0.0-7.0-3.0-0.30","4","4","4","2","1","2","4","3","4","4","4","1","-1","-1","1","-2","0","1","1","5","4","5","4","4","3","3","2","3","4","3","4","4","4","3","3","3","4","4","5","3","3","3","5","2","5","2","4","3","3","3","5","3","2","5","4","4","3","3","3","5","4","3","3","5","3","5","5","5","3","5","6","4","5","5","3","6","3","5","742006860881858562","刘","Female","[""好她"",""坏她"",""好我"",""坏我""]","[""强她"",""弱她"",""强我"",""弱我""]","","","","","","","","no","","","","","","","","","SRET","EW_formal","","key","j","17.27925735294069","581.8181692076126","359.9999921972103","自己","沉着","Positive","ability","","","","","","","","","",""
"957","","f","psychophysics","45","680256","0.0-7.0-3.0-0.31","4","4","4","2","1","2","4","3","4","4","4","1","-1","-1","1","-2","0","1","1","5","4","5","4","4","3","3","2","3","4","3","4","4","4","3","3","3","4","4","5","3","3","3","5","2","5","2","4","3","3","3","5","3","2","5","4","4","3","3","3","5","4","3","3","5","3","5","5","5","3","5","6","4","5","5","3","6","3","5","742006860881858562","刘","Female","[""好她"",""坏她"",""好我"",""坏我""]","[""强她"",""弱她"",""强我"",""弱我""]","","","","","","","","yes","","","","","","","","","SRET","EW_formal","","key","f","16.808189655172413","581.8181692076126","359.9999921972103","朋友","扎实","Positive","ability","","","","","","","","","",""
"1121","","j","psychophysics","46","682380","0.0-7.0-3.0-0.32","4","4","4","2","1","2","4","3","4","4","4","1","-1","-1","1","-2","0","1","1","5","4","5","4","4","3","3","2","3","4","3","4","4","4","3","3","3","4","4","5","3","3","3","5","2","5","2","4","3","3","3","5","3","2","5","4","4","3","3","3","5","4","3","3","5","3","5","5","5","3","5","6","4","5","5","3","6","3","5","742006860881858562","刘","Female","[""好她"",""坏她"",""好我"",""坏我""]","[""强她"",""弱她"",""强我"",""弱我""]","","","","","","","","no","","","","","","","","","SRET","EW_formal","","key","j","16.799615999999457","581.8181692076126","359.9999921972103","朋友","卑鄙","Negative","morality","","","","","","","","","",""
"1242","","j","psychophysics","47","684626","0.0-7.0-3.0-0.33","4","4","4","2","1","2","4","3","4","4","4","1","-1","-1","1","-2","0","1","1","5","4","5","4","4","3","3","2","3","4","3","4","4","4","3","3","3","4","4","5","3","3","3","5","2","5","2","4","3","3","3","5","3","2","5","4","4","3","3","3","5","4","3","3","5","3","5","5","5","3","5","6","4","5","5","3","6","3","5","742006860881858562","刘","Female","[""好她"",""坏她"",""好我"",""坏我""]","[""强她"",""弱她"",""强我"",""弱我""]","","","","","","","","no","","","","","","","","","SRET","EW_formal","","key","j","17.04587786259549","581.8181692076126","359.9999921972103","自己","高明","Positive","ability","","","","","","","","","",""
"1345","","j","psychophysics","48","686975","0.0-7.0-3.0-0.34","4","4","4","2","1","2","4","3","4","4","4","1","-1","-1","1","-2","0","1","1","5","4","5","4","4","3","3","2","3","4","3","4","4","4","3","3","3","4","4","5","3","3","3","5","2","5","2","4","3","3","3","5","3","2","5","4","4","3","3","3","5","4","3","3","5","3","5","5","5","3","5","6","4","5","5","3","6","3","5","742006860881858562","刘","Female","[""好她"",""坏她"",""好我"",""坏我""]","[""强她"",""弱她"",""强我"",""弱我""]","","","","","","","","no","","","","","","","","","SRET","EW_formal","","key","j","17.158102941176313","581.8181692076126","359.9999921972103","自己","远见","Positive","ability","","","","","","","","","",""
"1070","","f","psychophysics","49","689047","0.0-7.0-3.0-0.35","4","4","4","2","1","2","4","3","4","4","4","1","-1","-1","1","-2","0","1","1","5","4","5","4","4","3","3","2","3","4","3","4","4","4","3","3","3","4","4","5","3","3","3","5","2","5","2","4","3","3","3","5","3","2","5","4","4","3","3","3","5","4","3","3","5","3","5","5","5","3","5","6","4","5","5","3","6","3","5","742006860881858562","刘","Female","[""好她"",""坏她"",""好我"",""坏我""]","[""强她"",""弱她"",""强我"",""弱我""]","","","","","","","","yes","","","","","","","","","SRET","EW_formal","","key","f","16.665048780487624","581.8181692076126","359.9999921972103","朋友","守法","Positive","morality","","","","","","","","","",""
"994","","f","psychophysics","50","691046","0.0-7.0-3.0-0.36","4","4","4","2","1","2","4","3","4","4","4","1","-1","-1","1","-2","0","1","1","5","4","5","4","4","3","3","2","3","4","3","4","4","4","3","3","3","4","4","5","3","3","3","5","2","5","2","4","3","3","3","5","3","2","5","4","4","3","3","3","5","4","3","3","5","3","5","5","5","3","5","6","4","5","5","3","6","3","5","742006860881858562","刘","Female","[""好她"",""坏她"",""好我"",""坏我""]","[""强她"",""弱她"",""强我"",""弱我""]","","","","","","","","yes","","","","","","","","","SRET","EW_formal","","key","f","17.39603508771969","581.8181692076126","359.9999921972103","朋友","变通","Positive","ability","","","","","","","","","",""
"961","","j","psychophysics","51","693012","0.0-7.0-3.0-0.37","4","4","4","2","1","2","4","3","4","4","4","1","-1","-1","1","-2","0","1","1","5","4","5","4","4","3","3","2","3","4","3","4","4","4","3","3","3","4","4","5","3","3","3","5","2","5","2","4","3","3","3","5","3","2","5","4","4","3","3","3","5","4","3","3","5","3","5","5","5","3","5","6","4","5","5","3","6","3","5","742006860881858562","刘","Female","[""好她"",""坏她"",""好我"",""坏我""]","[""强她"",""弱她"",""强我"",""弱我""]","","","","","","","","no","","","","","","","","","SRET","EW_formal","","key","j","17.567423423423918","581.8181692076126","359.9999921972103","自己","狡诈","Negative","morality","","","","","","","","","",""
"4044","","j","psychophysics","52","698059","0.0-7.0-3.0-0.38","4","4","4","2","1","2","4","3","4","4","4","1","-1","-1","1","-2","0","1","1","5","4","5","4","4","3","3","2","3","4","3","4","4","4","3","3","3","4","4","5","3","3","3","5","2","5","2","4","3","3","3","5","3","2","5","4","4","3","3","3","5","4","3","3","5","3","5","5","5","3","5","6","4","5","5","3","6","3","5","742006860881858562","刘","Female","[""好她"",""坏她"",""好我"",""坏我""]","[""强她"",""弱她"",""强我"",""弱我""]","","","","","","","","no","","","","","","","","","SRET","EW_formal","","key","j","17.06315932203384","581.8181692076126","359.9999921972103","朋友","无知","Negative","ability","","","","","","","","","",""
"742","","j","psychophysics","53","699804","0.0-7.0-3.0-0.39","4","4","4","2","1","2","4","3","4","4","4","1","-1","-1","1","-2","0","1","1","5","4","5","4","4","3","3","2","3","4","3","4","4","4","3","3","3","4","4","5","3","3","3","5","2","5","2","4","3","3","3","5","3","2","5","4","4","3","3","3","5","4","3","3","5","3","5","5","5","3","5","6","4","5","5","3","6","3","5","742006860881858562","刘","Female","[""好她"",""坏她"",""好我"",""坏我""]","[""强她"",""弱她"",""强我"",""弱我""]","","","","","","","","no","","","","","","","","","SRET","EW_formal","","key","j","16.666903846153918","581.8181692076126","359.9999921972103","朋友","无为","Negative","ability","","","","","","","","","",""
"3294","","f","psychophysics","54","704101","0.0-7.0-3.0-0.40","4","4","4","2","1","2","4","3","4","4","4","1","-1","-1","1","-2","0","1","1","5","4","5","4","4","3","3","2","3","4","3","4","4","4","3","3","3","4","4","5","3","3","3","5","2","5","2","4","3","3","3","5","3","2","5","4","4","3","3","3","5","4","3","3","5","3","5","5","5","3","5","6","4","5","5","3","6","3","5","742006860881858562","刘","Female","[""好她"",""坏她"",""好我"",""坏我""]","[""强她"",""弱她"",""强我"",""弱我""]","","","","","","","","yes","","","","","","","","","SRET","EW_formal","","key","f","16.93143650793631","581.8181692076126","359.9999921972103","自己","廉明","Positive","morality","","","","","","","","","",""
"1774","","f","psychophysics","55","706880","0.0-7.0-3.0-0.41","4","4","4","2","1","2","4","3","4","4","4","1","-1","-1","1","-2","0","1","1","5","4","5","4","4","3","3","2","3","4","3","4","4","4","3","3","3","4","4","5","3","3","3","5","2","5","2","4","3","3","3","5","3","2","5","4","4","3","3","3","5","4","3","3","5","3","5","5","5","3","5","6","4","5","5","3","6","3","5","742006860881858562","刘","Female","[""好她"",""坏她"",""好我"",""坏我""]","[""强她"",""弱她"",""强我"",""弱我""]","","","","","","","","yes","","","","","","","","","SRET","EW_formal","","key","f","17.288124999999855","581.8181692076126","359.9999921972103","自己","独断","Negative","ability","","","","","","","","","",""
"1794","","f","psychophysics","56","709675","0.0-7.0-3.0-0.42","4","4","4","2","1","2","4","3","4","4","4","1","-1","-1","1","-2","0","1","1","5","4","5","4","4","3","3","2","3","4","3","4","4","4","3","3","3","4","4","5","3","3","3","5","2","5","2","4","3","3","3","5","3","2","5","4","4","3","3","3","5","4","3","3","5","3","5","5","5","3","5","6","4","5","5","3","6","3","5","742006860881858562","刘","Female","[""好她"",""坏她"",""好我"",""坏我""]","[""强她"",""弱她"",""强我"",""弱我""]","","","","","","","","yes","","","","","","","","","SRET","EW_formal","","key","f","16.767644578313277","581.8181692076126","359.9999921972103","自己","孝顺","Positive","morality","","","","","","","","","",""
"1907","","f","psychophysics","57","712586","0.0-7.0-3.0-0.43","4","4","4","2","1","2","4","3","4","4","4","1","-1","-1","1","-2","0","1","1","5","4","5","4","4","3","3","2","3","4","3","4","4","4","3","3","3","4","4","5","3","3","3","5","2","5","2","4","3","3","3","5","3","2","5","4","4","3","3","3","5","4","3","3","5","3","5","5","5","3","5","6","4","5","5","3","6","3","5","742006860881858562","刘","Female","[""好她"",""坏她"",""好我"",""坏我""]","[""强她"",""弱她"",""强我"",""弱我""]","","","","","","","","yes","","","","","","","","","SRET","EW_formal","","key","f","16.861619883041275","581.8181692076126","359.9999921972103","朋友","刚正","Positive","morality","","","","","","","","","",""
"2719","","j","psychophysics","58","716309","0.0-7.0-3.0-0.44","4","4","4","2","1","2","4","3","4","4","4","1","-1","-1","1","-2","0","1","1","5","4","5","4","4","3","3","2","3","4","3","4","4","4","3","3","3","4","4","5","3","3","3","5","2","5","2","4","3","3","3","5","3","2","5","4","4","3","3","3","5","4","3","3","5","3","5","5","5","3","5","6","4","5","5","3","6","3","5","742006860881858562","刘","Female","[""好她"",""坏她"",""好我"",""坏我""]","[""强她"",""弱她"",""强我"",""弱我""]","","","","","","","","no","","","","","","","","","SRET","EW_formal","","key","j","16.66487443946185","581.8181692076126","359.9999921972103","自己","敏捷","Positive","ability","","","","","","","","","",""
"1059","","f","psychophysics","59","718371","0.0-7.0-3.0-0.45","4","4","4","2","1","2","4","3","4","4","4","1","-1","-1","1","-2","0","1","1","5","4","5","4","4","3","3","2","3","4","3","4","4","4","3","3","3","4","4","5","3","3","3","5","2","5","2","4","3","3","3","5","3","2","5","4","4","3","3","3","5","4","3","3","5","3","5","5","5","3","5","6","4","5","5","3","6","3","5","742006860881858562","刘","Female","[""好她"",""坏她"",""好我"",""坏我""]","[""强她"",""弱她"",""强我"",""弱我""]","","","","","","","","yes","","","","","","","","","SRET","EW_formal","","key","f","16.798204918033214","581.8181692076126","359.9999921972103","朋友","能干","Positive","ability","","","","","","","","","",""
"4783","","j","psychophysics","60","724156","0.0-7.0-3.0-0.46","4","4","4","2","1","2","4","3","4","4","4","1","-1","-1","1","-2","0","1","1","5","4","5","4","4","3","3","2","3","4","3","4","4","4","3","3","3","4","4","5","3","3","3","5","2","5","2","4","3","3","3","5","3","2","5","4","4","3","3","3","5","4","3","3","5","3","5","5","5","3","5","6","4","5","5","3","6","3","5","742006860881858562","刘","Female","[""好她"",""坏她"",""好我"",""坏我""]","[""强她"",""弱她"",""强我"",""弱我""]","","","","","","","","no","","","","","","","","","SRET","EW_formal","","key","j","16.713321739130492","581.8181692076126","359.9999921972103","自己","外行","Negative","ability","","","","","","","","","",""
"6728","","f","psychophysics","61","731887","0.0-7.0-3.0-0.47","4","4","4","2","1","2","4","3","4","4","4","1","-1","-1","1","-2","0","1","1","5","4","5","4","4","3","3","2","3","4","3","4","4","4","3","3","3","4","4","5","3","3","3","5","2","5","2","4","3","3","3","5","3","2","5","4","4","3","3","3","5","4","3","3","5","3","5","5","5","3","5","6","4","5","5","3","6","3","5","742006860881858562","刘","Female","[""好她"",""坏她"",""好我"",""坏我""]","[""强她"",""弱她"",""强我"",""弱我""]","","","","","","","","yes","","","","","","","","","SRET","EW_formal","","key","f","16.99592731277523","581.8181692076126","359.9999921972103","朋友","果决","Positive","ability","","","","","","","","","",""
"1114","","j","psychophysics","62","734003","0.0-7.0-3.0-0.48","4","4","4","2","1","2","4","3","4","4","4","1","-1","-1","1","-2","0","1","1","5","4","5","4","4","3","3","2","3","4","3","4","4","4","3","3","3","4","4","5","3","3","3","5","2","5","2","4","3","3","3","5","3","2","5","4","4","3","3","3","5","4","3","3","5","3","5","5","5","3","5","6","4","5","5","3","6","3","5","742006860881858562","刘","Female","[""好她"",""坏她"",""好我"",""坏我""]","[""强她"",""弱她"",""强我"",""弱我""]","","","","","","","","no","","","","","","","","","SRET","EW_formal","","key","j","16.799695999999532","581.8181692076126","359.9999921972103","自己","歹毒","Negative","morality","","","","","","","","","",""
"1580","","f","psychophysics","63","736585","0.0-7.0-3.0-0.49","4","4","4","2","1","2","4","3","4","4","4","1","-1","-1","1","-2","0","1","1","5","4","5","4","4","3","3","2","3","4","3","4","4","4","3","3","3","4","4","5","3","3","3","5","2","5","2","4","3","3","3","5","3","2","5","4","4","3","3","3","5","4","3","3","5","3","5","5","5","3","5","6","4","5","5","3","6","3","5","742006860881858562","刘","Female","[""好她"",""坏她"",""好我"",""坏我""]","[""强她"",""弱她"",""强我"",""弱我""]","","","","","","","","yes","","","","","","","","","SRET","EW_formal","","key","f","17.00082666666635","581.8181692076126","359.9999921972103","自己","粗心","Negative","ability","","","","","","","","","",""
"964","","j","psychophysics","64","738556","0.0-7.0-3.0-0.50","4","4","4","2","1","2","4","3","4","4","4","1","-1","-1","1","-2","0","1","1","5","4","5","4","4","3","3","2","3","4","3","4","4","4","3","3","3","4","4","5","3","3","3","5","2","5","2","4","3","3","3","5","3","2","5","4","4","3","3","3","5","4","3","3","5","3","5","5","5","3","5","6","4","5","5","3","6","3","5","742006860881858562","刘","Female","[""好她"",""坏她"",""好我"",""坏我""]","[""强她"",""弱她"",""强我"",""弱我""]","","","","","","","","no","","","","","","","","","SRET","EW_formal","","key","j","17.24853508771916","581.8181692076126","359.9999921972103","自己","低劣","Negative","morality","","","","","","","","","",""
"1449","","j","psychophysics","65","741007","0.0-7.0-3.0-0.51","4","4","4","2","1","2","4","3","4","4","4","1","-1","-1","1","-2","0","1","1","5","4","5","4","4","3","3","2","3","4","3","4","4","4","3","3","3","4","4","5","3","3","3","5","2","5","2","4","3","3","3","5","3","2","5","4","4","3","3","3","5","4","3","3","5","3","5","5","5","3","5","6","4","5","5","3","6","3","5","742006860881858562","刘","Female","[""好她"",""坏她"",""好我"",""坏我""]","[""强她"",""弱她"",""强我"",""弱我""]","","","","","","","","no","","","","","","","","","SRET","EW_formal","","key","j","17.505604316546624","581.8181692076126","359.9999921972103","朋友","弱智","Negative","ability","","","","","","","","","",""
"926","","j","psychophysics","66","742936","0.0-7.0-3.0-0.52","4","4","4","2","1","2","4","3","4","4","4","1","-1","-1","1","-2","0","1","1","5","4","5","4","4","3","3","2","3","4","3","4","4","4","3","3","3","4","4","5","3","3","3","5","2","5","2","4","3","3","3","5","3","2","5","4","4","3","3","3","5","4","3","3","5","3","5","5","5","3","5","6","4","5","5","3","6","3","5","742006860881858562","刘","Female","[""好她"",""坏她"",""好我"",""坏我""]","[""强她"",""弱她"",""强我"",""弱我""]","","","","","","","","no","","","","","","","","","SRET","EW_formal","","key","j","17.424200000000102","581.8181692076126","359.9999921972103","朋友","无能","Negative","ability","","","","","","","","","",""
"719","","j","psychophysics","67","744656","0.0-7.0-3.0-0.53","4","4","4","2","1","2","4","3","4","4","4","1","-1","-1","1","-2","0","1","1","5","4","5","4","4","3","3","2","3","4","3","4","4","4","3","3","3","4","4","5","3","3","3","5","2","5","2","4","3","3","3","5","3","2","5","4","4","3","3","3","5","4","3","3","5","3","5","5","5","3","5","6","4","5","5","3","6","3","5","742006860881858562","刘","Female","[""好她"",""坏她"",""好我"",""坏我""]","[""强她"",""弱她"",""强我"",""弱我""]","","","","","","","","no","","","","","","","","","SRET","EW_formal","","key","j","17.35091836734708","581.8181692076126","359.9999921972103","朋友","奸险","Negative","morality","","","","","","","","","",""
"749","","j","psychophysics","68","746409","0.0-7.0-3.0-0.54","4","4","4","2","1","2","4","3","4","4","4","1","-1","-1","1","-2","0","1","1","5","4","5","4","4","3","3","2","3","4","3","4","4","4","3","3","3","4","4","5","3","3","3","5","2","5","2","4","3","3","3","5","3","2","5","4","4","3","3","3","5","4","3","3","5","3","5","5","5","3","5","6","4","5","5","3","6","3","5","742006860881858562","刘","Female","[""好她"",""坏她"",""好我"",""坏我""]","[""强她"",""弱她"",""强我"",""弱我""]","","","","","","","","no","","","","","","","","","SRET","EW_formal","","key","j","16.99578431372499","581.8181692076126","359.9999921972103","朋友","势利","Negative","morality","","","","","","","","","",""
"843","","f","psychophysics","69","748255","0.0-7.0-3.0-0.55","4","4","4","2","1","2","4","3","4","4","4","1","-1","-1","1","-2","0","1","1","5","4","5","4","4","3","3","2","3","4","3","4","4","4","3","3","3","4","4","5","3","3","3","5","2","5","2","4","3","3","3","5","3","2","5","4","4","3","3","3","5","4","3","3","5","3","5","5","5","3","5","6","4","5","5","3","6","3","5","742006860881858562","刘","Female","[""好她"",""坏她"",""好我"",""坏我""]","[""强她"",""弱她"",""强我"",""弱我""]","","","","","","","","yes","","","","","","","","","SRET","EW_formal","","key","f","17.136299065420857","581.8181692076126","359.9999921972103","朋友","肯干","Positive","ability","","","","","","","","","",""
"1295","","j","psychophysics","70","750553","0.0-7.0-3.0-0.56","4","4","4","2","1","2","4","3","4","4","4","1","-1","-1","1","-2","0","1","1","5","4","5","4","4","3","3","2","3","4","3","4","4","4","3","3","3","4","4","5","3","3","3","5","2","5","2","4","3","3","3","5","3","2","5","4","4","3","3","3","5","4","3","3","5","3","5","5","5","3","5","6","4","5","5","3","6","3","5","742006860881858562","刘","Female","[""好她"",""坏她"",""好我"",""坏我""]","[""强她"",""弱她"",""强我"",""弱我""]","","","","","","","","no","","","","","","","","","SRET","EW_formal","","key","j","17.978976377952424","581.8181692076126","359.9999921972103","自己","差生","Negative","ability","","","","","","","","","",""
"2467","","j","psychophysics","71","754022","0.0-7.0-3.0-0.57","4","4","4","2","1","2","4","3","4","4","4","1","-1","-1","1","-2","0","1","1","5","4","5","4","4","3","3","2","3","4","3","4","4","4","3","3","3","4","4","5","3","3","3","5","2","5","2","4","3","3","3","5","3","2","5","4","4","3","3","3","5","4","3","3","5","3","5","5","5","3","5","6","4","5","5","3","6","3","5","742006860881858562","刘","Female","[""好她"",""坏她"",""好我"",""坏我""]","[""强她"",""弱她"",""强我"",""弱我""]","","","","","","","","no","","","","","","","","","SRET","EW_formal","","key","j","17.161039800995344","581.8181692076126","359.9999921972103","自己","驽钝","Negative","ability","","","","","","","","","",""
"1723","","j","psychophysics","72","756748","0.0-7.0-3.0-0.58","4","4","4","2","1","2","4","3","4","4","4","1","-1","-1","1","-2","0","1","1","5","4","5","4","4","3","3","2","3","4","3","4","4","4","3","3","3","4","4","5","3","3","3","5","2","5","2","4","3","3","3","5","3","2","5","4","4","3","3","3","5","4","3","3","5","3","5","5","5","3","5","6","4","5","5","3","6","3","5","742006860881858562","刘","Female","[""好她"",""坏她"",""好我"",""坏我""]","[""强她"",""弱她"",""强我"",""弱我""]","","","","","","","","no","","","","","","","","","SRET","EW_formal","","key","j","17.089386075949502","581.8181692076126","359.9999921972103","自己","毅力","Positive","ability","","","","","","","","","",""
"1016","","f","psychophysics","73","758766","0.0-7.0-3.0-0.59","4","4","4","2","1","2","4","3","4","4","4","1","-1","-1","1","-2","0","1","1","5","4","5","4","4","3","3","2","3","4","3","4","4","4","3","3","3","4","4","5","3","3","3","5","2","5","2","4","3","3","3","5","3","2","5","4","4","3","3","3","5","4","3","3","5","3","5","5","5","3","5","6","4","5","5","3","6","3","5","742006860881858562","刘","Female","[""好她"",""坏她"",""好我"",""坏我""]","[""强她"",""弱她"",""强我"",""弱我""]","","","","","","","","yes","","","","","","","","","SRET","EW_formal","","key","f","17.240956896551733","581.8181692076126","359.9999921972103","朋友","守时","Positive","morality","","","","","","","","","",""
"1646","","f","psychophysics","74","761419","0.0-7.0-3.0-0.60","4","4","4","2","1","2","4","3","4","4","4","1","-1","-1","1","-2","0","1","1","5","4","5","4","4","3","3","2","3","4","3","4","4","4","3","3","3","4","4","5","3","3","3","5","2","5","2","4","3","3","3","5","3","2","5","4","4","3","3","3","5","4","3","3","5","3","5","5","5","3","5","6","4","5","5","3","6","3","5","742006860881858562","刘","Female","[""好她"",""坏她"",""好我"",""坏我""]","[""强她"",""弱她"",""强我"",""弱我""]","","","","","","","","yes","","","","","","","","","SRET","EW_formal","","key","f","16.879229299362994","581.8181692076126","359.9999921972103","自己","马虎","Negative","ability","","","","","","","","","",""
"1003","","j","psychophysics","75","763423","0.0-7.0-3.0-0.61","4","4","4","2","1","2","4","3","4","4","4","1","-1","-1","1","-2","0","1","1","5","4","5","4","4","3","3","2","3","4","3","4","4","4","3","3","3","4","4","5","3","3","3","5","2","5","2","4","3","3","3","5","3","2","5","4","4","3","3","3","5","4","3","3","5","3","5","5","5","3","5","6","4","5","5","3","6","3","5","742006860881858562","刘","Female","[""好她"",""坏她"",""好我"",""坏我""]","[""强她"",""弱她"",""强我"",""弱我""]","","","","","","","","no","","","","","","","","","SRET","EW_formal","","key","j","16.66250420168058","581.8181692076126","359.9999921972103","自己","无敌","Positive","ability","","","","","","","","","",""
"3699","","j","psychophysics","76","768125","0.0-7.0-3.0-0.62","4","4","4","2","1","2","4","3","4","4","4","1","-1","-1","1","-2","0","1","1","5","4","5","4","4","3","3","2","3","4","3","4","4","4","3","3","3","4","4","5","3","3","3","5","2","5","2","4","3","3","3","5","3","2","5","4","4","3","3","3","5","4","3","3","5","3","5","5","5","3","5","6","4","5","5","3","6","3","5","742006860881858562","刘","Female","[""好她"",""坏她"",""好我"",""坏我""]","[""强她"",""弱她"",""强我"",""弱我""]","","","","","","","","no","","","","","","","","","SRET","EW_formal","","key","j","17.539074906366896","581.8181692076126","359.9999921972103","朋友","短视","Negative","ability","","","","","","","","","",""
"1653","","j","psychophysics","77","770781","0.0-7.0-3.0-0.63","4","4","4","2","1","2","4","3","4","4","4","1","-1","-1","1","-2","0","1","1","5","4","5","4","4","3","3","2","3","4","3","4","4","4","3","3","3","4","4","5","3","3","3","5","2","5","2","4","3","3","3","5","3","2","5","4","4","3","3","3","5","4","3","3","5","3","5","5","5","3","5","6","4","5","5","3","6","3","5","742006860881858562","刘","Female","[""好她"",""坏她"",""好我"",""坏我""]","[""强她"",""弱她"",""强我"",""弱我""]","","","","","","","","no","","","","","","","","","SRET","EW_formal","","key","j","16.88066025640971","581.8181692076126","359.9999921972103","自己","笨蛋","Negative","ability","","","","","","","","","",""
"1294","","j","psychophysics","78","773080","0.0-7.0-3.0-0.64","4","4","4","2","1","2","4","3","4","4","4","1","-1","-1","1","-2","0","1","1","5","4","5","4","4","3","3","2","3","4","3","4","4","4","3","3","3","4","4","5","3","3","3","5","2","5","2","4","3","3","3","5","3","2","5","4","4","3","3","3","5","4","3","3","5","3","5","5","5","3","5","6","4","5","5","3","6","3","5","742006860881858562","刘","Female","[""好她"",""坏她"",""好我"",""坏我""]","[""强她"",""弱她"",""强我"",""弱我""]","","","","","","","","no","","","","","","","","","SRET","EW_formal","","key","j","17.69717054263609","581.8181692076126","359.9999921972103","朋友","阴毒","Negative","morality","","","","","","","","","",""
"1921","","j","psychophysics","79","776002","0.0-7.0-3.0-0.65","4","4","4","2","1","2","4","3","4","4","4","1","-1","-1","1","-2","0","1","1","5","4","5","4","4","3","3","2","3","4","3","4","4","4","3","3","3","4","4","5","3","3","3","5","2","5","2","4","3","3","3","5","3","2","5","4","4","3","3","3","5","4","3","3","5","3","5","5","5","3","5","6","4","5","5","3","6","3","5","742006860881858562","刘","Female","[""好她"",""坏她"",""好我"",""坏我""]","[""强她"",""弱她"",""强我"",""弱我""]","","","","","","","","no","","","","","","","","","SRET","EW_formal","","key","j","18.34383018867921","581.8181692076126","359.9999921972103","朋友","草率","Negative","ability","","","","","","","","","",""
"1001","","j","psychophysics","80","778005","0.0-7.0-3.0-0.66","4","4","4","2","1","2","4","3","4","4","4","1","-1","-1","1","-2","0","1","1","5","4","5","4","4","3","3","2","3","4","3","4","4","4","3","3","3","4","4","5","3","3","3","5","2","5","2","4","3","3","3","5","3","2","5","4","4","3","3","3","5","4","3","3","5","3","5","5","5","3","5","6","4","5","5","3","6","3","5","742006860881858562","刘","Female","[""好她"",""坏她"",""好我"",""坏我""]","[""强她"",""弱她"",""强我"",""弱我""]","","","","","","","","no","","","","","","","","","SRET","EW_formal","","key","j","18.03146363636373","581.8181692076126","359.9999921972103","自己","愚痴","Negative","ability","","","","","","","","","",""
"730","","j","psychophysics","81","779737","0.0-7.0-3.0-0.67","4","4","4","2","1","2","4","3","4","4","4","1","-1","-1","1","-2","0","1","1","5","4","5","4","4","3","3","2","3","4","3","4","4","4","3","3","3","4","4","5","3","3","3","5","2","5","2","4","3","3","3","5","3","2","5","4","4","3","3","3","5","4","3","3","5","3","5","5","5","3","5","6","4","5","5","3","6","3","5","742006860881858562","刘","Female","[""好她"",""坏她"",""好我"",""坏我""]","[""强她"",""弱她"",""强我"",""弱我""]","","","","","","","","no","","","","","","","","","SRET","EW_formal","","key","j","16.834823529411782","581.8181692076126","359.9999921972103","朋友","伪善","Negative","morality","","","","","","","","","",""
"1645","","f","psychophysics","82","782384","0.0-7.0-3.0-0.68","4","4","4","2","1","2","4","3","4","4","4","1","-1","-1","1","-2","0","1","1","5","4","5","4","4","3","3","2","3","4","3","4","4","4","3","3","3","4","4","5","3","3","3","5","2","5","2","4","3","3","3","5","3","2","5","4","4","3","3","3","5","4","3","3","5","3","5","5","5","3","5","6","4","5","5","3","6","3","5","742006860881858562","刘","Female","[""好她"",""坏她"",""好我"",""坏我""]","[""强她"",""弱她"",""强我"",""弱我""]","","","","","","","","yes","","","","","","","","","SRET","EW_formal","","key","f","17.214421052631224","581.8181692076126","359.9999921972103","朋友","刻苦","Positive","ability","","","","","","","","","",""
"1631","","j","psychophysics","83","785018","0.0-7.0-3.0-0.69","4","4","4","2","1","2","4","3","4","4","4","1","-1","-1","1","-2","0","1","1","5","4","5","4","4","3","3","2","3","4","3","4","4","4","3","3","3","4","4","5","3","3","3","5","2","5","2","4","3","3","3","5","3","2","5","4","4","3","3","3","5","4","3","3","5","3","5","5","5","3","5","6","4","5","5","3","6","3","5","742006860881858562","刘","Female","[""好她"",""坏她"",""好我"",""坏我""]","[""强她"",""弱她"",""强我"",""弱我""]","","","","","","","","no","","","","","","","","","SRET","EW_formal","","key","j","17.791405405404795","581.8181692076126","359.9999921972103","自己","无私","Positive","morality","","","","","","","","","",""
"1331","","f","psychophysics","84","787352","0.0-7.0-3.0-0.70","4","4","4","2","1","2","4","3","4","4","4","1","-1","-1","1","-2","0","1","1","5","4","5","4","4","3","3","2","3","4","3","4","4","4","3","3","3","4","4","5","3","3","3","5","2","5","2","4","3","3","3","5","3","2","5","4","4","3","3","3","5","4","3","3","5","3","5","5","5","3","5","6","4","5","5","3","6","3","5","742006860881858562","刘","Female","[""好她"",""坏她"",""好我"",""坏我""]","[""强她"",""弱她"",""强我"",""弱我""]","","","","","","","","yes","","","","","","","","","SRET","EW_formal","","key","f","17.032830882353558","581.8181692076126","359.9999921972103","自己","稳健","Positive","ability","","","","","","","","","",""
"871","","f","psychophysics","85","789227","0.0-7.0-3.0-0.71","4","4","4","2","1","2","4","3","4","4","4","1","-1","-1","1","-2","0","1","1","5","4","5","4","4","3","3","2","3","4","3","4","4","4","3","3","3","4","4","5","3","3","3","5","2","5","2","4","3","3","3","5","3","2","5","4","4","3","3","3","5","4","3","3","5","3","5","5","5","3","5","6","4","5","5","3","6","3","5","742006860881858562","刘","Female","[""好她"",""坏她"",""好我"",""坏我""]","[""强她"",""弱她"",""强我"",""弱我""]","","","","","","","","yes","","","","","","","","","SRET","EW_formal","","key","f","17.785903846154376","581.8181692076126","359.9999921972103","朋友","善良","Positive","morality","","","","","","","","","",""
"952","","f","psychophysics","86","791180","0.0-7.0-3.0-0.72","4","4","4","2","1","2","4","3","4","4","4","1","-1","-1","1","-2","0","1","1","5","4","5","4","4","3","3","2","3","4","3","4","4","4","3","3","3","4","4","5","3","3","3","5","2","5","2","4","3","3","3","5","3","2","5","4","4","3","3","3","5","4","3","3","5","3","5","5","5","3","5","6","4","5","5","3","6","3","5","742006860881858562","刘","Female","[""好她"",""坏她"",""好我"",""坏我""]","[""强她"",""弱她"",""强我"",""弱我""]","","","","","","","","yes","","","","","","","","","SRET","EW_formal","","key","f","17.420396396396303","581.8181692076126","359.9999921972103","朋友","义气","Positive","morality","","","","","","","","","",""
"6163","","j","psychophysics","87","798346","0.0-7.0-3.0-0.73","4","4","4","2","1","2","4","3","4","4","4","1","-1","-1","1","-2","0","1","1","5","4","5","4","4","3","3","2","3","4","3","4","4","4","3","3","3","4","4","5","3","3","3","5","2","5","2","4","3","3","3","5","3","2","5","4","4","3","3","3","5","4","3","3","5","3","5","5","5","3","5","6","4","5","5","3","6","3","5","742006860881858562","刘","Female","[""好她"",""坏她"",""好我"",""坏我""]","[""强她"",""弱她"",""强我"",""弱我""]","","","","","","","","no","","","","","","","","","SRET","EW_formal","","key","j","17.230050724637774","581.8181692076126","359.9999921972103","朋友","新手","Negative","ability","","","","","","","","","",""
"988","","f","psychophysics","88","800336","0.0-7.0-3.0-0.74","4","4","4","2","1","2","4","3","4","4","4","1","-1","-1","1","-2","0","1","1","5","4","5","4","4","3","3","2","3","4","3","4","4","4","3","3","3","4","4","5","3","3","3","5","2","5","2","4","3","3","3","5","3","2","5","4","4","3","3","3","5","4","3","3","5","3","5","5","5","3","5","6","4","5","5","3","6","3","5","742006860881858562","刘","Female","[""好她"",""坏她"",""好我"",""坏我""]","[""强她"",""弱她"",""强我"",""弱我""]","","","","","","","","yes","","","","","","","","","SRET","EW_formal","","key","f","17.554221238937863","581.8181692076126","359.9999921972103","朋友","中用","Positive","ability","","","","","","","","","",""
"4948","","f","psychophysics","89","806286","0.0-7.0-3.0-0.75","4","4","4","2","1","2","4","3","4","4","4","1","-1","-1","1","-2","0","1","1","5","4","5","4","4","3","3","2","3","4","3","4","4","4","3","3","3","4","4","5","3","3","3","5","2","5","2","4","3","3","3","5","3","2","5","4","4","3","3","3","5","4","3","3","5","3","5","5","5","3","5","6","4","5","5","3","6","3","5","742006860881858562","刘","Female","[""好她"",""坏她"",""好我"",""坏我""]","[""强她"",""弱她"",""强我"",""弱我""]","","","","","","","","yes","","","","","","","","","SRET","EW_formal","","key","f","17.29771720116609","581.8181692076126","359.9999921972103","自己","勤恳","Positive","morality","","","","","","","","","",""
"694","","f","psychophysics","90","807982","0.0-7.0-3.0-0.76","4","4","4","2","1","2","4","3","4","4","4","1","-1","-1","1","-2","0","1","1","5","4","5","4","4","3","3","2","3","4","3","4","4","4","3","3","3","4","4","5","3","3","3","5","2","5","2","4","3","3","3","5","3","2","5","4","4","3","3","3","5","4","3","3","5","3","5","5","5","3","5","6","4","5","5","3","6","3","5","742006860881858562","刘","Female","[""好她"",""坏她"",""好我"",""坏我""]","[""强她"",""弱她"",""强我"",""弱我""]","","","","","","","","yes","","","","","","","","","SRET","EW_formal","","key","f","17.36114583333377","581.8181692076126","359.9999921972103","自己","礼貌","Positive","morality","","","","","","","","","",""
"859","","f","psychophysics","91","809844","0.0-7.0-3.0-0.77","4","4","4","2","1","2","4","3","4","4","4","1","-1","-1","1","-2","0","1","1","5","4","5","4","4","3","3","2","3","4","3","4","4","4","3","3","3","4","4","5","3","3","3","5","2","5","2","4","3","3","3","5","3","2","5","4","4","3","3","3","5","4","3","3","5","3","5","5","5","3","5","6","4","5","5","3","6","3","5","742006860881858562","刘","Female","[""好她"",""坏她"",""好我"",""坏我""]","[""强她"",""弱她"",""强我"",""弱我""]","","","","","","","","yes","","","","","","","","","SRET","EW_formal","","key","f","17.617333333333953","581.8181692076126","359.9999921972103","朋友","利落","Positive","ability","","","","","","","","","",""
"796","","j","psychophysics","92","811642","0.0-7.0-3.0-0.78","4","4","4","2","1","2","4","3","4","4","4","1","-1","-1","1","-2","0","1","1","5","4","5","4","4","3","3","2","3","4","3","4","4","4","3","3","3","4","4","5","3","3","3","5","2","5","2","4","3","3","3","5","3","2","5","4","4","3","3","3","5","4","3","3","5","3","5","5","5","3","5","6","4","5","5","3","6","3","5","742006860881858562","刘","Female","[""好她"",""坏她"",""好我"",""坏我""]","[""强她"",""弱她"",""强我"",""弱我""]","","","","","","","","no","","","","","","","","","SRET","EW_formal","","key","j","17.8316100000008","581.8181692076126","359.9999921972103","自己","龌龊","Negative","morality","","","","","","","","","",""
"840","","j","psychophysics","93","813485","0.0-7.0-3.0-0.79","4","4","4","2","1","2","4","3","4","4","4","1","-1","-1","1","-2","0","1","1","5","4","5","4","4","3","3","2","3","4","3","4","4","4","3","3","3","4","4","5","3","3","3","5","2","5","2","4","3","3","3","5","3","2","5","4","4","3","3","3","5","4","3","3","5","3","5","5","5","3","5","6","4","5","5","3","6","3","5","742006860881858562","刘","Female","[""好她"",""坏她"",""好我"",""坏我""]","[""强她"",""弱她"",""强我"",""弱我""]","","","","","","","","no","","","","","","","","","SRET","EW_formal","","key","j","17.129691588784848","581.8181692076126","359.9999921972103","自己","诡诈","Negative","morality","","","","","","","","","",""
"792","","j","psychophysics","94","815279","0.0-7.0-3.0-0.80","4","4","4","2","1","2","4","3","4","4","4","1","-1","-1","1","-2","0","1","1","5","4","5","4","4","3","3","2","3","4","3","4","4","4","3","3","3","4","4","5","3","3","3","5","2","5","2","4","3","3","3","5","3","2","5","4","4","3","3","3","5","4","3","3","5","3","5","5","5","3","5","6","4","5","5","3","6","3","5","742006860881858562","刘","Female","[""好她"",""坏她"",""好我"",""坏我""]","[""强她"",""弱她"",""强我"",""弱我""]","","","","","","","","no","","","","","","","","","SRET","EW_formal","","key","j","17.491762376237098","581.8181692076126","359.9999921972103","朋友","狡狯","Negative","morality","","","","","","","","","",""
"1420","","f","psychophysics","95","817701","0.0-7.0-3.0-0.81","4","4","4","2","1","2","4","3","4","4","4","1","-1","-1","1","-2","0","1","1","5","4","5","4","4","3","3","2","3","4","3","4","4","4","3","3","3","4","4","5","3","3","3","5","2","5","2","4","3","3","3","5","3","2","5","4","4","3","3","3","5","4","3","3","5","3","5","5","5","3","5","6","4","5","5","3","6","3","5","742006860881858562","刘","Female","[""好她"",""坏她"",""好我"",""坏我""]","[""强她"",""弱她"",""强我"",""弱我""]","","","","","","","","yes","","","","","","","","","SRET","EW_formal","","key","f","17.139269503546014","581.8181692076126","359.9999921972103","朋友","忠义","Positive","morality","","","","","","","","","",""
"714","","f","psychophysics","96","819418","0.0-7.0-3.0-0.82","4","4","4","2","1","2","4","3","4","4","4","1","-1","-1","1","-2","0","1","1","5","4","5","4","4","3","3","2","3","4","3","4","4","4","3","3","3","4","4","5","3","3","3","5","2","5","2","4","3","3","3","5","3","2","5","4","4","3","3","3","5","4","3","3","5","3","5","5","5","3","5","6","4","5","5","3","6","3","5","742006860881858562","刘","Female","[""好她"",""坏她"",""好我"",""坏我""]","[""强她"",""弱她"",""强我"",""弱我""]","","","","","","","","yes","","","","","","","","","SRET","EW_formal","","key","f","17.89197894736855","581.8181692076126","359.9999921972103","自己","诚信","Positive","morality","","","","","","","","","",""
"2541","","f","psychophysics","97","822962","0.0-7.0-3.0-0.83","4","4","4","2","1","2","4","3","4","4","4","1","-1","-1","1","-2","0","1","1","5","4","5","4","4","3","3","2","3","4","3","4","4","4","3","3","3","4","4","5","3","3","3","5","2","5","2","4","3","3","3","5","3","2","5","4","4","3","3","3","5","4","3","3","5","3","5","5","5","3","5","6","4","5","5","3","6","3","5","742006860881858562","刘","Female","[""好她"",""坏她"",""好我"",""坏我""]","[""强她"",""弱她"",""强我"",""弱我""]","","","","","","","","yes","","","","","","","","","SRET","EW_formal","","key","f","17.323438423645012","581.8181692076126","359.9999921972103","自己","慈悲","Positive","morality","","","","","","","","","",""
"1323","","f","psychophysics","98","825288","0.0-7.0-3.0-0.84","4","4","4","2","1","2","4","3","4","4","4","1","-1","-1","1","-2","0","1","1","5","4","5","4","4","3","3","2","3","4","3","4","4","4","3","3","3","4","4","5","3","3","3","5","2","5","2","4","3","3","3","5","3","2","5","4","4","3","3","3","5","4","3","3","5","3","5","5","5","3","5","6","4","5","5","3","6","3","5","742006860881858562","刘","Female","[""好她"",""坏她"",""好我"",""坏我""]","[""强她"",""弱她"",""强我"",""弱我""]","","","","","","","","yes","","","","","","","","","SRET","EW_formal","","key","f","17.416609022557154","581.8181692076126","359.9999921972103","自己","缓慢","Negative","ability","","","","","","","","","",""
"1554","","f","psychophysics","99","827844","0.0-7.0-3.0-0.85","4","4","4","2","1","2","4","3","4","4","4","1","-1","-1","1","-2","0","1","1","5","4","5","4","4","3","3","2","3","4","3","4","4","4","3","3","3","4","4","5","3","3","3","5","2","5","2","4","3","3","3","5","3","2","5","4","4","3","3","3","5","4","3","3","5","3","5","5","5","3","5","6","4","5","5","3","6","3","5","742006860881858562","刘","Female","[""好她"",""坏她"",""好我"",""坏我""]","[""强她"",""弱她"",""强我"",""弱我""]","","","","","","","","yes","","","","","","","","","SRET","EW_formal","","key","f","17.715356643357268","581.8181692076126","359.9999921972103","自己","主见","Positive","ability","","","","","","","","","",""
"3957","","f","psychophysics","100","832804","0.0-7.0-3.0-0.86","4","4","4","2","1","2","4","3","4","4","4","1","-1","-1","1","-2","0","1","1","5","4","5","4","4","3","3","2","3","4","3","4","4","4","3","3","3","4","4","5","3","3","3","5","2","5","2","4","3","3","3","5","3","2","5","4","4","3","3","3","5","4","3","3","5","3","5","5","5","3","5","6","4","5","5","3","6","3","5","742006860881858562","刘","Female","[""好她"",""坏她"",""好我"",""坏我""]","[""强她"",""弱她"",""强我"",""弱我""]","","","","","","","","yes","","","","","","","","","SRET","EW_formal","","key","f","17.068427586206635","581.8181692076126","359.9999921972103","朋友","素养","Positive","morality","","","","","","","","","",""
"2271","","j","psychophysics","101","836076","0.0-7.0-3.0-0.87","4","4","4","2","1","2","4","3","4","4","4","1","-1","-1","1","-2","0","1","1","5","4","5","4","4","3","3","2","3","4","3","4","4","4","3","3","3","4","4","5","3","3","3","5","2","5","2","4","3","3","3","5","3","2","5","4","4","3","3","3","5","4","3","3","5","3","5","5","5","3","5","6","4","5","5","3","6","3","5","742006860881858562","刘","Female","[""好她"",""坏她"",""好我"",""坏我""]","[""强她"",""弱她"",""强我"",""弱我""]","","","","","","","","no","","","","","","","","","SRET","EW_formal","","key","j","17.195560846560902","581.8181692076126","359.9999921972103","朋友","低俗","Negative","morality","","","","","","","","","",""
"6248","
    <p><div style='color:white;font-size:35px; line-height:20px;'>计算任务</div></p><br>
    <p><div style='color:red;font-size:25px; line-height:20px;'>接下来，您将看到一些四则运算题，<b>请从键盘选择 0-9 进行反应。</b></div></p>
    <p><div class='footer' style='color:white;font-size:25px; line-height:20px;'>如果对本实验还有不清楚之处，请立即向实验员咨询。</p><p style='color:white;font-size:25px; line-height:20px;'>如果您明白了规则：</p><p style='color:white;font-size:22px; line-height:20px;'>请按 继续 进入练习</p>
    </div>
    ","0","html-button-response","102","842327","0.0-7.0-4.0","4","4","4","2","1","2","4","3","4","4","4","1","-1","-1","1","-2","0","1","1","5","4","5","4","4","3","3","2","3","4","3","4","4","4","3","3","3","4","4","5","3","3","3","5","2","5","2","4","3","3","3","5","3","2","5","4","4","3","3","3","5","4","3","3","5","3","5","5","5","3","5","6","4","5","5","3","6","3","5","742006860881858562","刘","Female","[""好她"",""坏她"",""好我"",""坏我""]","[""强她"",""弱她"",""强我"",""弱我""]","","","","","","","","","","","","","","","","","SRET_math","math_instructions","Tue Aug 22 2023 21:38:52 GMT+0800 (中国标准时间)","","","","","","","","","","","","","","","","","","",""
"2958","","8","psychophysics","103","845296","0.0-7.0-5.0-0.0","4","4","4","2","1","2","4","3","4","4","4","1","-1","-1","1","-2","0","1","1","5","4","5","4","4","3","3","2","3","4","3","4","4","4","3","3","3","4","4","5","3","3","3","5","2","5","2","4","3","3","3","5","3","2","5","4","4","3","3","3","5","4","3","3","5","3","5","5","5","3","5","6","4","5","5","3","6","3","5","742006860881858562","刘","Female","[""好她"",""坏她"",""好我"",""坏我""]","[""强她"",""弱她"",""强我"",""弱我""]","","","","","","","","8","","","","","","","","","SRET","SRET_math_calculate","","key","8","21.653781021897593","581.8181692076126","359.9999921972103","","","","","56/7= ?","8","1","","","","","","",""
"2435","","4","psychophysics","104","847735","0.0-7.0-5.0-0.1","4","4","4","2","1","2","4","3","4","4","4","1","-1","-1","1","-2","0","1","1","5","4","5","4","4","3","3","2","3","4","3","4","4","4","3","3","3","4","4","5","3","3","3","5","2","5","2","4","3","3","3","5","3","2","5","4","4","3","3","3","5","4","3","3","5","3","5","5","5","3","5","6","4","5","5","3","6","3","5","742006860881858562","刘","Female","[""好她"",""坏她"",""好我"",""坏我""]","[""强她"",""弱她"",""强我"",""弱我""]","","","","","","","","4","","","","","","","","","SRET","SRET_math_calculate","","key","4","22.17250458715556","581.8181692076126","359.9999921972103","","","","","9-5= ?","4","1","","","","","","",""
"2207","","2","psychophysics","105","849945","0.0-7.0-5.0-0.2","4","4","4","2","1","2","4","3","4","4","4","1","-1","-1","1","-2","0","1","1","5","4","5","4","4","3","3","2","3","4","3","4","4","4","3","3","3","4","4","5","3","3","3","5","2","5","2","4","3","3","3","5","3","2","5","4","4","3","3","3","5","4","3","3","5","3","5","5","5","3","5","6","4","5","5","3","6","3","5","742006860881858562","刘","Female","[""好她"",""坏她"",""好我"",""坏我""]","[""强她"",""弱她"",""强我"",""弱我""]","","","","","","","","2","","","","","","","","","SRET","SRET_math_calculate","","key","2","22.109948979592076","581.8181692076126","359.9999921972103","","","","","18/9= ?","2","1","","","","","","",""
"2301","","3","psychophysics","106","852248","0.0-7.0-5.0-0.3","4","4","4","2","1","2","4","3","4","4","4","1","-1","-1","1","-2","0","1","1","5","4","5","4","4","3","3","2","3","4","3","4","4","4","3","3","3","4","4","5","3","3","3","5","2","5","2","4","3","3","3","5","3","2","5","4","4","3","3","3","5","4","3","3","5","3","5","5","5","3","5","6","4","5","5","3","6","3","5","742006860881858562","刘","Female","[""好她"",""坏她"",""好我"",""坏我""]","[""强她"",""弱她"",""强我"",""弱我""]","","","","","","","","3","","","","","","","","","SRET","SRET_math_calculate","","key","3","22.167854368931938","581.8181692076126","359.9999921972103","","","","","3+0= ?","3","1","","","","","","",""
"2240","","9","psychophysics","107","854505","0.0-7.0-5.0-0.4","4","4","4","2","1","2","4","3","4","4","4","1","-1","-1","1","-2","0","1","1","5","4","5","4","4","3","3","2","3","4","3","4","4","4","3","3","3","4","4","5","3","3","3","5","2","5","2","4","3","3","3","5","3","2","5","4","4","3","3","3","5","4","3","3","5","3","5","5","5","3","5","6","4","5","5","3","6","3","5","742006860881858562","刘","Female","[""好她"",""坏她"",""好我"",""坏我""]","[""强她"",""弱她"",""强我"",""弱我""]","","","","","","","","9","","","","","","","","","SRET","SRET_math_calculate","","key","9","22.49856000000029","581.8181692076126","359.9999921972103","","","","","1+8= ?","9","1","","","","","","",""
"2117","","2","psychophysics","108","856626","0.0-7.0-5.0-0.5","4","4","4","2","1","2","4","3","4","4","4","1","-1","-1","1","-2","0","1","1","5","4","5","4","4","3","3","2","3","4","3","4","4","4","3","3","3","4","4","5","3","3","3","5","2","5","2","4","3","3","3","5","3","2","5","4","4","3","3","3","5","4","3","3","5","3","5","5","5","3","5","6","4","5","5","3","6","3","5","742006860881858562","刘","Female","[""好她"",""坏她"",""好我"",""坏我""]","[""强她"",""弱她"",""强我"",""弱我""]","","","","","","","","2","","","","","","","","","SRET","SRET_math_calculate","","key","2","22.333882978723505","581.8181692076126","359.9999921972103","","","","","12/6= ?","2","1","","","","","","",""
"1982","","1","psychophysics","109","858611","0.0-7.0-5.0-0.6","4","4","4","2","1","2","4","3","4","4","4","1","-1","-1","1","-2","0","1","1","5","4","5","4","4","3","3","2","3","4","3","4","4","4","3","3","3","4","4","5","3","3","3","5","2","5","2","4","3","3","3","5","3","2","5","4","4","3","3","3","5","4","3","3","5","3","5","5","5","3","5","6","4","5","5","3","6","3","5","742006860881858562","刘","Female","[""好她"",""坏她"",""好我"",""坏我""]","[""强她"",""弱她"",""强我"",""弱我""]","","","","","","","","1","","","","","","","","","SRET","SRET_math_calculate","","key","1","22.41810344827586","581.8181692076126","359.9999921972103","","","","","12/12= ?","1","1","","","","","","",""
"2371","","8","psychophysics","110","860984","0.0-7.0-5.0-0.7","4","4","4","2","1","2","4","3","4","4","4","1","-1","-1","1","-2","0","1","1","5","4","5","4","4","3","3","2","3","4","3","4","4","4","3","3","3","4","4","5","3","3","3","5","2","5","2","4","3","3","3","5","3","2","5","4","4","3","3","3","5","4","3","3","5","3","5","5","5","3","5","6","4","5","5","3","6","3","5","742006860881858562","刘","Female","[""好她"",""坏她"",""好我"",""坏我""]","[""强她"",""弱她"",""强我"",""弱我""]","","","","","","","","8","","","","","","","","","SRET","SRET_math_calculate","","key","8","22.118598130841686","581.8181692076126","359.9999921972103","","","","","3+5= ?","8","1","","","","","","",""
"2119","","9","psychophysics","111","863107","0.0-7.0-5.0-0.8","4","4","4","2","1","2","4","3","4","4","4","1","-1","-1","1","-2","0","1","1","5","4","5","4","4","3","3","2","3","4","3","4","4","4","3","3","3","4","4","5","3","3","3","5","2","5","2","4","3","3","3","5","3","2","5","4","4","3","3","3","5","4","3","3","5","3","5","5","5","3","5","6","4","5","5","3","6","3","5","742006860881858562","刘","Female","[""好她"",""坏她"",""好我"",""坏我""]","[""强她"",""弱她"",""强我"",""弱我""]","","","","","","","","9","","","","","","","","","SRET","SRET_math_calculate","","key","9","21.476999999999702","581.8181692076126","359.9999921972103","","","","","6+3= ?","9","1","","","","","","",""
"1925","","9","psychophysics","112","865034","0.0-7.0-5.0-0.9","4","4","4","2","1","2","4","3","4","4","4","1","-1","-1","1","-2","0","1","1","5","4","5","4","4","3","3","2","3","4","3","4","4","4","3","3","3","4","4","5","3","3","3","5","2","5","2","4","3","3","3","5","3","2","5","4","4","3","3","3","5","4","3","3","5","3","5","5","5","3","5","6","4","5","5","3","6","3","5","742006860881858562","刘","Female","[""好她"",""坏她"",""好我"",""坏我""]","[""强她"",""弱她"",""强我"",""弱我""]","","","","","","","","9","","","","","","","","","SRET","SRET_math_calculate","","key","9","21.777215909091122","581.8181692076126","359.9999921972103","","","","","4+5= ?","9","1","","","","","","",""
"2353","","3","psychophysics","113","867389","0.0-7.0-5.0-0.10","4","4","4","2","1","2","4","3","4","4","4","1","-1","-1","1","-2","0","1","1","5","4","5","4","4","3","3","2","3","4","3","4","4","4","3","3","3","4","4","5","3","3","3","5","2","5","2","4","3","3","3","5","3","2","5","4","4","3","3","3","5","4","3","3","5","3","5","5","5","3","5","6","4","5","5","3","6","3","5","742006860881858562","刘","Female","[""好她"",""坏她"",""好我"",""坏我""]","[""强她"",""弱她"",""强我"",""弱我""]","","","","","","","","3","","","","","","","","","SRET","SRET_math_calculate","","key","3","22.22321904761872","581.8181692076126","359.9999921972103","","","","","9/3= ?","3","1","","","","","","",""
"2114","","0","psychophysics","114","869505","0.0-7.0-5.0-0.11","4","4","4","2","1","2","4","3","4","4","4","1","-1","-1","1","-2","0","1","1","5","4","5","4","4","3","3","2","3","4","3","4","4","4","3","3","3","4","4","5","3","3","3","5","2","5","2","4","3","3","3","5","3","2","5","4","4","3","3","3","5","4","3","3","5","3","5","5","5","3","5","6","4","5","5","3","6","3","5","742006860881858562","刘","Female","[""好她"",""坏她"",""好我"",""坏我""]","[""强她"",""弱她"",""强我"",""弱我""]","","","","","","","","0","","","","","","","","","SRET","SRET_math_calculate","","key","0","21.92974736842106","581.8181692076126","359.9999921972103","","","","","7*0= ?","0","1","","","","","","",""
"2152","","7","psychophysics","115","871661","0.0-7.0-5.0-0.12","4","4","4","2","1","2","4","3","4","4","4","1","-1","-1","1","-2","0","1","1","5","4","5","4","4","3","3","2","3","4","3","4","4","4","3","3","3","4","4","5","3","3","3","5","2","5","2","4","3","3","3","5","3","2","5","4","4","3","3","3","5","4","3","3","5","3","5","5","5","3","5","6","4","5","5","3","6","3","5","742006860881858562","刘","Female","[""好她"",""坏她"",""好我"",""坏我""]","[""强她"",""弱她"",""强我"",""弱我""]","","","","","","","","7","","","","","","","","","SRET","SRET_math_calculate","","key","7","22.223656250000204","581.8181692076126","359.9999921972103","","","","","6+1= ?","7","1","","","","","","",""
"2151","","0","psychophysics","116","873818","0.0-7.0-5.0-0.13","4","4","4","2","1","2","4","3","4","4","4","1","-1","-1","1","-2","0","1","1","5","4","5","4","4","3","3","2","3","4","3","4","4","4","3","3","3","4","4","5","3","3","3","5","2","5","2","4","3","3","3","5","3","2","5","4","4","3","3","3","5","4","3","3","5","3","5","5","5","3","5","6","4","5","5","3","6","3","5","742006860881858562","刘","Female","[""好她"",""坏她"",""好我"",""坏我""]","[""强她"",""弱她"",""强我"",""弱我""]","","","","","","","","0","","","","","","","","","SRET","SRET_math_calculate","","key","0","22.22204166666658","581.8181692076126","359.9999921972103","","","","","1-1= ?","0","1","","","","","","",""
"2268","","9","psychophysics","117","876089","0.0-7.0-5.0-0.14","4","4","4","2","1","2","4","3","4","4","4","1","-1","-1","1","-2","0","1","1","5","4","5","4","4","3","3","2","3","4","3","4","4","4","3","3","3","4","4","5","3","3","3","5","2","5","2","4","3","3","3","5","3","2","5","4","4","3","3","3","5","4","3","3","5","3","5","5","5","3","5","6","4","5","5","3","6","3","5","742006860881858562","刘","Female","[""好她"",""坏她"",""好我"",""坏我""]","[""强她"",""弱她"",""强我"",""弱我""]","","","","","","","","9","","","","","","","","","SRET","SRET_math_calculate","","key","9","22.05802941176465","581.8181692076126","359.9999921972103","","","","","81/9= ?","9","1","","","","","","",""
"2254","","4","psychophysics","118","878344","0.0-7.0-5.0-0.15","4","4","4","2","1","2","4","3","4","4","4","1","-1","-1","1","-2","0","1","1","5","4","5","4","4","3","3","2","3","4","3","4","4","4","3","3","3","4","4","5","3","3","3","5","2","5","2","4","3","3","3","5","3","2","5","4","4","3","3","3","5","4","3","3","5","3","5","5","5","3","5","6","4","5","5","3","6","3","5","742006860881858562","刘","Female","[""好她"",""坏她"",""好我"",""坏我""]","[""强她"",""弱她"",""强我"",""弱我""]","","","","","","","","4","","","","","","","","","SRET","SRET_math_calculate","","key","4","22.16930000000051","581.8181692076126","359.9999921972103","","","","","3+1= ?","4","1","","","","","","",""
"1915","","8","psychophysics","119","880271","0.0-7.0-5.0-0.16","4","4","4","2","1","2","4","3","4","4","4","1","-1","-1","1","-2","0","1","1","5","4","5","4","4","3","3","2","3","4","3","4","4","4","3","3","3","4","4","5","3","3","3","5","2","5","2","4","3","3","3","5","3","2","5","4","4","3","3","3","5","4","3","3","5","3","5","5","5","3","5","6","4","5","5","3","6","3","5","742006860881858562","刘","Female","[""好她"",""坏她"",""好我"",""坏我""]","[""强她"",""弱她"",""强我"",""弱我""]","","","","","","","","8","","","","","","","","","SRET","SRET_math_calculate","","key","8","22.093779069768146","581.8181692076126","359.9999921972103","","","","","6+2= ?","8","1","","","","","","",""
"2859","","8","psychophysics","120","883133","0.0-7.0-5.0-0.17","4","4","4","2","1","2","4","3","4","4","4","1","-1","-1","1","-2","0","1","1","5","4","5","4","4","3","3","2","3","4","3","4","4","4","3","3","3","4","4","5","3","3","3","5","2","5","2","4","3","3","3","5","3","2","5","4","4","3","3","3","5","4","3","3","5","3","5","5","5","3","5","6","4","5","5","3","6","3","5","742006860881858562","刘","Female","[""好她"",""坏她"",""好我"",""坏我""]","[""强她"",""弱她"",""强我"",""弱我""]","","","","","","","","8","","","","","","","","","SRET","SRET_math_calculate","","key","8","22.26519531250051","581.8181692076126","359.9999921972103","","","","","50-42= ?","8","1","","","","","","",""
"2001","","9","psychophysics","121","885152","0.0-7.0-5.0-0.18","4","4","4","2","1","2","4","3","4","4","4","1","-1","-1","1","-2","0","1","1","5","4","5","4","4","3","3","2","3","4","3","4","4","4","3","3","3","4","4","5","3","3","3","5","2","5","2","4","3","3","3","5","3","2","5","4","4","3","3","3","5","4","3","3","5","3","5","5","5","3","5","6","4","5","5","3","6","3","5","742006860881858562","刘","Female","[""好她"",""坏她"",""好我"",""坏我""]","[""强她"",""弱她"",""强我"",""弱我""]","","","","","","","","9","","","","","","","","","SRET","SRET_math_calculate","","key","9","22.22263333333346","581.8181692076126","359.9999921972103","","","","","3*3= ?","9","1","","","","","","",""
"2188","","3","psychophysics","122","887354","0.0-7.0-5.0-0.19","4","4","4","2","1","2","4","3","4","4","4","1","-1","-1","1","-2","0","1","1","5","4","5","4","4","3","3","2","3","4","3","4","4","4","3","3","3","4","4","5","3","3","3","5","2","5","2","4","3","3","3","5","3","2","5","4","4","3","3","3","5","4","3","3","5","3","5","5","5","3","5","6","4","5","5","3","6","3","5","742006860881858562","刘","Female","[""好她"",""坏她"",""好我"",""坏我""]","[""强她"",""弱她"",""强我"",""弱我""]","","","","","","","","3","","","","","","","","","SRET","SRET_math_calculate","","key","3","22.10824489795926","581.8181692076126","359.9999921972103","","","","","2+1= ?","3","1","","","","","","",""
"1983","","8","psychophysics","123","889341","0.0-7.0-5.0-0.20","4","4","4","2","1","2","4","3","4","4","4","1","-1","-1","1","-2","0","1","1","5","4","5","4","4","3","3","2","3","4","3","4","4","4","3","3","3","4","4","5","3","3","3","5","2","5","2","4","3","3","3","5","3","2","5","4","4","3","3","3","5","4","3","3","5","3","5","5","5","3","5","6","4","5","5","3","6","3","5","742006860881858562","刘","Female","[""好她"",""坏她"",""好我"",""坏我""]","[""强她"",""弱她"",""强我"",""弱我""]","","","","","","","","8","","","","","","","","","SRET","SRET_math_calculate","","key","8","22.16225000000056","581.8181692076126","359.9999921972103","","","","","4*2= ?","8","1","","","","","","",""
"2030","","8","psychophysics","124","891374","0.0-7.0-5.0-0.21","4","4","4","2","1","2","4","3","4","4","4","1","-1","-1","1","-2","0","1","1","5","4","5","4","4","3","3","2","3","4","3","4","4","4","3","3","3","4","4","5","3","3","3","5","2","5","2","4","3","3","3","5","3","2","5","4","4","3","3","3","5","4","3","3","5","3","5","5","5","3","5","6","4","5","5","3","6","3","5","742006860881858562","刘","Female","[""好她"",""坏她"",""好我"",""坏我""]","[""强她"",""弱她"",""强我"",""弱我""]","","","","","","","","8","","","","","","","","","SRET","SRET_math_calculate","","key","8","22.16154945054946","581.8181692076126","359.9999921972103","","","","","2*4= ?","8","1","","","","","","",""
"3673","","8","psychophysics","125","895050","0.0-7.0-5.0-0.22","4","4","4","2","1","2","4","3","4","4","4","1","-1","-1","1","-2","0","1","1","5","4","5","4","4","3","3","2","3","4","3","4","4","4","3","3","3","4","4","5","3","3","3","5","2","5","2","4","3","3","3","5","3","2","5","4","4","3","3","3","5","4","3","3","5","3","5","5","5","3","5","6","4","5","5","3","6","3","5","742006860881858562","刘","Female","[""好她"",""坏她"",""好我"",""坏我""]","[""强她"",""弱她"",""强我"",""弱我""]","","","","","","","","8","","","","","","","","","SRET","SRET_math_calculate","","key","8","22.120030303030614","581.8181692076126","359.9999921972103","","","","","13-5= ?","8","1","","","","","","",""
"2013","","8","psychophysics","126","897066","0.0-7.0-5.0-0.23","4","4","4","2","1","2","4","3","4","4","4","1","-1","-1","1","-2","0","1","1","5","4","5","4","4","3","3","2","3","4","3","4","4","4","3","3","3","4","4","5","3","3","3","5","2","5","2","4","3","3","3","5","3","2","5","4","4","3","3","3","5","4","3","3","5","3","5","5","5","3","5","6","4","5","5","3","6","3","5","742006860881858562","刘","Female","[""好她"",""坏她"",""好我"",""坏我""]","[""强她"",""弱她"",""强我"",""弱我""]","","","","","","","","8","","","","","","","","","SRET","SRET_math_calculate","","key","8","22.038822222222937","581.8181692076126","359.9999921972103","","","","","4+4= ?","8","1","","","","","","",""
"2126","","0","psychophysics","127","899196","0.0-7.0-5.0-0.24","4","4","4","2","1","2","4","3","4","4","4","1","-1","-1","1","-2","0","1","1","5","4","5","4","4","3","3","2","3","4","3","4","4","4","3","3","3","4","4","5","3","3","3","5","2","5","2","4","3","3","3","5","3","2","5","4","4","3","3","3","5","4","3","3","5","3","5","5","5","3","5","6","4","5","5","3","6","3","5","742006860881858562","刘","Female","[""好她"",""坏她"",""好我"",""坏我""]","[""强她"",""弱她"",""强我"",""弱我""]","","","","","","","","0","","","","","","","","","SRET","SRET_math_calculate","","key","0","22.16542553191539","581.8181692076126","359.9999921972103","","","","","22-22= ?","0","1","","","","","","",""
"1994","","8","psychophysics","128","901209","0.0-7.0-5.0-0.25","4","4","4","2","1","2","4","3","4","4","4","1","-1","-1","1","-2","0","1","1","5","4","5","4","4","3","3","2","3","4","3","4","4","4","3","3","3","4","4","5","3","3","3","5","2","5","2","4","3","3","3","5","3","2","5","4","4","3","3","3","5","4","3","3","5","3","5","5","5","3","5","6","4","5","5","3","6","3","5","742006860881858562","刘","Female","[""好她"",""坏她"",""好我"",""坏我""]","[""强她"",""弱她"",""强我"",""弱我""]","","","","","","","","8","","","","","","","","","SRET","SRET_math_calculate","","key","8","21.795549450549654","581.8181692076126","359.9999921972103","","","","","2+6= ?","8","1","","","","","","",""
"2249","","3","psychophysics","129","903460","0.0-7.0-5.0-0.26","4","4","4","2","1","2","4","3","4","4","4","1","-1","-1","1","-2","0","1","1","5","4","5","4","4","3","3","2","3","4","3","4","4","4","3","3","3","4","4","5","3","3","3","5","2","5","2","4","3","3","3","5","3","2","5","4","4","3","3","3","5","4","3","3","5","3","5","5","5","3","5","6","4","5","5","3","6","3","5","742006860881858562","刘","Female","[""好她"",""坏她"",""好我"",""坏我""]","[""强她"",""弱她"",""强我"",""弱我""]","","","","","","","","3","","","","","","","","","SRET","SRET_math_calculate","","key","3","22.16755000000005","581.8181692076126","359.9999921972103","","","","","9-6= ?","3","1","","","","","","",""
"2424","","7","psychophysics","130","905887","0.0-7.0-5.0-0.27","4","4","4","2","1","2","4","3","4","4","4","1","-1","-1","1","-2","0","1","1","5","4","5","4","4","3","3","2","3","4","3","4","4","4","3","3","3","4","4","5","3","3","3","5","2","5","2","4","3","3","3","5","3","2","5","4","4","3","3","3","5","4","3","3","5","3","5","5","5","3","5","6","4","5","5","3","6","3","5","742006860881858562","刘","Female","[""好她"",""坏她"",""好我"",""坏我""]","[""强她"",""弱她"",""强我"",""弱我""]","","","","","","","","7","","","","","","","","","SRET","SRET_math_calculate","","key","7","22.17134862385344","581.8181692076126","359.9999921972103","","","","","2+5= ?","7","1","","","","","","",""
"2283","","3","psychophysics","131","908184","0.0-7.0-5.0-0.28","4","4","4","2","1","2","4","3","4","4","4","1","-1","-1","1","-2","0","1","1","5","4","5","4","4","3","3","2","3","4","3","4","4","4","3","3","3","4","4","5","3","3","3","5","2","5","2","4","3","3","3","5","3","2","5","4","4","3","3","3","5","4","3","3","5","3","5","5","5","3","5","6","4","5","5","3","6","3","5","742006860881858562","刘","Female","[""好她"",""坏她"",""好我"",""坏我""]","[""强她"",""弱她"",""强我"",""弱我""]","","","","","","","","3","","","","","","","","","SRET","SRET_math_calculate","","key","3","22.170533980581983","581.8181692076126","359.9999921972103","","","","","6/2= ?","3","1","","","","","","",""
"2094","","9","psychophysics","132","910282","0.0-7.0-5.0-0.29","4","4","4","2","1","2","4","3","4","4","4","1","-1","-1","1","-2","0","1","1","5","4","5","4","4","3","3","2","3","4","3","4","4","4","3","3","3","4","4","5","3","3","3","5","2","5","2","4","3","3","3","5","3","2","5","4","4","3","3","3","5","4","3","3","5","3","5","5","5","3","5","6","4","5","5","3","6","3","5","742006860881858562","刘","Female","[""好她"",""坏她"",""好我"",""坏我""]","[""强她"",""弱她"",""强我"",""弱我""]","","","","","","","","9","","","","","","","","","SRET","SRET_math_calculate","","key","9","22.221494623656405","581.8181692076126","359.9999921972103","","","","","2+7= ?","9","1","","","","","","",""
"3140","","5","psychophysics","133","913425","0.0-7.0-5.0-0.30","4","4","4","2","1","2","4","3","4","4","4","1","-1","-1","1","-2","0","1","1","5","4","5","4","4","3","3","2","3","4","3","4","4","4","3","3","3","4","4","5","3","3","3","5","2","5","2","4","3","3","3","5","3","2","5","4","4","3","3","3","5","4","3","3","5","3","5","5","5","3","5","6","4","5","5","3","6","3","5","742006860881858562","刘","Female","[""好她"",""坏她"",""好我"",""坏我""]","[""强她"",""弱她"",""强我"",""弱我""]","","","","","","","","5","","","","","","","","","SRET","SRET_math_calculate","","key","5","22.103936170212965","581.8181692076126","359.9999921972103","","","","","14-9= ?","5","1","","","","","","",""
"2183","","5","psychophysics","134","915611","0.0-7.0-5.0-0.31","4","4","4","2","1","2","4","3","4","4","4","1","-1","-1","1","-2","0","1","1","5","4","5","4","4","3","3","2","3","4","3","4","4","4","3","3","3","4","4","5","3","3","3","5","2","5","2","4","3","3","3","5","3","2","5","4","4","3","3","3","5","4","3","3","5","3","5","5","5","3","5","6","4","5","5","3","6","3","5","742006860881858562","刘","Female","[""好她"",""坏她"",""好我"",""坏我""]","[""强她"",""弱她"",""强我"",""弱我""]","","","","","","","","5","","","","","","","","","SRET","SRET_math_calculate","","key","5","22.166505154639903","581.8181692076126","359.9999921972103","","","","","9-4= ?","5","1","","","","","","",""
"2202","","0","psychophysics","135","917827","0.0-7.0-5.0-0.32","4","4","4","2","1","2","4","3","4","4","4","1","-1","-1","1","-2","0","1","1","5","4","5","4","4","3","3","2","3","4","3","4","4","4","3","3","3","4","4","5","3","3","3","5","2","5","2","4","3","3","3","5","3","2","5","4","4","3","3","3","5","4","3","3","5","3","5","5","5","3","5","6","4","5","5","3","6","3","5","742006860881858562","刘","Female","[""好她"",""坏她"",""好我"",""坏我""]","[""强她"",""弱她"",""强我"",""弱我""]","","","","","","","","0","","","","","","","","","SRET","SRET_math_calculate","","key","0","22.22253535353494","581.8181692076126","359.9999921972103","","","","","32-32= ?","0","1","","","","","","",""
"2336","","6","psychophysics","136","920166","0.0-7.0-5.0-0.33","4","4","4","2","1","2","4","3","4","4","4","1","-1","-1","1","-2","0","1","1","5","4","5","4","4","3","3","2","3","4","3","4","4","4","3","3","3","4","4","5","3","3","3","5","2","5","2","4","3","3","3","5","3","2","5","4","4","3","3","3","5","4","3","3","5","3","5","5","5","3","5","6","4","5","5","3","6","3","5","742006860881858562","刘","Female","[""好她"",""坏她"",""好我"",""坏我""]","[""强她"",""弱她"",""强我"",""弱我""]","","","","","","","","6","","","","","","","","","SRET","SRET_math_calculate","","key","6","22.222771428570905","581.8181692076126","359.9999921972103","","","","","3+3= ?","6","1","","","","","","",""
"2016","","7","psychophysics","137","922201","0.0-7.0-5.0-0.34","4","4","4","2","1","2","4","3","4","4","4","1","-1","-1","1","-2","0","1","1","5","4","5","4","4","3","3","2","3","4","3","4","4","4","3","3","3","4","4","5","3","3","3","5","2","5","2","4","3","3","3","5","3","2","5","4","4","3","3","3","5","4","3","3","5","3","5","5","5","3","5","6","4","5","5","3","6","3","5","742006860881858562","刘","Female","[""好她"",""坏她"",""好我"",""坏我""]","[""强她"",""弱她"",""强我"",""弱我""]","","","","","","","","7","","","","","","","","","SRET","SRET_math_calculate","","key","7","22.21826666666764","581.8181692076126","359.9999921972103","","","","","9-2= ?","7","1","","","","","","",""
"1971","","0","psychophysics","138","924175","0.0-7.0-5.0-0.35","4","4","4","2","1","2","4","3","4","4","4","1","-1","-1","1","-2","0","1","1","5","4","5","4","4","3","3","2","3","4","3","4","4","4","3","3","3","4","4","5","3","3","3","5","2","5","2","4","3","3","3","5","3","2","5","4","4","3","3","3","5","4","3","3","5","3","5","5","5","3","5","6","4","5","5","3","6","3","5","742006860881858562","刘","Female","[""好她"",""坏她"",""好我"",""坏我""]","[""强她"",""弱她"",""强我"",""弱我""]","","","","","","","","0","","","","","","","","","SRET","SRET_math_calculate","","key","0","22.158874999999004","581.8181692076126","359.9999921972103","","","","","9-9= ?","0","1","","","","","","",""
"2392","","4","psychophysics","139","926573","0.0-7.0-5.0-0.36","4","4","4","2","1","2","4","3","4","4","4","1","-1","-1","1","-2","0","1","1","5","4","5","4","4","3","3","2","3","4","3","4","4","4","3","3","3","4","4","5","3","3","3","5","2","5","2","4","3","3","3","5","3","2","5","4","4","3","3","3","5","4","3","3","5","3","5","5","5","3","5","6","4","5","5","3","6","3","5","742006860881858562","刘","Female","[""好她"",""坏她"",""好我"",""坏我""]","[""强她"",""弱她"",""强我"",""弱我""]","","","","","","","","4","","","","","","","","","SRET","SRET_math_calculate","","key","4","22.065953703702824","581.8181692076126","359.9999921972103","","","","","13-9= ?","4","1","","","","","","",""
