"rt","stimulus","response","trial_type","trial_index","time_elapsed","internal_node_id","swb_1","swb_2","swb_3","swb_4","swb_5","LOT_1","LOT_2","LOT_3","LOT_4","LOT_5","LOT_6","IPC_1","IPC_2","IPC_3","IPC_4","IPC_5","IPC_6","IPC_7","IPC_8","MorIden_1","MorIden_2","MorIden_3","MorIden_4","MorIden_5","MorIden_6","MorIden_7","MorIden_8","MorIden_9","MorIden_10","moralSeImag_1","moralSeImag_2","moralSeImag_3","moralSeImag_4","moralSeImag_5","moralSeImag_6","moralSeImag_7","moralSeImag_8","moralSeImag_9","sde_1","sde_2","sde_3","sde_4","sde_5","sde_6","sde_7","sde_8","sde_9","sde_10","sde_11","sde_12","sde_13","sde_14","sde_15","sde_16","sde_17","sde_18","sde_19","sde_20","IM_1","IM_2","IM_3","IM_4","IM_5","IM_6","IM_7","IM_8","IM_9","IM_10","IM_11","IM_12","IM_13","IM_14","IM_15","IM_16","IM_17","IM_18","IM_19","IM_20","subj_idx","friend_name","Sex","Word","Word2","value","success","timeout","failed_images","failed_audio","failed_video","user_agent","responses","item_order","radio_event_ids","radio_event_times","key_event_times","mouse_event_times","straightlining","zigzagging","honeypot","view_history","response_type","key_press","avg_frame_time","center_x","center_y","correct_response","correct","identity","Image","word","condition","task_id","screen_id","time_stamp","person","valence","domain","math","status","duration","question_order"
"8163","
   <p><div style='color:white; font-size: 25px'>您好，欢迎参加本次实验。</div></p>
   <p><div style='color:white; font-size: 25px'>为充分保障您的权利，请确保您已经知晓并同意《参与实验同意书》以及《数据公开知情同意书》。</div></p>
   <p><div style='color:white; font-size: 25px'>如果您未见过上述内容，请咨询实验员。</div></p>
   <p style='color:white; font-size: 25px'>如果您选择继续实验，则表示您已经清楚两份知情同意书的内容并同意。</p>
   <p> <div style = ""color: green""><按空格键至下页></div> </p>
   "," ","html-keyboard-response","0","8166","0.0-0.0","6","6","5","3","5","2","2","4","3","4","5","-2","-2","-1","1","-2","0","2","1","5","5","5","5","5","4","5","5","5","5","5","4","5","6","6","3","6","6","5","5","2","2","7","6","2","5","1","4","7","4","3","4","2","6","6","5","1","7","6","1","5","4","6","3","6","6","7","7","7","3","5","7","3","2","7","1","6","6","6","001","邢","Male","[""好我"",""坏我"",""坏他"",""好他""]","[""强我"",""弱我"",""弱他"",""强他""]","","","","","","","","","","","","","","","","","","","","","","","","","","","","","","","","","","","","","",""
"","","","call-function","1","8166","0.0-1.0-0.0","6","6","5","3","5","2","2","4","3","4","5","-2","-2","-1","1","-2","0","2","1","5","5","5","5","5","4","5","5","5","5","5","4","5","6","6","3","6","6","5","5","2","2","7","6","2","5","1","4","7","4","3","4","2","6","6","5","1","7","6","1","5","4","6","3","6","6","7","7","7","3","5","7","3","2","7","1","6","6","6","001","邢","Male","[""好我"",""坏我"",""坏他"",""好他""]","[""强我"",""弱我"",""弱他"",""强他""]","","","","","","","","","","","","","","","","","","","","","","","","","","","","","","","","","","","","","",""
"18660","","[{""name"":""Sex"",""value"":""0""},{""name"":""friend_name"",""value"":""邢""},{""name"":""subj_idx"",""value"":""001""}]","survey-html-form","2","26829","0.0-1.0-1.0","6","6","5","3","5","2","2","4","3","4","5","-2","-2","-1","1","-2","0","2","1","5","5","5","5","5","4","5","5","5","5","5","4","5","6","6","3","6","6","5","5","2","2","7","6","2","5","1","4","7","4","3","4","2","6","6","5","1","7","6","1","5","4","6","3","6","6","7","7","7","3","5","7","3","2","7","1","6","6","6","001","邢","Male","[""好我"",""坏我"",""坏他"",""好他""]","[""强我"",""弱我"",""弱他"",""强他""]","","","","","","","","","","","","","","","","","","","","","","","","","","","","","","","","","","","","","",""
"","","","preload","3","27322","0.0-2.0","6","6","5","3","5","2","2","4","3","4","5","-2","-2","-1","1","-2","0","2","1","5","5","5","5","5","4","5","5","5","5","5","4","5","6","6","3","6","6","5","5","2","2","7","6","2","5","1","4","7","4","3","4","2","6","6","5","1","7","6","1","5","4","6","3","6","6","7","7","7","3","5","7","3","2","7","1","6","6","6","001","邢","Male","[""好我"",""坏我"",""坏他"",""好他""]","[""强我"",""弱我"",""弱他"",""强他""]","","true","false","[]","[]","[]","","","","","","","","","","","","","","","","","","","","","","","","","","","","","","","",""
"","","","fullscreen","4","41141","0.0-3.0","6","6","5","3","5","2","2","4","3","4","5","-2","-2","-1","1","-2","0","2","1","5","5","5","5","5","4","5","5","5","5","5","4","5","6","6","3","6","6","5","5","2","2","7","6","2","5","1","4","7","4","3","4","2","6","6","5","1","7","6","1","5","4","6","3","6","6","7","7","7","3","5","7","3","2","7","1","6","6","6","001","邢","Male","[""好我"",""坏我"",""坏他"",""好他""]","[""强我"",""弱我"",""弱他"",""强他""]","","true","","","","","{}","","","","","","","","","","","","","","","","","","","","","","","","","","","","","","",""
"27902.800000190735","","{""Q01"":""6"",""Q02"":""6"",""Q03"":""5"",""Q04"":""3"",""Q05"":""5""}","survey-template","5","69049","0.0-4.0","6","6","5","3","5","2","2","4","3","4","5","-2","-2","-1","1","-2","0","2","1","5","5","5","5","5","4","5","5","5","5","5","4","5","6","6","3","6","6","5","5","2","2","7","6","2","5","1","4","7","4","3","4","2","6","6","5","1","7","6","1","5","4","6","3","6","6","7","7","7","3","5","7","3","2","7","1","6","6","6","001","邢","Male","[""好我"",""坏我"",""坏他"",""好他""]","[""强我"",""弱我"",""弱他"",""强他""]","","","","","","","","{""Q01"":""6"",""Q02"":""6"",""Q03"":""5"",""Q04"":""3"",""Q05"":""5""}","[0,1,2,3,4]","[""Q01"",""Q02"",""Q03"",""Q04"",""Q05""]","[8211.5,11094.200000047684,15398,22186.700000047684,26762]","[]","[8211.5,11094.200000047684,15398,22186.700000047684,26762,27900]","0.4","0.25","0","","","","","","","","","","","","","","","","","","","","","",""
"35498.299999952316","","{""Q01"":""2"",""Q02"":""2"",""Q03"":""4"",""Q04"":""3"",""Q05"":""4"",""Q06"":""5""}","survey-template","6","104559","0.0-5.0","6","6","5","3","5","2","2","4","3","4","5","-2","-2","-1","1","-2","0","2","1","5","5","5","5","5","4","5","5","5","5","5","4","5","6","6","3","6","6","5","5","2","2","7","6","2","5","1","4","7","4","3","4","2","6","6","5","1","7","6","1","5","4","6","3","6","6","7","7","7","3","5","7","3","2","7","1","6","6","6","001","邢","Male","[""好我"",""坏我"",""坏他"",""好他""]","[""强我"",""弱我"",""弱他"",""强他""]","","","","","","","","{""Q01"":""2"",""Q02"":""2"",""Q03"":""4"",""Q04"":""3"",""Q05"":""4"",""Q06"":""5""}","[0,1,2,3,4,5]","[""Q01"",""Q01"",""Q02"",""Q03"",""Q04"",""Q05"",""Q06""]","[3431.9000000953674,5423,10714.799999952316,14295.100000143051,19319,22423.799999952316,34095.40000009537]","[]","[3431.9000000953674,5423,10714.799999952316,14295.100000143051,19319,22423.799999952316,34095.40000009537,35495.5]","0.3333333333333333","0.4","0","","","","","","","","","","","","","","","","","","","","","",""
"42128.800000190735","","{""Q01"":""-2"",""Q02"":""-2"",""Q03"":""-1"",""Q04"":""1"",""Q05"":""-2"",""Q06"":""0"",""Q07"":""2"",""Q08"":""1""}","survey-template","7","146697","0.0-6.0","6","6","5","3","5","2","2","4","3","4","5","-2","-2","-1","1","-2","0","2","1","5","5","5","5","5","4","5","5","5","5","5","4","5","6","6","3","6","6","5","5","2","2","7","6","2","5","1","4","7","4","3","4","2","6","6","5","1","7","6","1","5","4","6","3","6","6","7","7","7","3","5","7","3","2","7","1","6","6","6","001","邢","Male","[""好我"",""坏我"",""坏他"",""好他""]","[""强我"",""弱我"",""弱他"",""强他""]","","","","","","","","{""Q01"":""-2"",""Q02"":""-2"",""Q03"":""-1"",""Q04"":""1"",""Q05"":""-2"",""Q06"":""0"",""Q07"":""2"",""Q08"":""1""}","[0,1,2,3,4,5,6,7]","[""Q01"",""Q02"",""Q01"",""Q03"",""Q04"",""Q05"",""Q06"",""Q07"",""Q08""]","[7940.300000190735,12988.400000095367,14124.300000190735,19604.200000047684,24659.800000190735,29735.10000014305,32239.900000095367,37512.10000014305,41388.5]","[]","[7076.400000095367,7527.200000047684,7940.300000190735,12988.400000095367,14124.300000190735,19604.200000047684,24659.800000190735,29735.10000014305,32239.900000095367,36897.10000014305,37512.10000014305,41388.5,42124.5]","0.375","0.2857142857142857","0","","","","","","","","","","","","","","","","","","","","","",""
"17724","","","instructions","8","164427","0.0-7.0","6","6","5","3","5","2","2","4","3","4","5","-2","-2","-1","1","-2","0","2","1","5","5","5","5","5","4","5","5","5","5","5","4","5","6","6","3","6","6","5","5","2","2","7","6","2","5","1","4","7","4","3","4","2","6","6","5","1","7","6","1","5","4","6","3","6","6","7","7","7","3","5","7","3","2","7","1","6","6","6","001","邢","Male","[""好我"",""坏我"",""坏他"",""好他""]","[""强我"",""弱我"",""弱他"",""强他""]","","","","","","","","","","","","","","","","","[{""page_index"":0,""viewing_time"":17723}]","","","","","","","","","","","","","","","","","","","","",""
"80351","","","instructions","9","244781","0.0-8.0-1.0-0.0","6","6","5","3","5","2","2","4","3","4","5","-2","-2","-1","1","-2","0","2","1","5","5","5","5","5","4","5","5","5","5","5","4","5","6","6","3","6","6","5","5","2","2","7","6","2","5","1","4","7","4","3","4","2","6","6","5","1","7","6","1","5","4","6","3","6","6","7","7","7","3","5","7","3","2","7","1","6","6","6","001","邢","Male","[""好我"",""坏我"",""坏他"",""好他""]","[""强我"",""弱我"",""弱他"",""强他""]","","","","","","","","","","","","","","","","","[{""page_index"":0,""viewing_time"":14164},{""page_index"":1,""viewing_time"":57546},{""page_index"":2,""viewing_time"":4304},{""page_index"":3,""viewing_time"":4335}]","","","","","","","","","","","","","","","","","","","","",""
"null","","null","psychophysics","10","247014","0.0-8.0-1.0-1.0-0.0-0.0","6","6","5","3","5","2","2","4","3","4","5","-2","-2","-1","1","-2","0","2","1","5","5","5","5","5","4","5","5","5","5","5","4","5","6","6","3","6","6","5","5","2","2","7","6","2","5","1","4","7","4","3","4","2","6","6","5","1","7","6","1","5","4","6","3","6","6","7","7","7","3","5","7","3","2","7","1","6","6","6","001","邢","Male","[""好我"",""坏我"",""坏他"",""好他""]","[""强我"",""弱我"",""弱他"",""强他""]","","","","","","","","null","","","","","","","","","","key","null","12.027890109890116","720","446","f","false","nonmatch","img/triangle.png","弱我","强我","prac_ALT2_ability","practice_ability","","","","","","","",""
"null","<span class='add_' style='color:yellow; font-size: 70px;'> 太慢! </span>","null","html-keyboard-response","11","247517","0.0-8.0-1.0-1.0-0.0-1.0","6","6","5","3","5","2","2","4","3","4","5","-2","-2","-1","1","-2","0","2","1","5","5","5","5","5","4","5","5","5","5","5","4","5","6","6","3","6","6","5","5","2","2","7","6","2","5","1","4","7","4","3","4","2","6","6","5","1","7","6","1","5","4","6","3","6","6","7","7","7","3","5","7","3","2","7","1","6","6","6","001","邢","Male","[""好我"",""坏我"",""坏他"",""好他""]","[""强我"",""弱我"",""弱他"",""强他""]","","","","","","","","","","","","","","","","","","","","","","","","","","","","","","feedback_test","","","","","","","",""
"242","","f","psychophysics","12","248757","0.0-8.0-1.0-1.0-0.0-0.1","6","6","5","3","5","2","2","4","3","4","5","-2","-2","-1","1","-2","0","2","1","5","5","5","5","5","4","5","5","5","5","5","4","5","6","6","3","6","6","5","5","2","2","7","6","2","5","1","4","7","4","3","4","2","6","6","5","1","7","6","1","5","4","6","3","6","6","7","7","7","3","5","7","3","2","7","1","6","6","6","001","邢","Male","[""好我"",""坏我"",""坏他"",""好他""]","[""强我"",""弱我"",""弱他"",""强他""]","","","","","","","","nonmatch","","","","","","","","","","key","f","11.02161467889908","720","446","f","true","nonmatch","img/trapezoid.png","强我","强他","prac_ALT2_ability","practice_ability","","","","","","","",""
"null","<span style='color:GreenYellow; font-size: 70px;'>正确! </span>","null","html-keyboard-response","13","249273","0.0-8.0-1.0-1.0-0.0-1.1","6","6","5","3","5","2","2","4","3","4","5","-2","-2","-1","1","-2","0","2","1","5","5","5","5","5","4","5","5","5","5","5","4","5","6","6","3","6","6","5","5","2","2","7","6","2","5","1","4","7","4","3","4","2","6","6","5","1","7","6","1","5","4","6","3","6","6","7","7","7","3","5","7","3","2","7","1","6","6","6","001","邢","Male","[""好我"",""坏我"",""坏他"",""好他""]","[""强我"",""弱我"",""弱他"",""强他""]","","","","","","","","","","","","","","","","","","","","","","","","","","","","","","feedback_test","","","","","","","",""
"340","","j","psychophysics","14","250632","0.0-8.0-1.0-1.0-0.0-0.2","6","6","5","3","5","2","2","4","3","4","5","-2","-2","-1","1","-2","0","2","1","5","5","5","5","5","4","5","5","5","5","5","4","5","6","6","3","6","6","5","5","2","2","7","6","2","5","1","4","7","4","3","4","2","6","6","5","1","7","6","1","5","4","6","3","6","6","7","7","7","3","5","7","3","2","7","1","6","6","6","001","邢","Male","[""好我"",""坏我"",""坏他"",""好他""]","[""强我"",""弱我"",""弱他"",""强他""]","","","","","","","","match","","","","","","","","","","key","j","11.29138793103429","720","446","j","true","match","img/triangle.png","强我","强我","prac_ALT2_ability","practice_ability","","","","","","","",""
"null","<span style='color:GreenYellow; font-size: 70px;'>正确! </span>","null","html-keyboard-response","15","251136","0.0-8.0-1.0-1.0-0.0-1.2","6","6","5","3","5","2","2","4","3","4","5","-2","-2","-1","1","-2","0","2","1","5","5","5","5","5","4","5","5","5","5","5","4","5","6","6","3","6","6","5","5","2","2","7","6","2","5","1","4","7","4","3","4","2","6","6","5","1","7","6","1","5","4","6","3","6","6","7","7","7","3","5","7","3","2","7","1","6","6","6","001","邢","Male","[""好我"",""坏我"",""坏他"",""好他""]","[""强我"",""弱我"",""弱他"",""强他""]","","","","","","","","","","","","","","","","","","","","","","","","","","","","","","feedback_test","","","","","","","",""
"402","","f","psychophysics","16","252540","0.0-8.0-1.0-1.0-0.0-0.3","6","6","5","3","5","2","2","4","3","4","5","-2","-2","-1","1","-2","0","2","1","5","5","5","5","5","4","5","5","5","5","5","4","5","6","6","3","6","6","5","5","2","2","7","6","2","5","1","4","7","4","3","4","2","6","6","5","1","7","6","1","5","4","6","3","6","6","7","7","7","3","5","7","3","2","7","1","6","6","6","001","邢","Male","[""好我"",""坏我"",""坏他"",""好他""]","[""强我"",""弱我"",""弱他"",""强他""]","","","","","","","","nonmatch","","","","","","","","","","key","f","11.105871999999973","720","446","j","false","match","img/triangle.png","强我","强我","prac_ALT2_ability","practice_ability","","","","","","","",""
"null","<span style='color:red; font-size: 70px;'>错误! </span>","null","html-keyboard-response","17","253041","0.0-8.0-1.0-1.0-0.0-1.3","6","6","5","3","5","2","2","4","3","4","5","-2","-2","-1","1","-2","0","2","1","5","5","5","5","5","4","5","5","5","5","5","4","5","6","6","3","6","6","5","5","2","2","7","6","2","5","1","4","7","4","3","4","2","6","6","5","1","7","6","1","5","4","6","3","6","6","7","7","7","3","5","7","3","2","7","1","6","6","6","001","邢","Male","[""好我"",""坏我"",""坏他"",""好他""]","[""强我"",""弱我"",""弱他"",""强他""]","","","","","","","","","","","","","","","","","","","","","","","","","","","","","","feedback_test","","","","","","","",""
"296","","j","psychophysics","18","254341","0.0-8.0-1.0-1.0-0.0-0.4","6","6","5","3","5","2","2","4","3","4","5","-2","-2","-1","1","-2","0","2","1","5","5","5","5","5","4","5","5","5","5","5","4","5","6","6","3","6","6","5","5","2","2","7","6","2","5","1","4","7","4","3","4","2","6","6","5","1","7","6","1","5","4","6","3","6","6","7","7","7","3","5","7","3","2","7","1","6","6","6","001","邢","Male","[""好我"",""坏我"",""坏他"",""好他""]","[""强我"",""弱我"",""弱他"",""强他""]","","","","","","","","match","","","","","","","","","","key","j","11.110477876106424","720","446","f","false","nonmatch","img/ellipse.png","强他","弱我","prac_ALT2_ability","practice_ability","","","","","","","",""
"null","<span style='color:red; font-size: 70px;'>错误! </span>","null","html-keyboard-response","19","254851","0.0-8.0-1.0-1.0-0.0-1.4","6","6","5","3","5","2","2","4","3","4","5","-2","-2","-1","1","-2","0","2","1","5","5","5","5","5","4","5","5","5","5","5","4","5","6","6","3","6","6","5","5","2","2","7","6","2","5","1","4","7","4","3","4","2","6","6","5","1","7","6","1","5","4","6","3","6","6","7","7","7","3","5","7","3","2","7","1","6","6","6","001","邢","Male","[""好我"",""坏我"",""坏他"",""好他""]","[""强我"",""弱我"",""弱他"",""强他""]","","","","","","","","","","","","","","","","","","","","","","","","","","","","","","feedback_test","","","","","","","",""
"366","","f","psychophysics","20","256239","0.0-8.0-1.0-1.0-0.0-0.5","6","6","5","3","5","2","2","4","3","4","5","-2","-2","-1","1","-2","0","2","1","5","5","5","5","5","4","5","5","5","5","5","4","5","6","6","3","6","6","5","5","2","2","7","6","2","5","1","4","7","4","3","4","2","6","6","5","1","7","6","1","5","4","6","3","6","6","7","7","7","3","5","7","3","2","7","1","6","6","6","001","邢","Male","[""好我"",""坏我"",""坏他"",""好他""]","[""强我"",""弱我"",""弱他"",""强他""]","","","","","","","","nonmatch","","","","","","","","","","key","f","11.267724999999821","720","446","f","true","nonmatch","img/triangle.png","弱他","强我","prac_ALT2_ability","practice_ability","","","","","","","",""
"null","<span style='color:GreenYellow; font-size: 70px;'>正确! </span>","null","html-keyboard-response","21","256751","0.0-8.0-1.0-1.0-0.0-1.5","6","6","5","3","5","2","2","4","3","4","5","-2","-2","-1","1","-2","0","2","1","5","5","5","5","5","4","5","5","5","5","5","4","5","6","6","3","6","6","5","5","2","2","7","6","2","5","1","4","7","4","3","4","2","6","6","5","1","7","6","1","5","4","6","3","6","6","7","7","7","3","5","7","3","2","7","1","6","6","6","001","邢","Male","[""好我"",""坏我"",""坏他"",""好他""]","[""强我"",""弱我"",""弱他"",""强他""]","","","","","","","","","","","","","","","","","","","","","","","","","","","","","","feedback_test","","","","","","","",""
"448","","f","psychophysics","22","258203","0.0-8.0-1.0-1.0-0.0-0.6","6","6","5","3","5","2","2","4","3","4","5","-2","-2","-1","1","-2","0","2","1","5","5","5","5","5","4","5","5","5","5","5","4","5","6","6","3","6","6","5","5","2","2","7","6","2","5","1","4","7","4","3","4","2","6","6","5","1","7","6","1","5","4","6","3","6","6","7","7","7","3","5","7","3","2","7","1","6","6","6","001","邢","Male","[""好我"",""坏我"",""坏他"",""好他""]","[""强我"",""弱我"",""弱他"",""强他""]","","","","","","","","nonmatch","","","","","","","","","","key","f","11.26374400000018","720","446","j","false","match","img/hexagon.png","弱他","弱他","prac_ALT2_ability","practice_ability","","","","","","","",""
"null","<span style='color:red; font-size: 70px;'>错误! </span>","null","html-keyboard-response","23","258715","0.0-8.0-1.0-1.0-0.0-1.6","6","6","5","3","5","2","2","4","3","4","5","-2","-2","-1","1","-2","0","2","1","5","5","5","5","5","4","5","5","5","5","5","4","5","6","6","3","6","6","5","5","2","2","7","6","2","5","1","4","7","4","3","4","2","6","6","5","1","7","6","1","5","4","6","3","6","6","7","7","7","3","5","7","3","2","7","1","6","6","6","001","邢","Male","[""好我"",""坏我"",""坏他"",""好他""]","[""强我"",""弱我"",""弱他"",""强他""]","","","","","","","","","","","","","","","","","","","","","","","","","","","","","","feedback_test","","","","","","","",""
"553","","j","psychophysics","24","260270","0.0-8.0-1.0-1.0-0.0-0.7","6","6","5","3","5","2","2","4","3","4","5","-2","-2","-1","1","-2","0","2","1","5","5","5","5","5","4","5","5","5","5","5","4","5","6","6","3","6","6","5","5","2","2","7","6","2","5","1","4","7","4","3","4","2","6","6","5","1","7","6","1","5","4","6","3","6","6","7","7","7","3","5","7","3","2","7","1","6","6","6","001","邢","Male","[""好我"",""坏我"",""坏他"",""好他""]","[""强我"",""弱我"",""弱他"",""强他""]","","","","","","","","match","","","","","","","","","","key","j","11.322075187970002","720","446","f","false","nonmatch","img/ellipse.png","强我","弱我","prac_ALT2_ability","practice_ability","","","","","","","",""
"null","<span style='color:red; font-size: 70px;'>错误! </span>","null","html-keyboard-response","25","260781","0.0-8.0-1.0-1.0-0.0-1.7","6","6","5","3","5","2","2","4","3","4","5","-2","-2","-1","1","-2","0","2","1","5","5","5","5","5","4","5","5","5","5","5","4","5","6","6","3","6","6","5","5","2","2","7","6","2","5","1","4","7","4","3","4","2","6","6","5","1","7","6","1","5","4","6","3","6","6","7","7","7","3","5","7","3","2","7","1","6","6","6","001","邢","Male","[""好我"",""坏我"",""坏他"",""好他""]","[""强我"",""弱我"",""弱他"",""强他""]","","","","","","","","","","","","","","","","","","","","","","","","","","","","","","feedback_test","","","","","","","",""
"187","","f","psychophysics","26","261999","0.0-8.0-1.0-1.0-0.0-0.8","6","6","5","3","5","2","2","4","3","4","5","-2","-2","-1","1","-2","0","2","1","5","5","5","5","5","4","5","5","5","5","5","4","5","6","6","3","6","6","5","5","2","2","7","6","2","5","1","4","7","4","3","4","2","6","6","5","1","7","6","1","5","4","6","3","6","6","7","7","7","3","5","7","3","2","7","1","6","6","6","001","邢","Male","[""好我"",""坏我"",""坏他"",""好他""]","[""强我"",""弱我"",""弱他"",""强他""]","","","","","","","","nonmatch","","","","","","","","","","key","f","11.234582524271953","720","446","f","true","nonmatch","img/trapezoid.png","弱他","强他","prac_ALT2_ability","practice_ability","","","","","","","",""
"null","<span style='color:yellow; font-size: 70px;'>过快! </span>","null","html-keyboard-response","27","262510","0.0-8.0-1.0-1.0-0.0-1.8","6","6","5","3","5","2","2","4","3","4","5","-2","-2","-1","1","-2","0","2","1","5","5","5","5","5","4","5","5","5","5","5","4","5","6","6","3","6","6","5","5","2","2","7","6","2","5","1","4","7","4","3","4","2","6","6","5","1","7","6","1","5","4","6","3","6","6","7","7","7","3","5","7","3","2","7","1","6","6","6","001","邢","Male","[""好我"",""坏我"",""坏他"",""好他""]","[""强我"",""弱我"",""弱他"",""强他""]","","","","","","","","","","","","","","","","","","","","","","","","","","","","","","feedback_test","","","","","","","",""
"270","","j","psychophysics","28","263793","0.0-8.0-1.0-1.0-0.0-0.9","6","6","5","3","5","2","2","4","3","4","5","-2","-2","-1","1","-2","0","2","1","5","5","5","5","5","4","5","5","5","5","5","4","5","6","6","3","6","6","5","5","2","2","7","6","2","5","1","4","7","4","3","4","2","6","6","5","1","7","6","1","5","4","6","3","6","6","7","7","7","3","5","7","3","2","7","1","6","6","6","001","邢","Male","[""好我"",""坏我"",""坏他"",""好他""]","[""强我"",""弱我"",""弱他"",""强他""]","","","","","","","","match","","","","","","","","","","key","j","11.204203539823112","720","446","j","true","match","img/trapezoid.png","强他","强他","prac_ALT2_ability","practice_ability","","","","","","","",""
"null","<span style='color:GreenYellow; font-size: 70px;'>正确! </span>","null","html-keyboard-response","29","264295","0.0-8.0-1.0-1.0-0.0-1.9","6","6","5","3","5","2","2","4","3","4","5","-2","-2","-1","1","-2","0","2","1","5","5","5","5","5","4","5","5","5","5","5","4","5","6","6","3","6","6","5","5","2","2","7","6","2","5","1","4","7","4","3","4","2","6","6","5","1","7","6","1","5","4","6","3","6","6","7","7","7","3","5","7","3","2","7","1","6","6","6","001","邢","Male","[""好我"",""坏我"",""坏他"",""好他""]","[""强我"",""弱我"",""弱他"",""强他""]","","","","","","","","","","","","","","","","","","","","","","","","","","","","","","feedback_test","","","","","","","",""
"235","","f","psychophysics","30","265540","0.0-8.0-1.0-1.0-0.0-0.10","6","6","5","3","5","2","2","4","3","4","5","-2","-2","-1","1","-2","0","2","1","5","5","5","5","5","4","5","5","5","5","5","4","5","6","6","3","6","6","5","5","2","2","7","6","2","5","1","4","7","4","3","4","2","6","6","5","1","7","6","1","5","4","6","3","6","6","7","7","7","3","5","7","3","2","7","1","6","6","6","001","邢","Male","[""好我"",""坏我"",""坏他"",""好他""]","[""强我"",""弱我"",""弱他"",""强他""]","","","","","","","","nonmatch","","","","","","","","","","key","f","11.423074766355414","720","446","f","true","nonmatch","img/trapezoid.png","弱我","强他","prac_ALT2_ability","practice_ability","","","","","","","",""
"null","<span style='color:GreenYellow; font-size: 70px;'>正确! </span>","null","html-keyboard-response","31","266045","0.0-8.0-1.0-1.0-0.0-1.10","6","6","5","3","5","2","2","4","3","4","5","-2","-2","-1","1","-2","0","2","1","5","5","5","5","5","4","5","5","5","5","5","4","5","6","6","3","6","6","5","5","2","2","7","6","2","5","1","4","7","4","3","4","2","6","6","5","1","7","6","1","5","4","6","3","6","6","7","7","7","3","5","7","3","2","7","1","6","6","6","001","邢","Male","[""好我"",""坏我"",""坏他"",""好他""]","[""强我"",""弱我"",""弱他"",""强他""]","","","","","","","","","","","","","","","","","","","","","","","","","","","","","","feedback_test","","","","","","","",""
"637","","f","psychophysics","32","267703","0.0-8.0-1.0-1.0-0.0-0.11","6","6","5","3","5","2","2","4","3","4","5","-2","-2","-1","1","-2","0","2","1","5","5","5","5","5","4","5","5","5","5","5","4","5","6","6","3","6","6","5","5","2","2","7","6","2","5","1","4","7","4","3","4","2","6","6","5","1","7","6","1","5","4","6","3","6","6","7","7","7","3","5","7","3","2","7","1","6","6","6","001","邢","Male","[""好我"",""坏我"",""坏他"",""好他""]","[""强我"",""弱我"",""弱他"",""强他""]","","","","","","","","nonmatch","","","","","","","","","","key","f","11.234552447552225","720","446","f","true","nonmatch","img/ellipse.png","弱他","弱我","prac_ALT2_ability","practice_ability","","","","","","","",""
"null","<span style='color:GreenYellow; font-size: 70px;'>正确! </span>","null","html-keyboard-response","33","268211","0.0-8.0-1.0-1.0-0.0-1.11","6","6","5","3","5","2","2","4","3","4","5","-2","-2","-1","1","-2","0","2","1","5","5","5","5","5","4","5","5","5","5","5","4","5","6","6","3","6","6","5","5","2","2","7","6","2","5","1","4","7","4","3","4","2","6","6","5","1","7","6","1","5","4","6","3","6","6","7","7","7","3","5","7","3","2","7","1","6","6","6","001","邢","Male","[""好我"",""坏我"",""坏他"",""好他""]","[""强我"",""弱我"",""弱他"",""强他""]","","","","","","","","","","","","","","","","","","","","","","","","","","","","","","feedback_test","","","","","","","",""
"622","","f","psychophysics","34","269838","0.0-8.0-1.0-1.0-0.0-0.12","6","6","5","3","5","2","2","4","3","4","5","-2","-2","-1","1","-2","0","2","1","5","5","5","5","5","4","5","5","5","5","5","4","5","6","6","3","6","6","5","5","2","2","7","6","2","5","1","4","7","4","3","4","2","6","6","5","1","7","6","1","5","4","6","3","6","6","7","7","7","3","5","7","3","2","7","1","6","6","6","001","邢","Male","[""好我"",""坏我"",""坏他"",""好他""]","[""强我"",""弱我"",""弱他"",""强他""]","","","","","","","","nonmatch","","","","","","","","","","key","f","11.10767375886546","720","446","j","false","match","img/ellipse.png","弱我","弱我","prac_ALT2_ability","practice_ability","","","","","","","",""
"null","<span style='color:red; font-size: 70px;'>错误! </span>","null","html-keyboard-response","35","270347","0.0-8.0-1.0-1.0-0.0-1.12","6","6","5","3","5","2","2","4","3","4","5","-2","-2","-1","1","-2","0","2","1","5","5","5","5","5","4","5","5","5","5","5","4","5","6","6","3","6","6","5","5","2","2","7","6","2","5","1","4","7","4","3","4","2","6","6","5","1","7","6","1","5","4","6","3","6","6","7","7","7","3","5","7","3","2","7","1","6","6","6","001","邢","Male","[""好我"",""坏我"",""坏他"",""好他""]","[""强我"",""弱我"",""弱他"",""强他""]","","","","","","","","","","","","","","","","","","","","","","","","","","","","","","feedback_test","","","","","","","",""
"800","","f","psychophysics","36","272153","0.0-8.0-1.0-1.0-0.0-0.13","6","6","5","3","5","2","2","4","3","4","5","-2","-2","-1","1","-2","0","2","1","5","5","5","5","5","4","5","5","5","5","5","4","5","6","6","3","6","6","5","5","2","2","7","6","2","5","1","4","7","4","3","4","2","6","6","5","1","7","6","1","5","4","6","3","6","6","7","7","7","3","5","7","3","2","7","1","6","6","6","001","邢","Male","[""好我"",""坏我"",""坏他"",""好他""]","[""强我"",""弱我"",""弱他"",""强他""]","","","","","","","","nonmatch","","","","","","","","","","key","f","11.398441558441467","720","446","j","false","match","img/hexagon.png","弱他","弱他","prac_ALT2_ability","practice_ability","","","","","","","",""
"null","<span style='color:red; font-size: 70px;'>错误! </span>","null","html-keyboard-response","37","272662","0.0-8.0-1.0-1.0-0.0-1.13","6","6","5","3","5","2","2","4","3","4","5","-2","-2","-1","1","-2","0","2","1","5","5","5","5","5","4","5","5","5","5","5","4","5","6","6","3","6","6","5","5","2","2","7","6","2","5","1","4","7","4","3","4","2","6","6","5","1","7","6","1","5","4","6","3","6","6","7","7","7","3","5","7","3","2","7","1","6","6","6","001","邢","Male","[""好我"",""坏我"",""坏他"",""好他""]","[""强我"",""弱我"",""弱他"",""强他""]","","","","","","","","","","","","","","","","","","","","","","","","","","","","","","feedback_test","","","","","","","",""
"572","","j","psychophysics","38","274270","0.0-8.0-1.0-1.0-0.0-0.14","6","6","5","3","5","2","2","4","3","4","5","-2","-2","-1","1","-2","0","2","1","5","5","5","5","5","4","5","5","5","5","5","4","5","6","6","3","6","6","5","5","2","2","7","6","2","5","1","4","7","4","3","4","2","6","6","5","1","7","6","1","5","4","6","3","6","6","7","7","7","3","5","7","3","2","7","1","6","6","6","001","邢","Male","[""好我"",""坏我"",""坏他"",""好他""]","[""强我"",""弱我"",""弱他"",""强他""]","","","","","","","","match","","","","","","","","","","key","j","11.189942857142887","720","446","j","true","match","img/hexagon.png","弱他","弱他","prac_ALT2_ability","practice_ability","","","","","","","",""
"null","<span style='color:GreenYellow; font-size: 70px;'>正确! </span>","null","html-keyboard-response","39","274776","0.0-8.0-1.0-1.0-0.0-1.14","6","6","5","3","5","2","2","4","3","4","5","-2","-2","-1","1","-2","0","2","1","5","5","5","5","5","4","5","5","5","5","5","4","5","6","6","3","6","6","5","5","2","2","7","6","2","5","1","4","7","4","3","4","2","6","6","5","1","7","6","1","5","4","6","3","6","6","7","7","7","3","5","7","3","2","7","1","6","6","6","001","邢","Male","[""好我"",""坏我"",""坏他"",""好他""]","[""强我"",""弱我"",""弱他"",""强他""]","","","","","","","","","","","","","","","","","","","","","","","","","","","","","","feedback_test","","","","","","","",""
"907","","f","psychophysics","40","276685","0.0-8.0-1.0-1.0-0.0-0.15","6","6","5","3","5","2","2","4","3","4","5","-2","-2","-1","1","-2","0","2","1","5","5","5","5","5","4","5","5","5","5","5","4","5","6","6","3","6","6","5","5","2","2","7","6","2","5","1","4","7","4","3","4","2","6","6","5","1","7","6","1","5","4","6","3","6","6","7","7","7","3","5","7","3","2","7","1","6","6","6","001","邢","Male","[""好我"",""坏我"",""坏他"",""好他""]","[""强我"",""弱我"",""弱他"",""强他""]","","","","","","","","nonmatch","","","","","","","","","","key","f","11.516439024390221","720","446","f","true","nonmatch","img/triangle.png","强他","强我","prac_ALT2_ability","practice_ability","","","","","","","",""
"null","<span style='color:GreenYellow; font-size: 70px;'>正确! </span>","null","html-keyboard-response","41","277188","0.0-8.0-1.0-1.0-0.0-1.15","6","6","5","3","5","2","2","4","3","4","5","-2","-2","-1","1","-2","0","2","1","5","5","5","5","5","4","5","5","5","5","5","4","5","6","6","3","6","6","5","5","2","2","7","6","2","5","1","4","7","4","3","4","2","6","6","5","1","7","6","1","5","4","6","3","6","6","7","7","7","3","5","7","3","2","7","1","6","6","6","001","邢","Male","[""好我"",""坏我"",""坏他"",""好他""]","[""强我"",""弱我"",""弱他"",""强他""]","","","","","","","","","","","","","","","","","","","","","","","","","","","","","","feedback_test","","","","","","","",""
"1170","","j","psychophysics","42","279362","0.0-8.0-1.0-1.0-0.0-0.16","6","6","5","3","5","2","2","4","3","4","5","-2","-2","-1","1","-2","0","2","1","5","5","5","5","5","4","5","5","5","5","5","4","5","6","6","3","6","6","5","5","2","2","7","6","2","5","1","4","7","4","3","4","2","6","6","5","1","7","6","1","5","4","6","3","6","6","7","7","7","3","5","7","3","2","7","1","6","6","6","001","邢","Male","[""好我"",""坏我"",""坏他"",""好他""]","[""强我"",""弱我"",""弱他"",""强他""]","","","","","","","","match","","","","","","","","","","key","j","11.110837696335299","720","446","f","false","nonmatch","img/hexagon.png","弱我","弱他","prac_ALT2_ability","practice_ability","","","","","","","",""
"null","<span style='color:red; font-size: 70px;'>错误! </span>","null","html-keyboard-response","43","279873","0.0-8.0-1.0-1.0-0.0-1.16","6","6","5","3","5","2","2","4","3","4","5","-2","-2","-1","1","-2","0","2","1","5","5","5","5","5","4","5","5","5","5","5","4","5","6","6","3","6","6","5","5","2","2","7","6","2","5","1","4","7","4","3","4","2","6","6","5","1","7","6","1","5","4","6","3","6","6","7","7","7","3","5","7","3","2","7","1","6","6","6","001","邢","Male","[""好我"",""坏我"",""坏他"",""好他""]","[""强我"",""弱我"",""弱他"",""强他""]","","","","","","","","","","","","","","","","","","","","","","","","","","","","","","feedback_test","","","","","","","",""
"null","","null","psychophysics","44","282120","0.0-8.0-1.0-1.0-0.0-0.17","6","6","5","3","5","2","2","4","3","4","5","-2","-2","-1","1","-2","0","2","1","5","5","5","5","5","4","5","5","5","5","5","4","5","6","6","3","6","6","5","5","2","2","7","6","2","5","1","4","7","4","3","4","2","6","6","5","1","7","6","1","5","4","6","3","6","6","7","7","7","3","5","7","3","2","7","1","6","6","6","001","邢","Male","[""好我"",""坏我"",""坏他"",""好他""]","[""强我"",""弱我"",""弱他"",""强他""]","","","","","","","","null","","","","","","","","","","key","null","11.457749999999882","720","446","j","false","match","img/triangle.png","强我","强我","prac_ALT2_ability","practice_ability","","","","","","","",""
"null","<span class='add_' style='color:yellow; font-size: 70px;'> 太慢! </span>","null","html-keyboard-response","45","282627","0.0-8.0-1.0-1.0-0.0-1.17","6","6","5","3","5","2","2","4","3","4","5","-2","-2","-1","1","-2","0","2","1","5","5","5","5","5","4","5","5","5","5","5","4","5","6","6","3","6","6","5","5","2","2","7","6","2","5","1","4","7","4","3","4","2","6","6","5","1","7","6","1","5","4","6","3","6","6","7","7","7","3","5","7","3","2","7","1","6","6","6","001","邢","Male","[""好我"",""坏我"",""坏他"",""好他""]","[""强我"",""弱我"",""弱他"",""强他""]","","","","","","","","","","","","","","","","","","","","","","","","","","","","","","feedback_test","","","","","","","",""
"907","","f","psychophysics","46","284537","0.0-8.0-1.0-1.0-0.0-0.18","6","6","5","3","5","2","2","4","3","4","5","-2","-2","-1","1","-2","0","2","1","5","5","5","5","5","4","5","5","5","5","5","4","5","6","6","3","6","6","5","5","2","2","7","6","2","5","1","4","7","4","3","4","2","6","6","5","1","7","6","1","5","4","6","3","6","6","7","7","7","3","5","7","3","2","7","1","6","6","6","001","邢","Male","[""好我"",""坏我"",""坏他"",""好他""]","[""强我"",""弱我"",""弱他"",""强他""]","","","","","","","","nonmatch","","","","","","","","","","key","f","11.228359281437118","720","446","j","false","match","img/trapezoid.png","强他","强他","prac_ALT2_ability","practice_ability","","","","","","","",""
"null","<span style='color:red; font-size: 70px;'>错误! </span>","null","html-keyboard-response","47","285042","0.0-8.0-1.0-1.0-0.0-1.18","6","6","5","3","5","2","2","4","3","4","5","-2","-2","-1","1","-2","0","2","1","5","5","5","5","5","4","5","5","5","5","5","4","5","6","6","3","6","6","5","5","2","2","7","6","2","5","1","4","7","4","3","4","2","6","6","5","1","7","6","1","5","4","6","3","6","6","7","7","7","3","5","7","3","2","7","1","6","6","6","001","邢","Male","[""好我"",""坏我"",""坏他"",""好他""]","[""强我"",""弱我"",""弱他"",""强他""]","","","","","","","","","","","","","","","","","","","","","","","","","","","","","","feedback_test","","","","","","","",""
"1112","","f","psychophysics","48","287158","0.0-8.0-1.0-1.0-0.0-0.19","6","6","5","3","5","2","2","4","3","4","5","-2","-2","-1","1","-2","0","2","1","5","5","5","5","5","4","5","5","5","5","5","4","5","6","6","3","6","6","5","5","2","2","7","6","2","5","1","4","7","4","3","4","2","6","6","5","1","7","6","1","5","4","6","3","6","6","7","7","7","3","5","7","3","2","7","1","6","6","6","001","邢","Male","[""好我"",""坏我"",""坏他"",""好他""]","[""强我"",""弱我"",""弱他"",""强他""]","","","","","","","","nonmatch","","","","","","","","","","key","f","11.287269230769528","720","446","j","false","match","img/ellipse.png","弱我","弱我","prac_ALT2_ability","practice_ability","","","","","","","",""
"null","<span style='color:red; font-size: 70px;'>错误! </span>","null","html-keyboard-response","49","287661","0.0-8.0-1.0-1.0-0.0-1.19","6","6","5","3","5","2","2","4","3","4","5","-2","-2","-1","1","-2","0","2","1","5","5","5","5","5","4","5","5","5","5","5","4","5","6","6","3","6","6","5","5","2","2","7","6","2","5","1","4","7","4","3","4","2","6","6","5","1","7","6","1","5","4","6","3","6","6","7","7","7","3","5","7","3","2","7","1","6","6","6","001","邢","Male","[""好我"",""坏我"",""坏他"",""好他""]","[""强我"",""弱我"",""弱他"",""强他""]","","","","","","","","","","","","","","","","","","","","","","","","","","","","","","feedback_test","","","","","","","",""
"590","","j","psychophysics","50","289253","0.0-8.0-1.0-1.0-0.0-0.20","6","6","5","3","5","2","2","4","3","4","5","-2","-2","-1","1","-2","0","2","1","5","5","5","5","5","4","5","5","5","5","5","4","5","6","6","3","6","6","5","5","2","2","7","6","2","5","1","4","7","4","3","4","2","6","6","5","1","7","6","1","5","4","6","3","6","6","7","7","7","3","5","7","3","2","7","1","6","6","6","001","邢","Male","[""好我"",""坏我"",""坏他"",""好他""]","[""强我"",""弱我"",""弱他"",""强他""]","","","","","","","","match","","","","","","","","","","key","j","11.171230215827595","720","446","j","true","match","img/ellipse.png","弱我","弱我","prac_ALT2_ability","practice_ability","","","","","","","",""
"null","<span style='color:GreenYellow; font-size: 70px;'>正确! </span>","null","html-keyboard-response","51","289784","0.0-8.0-1.0-1.0-0.0-1.20","6","6","5","3","5","2","2","4","3","4","5","-2","-2","-1","1","-2","0","2","1","5","5","5","5","5","4","5","5","5","5","5","4","5","6","6","3","6","6","5","5","2","2","7","6","2","5","1","4","7","4","3","4","2","6","6","5","1","7","6","1","5","4","6","3","6","6","7","7","7","3","5","7","3","2","7","1","6","6","6","001","邢","Male","[""好我"",""坏我"",""坏他"",""好他""]","[""强我"",""弱我"",""弱他"",""强他""]","","","","","","","","","","","","","","","","","","","","","","","","","","","","","","feedback_test","","","","","","","",""
"1027","","f","psychophysics","52","291823","0.0-8.0-1.0-1.0-0.0-0.21","6","6","5","3","5","2","2","4","3","4","5","-2","-2","-1","1","-2","0","2","1","5","5","5","5","5","4","5","5","5","5","5","4","5","6","6","3","6","6","5","5","2","2","7","6","2","5","1","4","7","4","3","4","2","6","6","5","1","7","6","1","5","4","6","3","6","6","7","7","7","3","5","7","3","2","7","1","6","6","6","001","邢","Male","[""好我"",""坏我"",""坏他"",""好他""]","[""强我"",""弱我"",""弱他"",""强他""]","","","","","","","","nonmatch","","","","","","","","","","key","f","11.183351955307302","720","446","f","true","nonmatch","img/hexagon.png","强我","弱他","prac_ALT2_ability","practice_ability","","","","","","","",""
"null","<span style='color:GreenYellow; font-size: 70px;'>正确! </span>","null","html-keyboard-response","53","292331","0.0-8.0-1.0-1.0-0.0-1.21","6","6","5","3","5","2","2","4","3","4","5","-2","-2","-1","1","-2","0","2","1","5","5","5","5","5","4","5","5","5","5","5","4","5","6","6","3","6","6","5","5","2","2","7","6","2","5","1","4","7","4","3","4","2","6","6","5","1","7","6","1","5","4","6","3","6","6","7","7","7","3","5","7","3","2","7","1","6","6","6","001","邢","Male","[""好我"",""坏我"",""坏他"",""好他""]","[""强我"",""弱我"",""弱他"",""强他""]","","","","","","","","","","","","","","","","","","","","","","","","","","","","","","feedback_test","","","","","","","",""
"1001","","j","psychophysics","54","294334","0.0-8.0-1.0-1.0-0.0-0.22","6","6","5","3","5","2","2","4","3","4","5","-2","-2","-1","1","-2","0","2","1","5","5","5","5","5","4","5","5","5","5","5","4","5","6","6","3","6","6","5","5","2","2","7","6","2","5","1","4","7","4","3","4","2","6","6","5","1","7","6","1","5","4","6","3","6","6","7","7","7","3","5","7","3","2","7","1","6","6","6","001","邢","Male","[""好我"",""坏我"",""坏他"",""好他""]","[""强我"",""弱我"",""弱他"",""强他""]","","","","","","","","match","","","","","","","","","","key","j","11.236322033898457","720","446","j","true","match","img/trapezoid.png","强他","强他","prac_ALT2_ability","practice_ability","","","","","","","",""
"null","<span style='color:GreenYellow; font-size: 70px;'>正确! </span>","null","html-keyboard-response","55","294841","0.0-8.0-1.0-1.0-0.0-1.22","6","6","5","3","5","2","2","4","3","4","5","-2","-2","-1","1","-2","0","2","1","5","5","5","5","5","4","5","5","5","5","5","4","5","6","6","3","6","6","5","5","2","2","7","6","2","5","1","4","7","4","3","4","2","6","6","5","1","7","6","1","5","4","6","3","6","6","7","7","7","3","5","7","3","2","7","1","6","6","6","001","邢","Male","[""好我"",""坏我"",""坏他"",""好他""]","[""强我"",""弱我"",""弱他"",""强他""]","","","","","","","","","","","","","","","","","","","","","","","","","","","","","","feedback_test","","","","","","","",""
"520","","j","psychophysics","56","296363","0.0-8.0-1.0-1.0-0.0-0.23","6","6","5","3","5","2","2","4","3","4","5","-2","-2","-1","1","-2","0","2","1","5","5","5","5","5","4","5","5","5","5","5","4","5","6","6","3","6","6","5","5","2","2","7","6","2","5","1","4","7","4","3","4","2","6","6","5","1","7","6","1","5","4","6","3","6","6","7","7","7","3","5","7","3","2","7","1","6","6","6","001","邢","Male","[""好我"",""坏我"",""坏他"",""好他""]","[""强我"",""弱我"",""弱他"",""强他""]","","","","","","","","match","","","","","","","","","","key","j","11.27919696969735","720","446","f","false","nonmatch","img/hexagon.png","强他","弱他","prac_ALT2_ability","practice_ability","","","","","","","",""
"null","<span style='color:red; font-size: 70px;'>错误! </span>","null","html-keyboard-response","57","296897","0.0-8.0-1.0-1.0-0.0-1.23","6","6","5","3","5","2","2","4","3","4","5","-2","-2","-1","1","-2","0","2","1","5","5","5","5","5","4","5","5","5","5","5","4","5","6","6","3","6","6","5","5","2","2","7","6","2","5","1","4","7","4","3","4","2","6","6","5","1","7","6","1","5","4","6","3","6","6","7","7","7","3","5","7","3","2","7","1","6","6","6","001","邢","Male","[""好我"",""坏我"",""坏他"",""好他""]","[""强我"",""弱我"",""弱他"",""强他""]","","","","","","","","","","","","","","","","","","","","","","","","","","","","","","feedback_test","","","","","","","",""
"821","","j","psychophysics","58","298752","0.0-8.0-1.0-1.0-0.0-0.24","6","6","5","3","5","2","2","4","3","4","5","-2","-2","-1","1","-2","0","2","1","5","5","5","5","5","4","5","5","5","5","5","4","5","6","6","3","6","6","5","5","2","2","7","6","2","5","1","4","7","4","3","4","2","6","6","5","1","7","6","1","5","4","6","3","6","6","7","7","7","3","5","7","3","2","7","1","6","6","6","001","邢","Male","[""好我"",""坏我"",""坏他"",""好他""]","[""强我"",""弱我"",""弱他"",""强他""]","","","","","","","","match","","","","","","","","","","key","j","11.171586419753213","720","446","j","true","match","img/triangle.png","强我","强我","prac_ALT2_ability","practice_ability","","","","","","","",""
"null","<span style='color:GreenYellow; font-size: 70px;'>正确! </span>","null","html-keyboard-response","59","299260","0.0-8.0-1.0-1.0-0.0-1.24","6","6","5","3","5","2","2","4","3","4","5","-2","-2","-1","1","-2","0","2","1","5","5","5","5","5","4","5","5","5","5","5","4","5","6","6","3","6","6","5","5","2","2","7","6","2","5","1","4","7","4","3","4","2","6","6","5","1","7","6","1","5","4","6","3","6","6","7","7","7","3","5","7","3","2","7","1","6","6","6","001","邢","Male","[""好我"",""坏我"",""坏他"",""好他""]","[""强我"",""弱我"",""弱他"",""强他""]","","","","","","","","","","","","","","","","","","","","","","","","","","","","","","feedback_test","","","","","","","",""
"967","","f","psychophysics","60","301232","0.0-8.0-1.0-1.0-0.0-0.25","6","6","5","3","5","2","2","4","3","4","5","-2","-2","-1","1","-2","0","2","1","5","5","5","5","5","4","5","5","5","5","5","4","5","6","6","3","6","6","5","5","2","2","7","6","2","5","1","4","7","4","3","4","2","6","6","5","1","7","6","1","5","4","6","3","6","6","7","7","7","3","5","7","3","2","7","1","6","6","6","001","邢","Male","[""好我"",""坏我"",""坏他"",""好他""]","[""强我"",""弱我"",""弱他"",""强他""]","","","","","","","","nonmatch","","","","","","","","","","key","f","11.173918604651442","720","446","f","true","nonmatch","img/ellipse.png","强我","弱我","prac_ALT2_ability","practice_ability","","","","","","","",""
"null","<span style='color:GreenYellow; font-size: 70px;'>正确! </span>","null","html-keyboard-response","61","301736","0.0-8.0-1.0-1.0-0.0-1.25","6","6","5","3","5","2","2","4","3","4","5","-2","-2","-1","1","-2","0","2","1","5","5","5","5","5","4","5","5","5","5","5","4","5","6","6","3","6","6","5","5","2","2","7","6","2","5","1","4","7","4","3","4","2","6","6","5","1","7","6","1","5","4","6","3","6","6","7","7","7","3","5","7","3","2","7","1","6","6","6","001","邢","Male","[""好我"",""坏我"",""坏他"",""好他""]","[""强我"",""弱我"",""弱他"",""强他""]","","","","","","","","","","","","","","","","","","","","","","","","","","","","","","feedback_test","","","","","","","",""
"1154","","j","psychophysics","62","303891","0.0-8.0-1.0-1.0-0.0-0.26","6","6","5","3","5","2","2","4","3","4","5","-2","-2","-1","1","-2","0","2","1","5","5","5","5","5","4","5","5","5","5","5","4","5","6","6","3","6","6","5","5","2","2","7","6","2","5","1","4","7","4","3","4","2","6","6","5","1","7","6","1","5","4","6","3","6","6","7","7","7","3","5","7","3","2","7","1","6","6","6","001","邢","Male","[""好我"",""坏我"",""坏他"",""好他""]","[""强我"",""弱我"",""弱他"",""强他""]","","","","","","","","match","","","","","","","","","","key","j","11.203682539682458","720","446","f","false","nonmatch","img/trapezoid.png","弱我","强他","prac_ALT2_ability","practice_ability","","","","","","","",""
"null","<span style='color:red; font-size: 70px;'>错误! </span>","null","html-keyboard-response","63","304397","0.0-8.0-1.0-1.0-0.0-1.26","6","6","5","3","5","2","2","4","3","4","5","-2","-2","-1","1","-2","0","2","1","5","5","5","5","5","4","5","5","5","5","5","4","5","6","6","3","6","6","5","5","2","2","7","6","2","5","1","4","7","4","3","4","2","6","6","5","1","7","6","1","5","4","6","3","6","6","7","7","7","3","5","7","3","2","7","1","6","6","6","001","邢","Male","[""好我"",""坏我"",""坏他"",""好他""]","[""强我"",""弱我"",""弱他"",""强他""]","","","","","","","","","","","","","","","","","","","","","","","","","","","","","","feedback_test","","","","","","","",""
"920","","j","psychophysics","64","306321","0.0-8.0-1.0-1.0-0.0-0.27","6","6","5","3","5","2","2","4","3","4","5","-2","-2","-1","1","-2","0","2","1","5","5","5","5","5","4","5","5","5","5","5","4","5","6","6","3","6","6","5","5","2","2","7","6","2","5","1","4","7","4","3","4","2","6","6","5","1","7","6","1","5","4","6","3","6","6","7","7","7","3","5","7","3","2","7","1","6","6","6","001","邢","Male","[""好我"",""坏我"",""坏他"",""好他""]","[""强我"",""弱我"",""弱他"",""强他""]","","","","","","","","match","","","","","","","","","","key","j","11.300777108433758","720","446","j","true","match","img/trapezoid.png","强他","强他","prac_ALT2_ability","practice_ability","","","","","","","",""
"null","<span style='color:GreenYellow; font-size: 70px;'>正确! </span>","null","html-keyboard-response","65","306837","0.0-8.0-1.0-1.0-0.0-1.27","6","6","5","3","5","2","2","4","3","4","5","-2","-2","-1","1","-2","0","2","1","5","5","5","5","5","4","5","5","5","5","5","4","5","6","6","3","6","6","5","5","2","2","7","6","2","5","1","4","7","4","3","4","2","6","6","5","1","7","6","1","5","4","6","3","6","6","7","7","7","3","5","7","3","2","7","1","6","6","6","001","邢","Male","[""好我"",""坏我"",""坏他"",""好他""]","[""强我"",""弱我"",""弱他"",""强他""]","","","","","","","","","","","","","","","","","","","","","","","","","","","","","","feedback_test","","","","","","","",""
"1063","","f","psychophysics","66","308910","0.0-8.0-1.0-1.0-0.0-0.28","6","6","5","3","5","2","2","4","3","4","5","-2","-2","-1","1","-2","0","2","1","5","5","5","5","5","4","5","5","5","5","5","4","5","6","6","3","6","6","5","5","2","2","7","6","2","5","1","4","7","4","3","4","2","6","6","5","1","7","6","1","5","4","6","3","6","6","7","7","7","3","5","7","3","2","7","1","6","6","6","001","邢","Male","[""好我"",""坏我"",""坏他"",""好他""]","[""强我"",""弱我"",""弱他"",""强他""]","","","","","","","","nonmatch","","","","","","","","","","key","f","11.233208791208888","720","446","j","false","match","img/triangle.png","强我","强我","prac_ALT2_ability","practice_ability","","","","","","","",""
"null","<span style='color:red; font-size: 70px;'>错误! </span>","null","html-keyboard-response","67","309414","0.0-8.0-1.0-1.0-0.0-1.28","6","6","5","3","5","2","2","4","3","4","5","-2","-2","-1","1","-2","0","2","1","5","5","5","5","5","4","5","5","5","5","5","4","5","6","6","3","6","6","5","5","2","2","7","6","2","5","1","4","7","4","3","4","2","6","6","5","1","7","6","1","5","4","6","3","6","6","7","7","7","3","5","7","3","2","7","1","6","6","6","001","邢","Male","[""好我"",""坏我"",""坏他"",""好他""]","[""强我"",""弱我"",""弱他"",""强他""]","","","","","","","","","","","","","","","","","","","","","","","","","","","","","","feedback_test","","","","","","","",""
"1010","","j","psychophysics","68","311433","0.0-8.0-1.0-1.0-0.0-0.29","6","6","5","3","5","2","2","4","3","4","5","-2","-2","-1","1","-2","0","2","1","5","5","5","5","5","4","5","5","5","5","5","4","5","6","6","3","6","6","5","5","2","2","7","6","2","5","1","4","7","4","3","4","2","6","6","5","1","7","6","1","5","4","6","3","6","6","7","7","7","3","5","7","3","2","7","1","6","6","6","001","邢","Male","[""好我"",""坏我"",""坏他"",""好他""]","[""强我"",""弱我"",""弱他"",""强他""]","","","","","","","","match","","","","","","","","","","key","j","11.13458988764042","720","446","j","true","match","img/hexagon.png","弱他","弱他","prac_ALT2_ability","practice_ability","","","","","","","",""
"null","<span style='color:GreenYellow; font-size: 70px;'>正确! </span>","null","html-keyboard-response","69","311938","0.0-8.0-1.0-1.0-0.0-1.29","6","6","5","3","5","2","2","4","3","4","5","-2","-2","-1","1","-2","0","2","1","5","5","5","5","5","4","5","5","5","5","5","4","5","6","6","3","6","6","5","5","2","2","7","6","2","5","1","4","7","4","3","4","2","6","6","5","1","7","6","1","5","4","6","3","6","6","7","7","7","3","5","7","3","2","7","1","6","6","6","001","邢","Male","[""好我"",""坏我"",""坏他"",""好他""]","[""强我"",""弱我"",""弱他"",""强他""]","","","","","","","","","","","","","","","","","","","","","","","","","","","","","","feedback_test","","","","","","","",""
"720","","j","psychophysics","70","313660","0.0-8.0-1.0-1.0-0.0-0.30","6","6","5","3","5","2","2","4","3","4","5","-2","-2","-1","1","-2","0","2","1","5","5","5","5","5","4","5","5","5","5","5","4","5","6","6","3","6","6","5","5","2","2","7","6","2","5","1","4","7","4","3","4","2","6","6","5","1","7","6","1","5","4","6","3","6","6","7","7","7","3","5","7","3","2","7","1","6","6","6","001","邢","Male","[""好我"",""坏我"",""坏他"",""好他""]","[""强我"",""弱我"",""弱他"",""强他""]","","","","","","","","match","","","","","","","","","","key","j","11.407899328859074","720","446","f","false","nonmatch","img/hexagon.png","弱我","弱他","prac_ALT2_ability","practice_ability","","","","","","","",""
"null","<span style='color:red; font-size: 70px;'>错误! </span>","null","html-keyboard-response","71","314181","0.0-8.0-1.0-1.0-0.0-1.30","6","6","5","3","5","2","2","4","3","4","5","-2","-2","-1","1","-2","0","2","1","5","5","5","5","5","4","5","5","5","5","5","4","5","6","6","3","6","6","5","5","2","2","7","6","2","5","1","4","7","4","3","4","2","6","6","5","1","7","6","1","5","4","6","3","6","6","7","7","7","3","5","7","3","2","7","1","6","6","6","001","邢","Male","[""好我"",""坏我"",""坏他"",""好他""]","[""强我"",""弱我"",""弱他"",""强他""]","","","","","","","","","","","","","","","","","","","","","","","","","","","","","","feedback_test","","","","","","","",""
"1006","","f","psychophysics","72","316199","0.0-8.0-1.0-1.0-0.0-0.31","6","6","5","3","5","2","2","4","3","4","5","-2","-2","-1","1","-2","0","2","1","5","5","5","5","5","4","5","5","5","5","5","4","5","6","6","3","6","6","5","5","2","2","7","6","2","5","1","4","7","4","3","4","2","6","6","5","1","7","6","1","5","4","6","3","6","6","7","7","7","3","5","7","3","2","7","1","6","6","6","001","邢","Male","[""好我"",""坏我"",""坏他"",""好他""]","[""强我"",""弱我"",""弱他"",""强他""]","","","","","","","","nonmatch","","","","","","","","","","key","f","11.41483529411763","720","446","f","true","nonmatch","img/triangle.png","强他","强我","prac_ALT2_ability","practice_ability","","","","","","","",""
"null","<span style='color:GreenYellow; font-size: 70px;'>正确! </span>","null","html-keyboard-response","73","316703","0.0-8.0-1.0-1.0-0.0-1.31","6","6","5","3","5","2","2","4","3","4","5","-2","-2","-1","1","-2","0","2","1","5","5","5","5","5","4","5","5","5","5","5","4","5","6","6","3","6","6","5","5","2","2","7","6","2","5","1","4","7","4","3","4","2","6","6","5","1","7","6","1","5","4","6","3","6","6","7","7","7","3","5","7","3","2","7","1","6","6","6","001","邢","Male","[""好我"",""坏我"",""坏他"",""好他""]","[""强我"",""弱我"",""弱他"",""强他""]","","","","","","","","","","","","","","","","","","","","","","","","","","","","","","feedback_test","","","","","","","",""
"1102","","f","psychophysics","74","318810","0.0-8.0-1.0-1.0-0.0-0.32","6","6","5","3","5","2","2","4","3","4","5","-2","-2","-1","1","-2","0","2","1","5","5","5","5","5","4","5","5","5","5","5","4","5","6","6","3","6","6","5","5","2","2","7","6","2","5","1","4","7","4","3","4","2","6","6","5","1","7","6","1","5","4","6","3","6","6","7","7","7","3","5","7","3","2","7","1","6","6","6","001","邢","Male","[""好我"",""坏我"",""坏他"",""好他""]","[""强我"",""弱我"",""弱他"",""强他""]","","","","","","","","nonmatch","","","","","","","","","","key","f","11.7315139664804","720","446","f","true","nonmatch","img/ellipse.png","强他","弱我","prac_ALT2_ability","practice_ability","","","","","","","",""
"null","<span style='color:GreenYellow; font-size: 70px;'>正确! </span>","null","html-keyboard-response","75","319318","0.0-8.0-1.0-1.0-0.0-1.32","6","6","5","3","5","2","2","4","3","4","5","-2","-2","-1","1","-2","0","2","1","5","5","5","5","5","4","5","5","5","5","5","4","5","6","6","3","6","6","5","5","2","2","7","6","2","5","1","4","7","4","3","4","2","6","6","5","1","7","6","1","5","4","6","3","6","6","7","7","7","3","5","7","3","2","7","1","6","6","6","001","邢","Male","[""好我"",""坏我"",""坏他"",""好他""]","[""强我"",""弱我"",""弱他"",""强他""]","","","","","","","","","","","","","","","","","","","","","","","","","","","","","","feedback_test","","","","","","","",""
"999","","j","psychophysics","76","321319","0.0-8.0-1.0-1.0-0.0-0.33","6","6","5","3","5","2","2","4","3","4","5","-2","-2","-1","1","-2","0","2","1","5","5","5","5","5","4","5","5","5","5","5","4","5","6","6","3","6","6","5","5","2","2","7","6","2","5","1","4","7","4","3","4","2","6","6","5","1","7","6","1","5","4","6","3","6","6","7","7","7","3","5","7","3","2","7","1","6","6","6","001","邢","Male","[""好我"",""坏我"",""坏他"",""好他""]","[""强我"",""弱我"",""弱他"",""强他""]","","","","","","","","match","","","","","","","","","","key","j","11.907878787878717","720","446","j","true","match","img/ellipse.png","弱我","弱我","prac_ALT2_ability","practice_ability","","","","","","","",""
"null","<span style='color:GreenYellow; font-size: 70px;'>正确! </span>","null","html-keyboard-response","77","321823","0.0-8.0-1.0-1.0-0.0-1.33","6","6","5","3","5","2","2","4","3","4","5","-2","-2","-1","1","-2","0","2","1","5","5","5","5","5","4","5","5","5","5","5","4","5","6","6","3","6","6","5","5","2","2","7","6","2","5","1","4","7","4","3","4","2","6","6","5","1","7","6","1","5","4","6","3","6","6","7","7","7","3","5","7","3","2","7","1","6","6","6","001","邢","Male","[""好我"",""坏我"",""坏他"",""好他""]","[""强我"",""弱我"",""弱他"",""强他""]","","","","","","","","","","","","","","","","","","","","","","","","","","","","","","feedback_test","","","","","","","",""
"954","","f","psychophysics","78","323778","0.0-8.0-1.0-1.0-0.0-0.34","6","6","5","3","5","2","2","4","3","4","5","-2","-2","-1","1","-2","0","2","1","5","5","5","5","5","4","5","5","5","5","5","4","5","6","6","3","6","6","5","5","2","2","7","6","2","5","1","4","7","4","3","4","2","6","6","5","1","7","6","1","5","4","6","3","6","6","7","7","7","3","5","7","3","2","7","1","6","6","6","001","邢","Male","[""好我"",""坏我"",""坏他"",""好他""]","[""强我"",""弱我"",""弱他"",""强他""]","","","","","","","","nonmatch","","","","","","","","","","key","f","11.507130952380802","720","446","j","false","match","img/trapezoid.png","强他","强他","prac_ALT2_ability","practice_ability","","","","","","","",""
"null","<span style='color:red; font-size: 70px;'>错误! </span>","null","html-keyboard-response","79","324286","0.0-8.0-1.0-1.0-0.0-1.34","6","6","5","3","5","2","2","4","3","4","5","-2","-2","-1","1","-2","0","2","1","5","5","5","5","5","4","5","5","5","5","5","4","5","6","6","3","6","6","5","5","2","2","7","6","2","5","1","4","7","4","3","4","2","6","6","5","1","7","6","1","5","4","6","3","6","6","7","7","7","3","5","7","3","2","7","1","6","6","6","001","邢","Male","[""好我"",""坏我"",""坏他"",""好他""]","[""强我"",""弱我"",""弱他"",""强他""]","","","","","","","","","","","","","","","","","","","","","","","","","","","","","","feedback_test","","","","","","","",""
"994","","j","psychophysics","80","326284","0.0-8.0-1.0-1.0-0.0-0.35","6","6","5","3","5","2","2","4","3","4","5","-2","-2","-1","1","-2","0","2","1","5","5","5","5","5","4","5","5","5","5","5","4","5","6","6","3","6","6","5","5","2","2","7","6","2","5","1","4","7","4","3","4","2","6","6","5","1","7","6","1","5","4","6","3","6","6","7","7","7","3","5","7","3","2","7","1","6","6","6","001","邢","Male","[""好我"",""坏我"",""坏他"",""好他""]","[""强我"",""弱我"",""弱他"",""强他""]","","","","","","","","match","","","","","","","","","","key","j","11.306578034682083","720","446","f","false","nonmatch","img/trapezoid.png","强我","强他","prac_ALT2_ability","practice_ability","","","","","","","",""
"null","<span style='color:red; font-size: 70px;'>错误! </span>","null","html-keyboard-response","81","326788","0.0-8.0-1.0-1.0-0.0-1.35","6","6","5","3","5","2","2","4","3","4","5","-2","-2","-1","1","-2","0","2","1","5","5","5","5","5","4","5","5","5","5","5","4","5","6","6","3","6","6","5","5","2","2","7","6","2","5","1","4","7","4","3","4","2","6","6","5","1","7","6","1","5","4","6","3","6","6","7","7","7","3","5","7","3","2","7","1","6","6","6","001","邢","Male","[""好我"",""坏我"",""坏他"",""好他""]","[""强我"",""弱我"",""弱他"",""强他""]","","","","","","","","","","","","","","","","","","","","","","","","","","","","","","feedback_test","","","","","","","",""
"938","","j","psychophysics","82","328729","0.0-8.0-1.0-1.0-0.0-0.36","6","6","5","3","5","2","2","4","3","4","5","-2","-2","-1","1","-2","0","2","1","5","5","5","5","5","4","5","5","5","5","5","4","5","6","6","3","6","6","5","5","2","2","7","6","2","5","1","4","7","4","3","4","2","6","6","5","1","7","6","1","5","4","6","3","6","6","7","7","7","3","5","7","3","2","7","1","6","6","6","001","邢","Male","[""好我"",""坏我"",""坏他"",""好他""]","[""强我"",""弱我"",""弱他"",""强他""]","","","","","","","","match","","","","","","","","","","key","j","11.308735294117907","720","446","j","true","match","img/ellipse.png","弱我","弱我","prac_ALT2_ability","practice_ability","","","","","","","",""
"null","<span style='color:GreenYellow; font-size: 70px;'>正确! </span>","null","html-keyboard-response","83","329244","0.0-8.0-1.0-1.0-0.0-1.36","6","6","5","3","5","2","2","4","3","4","5","-2","-2","-1","1","-2","0","2","1","5","5","5","5","5","4","5","5","5","5","5","4","5","6","6","3","6","6","5","5","2","2","7","6","2","5","1","4","7","4","3","4","2","6","6","5","1","7","6","1","5","4","6","3","6","6","7","7","7","3","5","7","3","2","7","1","6","6","6","001","邢","Male","[""好我"",""坏我"",""坏他"",""好他""]","[""强我"",""弱我"",""弱他"",""强他""]","","","","","","","","","","","","","","","","","","","","","","","","","","","","","","feedback_test","","","","","","","",""
"802","","f","psychophysics","84","331049","0.0-8.0-1.0-1.0-0.0-0.37","6","6","5","3","5","2","2","4","3","4","5","-2","-2","-1","1","-2","0","2","1","5","5","5","5","5","4","5","5","5","5","5","4","5","6","6","3","6","6","5","5","2","2","7","6","2","5","1","4","7","4","3","4","2","6","6","5","1","7","6","1","5","4","6","3","6","6","7","7","7","3","5","7","3","2","7","1","6","6","6","001","邢","Male","[""好我"",""坏我"",""坏他"",""好他""]","[""强我"",""弱我"",""弱他"",""强他""]","","","","","","","","nonmatch","","","","","","","","","","key","f","11.06108125000028","720","446","f","true","nonmatch","img/hexagon.png","强他","弱他","prac_ALT2_ability","practice_ability","","","","","","","",""
"null","<span style='color:GreenYellow; font-size: 70px;'>正确! </span>","null","html-keyboard-response","85","331577","0.0-8.0-1.0-1.0-0.0-1.37","6","6","5","3","5","2","2","4","3","4","5","-2","-2","-1","1","-2","0","2","1","5","5","5","5","5","4","5","5","5","5","5","4","5","6","6","3","6","6","5","5","2","2","7","6","2","5","1","4","7","4","3","4","2","6","6","5","1","7","6","1","5","4","6","3","6","6","7","7","7","3","5","7","3","2","7","1","6","6","6","001","邢","Male","[""好我"",""坏我"",""坏他"",""好他""]","[""强我"",""弱我"",""弱他"",""强他""]","","","","","","","","","","","","","","","","","","","","","","","","","","","","","","feedback_test","","","","","","","",""
"871","","f","psychophysics","86","333462","0.0-8.0-1.0-1.0-0.0-0.38","6","6","5","3","5","2","2","4","3","4","5","-2","-2","-1","1","-2","0","2","1","5","5","5","5","5","4","5","5","5","5","5","4","5","6","6","3","6","6","5","5","2","2","7","6","2","5","1","4","7","4","3","4","2","6","6","5","1","7","6","1","5","4","6","3","6","6","7","7","7","3","5","7","3","2","7","1","6","6","6","001","邢","Male","[""好我"",""坏我"",""坏他"",""好他""]","[""强我"",""弱我"",""弱他"",""强他""]","","","","","","","","nonmatch","","","","","","","","","","key","f","11.3223680981597","720","446","f","true","nonmatch","img/triangle.png","弱我","强我","prac_ALT2_ability","practice_ability","","","","","","","",""
"null","<span style='color:GreenYellow; font-size: 70px;'>正确! </span>","null","html-keyboard-response","87","333964","0.0-8.0-1.0-1.0-0.0-1.38","6","6","5","3","5","2","2","4","3","4","5","-2","-2","-1","1","-2","0","2","1","5","5","5","5","5","4","5","5","5","5","5","4","5","6","6","3","6","6","5","5","2","2","7","6","2","5","1","4","7","4","3","4","2","6","6","5","1","7","6","1","5","4","6","3","6","6","7","7","7","3","5","7","3","2","7","1","6","6","6","001","邢","Male","[""好我"",""坏我"",""坏他"",""好他""]","[""强我"",""弱我"",""弱他"",""强他""]","","","","","","","","","","","","","","","","","","","","","","","","","","","","","","feedback_test","","","","","","","",""
"748","","j","psychophysics","88","335715","0.0-8.0-1.0-1.0-0.0-0.39","6","6","5","3","5","2","2","4","3","4","5","-2","-2","-1","1","-2","0","2","1","5","5","5","5","5","4","5","5","5","5","5","4","5","6","6","3","6","6","5","5","2","2","7","6","2","5","1","4","7","4","3","4","2","6","6","5","1","7","6","1","5","4","6","3","6","6","7","7","7","3","5","7","3","2","7","1","6","6","6","001","邢","Male","[""好我"",""坏我"",""坏他"",""好他""]","[""强我"",""弱我"",""弱他"",""强他""]","","","","","","","","match","","","","","","","","","","key","j","11.153707792207618","720","446","j","true","match","img/hexagon.png","弱他","弱他","prac_ALT2_ability","practice_ability","","","","","","","",""
"null","<span style='color:GreenYellow; font-size: 70px;'>正确! </span>","null","html-keyboard-response","89","336219","0.0-8.0-1.0-1.0-0.0-1.39","6","6","5","3","5","2","2","4","3","4","5","-2","-2","-1","1","-2","0","2","1","5","5","5","5","5","4","5","5","5","5","5","4","5","6","6","3","6","6","5","5","2","2","7","6","2","5","1","4","7","4","3","4","2","6","6","5","1","7","6","1","5","4","6","3","6","6","7","7","7","3","5","7","3","2","7","1","6","6","6","001","邢","Male","[""好我"",""坏我"",""坏他"",""好他""]","[""强我"",""弱我"",""弱他"",""强他""]","","","","","","","","","","","","","","","","","","","","","","","","","","","","","","feedback_test","","","","","","","",""
"827","","f","psychophysics","90","338057","0.0-8.0-1.0-1.0-0.0-0.40","6","6","5","3","5","2","2","4","3","4","5","-2","-2","-1","1","-2","0","2","1","5","5","5","5","5","4","5","5","5","5","5","4","5","6","6","3","6","6","5","5","2","2","7","6","2","5","1","4","7","4","3","4","2","6","6","5","1","7","6","1","5","4","6","3","6","6","7","7","7","3","5","7","3","2","7","1","6","6","6","001","邢","Male","[""好我"",""坏我"",""坏他"",""好他""]","[""强我"",""弱我"",""弱他"",""强他""]","","","","","","","","nonmatch","","","","","","","","","","key","f","11.111237500000062","720","446","f","true","nonmatch","img/hexagon.png","强我","弱他","prac_ALT2_ability","practice_ability","","","","","","","",""
"null","<span style='color:GreenYellow; font-size: 70px;'>正确! </span>","null","html-keyboard-response","91","338570","0.0-8.0-1.0-1.0-0.0-1.40","6","6","5","3","5","2","2","4","3","4","5","-2","-2","-1","1","-2","0","2","1","5","5","5","5","5","4","5","5","5","5","5","4","5","6","6","3","6","6","5","5","2","2","7","6","2","5","1","4","7","4","3","4","2","6","6","5","1","7","6","1","5","4","6","3","6","6","7","7","7","3","5","7","3","2","7","1","6","6","6","001","邢","Male","[""好我"",""坏我"",""坏他"",""好他""]","[""强我"",""弱我"",""弱他"",""强他""]","","","","","","","","","","","","","","","","","","","","","","","","","","","","","","feedback_test","","","","","","","",""
"847","","f","psychophysics","92","340430","0.0-8.0-1.0-1.0-0.0-0.41","6","6","5","3","5","2","2","4","3","4","5","-2","-2","-1","1","-2","0","2","1","5","5","5","5","5","4","5","5","5","5","5","4","5","6","6","3","6","6","5","5","2","2","7","6","2","5","1","4","7","4","3","4","2","6","6","5","1","7","6","1","5","4","6","3","6","6","7","7","7","3","5","7","3","2","7","1","6","6","6","001","邢","Male","[""好我"",""坏我"",""坏他"",""好他""]","[""强我"",""弱我"",""弱他"",""强他""]","","","","","","","","nonmatch","","","","","","","","","","key","f","11.091539393939346","720","446","f","true","nonmatch","img/triangle.png","弱他","强我","prac_ALT2_ability","practice_ability","","","","","","","",""
"null","<span style='color:GreenYellow; font-size: 70px;'>正确! </span>","null","html-keyboard-response","93","340946","0.0-8.0-1.0-1.0-0.0-1.41","6","6","5","3","5","2","2","4","3","4","5","-2","-2","-1","1","-2","0","2","1","5","5","5","5","5","4","5","5","5","5","5","4","5","6","6","3","6","6","5","5","2","2","7","6","2","5","1","4","7","4","3","4","2","6","6","5","1","7","6","1","5","4","6","3","6","6","7","7","7","3","5","7","3","2","7","1","6","6","6","001","邢","Male","[""好我"",""坏我"",""坏他"",""好他""]","[""强我"",""弱我"",""弱他"",""强他""]","","","","","","","","","","","","","","","","","","","","","","","","","","","","","","feedback_test","","","","","","","",""
"809","","j","psychophysics","94","342758","0.0-8.0-1.0-1.0-0.0-0.42","6","6","5","3","5","2","2","4","3","4","5","-2","-2","-1","1","-2","0","2","1","5","5","5","5","5","4","5","5","5","5","5","4","5","6","6","3","6","6","5","5","2","2","7","6","2","5","1","4","7","4","3","4","2","6","6","5","1","7","6","1","5","4","6","3","6","6","7","7","7","3","5","7","3","2","7","1","6","6","6","001","邢","Male","[""好我"",""坏我"",""坏他"",""好他""]","[""强我"",""弱我"",""弱他"",""强他""]","","","","","","","","match","","","","","","","","","","key","j","11.392265822784827","720","446","j","true","match","img/hexagon.png","弱他","弱他","prac_ALT2_ability","practice_ability","","","","","","","",""
"null","<span style='color:GreenYellow; font-size: 70px;'>正确! </span>","null","html-keyboard-response","95","343268","0.0-8.0-1.0-1.0-0.0-1.42","6","6","5","3","5","2","2","4","3","4","5","-2","-2","-1","1","-2","0","2","1","5","5","5","5","5","4","5","5","5","5","5","4","5","6","6","3","6","6","5","5","2","2","7","6","2","5","1","4","7","4","3","4","2","6","6","5","1","7","6","1","5","4","6","3","6","6","7","7","7","3","5","7","3","2","7","1","6","6","6","001","邢","Male","[""好我"",""坏我"",""坏他"",""好他""]","[""强我"",""弱我"",""弱他"",""强他""]","","","","","","","","","","","","","","","","","","","","","","","","","","","","","","feedback_test","","","","","","","",""
"878","","f","psychophysics","96","345148","0.0-8.0-1.0-1.0-0.0-0.43","6","6","5","3","5","2","2","4","3","4","5","-2","-2","-1","1","-2","0","2","1","5","5","5","5","5","4","5","5","5","5","5","4","5","6","6","3","6","6","5","5","2","2","7","6","2","5","1","4","7","4","3","4","2","6","6","5","1","7","6","1","5","4","6","3","6","6","7","7","7","3","5","7","3","2","7","1","6","6","6","001","邢","Male","[""好我"",""坏我"",""坏他"",""好他""]","[""强我"",""弱我"",""弱他"",""强他""]","","","","","","","","nonmatch","","","","","","","","","","key","f","11.104275449101735","720","446","j","false","match","img/trapezoid.png","强他","强他","prac_ALT2_ability","practice_ability","","","","","","","",""
"null","<span style='color:red; font-size: 70px;'>错误! </span>","null","html-keyboard-response","97","345672","0.0-8.0-1.0-1.0-0.0-1.43","6","6","5","3","5","2","2","4","3","4","5","-2","-2","-1","1","-2","0","2","1","5","5","5","5","5","4","5","5","5","5","5","4","5","6","6","3","6","6","5","5","2","2","7","6","2","5","1","4","7","4","3","4","2","6","6","5","1","7","6","1","5","4","6","3","6","6","7","7","7","3","5","7","3","2","7","1","6","6","6","001","邢","Male","[""好我"",""坏我"",""坏他"",""好他""]","[""强我"",""弱我"",""弱他"",""强他""]","","","","","","","","","","","","","","","","","","","","","","","","","","","","","","feedback_test","","","","","","","",""
"667","","j","psychophysics","98","347355","0.0-8.0-1.0-1.0-0.0-0.44","6","6","5","3","5","2","2","4","3","4","5","-2","-2","-1","1","-2","0","2","1","5","5","5","5","5","4","5","5","5","5","5","4","5","6","6","3","6","6","5","5","2","2","7","6","2","5","1","4","7","4","3","4","2","6","6","5","1","7","6","1","5","4","6","3","6","6","7","7","7","3","5","7","3","2","7","1","6","6","6","001","邢","Male","[""好我"",""坏我"",""坏他"",""好他""]","[""强我"",""弱我"",""弱他"",""强他""]","","","","","","","","match","","","","","","","","","","key","j","11.185785234899528","720","446","f","false","nonmatch","img/trapezoid.png","弱他","强他","prac_ALT2_ability","practice_ability","","","","","","","",""
"null","<span style='color:red; font-size: 70px;'>错误! </span>","null","html-keyboard-response","99","347871","0.0-8.0-1.0-1.0-0.0-1.44","6","6","5","3","5","2","2","4","3","4","5","-2","-2","-1","1","-2","0","2","1","5","5","5","5","5","4","5","5","5","5","5","4","5","6","6","3","6","6","5","5","2","2","7","6","2","5","1","4","7","4","3","4","2","6","6","5","1","7","6","1","5","4","6","3","6","6","7","7","7","3","5","7","3","2","7","1","6","6","6","001","邢","Male","[""好我"",""坏我"",""坏他"",""好他""]","[""强我"",""弱我"",""弱他"",""强他""]","","","","","","","","","","","","","","","","","","","","","","","","","","","","","","feedback_test","","","","","","","",""
"804","","f","psychophysics","100","349677","0.0-8.0-1.0-1.0-0.0-0.45","6","6","5","3","5","2","2","4","3","4","5","-2","-2","-1","1","-2","0","2","1","5","5","5","5","5","4","5","5","5","5","5","4","5","6","6","3","6","6","5","5","2","2","7","6","2","5","1","4","7","4","3","4","2","6","6","5","1","7","6","1","5","4","6","3","6","6","7","7","7","3","5","7","3","2","7","1","6","6","6","001","邢","Male","[""好我"",""坏我"",""坏他"",""好他""]","[""强我"",""弱我"",""弱他"",""强他""]","","","","","","","","nonmatch","","","","","","","","","","key","f","11.11101898734194","720","446","j","false","match","img/ellipse.png","弱我","弱我","prac_ALT2_ability","practice_ability","","","","","","","",""
"null","<span style='color:red; font-size: 70px;'>错误! </span>","null","html-keyboard-response","101","350191","0.0-8.0-1.0-1.0-0.0-1.45","6","6","5","3","5","2","2","4","3","4","5","-2","-2","-1","1","-2","0","2","1","5","5","5","5","5","4","5","5","5","5","5","4","5","6","6","3","6","6","5","5","2","2","7","6","2","5","1","4","7","4","3","4","2","6","6","5","1","7","6","1","5","4","6","3","6","6","7","7","7","3","5","7","3","2","7","1","6","6","6","001","邢","Male","[""好我"",""坏我"",""坏他"",""好他""]","[""强我"",""弱我"",""弱他"",""强他""]","","","","","","","","","","","","","","","","","","","","","","","","","","","","","","feedback_test","","","","","","","",""
"828","","j","psychophysics","102","352021","0.0-8.0-1.0-1.0-0.0-0.46","6","6","5","3","5","2","2","4","3","4","5","-2","-2","-1","1","-2","0","2","1","5","5","5","5","5","4","5","5","5","5","5","4","5","6","6","3","6","6","5","5","2","2","7","6","2","5","1","4","7","4","3","4","2","6","6","5","1","7","6","1","5","4","6","3","6","6","7","7","7","3","5","7","3","2","7","1","6","6","6","001","邢","Male","[""好我"",""坏我"",""坏他"",""好他""]","[""强我"",""弱我"",""弱他"",""强他""]","","","","","","","","match","","","","","","","","","","key","j","11.188112499999988","720","446","j","true","match","img/triangle.png","强我","强我","prac_ALT2_ability","practice_ability","","","","","","","",""
"null","<span style='color:GreenYellow; font-size: 70px;'>正确! </span>","null","html-keyboard-response","103","352549","0.0-8.0-1.0-1.0-0.0-1.46","6","6","5","3","5","2","2","4","3","4","5","-2","-2","-1","1","-2","0","2","1","5","5","5","5","5","4","5","5","5","5","5","4","5","6","6","3","6","6","5","5","2","2","7","6","2","5","1","4","7","4","3","4","2","6","6","5","1","7","6","1","5","4","6","3","6","6","7","7","7","3","5","7","3","2","7","1","6","6","6","001","邢","Male","[""好我"",""坏我"",""坏他"",""好他""]","[""强我"",""弱我"",""弱他"",""强他""]","","","","","","","","","","","","","","","","","","","","","","","","","","","","","","feedback_test","","","","","","","",""
"817","","f","psychophysics","104","354377","0.0-8.0-1.0-1.0-0.0-0.47","6","6","5","3","5","2","2","4","3","4","5","-2","-2","-1","1","-2","0","2","1","5","5","5","5","5","4","5","5","5","5","5","4","5","6","6","3","6","6","5","5","2","2","7","6","2","5","1","4","7","4","3","4","2","6","6","5","1","7","6","1","5","4","6","3","6","6","7","7","7","3","5","7","3","2","7","1","6","6","6","001","邢","Male","[""好我"",""坏我"",""坏他"",""好他""]","[""强我"",""弱我"",""弱他"",""强他""]","","","","","","","","nonmatch","","","","","","","","","","key","f","11.249850931676807","720","446","f","true","nonmatch","img/ellipse.png","弱他","弱我","prac_ALT2_ability","practice_ability","","","","","","","",""
"null","<span style='color:GreenYellow; font-size: 70px;'>正确! </span>","null","html-keyboard-response","105","354885","0.0-8.0-1.0-1.0-0.0-1.47","6","6","5","3","5","2","2","4","3","4","5","-2","-2","-1","1","-2","0","2","1","5","5","5","5","5","4","5","5","5","5","5","4","5","6","6","3","6","6","5","5","2","2","7","6","2","5","1","4","7","4","3","4","2","6","6","5","1","7","6","1","5","4","6","3","6","6","7","7","7","3","5","7","3","2","7","1","6","6","6","001","邢","Male","[""好我"",""坏我"",""坏他"",""好他""]","[""强我"",""弱我"",""弱他"",""强他""]","","","","","","","","","","","","","","","","","","","","","","","","","","","","","","feedback_test","","","","","","","",""
"4155","<style>.context{color:white; font-size: 35px; line-height:40px}</style>                          <div><p class='context'>您正确回答了58% 的试次。</p><p class='context'>您的平均反应时为739毫秒。</p><p class='context'>恭喜您完成练习。按空格键继续。</p></div>"," ","html-keyboard-response","106","359044","0.0-8.0-1.0-1.0-1.0-0.0","6","6","5","3","5","2","2","4","3","4","5","-2","-2","-1","1","-2","0","2","1","5","5","5","5","5","4","5","5","5","5","5","4","5","6","6","3","6","6","5","5","2","2","7","6","2","5","1","4","7","4","3","4","2","6","6","5","1","7","6","1","5","4","6","3","6","6","7","7","7","3","5","7","3","2","7","1","6","6","6","001","邢","Male","[""好我"",""坏我"",""坏他"",""好他""]","[""强我"",""弱我"",""弱他"",""强他""]","","","","","","","","","","","","","","","","","","","","","","","","","","","","","","","","","","","","","",""
"60806","","","instructions","107","419854","0.0-8.0-1.0-1.0-1.0-1.0","6","6","5","3","5","2","2","4","3","4","5","-2","-2","-1","1","-2","0","2","1","5","5","5","5","5","4","5","5","5","5","5","4","5","6","6","3","6","6","5","5","2","2","7","6","2","5","1","4","7","4","3","4","2","6","6","5","1","7","6","1","5","4","6","3","6","6","7","7","7","3","5","7","3","2","7","1","6","6","6","001","邢","Male","[""好我"",""坏我"",""坏他"",""好他""]","[""强我"",""弱我"",""弱他"",""强他""]","","","","","","","","","","","","","","","","","[{""page_index"":0,""viewing_time"":3563},{""page_index"":1,""viewing_time"":54031},{""page_index"":2,""viewing_time"":3212}]","","","","","","","","","","","","","","","","","","","","",""
"769","","j","psychophysics","108","421632","0.0-8.0-1.0-1.1-0.1-0.48","6","6","5","3","5","2","2","4","3","4","5","-2","-2","-1","1","-2","0","2","1","5","5","5","5","5","4","5","5","5","5","5","4","5","6","6","3","6","6","5","5","2","2","7","6","2","5","1","4","7","4","3","4","2","6","6","5","1","7","6","1","5","4","6","3","6","6","7","7","7","3","5","7","3","2","7","1","6","6","6","001","邢","Male","[""好我"",""坏我"",""坏他"",""好他""]","[""强我"",""弱我"",""弱他"",""强他""]","","","","","","","","match","","","","","","","","","","key","j","11.252891719745024","720","446","j","true","match","img/hexagon.png","弱他","弱他","prac_ALT2_ability","practice_ability","","","","","","","",""
"null","<span style='color:GreenYellow; font-size: 70px;'>正确! </span>","null","html-keyboard-response","109","422140","0.0-8.0-1.0-1.1-0.1-1.48","6","6","5","3","5","2","2","4","3","4","5","-2","-2","-1","1","-2","0","2","1","5","5","5","5","5","4","5","5","5","5","5","4","5","6","6","3","6","6","5","5","2","2","7","6","2","5","1","4","7","4","3","4","2","6","6","5","1","7","6","1","5","4","6","3","6","6","7","7","7","3","5","7","3","2","7","1","6","6","6","001","邢","Male","[""好我"",""坏我"",""坏他"",""好他""]","[""强我"",""弱我"",""弱他"",""强他""]","","","","","","","","","","","","","","","","","","","","","","","","","","","","","","feedback_test","","","","","","","",""
"487","","j","psychophysics","110","423628","0.0-8.0-1.0-1.1-0.1-0.49","6","6","5","3","5","2","2","4","3","4","5","-2","-2","-1","1","-2","0","2","1","5","5","5","5","5","4","5","5","5","5","5","4","5","6","6","3","6","6","5","5","2","2","7","6","2","5","1","4","7","4","3","4","2","6","6","5","1","7","6","1","5","4","6","3","6","6","7","7","7","3","5","7","3","2","7","1","6","6","6","001","邢","Male","[""好我"",""坏我"",""坏他"",""好他""]","[""强我"",""弱我"",""弱他"",""强他""]","","","","","","","","match","","","","","","","","","","key","j","11.155603053435268","720","446","j","true","match","img/ellipse.png","弱我","弱我","prac_ALT2_ability","practice_ability","","","","","","","",""
"null","<span style='color:GreenYellow; font-size: 70px;'>正确! </span>","null","html-keyboard-response","111","424132","0.0-8.0-1.0-1.1-0.1-1.49","6","6","5","3","5","2","2","4","3","4","5","-2","-2","-1","1","-2","0","2","1","5","5","5","5","5","4","5","5","5","5","5","4","5","6","6","3","6","6","5","5","2","2","7","6","2","5","1","4","7","4","3","4","2","6","6","5","1","7","6","1","5","4","6","3","6","6","7","7","7","3","5","7","3","2","7","1","6","6","6","001","邢","Male","[""好我"",""坏我"",""坏他"",""好他""]","[""强我"",""弱我"",""弱他"",""强他""]","","","","","","","","","","","","","","","","","","","","","","","","","","","","","","feedback_test","","","","","","","",""
"745","","j","psychophysics","112","425886","0.0-8.0-1.0-1.1-0.1-0.50","6","6","5","3","5","2","2","4","3","4","5","-2","-2","-1","1","-2","0","2","1","5","5","5","5","5","4","5","5","5","5","5","4","5","6","6","3","6","6","5","5","2","2","7","6","2","5","1","4","7","4","3","4","2","6","6","5","1","7","6","1","5","4","6","3","6","6","7","7","7","3","5","7","3","2","7","1","6","6","6","001","邢","Male","[""好我"",""坏我"",""坏他"",""好他""]","[""强我"",""弱我"",""弱他"",""强他""]","","","","","","","","match","","","","","","","","","","key","j","11.095610389610307","720","446","j","true","match","img/triangle.png","强我","强我","prac_ALT2_ability","practice_ability","","","","","","","",""
"null","<span style='color:GreenYellow; font-size: 70px;'>正确! </span>","null","html-keyboard-response","113","426396","0.0-8.0-1.0-1.1-0.1-1.50","6","6","5","3","5","2","2","4","3","4","5","-2","-2","-1","1","-2","0","2","1","5","5","5","5","5","4","5","5","5","5","5","4","5","6","6","3","6","6","5","5","2","2","7","6","2","5","1","4","7","4","3","4","2","6","6","5","1","7","6","1","5","4","6","3","6","6","7","7","7","3","5","7","3","2","7","1","6","6","6","001","邢","Male","[""好我"",""坏我"",""坏他"",""好他""]","[""强我"",""弱我"",""弱他"",""强他""]","","","","","","","","","","","","","","","","","","","","","","","","","","","","","","feedback_test","","","","","","","",""
"490","","j","psychophysics","114","427913","0.0-8.0-1.0-1.1-0.1-0.51","6","6","5","3","5","2","2","4","3","4","5","-2","-2","-1","1","-2","0","2","1","5","5","5","5","5","4","5","5","5","5","5","4","5","6","6","3","6","6","5","5","2","2","7","6","2","5","1","4","7","4","3","4","2","6","6","5","1","7","6","1","5","4","6","3","6","6","7","7","7","3","5","7","3","2","7","1","6","6","6","001","邢","Male","[""好我"",""坏我"",""坏他"",""好他""]","[""强我"",""弱我"",""弱他"",""强他""]","","","","","","","","match","","","","","","","","","","key","j","11.111733333333136","720","446","j","true","match","img/hexagon.png","弱他","弱他","prac_ALT2_ability","practice_ability","","","","","","","",""
"null","<span style='color:GreenYellow; font-size: 70px;'>正确! </span>","null","html-keyboard-response","115","428426","0.0-8.0-1.0-1.1-0.1-1.51","6","6","5","3","5","2","2","4","3","4","5","-2","-2","-1","1","-2","0","2","1","5","5","5","5","5","4","5","5","5","5","5","4","5","6","6","3","6","6","5","5","2","2","7","6","2","5","1","4","7","4","3","4","2","6","6","5","1","7","6","1","5","4","6","3","6","6","7","7","7","3","5","7","3","2","7","1","6","6","6","001","邢","Male","[""好我"",""坏我"",""坏他"",""好他""]","[""强我"",""弱我"",""弱他"",""强他""]","","","","","","","","","","","","","","","","","","","","","","","","","","","","","","feedback_test","","","","","","","",""
"705","","f","psychophysics","116","430128","0.0-8.0-1.0-1.1-0.1-0.52","6","6","5","3","5","2","2","4","3","4","5","-2","-2","-1","1","-2","0","2","1","5","5","5","5","5","4","5","5","5","5","5","4","5","6","6","3","6","6","5","5","2","2","7","6","2","5","1","4","7","4","3","4","2","6","6","5","1","7","6","1","5","4","6","3","6","6","7","7","7","3","5","7","3","2","7","1","6","6","6","001","邢","Male","[""好我"",""坏我"",""坏他"",""好他""]","[""强我"",""弱我"",""弱他"",""强他""]","","","","","","","","nonmatch","","","","","","","","","","key","f","11.11112500000002","720","446","f","true","nonmatch","img/hexagon.png","强他","弱他","prac_ALT2_ability","practice_ability","","","","","","","",""
"null","<span style='color:GreenYellow; font-size: 70px;'>正确! </span>","null","html-keyboard-response","117","430643","0.0-8.0-1.0-1.1-0.1-1.52","6","6","5","3","5","2","2","4","3","4","5","-2","-2","-1","1","-2","0","2","1","5","5","5","5","5","4","5","5","5","5","5","4","5","6","6","3","6","6","5","5","2","2","7","6","2","5","1","4","7","4","3","4","2","6","6","5","1","7","6","1","5","4","6","3","6","6","7","7","7","3","5","7","3","2","7","1","6","6","6","001","邢","Male","[""好我"",""坏我"",""坏他"",""好他""]","[""强我"",""弱我"",""弱他"",""强他""]","","","","","","","","","","","","","","","","","","","","","","","","","","","","","","feedback_test","","","","","","","",""
"904","","f","psychophysics","118","432549","0.0-8.0-1.0-1.1-0.1-0.53","6","6","5","3","5","2","2","4","3","4","5","-2","-2","-1","1","-2","0","2","1","5","5","5","5","5","4","5","5","5","5","5","4","5","6","6","3","6","6","5","5","2","2","7","6","2","5","1","4","7","4","3","4","2","6","6","5","1","7","6","1","5","4","6","3","6","6","7","7","7","3","5","7","3","2","7","1","6","6","6","001","邢","Male","[""好我"",""坏我"",""坏他"",""好他""]","[""强我"",""弱我"",""弱他"",""强他""]","","","","","","","","nonmatch","","","","","","","","","","key","f","11.310143712574817","720","446","f","true","nonmatch","img/ellipse.png","强他","弱我","prac_ALT2_ability","practice_ability","","","","","","","",""
"null","<span style='color:GreenYellow; font-size: 70px;'>正确! </span>","null","html-keyboard-response","119","433062","0.0-8.0-1.0-1.1-0.1-1.53","6","6","5","3","5","2","2","4","3","4","5","-2","-2","-1","1","-2","0","2","1","5","5","5","5","5","4","5","5","5","5","5","4","5","6","6","3","6","6","5","5","2","2","7","6","2","5","1","4","7","4","3","4","2","6","6","5","1","7","6","1","5","4","6","3","6","6","7","7","7","3","5","7","3","2","7","1","6","6","6","001","邢","Male","[""好我"",""坏我"",""坏他"",""好他""]","[""强我"",""弱我"",""弱他"",""强他""]","","","","","","","","","","","","","","","","","","","","","","","","","","","","","","feedback_test","","","","","","","",""
"798","","j","psychophysics","120","434872","0.0-8.0-1.0-1.1-0.1-0.54","6","6","5","3","5","2","2","4","3","4","5","-2","-2","-1","1","-2","0","2","1","5","5","5","5","5","4","5","5","5","5","5","4","5","6","6","3","6","6","5","5","2","2","7","6","2","5","1","4","7","4","3","4","2","6","6","5","1","7","6","1","5","4","6","3","6","6","7","7","7","3","5","7","3","2","7","1","6","6","6","001","邢","Male","[""好我"",""坏我"",""坏他"",""好他""]","[""强我"",""弱我"",""弱他"",""强他""]","","","","","","","","match","","","","","","","","","","key","j","11.0899440993787","720","446","f","false","nonmatch","img/triangle.png","弱他","强我","prac_ALT2_ability","practice_ability","","","","","","","",""
"null","<span style='color:red; font-size: 70px;'>错误! </span>","null","html-keyboard-response","121","435382","0.0-8.0-1.0-1.1-0.1-1.54","6","6","5","3","5","2","2","4","3","4","5","-2","-2","-1","1","-2","0","2","1","5","5","5","5","5","4","5","5","5","5","5","4","5","6","6","3","6","6","5","5","2","2","7","6","2","5","1","4","7","4","3","4","2","6","6","5","1","7","6","1","5","4","6","3","6","6","7","7","7","3","5","7","3","2","7","1","6","6","6","001","邢","Male","[""好我"",""坏我"",""坏他"",""好他""]","[""强我"",""弱我"",""弱他"",""强他""]","","","","","","","","","","","","","","","","","","","","","","","","","","","","","","feedback_test","","","","","","","",""
"1115","","j","psychophysics","122","437499","0.0-8.0-1.0-1.1-0.1-0.55","6","6","5","3","5","2","2","4","3","4","5","-2","-2","-1","1","-2","0","2","1","5","5","5","5","5","4","5","5","5","5","5","4","5","6","6","3","6","6","5","5","2","2","7","6","2","5","1","4","7","4","3","4","2","6","6","5","1","7","6","1","5","4","6","3","6","6","7","7","7","3","5","7","3","2","7","1","6","6","6","001","邢","Male","[""好我"",""坏我"",""坏他"",""好他""]","[""强我"",""弱我"",""弱他"",""强他""]","","","","","","","","match","","","","","","","","","","key","j","11.111031746031673","720","446","f","false","nonmatch","img/ellipse.png","弱他","弱我","prac_ALT2_ability","practice_ability","","","","","","","",""
"null","<span style='color:red; font-size: 70px;'>错误! </span>","null","html-keyboard-response","123","438012","0.0-8.0-1.0-1.1-0.1-1.55","6","6","5","3","5","2","2","4","3","4","5","-2","-2","-1","1","-2","0","2","1","5","5","5","5","5","4","5","5","5","5","5","4","5","6","6","3","6","6","5","5","2","2","7","6","2","5","1","4","7","4","3","4","2","6","6","5","1","7","6","1","5","4","6","3","6","6","7","7","7","3","5","7","3","2","7","1","6","6","6","001","邢","Male","[""好我"",""坏我"",""坏他"",""好他""]","[""强我"",""弱我"",""弱他"",""强他""]","","","","","","","","","","","","","","","","","","","","","","","","","","","","","","feedback_test","","","","","","","",""
"722","","j","psychophysics","124","439736","0.0-8.0-1.0-1.1-0.1-0.56","6","6","5","3","5","2","2","4","3","4","5","-2","-2","-1","1","-2","0","2","1","5","5","5","5","5","4","5","5","5","5","5","4","5","6","6","3","6","6","5","5","2","2","7","6","2","5","1","4","7","4","3","4","2","6","6","5","1","7","6","1","5","4","6","3","6","6","7","7","7","3","5","7","3","2","7","1","6","6","6","001","邢","Male","[""好我"",""坏我"",""坏他"",""好他""]","[""强我"",""弱我"",""弱他"",""强他""]","","","","","","","","match","","","","","","","","","","key","j","11.110763157894803","720","446","j","true","match","img/triangle.png","强我","强我","prac_ALT2_ability","practice_ability","","","","","","","",""
"null","<span style='color:GreenYellow; font-size: 70px;'>正确! </span>","null","html-keyboard-response","125","440265","0.0-8.0-1.0-1.1-0.1-1.56","6","6","5","3","5","2","2","4","3","4","5","-2","-2","-1","1","-2","0","2","1","5","5","5","5","5","4","5","5","5","5","5","4","5","6","6","3","6","6","5","5","2","2","7","6","2","5","1","4","7","4","3","4","2","6","6","5","1","7","6","1","5","4","6","3","6","6","7","7","7","3","5","7","3","2","7","1","6","6","6","001","邢","Male","[""好我"",""坏我"",""坏他"",""好他""]","[""强我"",""弱我"",""弱他"",""强他""]","","","","","","","","","","","","","","","","","","","","","","","","","","","","","","feedback_test","","","","","","","",""
"582","","j","psychophysics","126","441859","0.0-8.0-1.0-1.1-0.1-0.57","6","6","5","3","5","2","2","4","3","4","5","-2","-2","-1","1","-2","0","2","1","5","5","5","5","5","4","5","5","5","5","5","4","5","6","6","3","6","6","5","5","2","2","7","6","2","5","1","4","7","4","3","4","2","6","6","5","1","7","6","1","5","4","6","3","6","6","7","7","7","3","5","7","3","2","7","1","6","6","6","001","邢","Male","[""好我"",""坏我"",""坏他"",""好他""]","[""强我"",""弱我"",""弱他"",""强他""]","","","","","","","","match","","","","","","","","","","key","j","11.16575177304995","720","446","f","false","nonmatch","img/hexagon.png","弱我","弱他","prac_ALT2_ability","practice_ability","","","","","","","",""
"null","<span style='color:red; font-size: 70px;'>错误! </span>","null","html-keyboard-response","127","442376","0.0-8.0-1.0-1.1-0.1-1.57","6","6","5","3","5","2","2","4","3","4","5","-2","-2","-1","1","-2","0","2","1","5","5","5","5","5","4","5","5","5","5","5","4","5","6","6","3","6","6","5","5","2","2","7","6","2","5","1","4","7","4","3","4","2","6","6","5","1","7","6","1","5","4","6","3","6","6","7","7","7","3","5","7","3","2","7","1","6","6","6","001","邢","Male","[""好我"",""坏我"",""坏他"",""好他""]","[""强我"",""弱我"",""弱他"",""强他""]","","","","","","","","","","","","","","","","","","","","","","","","","","","","","","feedback_test","","","","","","","",""
"866","","j","psychophysics","128","444244","0.0-8.0-1.0-1.1-0.1-0.58","6","6","5","3","5","2","2","4","3","4","5","-2","-2","-1","1","-2","0","2","1","5","5","5","5","5","4","5","5","5","5","5","4","5","6","6","3","6","6","5","5","2","2","7","6","2","5","1","4","7","4","3","4","2","6","6","5","1","7","6","1","5","4","6","3","6","6","7","7","7","3","5","7","3","2","7","1","6","6","6","001","邢","Male","[""好我"",""坏我"",""坏他"",""好他""]","[""强我"",""弱我"",""弱他"",""强他""]","","","","","","","","match","","","","","","","","","","key","j","11.081337349397462","720","446","f","false","nonmatch","img/trapezoid.png","弱他","强他","prac_ALT2_ability","practice_ability","","","","","","","",""
"null","<span style='color:red; font-size: 70px;'>错误! </span>","null","html-keyboard-response","129","444757","0.0-8.0-1.0-1.1-0.1-1.58","6","6","5","3","5","2","2","4","3","4","5","-2","-2","-1","1","-2","0","2","1","5","5","5","5","5","4","5","5","5","5","5","4","5","6","6","3","6","6","5","5","2","2","7","6","2","5","1","4","7","4","3","4","2","6","6","5","1","7","6","1","5","4","6","3","6","6","7","7","7","3","5","7","3","2","7","1","6","6","6","001","邢","Male","[""好我"",""坏我"",""坏他"",""好他""]","[""强我"",""弱我"",""弱他"",""强他""]","","","","","","","","","","","","","","","","","","","","","","","","","","","","","","feedback_test","","","","","","","",""
"900","","f","psychophysics","130","446663","0.0-8.0-1.0-1.1-0.1-0.59","6","6","5","3","5","2","2","4","3","4","5","-2","-2","-1","1","-2","0","2","1","5","5","5","5","5","4","5","5","5","5","5","4","5","6","6","3","6","6","5","5","2","2","7","6","2","5","1","4","7","4","3","4","2","6","6","5","1","7","6","1","5","4","6","3","6","6","7","7","7","3","5","7","3","2","7","1","6","6","6","001","邢","Male","[""好我"",""坏我"",""坏他"",""好他""]","[""强我"",""弱我"",""弱他"",""强他""]","","","","","","","","nonmatch","","","","","","","","","","key","f","11.111047619047374","720","446","f","true","nonmatch","img/triangle.png","弱我","强我","prac_ALT2_ability","practice_ability","","","","","","","",""
"null","<span style='color:GreenYellow; font-size: 70px;'>正确! </span>","null","html-keyboard-response","131","447183","0.0-8.0-1.0-1.1-0.1-1.59","6","6","5","3","5","2","2","4","3","4","5","-2","-2","-1","1","-2","0","2","1","5","5","5","5","5","4","5","5","5","5","5","4","5","6","6","3","6","6","5","5","2","2","7","6","2","5","1","4","7","4","3","4","2","6","6","5","1","7","6","1","5","4","6","3","6","6","7","7","7","3","5","7","3","2","7","1","6","6","6","001","邢","Male","[""好我"",""坏我"",""坏他"",""好他""]","[""强我"",""弱我"",""弱他"",""强他""]","","","","","","","","","","","","","","","","","","","","","","","","","","","","","","feedback_test","","","","","","","",""
"784","","j","psychophysics","132","448991","0.0-8.0-1.0-1.1-0.1-0.60","6","6","5","3","5","2","2","4","3","4","5","-2","-2","-1","1","-2","0","2","1","5","5","5","5","5","4","5","5","5","5","5","4","5","6","6","3","6","6","5","5","2","2","7","6","2","5","1","4","7","4","3","4","2","6","6","5","1","7","6","1","5","4","6","3","6","6","7","7","7","3","5","7","3","2","7","1","6","6","6","001","邢","Male","[""好我"",""坏我"",""坏他"",""好他""]","[""强我"",""弱我"",""弱他"",""强他""]","","","","","","","","match","","","","","","","","","","key","j","11.093453416149263","720","446","j","true","match","img/trapezoid.png","强他","强他","prac_ALT2_ability","practice_ability","","","","","","","",""
"null","<span style='color:GreenYellow; font-size: 70px;'>正确! </span>","null","html-keyboard-response","133","449499","0.0-8.0-1.0-1.1-0.1-1.60","6","6","5","3","5","2","2","4","3","4","5","-2","-2","-1","1","-2","0","2","1","5","5","5","5","5","4","5","5","5","5","5","4","5","6","6","3","6","6","5","5","2","2","7","6","2","5","1","4","7","4","3","4","2","6","6","5","1","7","6","1","5","4","6","3","6","6","7","7","7","3","5","7","3","2","7","1","6","6","6","001","邢","Male","[""好我"",""坏我"",""坏他"",""好他""]","[""强我"",""弱我"",""弱他"",""强他""]","","","","","","","","","","","","","","","","","","","","","","","","","","","","","","feedback_test","","","","","","","",""
"947","","f","psychophysics","134","451447","0.0-8.0-1.0-1.1-0.1-0.61","6","6","5","3","5","2","2","4","3","4","5","-2","-2","-1","1","-2","0","2","1","5","5","5","5","5","4","5","5","5","5","5","4","5","6","6","3","6","6","5","5","2","2","7","6","2","5","1","4","7","4","3","4","2","6","6","5","1","7","6","1","5","4","6","3","6","6","7","7","7","3","5","7","3","2","7","1","6","6","6","001","邢","Male","[""好我"",""坏我"",""坏他"",""好他""]","[""强我"",""弱我"",""弱他"",""强他""]","","","","","","","","nonmatch","","","","","","","","","","key","f","11.085988505747125","720","446","f","true","nonmatch","img/hexagon.png","强我","弱他","prac_ALT2_ability","practice_ability","","","","","","","",""
"null","<span style='color:GreenYellow; font-size: 70px;'>正确! </span>","null","html-keyboard-response","135","451950","0.0-8.0-1.0-1.1-0.1-1.61","6","6","5","3","5","2","2","4","3","4","5","-2","-2","-1","1","-2","0","2","1","5","5","5","5","5","4","5","5","5","5","5","4","5","6","6","3","6","6","5","5","2","2","7","6","2","5","1","4","7","4","3","4","2","6","6","5","1","7","6","1","5","4","6","3","6","6","7","7","7","3","5","7","3","2","7","1","6","6","6","001","邢","Male","[""好我"",""坏我"",""坏他"",""好他""]","[""强我"",""弱我"",""弱他"",""强他""]","","","","","","","","","","","","","","","","","","","","","","","","","","","","","","feedback_test","","","","","","","",""
"730","","j","psychophysics","136","453690","0.0-8.0-1.0-1.1-0.1-0.62","6","6","5","3","5","2","2","4","3","4","5","-2","-2","-1","1","-2","0","2","1","5","5","5","5","5","4","5","5","5","5","5","4","5","6","6","3","6","6","5","5","2","2","7","6","2","5","1","4","7","4","3","4","2","6","6","5","1","7","6","1","5","4","6","3","6","6","7","7","7","3","5","7","3","2","7","1","6","6","6","001","邢","Male","[""好我"",""坏我"",""坏他"",""好他""]","[""强我"",""弱我"",""弱他"",""强他""]","","","","","","","","match","","","","","","","","","","key","j","11.111019354838607","720","446","j","true","match","img/trapezoid.png","强他","强他","prac_ALT2_ability","practice_ability","","","","","","","",""
"null","<span style='color:GreenYellow; font-size: 70px;'>正确! </span>","null","html-keyboard-response","137","454215","0.0-8.0-1.0-1.1-0.1-1.62","6","6","5","3","5","2","2","4","3","4","5","-2","-2","-1","1","-2","0","2","1","5","5","5","5","5","4","5","5","5","5","5","4","5","6","6","3","6","6","5","5","2","2","7","6","2","5","1","4","7","4","3","4","2","6","6","5","1","7","6","1","5","4","6","3","6","6","7","7","7","3","5","7","3","2","7","1","6","6","6","001","邢","Male","[""好我"",""坏我"",""坏他"",""好他""]","[""强我"",""弱我"",""弱他"",""强他""]","","","","","","","","","","","","","","","","","","","","","","","","","","","","","","feedback_test","","","","","","","",""
"1028","","f","psychophysics","138","456257","0.0-8.0-1.0-1.1-0.1-0.63","6","6","5","3","5","2","2","4","3","4","5","-2","-2","-1","1","-2","0","2","1","5","5","5","5","5","4","5","5","5","5","5","4","5","6","6","3","6","6","5","5","2","2","7","6","2","5","1","4","7","4","3","4","2","6","6","5","1","7","6","1","5","4","6","3","6","6","7","7","7","3","5","7","3","2","7","1","6","6","6","001","邢","Male","[""好我"",""坏我"",""坏他"",""好他""]","[""强我"",""弱我"",""弱他"",""强他""]","","","","","","","","nonmatch","","","","","","","","","","key","f","11.093142857143123","720","446","f","true","nonmatch","img/ellipse.png","强我","弱我","prac_ALT2_ability","practice_ability","","","","","","","",""
"null","<span style='color:GreenYellow; font-size: 70px;'>正确! </span>","null","html-keyboard-response","139","456761","0.0-8.0-1.0-1.1-0.1-1.63","6","6","5","3","5","2","2","4","3","4","5","-2","-2","-1","1","-2","0","2","1","5","5","5","5","5","4","5","5","5","5","5","4","5","6","6","3","6","6","5","5","2","2","7","6","2","5","1","4","7","4","3","4","2","6","6","5","1","7","6","1","5","4","6","3","6","6","7","7","7","3","5","7","3","2","7","1","6","6","6","001","邢","Male","[""好我"",""坏我"",""坏他"",""好他""]","[""强我"",""弱我"",""弱他"",""强他""]","","","","","","","","","","","","","","","","","","","","","","","","","","","","","","feedback_test","","","","","","","",""
"951","","f","psychophysics","140","458713","0.0-8.0-1.0-1.1-0.1-0.64","6","6","5","3","5","2","2","4","3","4","5","-2","-2","-1","1","-2","0","2","1","5","5","5","5","5","4","5","5","5","5","5","4","5","6","6","3","6","6","5","5","2","2","7","6","2","5","1","4","7","4","3","4","2","6","6","5","1","7","6","1","5","4","6","3","6","6","7","7","7","3","5","7","3","2","7","1","6","6","6","001","邢","Male","[""好我"",""坏我"",""坏他"",""好他""]","[""强我"",""弱我"",""弱他"",""强他""]","","","","","","","","nonmatch","","","","","","","","","","key","f","11.106327586206834","720","446","f","true","nonmatch","img/trapezoid.png","强我","强他","prac_ALT2_ability","practice_ability","","","","","","","",""
"null","<span style='color:GreenYellow; font-size: 70px;'>正确! </span>","null","html-keyboard-response","141","459215","0.0-8.0-1.0-1.1-0.1-1.64","6","6","5","3","5","2","2","4","3","4","5","-2","-2","-1","1","-2","0","2","1","5","5","5","5","5","4","5","5","5","5","5","4","5","6","6","3","6","6","5","5","2","2","7","6","2","5","1","4","7","4","3","4","2","6","6","5","1","7","6","1","5","4","6","3","6","6","7","7","7","3","5","7","3","2","7","1","6","6","6","001","邢","Male","[""好我"",""坏我"",""坏他"",""好他""]","[""强我"",""弱我"",""弱他"",""强他""]","","","","","","","","","","","","","","","","","","","","","","","","","","","","","","feedback_test","","","","","","","",""
"767","","j","psychophysics","142","460984","0.0-8.0-1.0-1.1-0.1-0.65","6","6","5","3","5","2","2","4","3","4","5","-2","-2","-1","1","-2","0","2","1","5","5","5","5","5","4","5","5","5","5","5","4","5","6","6","3","6","6","5","5","2","2","7","6","2","5","1","4","7","4","3","4","2","6","6","5","1","7","6","1","5","4","6","3","6","6","7","7","7","3","5","7","3","2","7","1","6","6","6","001","邢","Male","[""好我"",""坏我"",""坏他"",""好他""]","[""强我"",""弱我"",""弱他"",""强他""]","","","","","","","","match","","","","","","","","","","key","j","11.094727848101293","720","446","j","true","match","img/ellipse.png","弱我","弱我","prac_ALT2_ability","practice_ability","","","","","","","",""
"null","<span style='color:GreenYellow; font-size: 70px;'>正确! </span>","null","html-keyboard-response","143","461494","0.0-8.0-1.0-1.1-0.1-1.65","6","6","5","3","5","2","2","4","3","4","5","-2","-2","-1","1","-2","0","2","1","5","5","5","5","5","4","5","5","5","5","5","4","5","6","6","3","6","6","5","5","2","2","7","6","2","5","1","4","7","4","3","4","2","6","6","5","1","7","6","1","5","4","6","3","6","6","7","7","7","3","5","7","3","2","7","1","6","6","6","001","邢","Male","[""好我"",""坏我"",""坏他"",""好他""]","[""强我"",""弱我"",""弱他"",""强他""]","","","","","","","","","","","","","","","","","","","","","","","","","","","","","","feedback_test","","","","","","","",""
