"rt","stimulus","response","trial_type","trial_index","time_elapsed","internal_node_id","swb_1","swb_2","swb_3","swb_4","swb_5","LOT_1","LOT_2","LOT_3","LOT_4","LOT_5","LOT_6","IPC_1","IPC_2","IPC_3","IPC_4","IPC_5","IPC_6","IPC_7","IPC_8","MorIden_1","MorIden_2","MorIden_3","MorIden_4","MorIden_5","MorIden_6","MorIden_7","MorIden_8","MorIden_9","MorIden_10","moralSeImag_1","moralSeImag_2","moralSeImag_3","moralSeImag_4","moralSeImag_5","moralSeImag_6","moralSeImag_7","moralSeImag_8","moralSeImag_9","sde_1","sde_2","sde_3","sde_4","sde_5","sde_6","sde_7","sde_8","sde_9","sde_10","sde_11","sde_12","sde_13","sde_14","sde_15","sde_16","sde_17","sde_18","sde_19","sde_20","IM_1","IM_2","IM_3","IM_4","IM_5","IM_6","IM_7","IM_8","IM_9","IM_10","IM_11","IM_12","IM_13","IM_14","IM_15","IM_16","IM_17","IM_18","IM_19","IM_20","subj_idx","friend_name","Sex","Word","Word2","value","success","timeout","failed_images","failed_audio","failed_video","user_agent","responses","item_order","radio_event_ids","radio_event_times","key_event_times","mouse_event_times","straightlining","zigzagging","honeypot","view_history","response_type","key_press","avg_frame_time","center_x","center_y","correct_response","correct","identity","Image","word","condition","task_id","screen_id","time_stamp","person","valence","domain","math","status","duration","question_order"
"4670","
   <p><div style='color:white; font-size: 25px'>您好，欢迎参加本次实验。</div></p>
   <p><div style='color:white; font-size: 25px'>为充分保障您的权利，请确保您已经知晓并同意《参与实验同意书》以及《数据公开知情同意书》。</div></p>
   <p><div style='color:white; font-size: 25px'>如果您未见过上述内容，请咨询实验员。</div></p>
   <p style='color:white; font-size: 25px'>如果您选择继续实验，则表示您已经清楚两份知情同意书的内容并同意。</p>
   <p> <div style = ""color: green""><按空格键至下页></div> </p>
   "," ","html-keyboard-response","0","4673","0.0-0.0","5","5","4","3","2","2","4","3","5","4","5","-2","-2","-1","-1","0","0","-1","1","4","3","5","4","3","2","2","3","4","3","4","5","3","5","5","3","4","5","3","4","7","3","4","6","3","6","4","4","4","6","2","5","6","1","6","4","6","2","6","3","4","5","3","2","4","3","5","7","1","7","1","7","4","3","4","7","1","3","3","745755632388542465","吴","Female","[""好她"",""坏她"",""好我"",""坏我""]","[""强她"",""弱她"",""强我"",""弱我""]","","","","","","","","","","","","","","","","","","","","","","","","","","","","","","","","","","","","","",""
"","","","call-function","1","4674","0.0-1.0-0.0","5","5","4","3","2","2","4","3","5","4","5","-2","-2","-1","-1","0","0","-1","1","4","3","5","4","3","2","2","3","4","3","4","5","3","5","5","3","4","5","3","4","7","3","4","6","3","6","4","4","4","6","2","5","6","1","6","4","6","2","6","3","4","5","3","2","4","3","5","7","1","7","1","7","4","3","4","7","1","3","3","745755632388542465","吴","Female","[""好她"",""坏她"",""好我"",""坏我""]","[""强她"",""弱她"",""强我"",""弱我""]","","","","","","","","","","","","","","","","","","","","","","","","","","","","","","","","","","","","","",""
"45406","","[{""name"":""Sex"",""value"":""1""},{""name"":""friend_name"",""value"":""吴""},{""name"":""subj_idx"",""value"":""745755632388542465""}]","survey-html-form","2","50082","0.0-1.0-1.0","5","5","4","3","2","2","4","3","5","4","5","-2","-2","-1","-1","0","0","-1","1","4","3","5","4","3","2","2","3","4","3","4","5","3","5","5","3","4","5","3","4","7","3","4","6","3","6","4","4","4","6","2","5","6","1","6","4","6","2","6","3","4","5","3","2","4","3","5","7","1","7","1","7","4","3","4","7","1","3","3","745755632388542465","吴","Female","[""好她"",""坏她"",""好我"",""坏我""]","[""强她"",""弱她"",""强我"",""弱我""]","","","","","","","","","","","","","","","","","","","","","","","","","","","","","","","","","","","","","",""
"","","","preload","3","50587","0.0-2.0","5","5","4","3","2","2","4","3","5","4","5","-2","-2","-1","-1","0","0","-1","1","4","3","5","4","3","2","2","3","4","3","4","5","3","5","5","3","4","5","3","4","7","3","4","6","3","6","4","4","4","6","2","5","6","1","6","4","6","2","6","3","4","5","3","2","4","3","5","7","1","7","1","7","4","3","4","7","1","3","3","745755632388542465","吴","Female","[""好她"",""坏她"",""好我"",""坏我""]","[""强她"",""弱她"",""强我"",""弱我""]","","true","false","[]","[]","[]","","","","","","","","","","","","","","","","","","","","","","","","","","","","","","","",""
"","","","fullscreen","4","57352","0.0-3.0","5","5","4","3","2","2","4","3","5","4","5","-2","-2","-1","-1","0","0","-1","1","4","3","5","4","3","2","2","3","4","3","4","5","3","5","5","3","4","5","3","4","7","3","4","6","3","6","4","4","4","6","2","5","6","1","6","4","6","2","6","3","4","5","3","2","4","3","5","7","1","7","1","7","4","3","4","7","1","3","3","745755632388542465","吴","Female","[""好她"",""坏她"",""好我"",""坏我""]","[""强她"",""弱她"",""强我"",""弱我""]","","true","","","","","{}","","","","","","","","","","","","","","","","","","","","","","","","","","","","","","",""
"22976.10000000149","","{""Q01"":""5"",""Q02"":""5"",""Q03"":""4"",""Q04"":""3"",""Q05"":""2""}","survey-template","5","80332","0.0-4.0","5","5","4","3","2","2","4","3","5","4","5","-2","-2","-1","-1","0","0","-1","1","4","3","5","4","3","2","2","3","4","3","4","5","3","5","5","3","4","5","3","4","7","3","4","6","3","6","4","4","4","6","2","5","6","1","6","4","6","2","6","3","4","5","3","2","4","3","5","7","1","7","1","7","4","3","4","7","1","3","3","745755632388542465","吴","Female","[""好她"",""坏她"",""好我"",""坏我""]","[""强她"",""弱她"",""强我"",""弱我""]","","","","","","","","{""Q01"":""5"",""Q02"":""5"",""Q03"":""4"",""Q04"":""3"",""Q05"":""2""}","[0,1,2,3,4]","[""Q01"",""Q02"",""Q03"",""Q04"",""Q05""]","[6668.9000000059605,10747.70000000298,11670,15773.60000000149,21289.70000000298]","[]","[6668.9000000059605,8222.70000000298,9607.30000000447,10747.70000000298,11670,15773.60000000149,21289.70000000298,22974.30000000447]","0.4","0.75","0","","","","","","","","","","","","","","","","","","","","","",""
"29165.5","","{""Q01"":""2"",""Q02"":""4"",""Q03"":""3"",""Q04"":""5"",""Q05"":""4"",""Q06"":""5""}","survey-template","6","109504","0.0-5.0","5","5","4","3","2","2","4","3","5","4","5","-2","-2","-1","-1","0","0","-1","1","4","3","5","4","3","2","2","3","4","3","4","5","3","5","5","3","4","5","3","4","7","3","4","6","3","6","4","4","4","6","2","5","6","1","6","4","6","2","6","3","4","5","3","2","4","3","5","7","1","7","1","7","4","3","4","7","1","3","3","745755632388542465","吴","Female","[""好她"",""坏她"",""好我"",""坏我""]","[""强她"",""弱她"",""强我"",""弱我""]","","","","","","","","{""Q01"":""2"",""Q02"":""4"",""Q03"":""3"",""Q04"":""5"",""Q05"":""4"",""Q06"":""5""}","[0,1,2,3,4,5]","[""Q01"",""Q02"",""Q03"",""Q04"",""Q05"",""Q06""]","[4466,11490.60000000149,13706.89999999851,17656.39999999851,22916.29999999702,28525.79999999702]","[]","[4466,11490.60000000149,13706.89999999851,17656.39999999851,22916.29999999702,28525.79999999702,29164.29999999702]","0.5","0.4","0","","","","","","","","","","","","","","","","","","","","","",""
"56371.89999999851","","{""Q01"":""-2"",""Q02"":""-2"",""Q03"":""-1"",""Q04"":""-1"",""Q05"":""0"",""Q06"":""0"",""Q07"":""-1"",""Q08"":""1""}","survey-template","7","165881","0.0-6.0","5","5","4","3","2","2","4","3","5","4","5","-2","-2","-1","-1","0","0","-1","1","4","3","5","4","3","2","2","3","4","3","4","5","3","5","5","3","4","5","3","4","7","3","4","6","3","6","4","4","4","6","2","5","6","1","6","4","6","2","6","3","4","5","3","2","4","3","5","7","1","7","1","7","4","3","4","7","1","3","3","745755632388542465","吴","Female","[""好她"",""坏她"",""好我"",""坏我""]","[""强她"",""弱她"",""强我"",""弱我""]","","","","","","","","{""Q01"":""-2"",""Q02"":""-2"",""Q03"":""-1"",""Q04"":""-1"",""Q05"":""0"",""Q06"":""0"",""Q07"":""-1"",""Q08"":""1""}","[0,1,2,3,4,5,6,7]","[""Q01"",""Q02"",""Q03"",""Q04"",""Q05"",""Q06"",""Q07"",""Q08""]","[32690.30000000447,36657.89999999851,40727.39999999851,45195.30000000447,47387.10000000149,49144,51724.30000000447,55397.5]","[]","[32690.30000000447,36657.89999999851,40727.39999999851,45195.30000000447,47387.10000000149,49144,51724.30000000447,54694.89999999851,55397.5,56369.80000000447]","0.375","0.42857142857142855","0","","","","","","","","","","","","","","","","","","","","","",""
"10297","","","instructions","8","176182","0.0-7.0","5","5","4","3","2","2","4","3","5","4","5","-2","-2","-1","-1","0","0","-1","1","4","3","5","4","3","2","2","3","4","3","4","5","3","5","5","3","4","5","3","4","7","3","4","6","3","6","4","4","4","6","2","5","6","1","6","4","6","2","6","3","4","5","3","2","4","3","5","7","1","7","1","7","4","3","4","7","1","3","3","745755632388542465","吴","Female","[""好她"",""坏她"",""好我"",""坏我""]","[""强她"",""弱她"",""强我"",""弱我""]","","","","","","","","","","","","","","","","","[{""page_index"":0,""viewing_time"":10296}]","","","","","","","","","","","","","","","","","","","","",""
"47563","","","instructions","9","223747","0.0-8.0-1.0-0.0","5","5","4","3","2","2","4","3","5","4","5","-2","-2","-1","-1","0","0","-1","1","4","3","5","4","3","2","2","3","4","3","4","5","3","5","5","3","4","5","3","4","7","3","4","6","3","6","4","4","4","6","2","5","6","1","6","4","6","2","6","3","4","5","3","2","4","3","5","7","1","7","1","7","4","3","4","7","1","3","3","745755632388542465","吴","Female","[""好她"",""坏她"",""好我"",""坏我""]","[""强她"",""弱她"",""强我"",""弱我""]","","","","","","","","","","","","","","","","","[{""page_index"":0,""viewing_time"":8335},{""page_index"":1,""viewing_time"":35391},{""page_index"":2,""viewing_time"":1968},{""page_index"":3,""viewing_time"":1869}]","","","","","","","","","","","","","","","","","","","","",""
"null","","null","psychophysics","10","225958","0.0-8.0-1.0-1.0-0.0-0.0","5","5","4","3","2","2","4","3","5","4","5","-2","-2","-1","-1","0","0","-1","1","4","3","5","4","3","2","2","3","4","3","4","5","3","5","5","3","4","5","3","4","7","3","4","6","3","6","4","4","4","6","2","5","6","1","6","4","6","2","6","3","4","5","3","2","4","3","5","7","1","7","1","7","4","3","4","7","1","3","3","745755632388542465","吴","Female","[""好她"",""坏她"",""好我"",""坏我""]","[""强她"",""弱她"",""强我"",""弱我""]","","","","","","","","null","","","","","","","","","","key","null","16.67138167938932","735","456","f","false","match","img/pentagon.png","弱她","弱她","prac_ALT2_ability","practice_ability","","","","","","","",""
"null","<span class='add_' style='color:yellow; font-size: 70px;'> 太慢! </span>","null","html-keyboard-response","11","226465","0.0-8.0-1.0-1.0-0.0-1.0","5","5","4","3","2","2","4","3","5","4","5","-2","-2","-1","-1","0","0","-1","1","4","3","5","4","3","2","2","3","4","3","4","5","3","5","5","3","4","5","3","4","7","3","4","6","3","6","4","4","4","6","2","5","6","1","6","4","6","2","6","3","4","5","3","2","4","3","5","7","1","7","1","7","4","3","4","7","1","3","3","745755632388542465","吴","Female","[""好她"",""坏她"",""好我"",""坏我""]","[""强她"",""弱她"",""强我"",""弱我""]","","","","","","","","","","","","","","","","","","","","","","","","","","","","","","feedback_test","","","","","","","",""
"593","","f","psychophysics","12","228063","0.0-8.0-1.0-1.0-0.0-0.1","5","5","4","3","2","2","4","3","5","4","5","-2","-2","-1","-1","0","0","-1","1","4","3","5","4","3","2","2","3","4","3","4","5","3","5","5","3","4","5","3","4","7","3","4","6","3","6","4","4","4","6","2","5","6","1","6","4","6","2","6","3","4","5","3","2","4","3","5","7","1","7","1","7","4","3","4","7","1","3","3","745755632388542465","吴","Female","[""好她"",""坏她"",""好我"",""坏我""]","[""强她"",""弱她"",""强我"",""弱我""]","","","","","","","","match","","","","","","","","","","key","f","16.665999999999915","735","456","j","false","nonmatch","img/hexagon.png","弱她","弱我","prac_ALT2_ability","practice_ability","","","","","","","",""
"null","<span style='color:red; font-size: 70px;'>错误! </span>","null","html-keyboard-response","13","228567","0.0-8.0-1.0-1.0-0.0-1.1","5","5","4","3","2","2","4","3","5","4","5","-2","-2","-1","-1","0","0","-1","1","4","3","5","4","3","2","2","3","4","3","4","5","3","5","5","3","4","5","3","4","7","3","4","6","3","6","4","4","4","6","2","5","6","1","6","4","6","2","6","3","4","5","3","2","4","3","5","7","1","7","1","7","4","3","4","7","1","3","3","745755632388542465","吴","Female","[""好她"",""坏她"",""好我"",""坏我""]","[""强她"",""弱她"",""强我"",""弱我""]","","","","","","","","","","","","","","","","","","","","","","","","","","","","","","feedback_test","","","","","","","",""
"null","","null","psychophysics","14","230775","0.0-8.0-1.0-1.0-0.0-0.2","5","5","4","3","2","2","4","3","5","4","5","-2","-2","-1","-1","0","0","-1","1","4","3","5","4","3","2","2","3","4","3","4","5","3","5","5","3","4","5","3","4","7","3","4","6","3","6","4","4","4","6","2","5","6","1","6","4","6","2","6","3","4","5","3","2","4","3","5","7","1","7","1","7","4","3","4","7","1","3","3","745755632388542465","吴","Female","[""好她"",""坏她"",""好我"",""坏我""]","[""强她"",""弱她"",""强我"",""弱我""]","","","","","","","","null","","","","","","","","","","key","null","16.666000000000103","735","456","j","false","nonmatch","img/circle.png","强我","强她","prac_ALT2_ability","practice_ability","","","","","","","",""
"null","<span class='add_' style='color:yellow; font-size: 70px;'> 太慢! </span>","null","html-keyboard-response","15","231278","0.0-8.0-1.0-1.0-0.0-1.2","5","5","4","3","2","2","4","3","5","4","5","-2","-2","-1","-1","0","0","-1","1","4","3","5","4","3","2","2","3","4","3","4","5","3","5","5","3","4","5","3","4","7","3","4","6","3","6","4","4","4","6","2","5","6","1","6","4","6","2","6","3","4","5","3","2","4","3","5","7","1","7","1","7","4","3","4","7","1","3","3","745755632388542465","吴","Female","[""好她"",""坏她"",""好我"",""坏我""]","[""强她"",""弱她"",""强我"",""弱我""]","","","","","","","","","","","","","","","","","","","","","","","","","","","","","","feedback_test","","","","","","","",""
"649","","f","psychophysics","16","232933","0.0-8.0-1.0-1.0-0.0-0.3","5","5","4","3","2","2","4","3","5","4","5","-2","-2","-1","-1","0","0","-1","1","4","3","5","4","3","2","2","3","4","3","4","5","3","5","5","3","4","5","3","4","7","3","4","6","3","6","4","4","4","6","2","5","6","1","6","4","6","2","6","3","4","5","3","2","4","3","5","7","1","7","1","7","4","3","4","7","1","3","3","745755632388542465","吴","Female","[""好她"",""坏她"",""好我"",""坏我""]","[""强她"",""弱她"",""强我"",""弱我""]","","","","","","","","match","","","","","","","","","","key","f","16.66600000000011","735","456","f","true","match","img/hexagon.png","弱我","弱我","prac_ALT2_ability","practice_ability","","","","","","","",""
"null","<span style='color:GreenYellow; font-size: 70px;'>正确! </span>","null","html-keyboard-response","17","233438","0.0-8.0-1.0-1.0-0.0-1.3","5","5","4","3","2","2","4","3","5","4","5","-2","-2","-1","-1","0","0","-1","1","4","3","5","4","3","2","2","3","4","3","4","5","3","5","5","3","4","5","3","4","7","3","4","6","3","6","4","4","4","6","2","5","6","1","6","4","6","2","6","3","4","5","3","2","4","3","5","7","1","7","1","7","4","3","4","7","1","3","3","745755632388542465","吴","Female","[""好她"",""坏她"",""好我"",""坏我""]","[""强她"",""弱她"",""强我"",""弱我""]","","","","","","","","","","","","","","","","","","","","","","","","","","","","","","feedback_test","","","","","","","",""
"931","","f","psychophysics","18","235377","0.0-8.0-1.0-1.0-0.0-0.4","5","5","4","3","2","2","4","3","5","4","5","-2","-2","-1","-1","0","0","-1","1","4","3","5","4","3","2","2","3","4","3","4","5","3","5","5","3","4","5","3","4","7","3","4","6","3","6","4","4","4","6","2","5","6","1","6","4","6","2","6","3","4","5","3","2","4","3","5","7","1","7","1","7","4","3","4","7","1","3","3","745755632388542465","吴","Female","[""好她"",""坏她"",""好我"",""坏我""]","[""强她"",""弱她"",""强我"",""弱我""]","","","","","","","","match","","","","","","","","","","key","f","16.66904347826089","735","456","j","false","nonmatch","img/hexagon.png","强我","弱我","prac_ALT2_ability","practice_ability","","","","","","","",""
"null","<span style='color:red; font-size: 70px;'>错误! </span>","null","html-keyboard-response","19","235881","0.0-8.0-1.0-1.0-0.0-1.4","5","5","4","3","2","2","4","3","5","4","5","-2","-2","-1","-1","0","0","-1","1","4","3","5","4","3","2","2","3","4","3","4","5","3","5","5","3","4","5","3","4","7","3","4","6","3","6","4","4","4","6","2","5","6","1","6","4","6","2","6","3","4","5","3","2","4","3","5","7","1","7","1","7","4","3","4","7","1","3","3","745755632388542465","吴","Female","[""好她"",""坏她"",""好我"",""坏我""]","[""强她"",""弱她"",""强我"",""弱我""]","","","","","","","","","","","","","","","","","","","","","","","","","","","","","","feedback_test","","","","","","","",""
"1123","","f","psychophysics","20","238008","0.0-8.0-1.0-1.0-0.0-0.5","5","5","4","3","2","2","4","3","5","4","5","-2","-2","-1","-1","0","0","-1","1","4","3","5","4","3","2","2","3","4","3","4","5","3","5","5","3","4","5","3","4","7","3","4","6","3","6","4","4","4","6","2","5","6","1","6","4","6","2","6","3","4","5","3","2","4","3","5","7","1","7","1","7","4","3","4","7","1","3","3","745755632388542465","吴","Female","[""好她"",""坏她"",""好我"",""坏我""]","[""强她"",""弱她"",""强我"",""弱我""]","","","","","","","","match","","","","","","","","","","key","f","16.66599999999998","735","456","f","true","match","img/hexagon.png","弱我","弱我","prac_ALT2_ability","practice_ability","","","","","","","",""
"null","<span style='color:GreenYellow; font-size: 70px;'>正确! </span>","null","html-keyboard-response","21","238513","0.0-8.0-1.0-1.0-0.0-1.5","5","5","4","3","2","2","4","3","5","4","5","-2","-2","-1","-1","0","0","-1","1","4","3","5","4","3","2","2","3","4","3","4","5","3","5","5","3","4","5","3","4","7","3","4","6","3","6","4","4","4","6","2","5","6","1","6","4","6","2","6","3","4","5","3","2","4","3","5","7","1","7","1","7","4","3","4","7","1","3","3","745755632388542465","吴","Female","[""好她"",""坏她"",""好我"",""坏我""]","[""强她"",""弱她"",""强我"",""弱我""]","","","","","","","","","","","","","","","","","","","","","","","","","","","","","","feedback_test","","","","","","","",""
"970","","j","psychophysics","22","240488","0.0-8.0-1.0-1.0-0.0-0.6","5","5","4","3","2","2","4","3","5","4","5","-2","-2","-1","-1","0","0","-1","1","4","3","5","4","3","2","2","3","4","3","4","5","3","5","5","3","4","5","3","4","7","3","4","6","3","6","4","4","4","6","2","5","6","1","6","4","6","2","6","3","4","5","3","2","4","3","5","7","1","7","1","7","4","3","4","7","1","3","3","745755632388542465","吴","Female","[""好她"",""坏她"",""好我"",""坏我""]","[""强她"",""弱她"",""强我"",""弱我""]","","","","","","","","nonmatch","","","","","","","","","","key","j","16.666000000000153","735","456","f","false","match","img/pentagon.png","弱她","弱她","prac_ALT2_ability","practice_ability","","","","","","","",""
"null","<span style='color:red; font-size: 70px;'>错误! </span>","null","html-keyboard-response","23","240992","0.0-8.0-1.0-1.0-0.0-1.6","5","5","4","3","2","2","4","3","5","4","5","-2","-2","-1","-1","0","0","-1","1","4","3","5","4","3","2","2","3","4","3","4","5","3","5","5","3","4","5","3","4","7","3","4","6","3","6","4","4","4","6","2","5","6","1","6","4","6","2","6","3","4","5","3","2","4","3","5","7","1","7","1","7","4","3","4","7","1","3","3","745755632388542465","吴","Female","[""好她"",""坏她"",""好我"",""坏我""]","[""强她"",""弱她"",""强我"",""弱我""]","","","","","","","","","","","","","","","","","","","","","","","","","","","","","","feedback_test","","","","","","","",""
"603","","f","psychophysics","24","242602","0.0-8.0-1.0-1.0-0.0-0.7","5","5","4","3","2","2","4","3","5","4","5","-2","-2","-1","-1","0","0","-1","1","4","3","5","4","3","2","2","3","4","3","4","5","3","5","5","3","4","5","3","4","7","3","4","6","3","6","4","4","4","6","2","5","6","1","6","4","6","2","6","3","4","5","3","2","4","3","5","7","1","7","1","7","4","3","4","7","1","3","3","745755632388542465","吴","Female","[""好她"",""坏她"",""好我"",""坏我""]","[""强她"",""弱她"",""强我"",""弱我""]","","","","","","","","match","","","","","","","","","","key","f","16.666000000000167","735","456","f","true","match","img/hexagon.png","弱我","弱我","prac_ALT2_ability","practice_ability","","","","","","","",""
"null","<span style='color:GreenYellow; font-size: 70px;'>正确! </span>","null","html-keyboard-response","25","243111","0.0-8.0-1.0-1.0-0.0-1.7","5","5","4","3","2","2","4","3","5","4","5","-2","-2","-1","-1","0","0","-1","1","4","3","5","4","3","2","2","3","4","3","4","5","3","5","5","3","4","5","3","4","7","3","4","6","3","6","4","4","4","6","2","5","6","1","6","4","6","2","6","3","4","5","3","2","4","3","5","7","1","7","1","7","4","3","4","7","1","3","3","745755632388542465","吴","Female","[""好她"",""坏她"",""好我"",""坏我""]","[""强她"",""弱她"",""强我"",""弱我""]","","","","","","","","","","","","","","","","","","","","","","","","","","","","","","feedback_test","","","","","","","",""
"746","","f","psychophysics","26","244861","0.0-8.0-1.0-1.0-0.0-0.8","5","5","4","3","2","2","4","3","5","4","5","-2","-2","-1","-1","0","0","-1","1","4","3","5","4","3","2","2","3","4","3","4","5","3","5","5","3","4","5","3","4","7","3","4","6","3","6","4","4","4","6","2","5","6","1","6","4","6","2","6","3","4","5","3","2","4","3","5","7","1","7","1","7","4","3","4","7","1","3","3","745755632388542465","吴","Female","[""好她"",""坏她"",""好我"",""坏我""]","[""强她"",""弱她"",""强我"",""弱我""]","","","","","","","","match","","","","","","","","","","key","f","16.665999999999958","735","456","f","true","match","img/diamond.png","强我","强我","prac_ALT2_ability","practice_ability","","","","","","","",""
"null","<span style='color:GreenYellow; font-size: 70px;'>正确! </span>","null","html-keyboard-response","27","245366","0.0-8.0-1.0-1.0-0.0-1.8","5","5","4","3","2","2","4","3","5","4","5","-2","-2","-1","-1","0","0","-1","1","4","3","5","4","3","2","2","3","4","3","4","5","3","5","5","3","4","5","3","4","7","3","4","6","3","6","4","4","4","6","2","5","6","1","6","4","6","2","6","3","4","5","3","2","4","3","5","7","1","7","1","7","4","3","4","7","1","3","3","745755632388542465","吴","Female","[""好她"",""坏她"",""好我"",""坏我""]","[""强她"",""弱她"",""强我"",""弱我""]","","","","","","","","","","","","","","","","","","","","","","","","","","","","","","feedback_test","","","","","","","",""
"920","","j","psychophysics","28","247288","0.0-8.0-1.0-1.0-0.0-0.9","5","5","4","3","2","2","4","3","5","4","5","-2","-2","-1","-1","0","0","-1","1","4","3","5","4","3","2","2","3","4","3","4","5","3","5","5","3","4","5","3","4","7","3","4","6","3","6","4","4","4","6","2","5","6","1","6","4","6","2","6","3","4","5","3","2","4","3","5","7","1","7","1","7","4","3","4","7","1","3","3","745755632388542465","吴","Female","[""好她"",""坏她"",""好我"",""坏我""]","[""强她"",""弱她"",""强我"",""弱我""]","","","","","","","","nonmatch","","","","","","","","","","key","j","16.669035087719205","735","456","j","true","nonmatch","img/diamond.png","弱我","强我","prac_ALT2_ability","practice_ability","","","","","","","",""
"null","<span style='color:GreenYellow; font-size: 70px;'>正确! </span>","null","html-keyboard-response","29","247790","0.0-8.0-1.0-1.0-0.0-1.9","5","5","4","3","2","2","4","3","5","4","5","-2","-2","-1","-1","0","0","-1","1","4","3","5","4","3","2","2","3","4","3","4","5","3","5","5","3","4","5","3","4","7","3","4","6","3","6","4","4","4","6","2","5","6","1","6","4","6","2","6","3","4","5","3","2","4","3","5","7","1","7","1","7","4","3","4","7","1","3","3","745755632388542465","吴","Female","[""好她"",""坏她"",""好我"",""坏我""]","[""强她"",""弱她"",""强我"",""弱我""]","","","","","","","","","","","","","","","","","","","","","","","","","","","","","","feedback_test","","","","","","","",""
"651","","f","psychophysics","30","249451","0.0-8.0-1.0-1.0-0.0-0.10","5","5","4","3","2","2","4","3","5","4","5","-2","-2","-1","-1","0","0","-1","1","4","3","5","4","3","2","2","3","4","3","4","5","3","5","5","3","4","5","3","4","7","3","4","6","3","6","4","4","4","6","2","5","6","1","6","4","6","2","6","3","4","5","3","2","4","3","5","7","1","7","1","7","4","3","4","7","1","3","3","745755632388542465","吴","Female","[""好她"",""坏她"",""好我"",""坏我""]","[""强她"",""弱她"",""强我"",""弱我""]","","","","","","","","match","","","","","","","","","","key","f","16.66599999999979","735","456","j","false","nonmatch","img/pentagon.png","强我","弱她","prac_ALT2_ability","practice_ability","","","","","","","",""
"null","<span style='color:red; font-size: 70px;'>错误! </span>","null","html-keyboard-response","31","249960","0.0-8.0-1.0-1.0-0.0-1.10","5","5","4","3","2","2","4","3","5","4","5","-2","-2","-1","-1","0","0","-1","1","4","3","5","4","3","2","2","3","4","3","4","5","3","5","5","3","4","5","3","4","7","3","4","6","3","6","4","4","4","6","2","5","6","1","6","4","6","2","6","3","4","5","3","2","4","3","5","7","1","7","1","7","4","3","4","7","1","3","3","745755632388542465","吴","Female","[""好她"",""坏她"",""好我"",""坏我""]","[""强她"",""弱她"",""强我"",""弱我""]","","","","","","","","","","","","","","","","","","","","","","","","","","","","","","feedback_test","","","","","","","",""
"706","","f","psychophysics","32","251672","0.0-8.0-1.0-1.0-0.0-0.11","5","5","4","3","2","2","4","3","5","4","5","-2","-2","-1","-1","0","0","-1","1","4","3","5","4","3","2","2","3","4","3","4","5","3","5","5","3","4","5","3","4","7","3","4","6","3","6","4","4","4","6","2","5","6","1","6","4","6","2","6","3","4","5","3","2","4","3","5","7","1","7","1","7","4","3","4","7","1","3","3","745755632388542465","吴","Female","[""好她"",""坏她"",""好我"",""坏我""]","[""强她"",""弱她"",""强我"",""弱我""]","","","","","","","","match","","","","","","","","","","key","f","16.666000000000007","735","456","f","true","match","img/diamond.png","强我","强我","prac_ALT2_ability","practice_ability","","","","","","","",""
"null","<span style='color:GreenYellow; font-size: 70px;'>正确! </span>","null","html-keyboard-response","33","252174","0.0-8.0-1.0-1.0-0.0-1.11","5","5","4","3","2","2","4","3","5","4","5","-2","-2","-1","-1","0","0","-1","1","4","3","5","4","3","2","2","3","4","3","4","5","3","5","5","3","4","5","3","4","7","3","4","6","3","6","4","4","4","6","2","5","6","1","6","4","6","2","6","3","4","5","3","2","4","3","5","7","1","7","1","7","4","3","4","7","1","3","3","745755632388542465","吴","Female","[""好她"",""坏她"",""好我"",""坏我""]","[""强她"",""弱她"",""强我"",""弱我""]","","","","","","","","","","","","","","","","","","","","","","","","","","","","","","feedback_test","","","","","","","",""
"758","","j","psychophysics","34","253941","0.0-8.0-1.0-1.0-0.0-0.12","5","5","4","3","2","2","4","3","5","4","5","-2","-2","-1","-1","0","0","-1","1","4","3","5","4","3","2","2","3","4","3","4","5","3","5","5","3","4","5","3","4","7","3","4","6","3","6","4","4","4","6","2","5","6","1","6","4","6","2","6","3","4","5","3","2","4","3","5","7","1","7","1","7","4","3","4","7","1","3","3","745755632388542465","吴","Female","[""好她"",""坏她"",""好我"",""坏我""]","[""强她"",""弱她"",""强我"",""弱我""]","","","","","","","","nonmatch","","","","","","","","","","key","j","16.665999999999933","735","456","j","true","nonmatch","img/hexagon.png","强她","弱我","prac_ALT2_ability","practice_ability","","","","","","","",""
"null","<span style='color:GreenYellow; font-size: 70px;'>正确! </span>","null","html-keyboard-response","35","254446","0.0-8.0-1.0-1.0-0.0-1.12","5","5","4","3","2","2","4","3","5","4","5","-2","-2","-1","-1","0","0","-1","1","4","3","5","4","3","2","2","3","4","3","4","5","3","5","5","3","4","5","3","4","7","3","4","6","3","6","4","4","4","6","2","5","6","1","6","4","6","2","6","3","4","5","3","2","4","3","5","7","1","7","1","7","4","3","4","7","1","3","3","745755632388542465","吴","Female","[""好她"",""坏她"",""好我"",""坏我""]","[""强她"",""弱她"",""强我"",""弱我""]","","","","","","","","","","","","","","","","","","","","","","","","","","","","","","feedback_test","","","","","","","",""
"854","","f","psychophysics","36","256303","0.0-8.0-1.0-1.0-0.0-0.13","5","5","4","3","2","2","4","3","5","4","5","-2","-2","-1","-1","0","0","-1","1","4","3","5","4","3","2","2","3","4","3","4","5","3","5","5","3","4","5","3","4","7","3","4","6","3","6","4","4","4","6","2","5","6","1","6","4","6","2","6","3","4","5","3","2","4","3","5","7","1","7","1","7","4","3","4","7","1","3","3","745755632388542465","吴","Female","[""好她"",""坏她"",""好我"",""坏我""]","[""强她"",""弱她"",""强我"",""弱我""]","","","","","","","","match","","","","","","","","","","key","f","16.669306306306353","735","456","j","false","nonmatch","img/diamond.png","弱她","强我","prac_ALT2_ability","practice_ability","","","","","","","",""
"null","<span style='color:red; font-size: 70px;'>错误! </span>","null","html-keyboard-response","37","256809","0.0-8.0-1.0-1.0-0.0-1.13","5","5","4","3","2","2","4","3","5","4","5","-2","-2","-1","-1","0","0","-1","1","4","3","5","4","3","2","2","3","4","3","4","5","3","5","5","3","4","5","3","4","7","3","4","6","3","6","4","4","4","6","2","5","6","1","6","4","6","2","6","3","4","5","3","2","4","3","5","7","1","7","1","7","4","3","4","7","1","3","3","745755632388542465","吴","Female","[""好她"",""坏她"",""好我"",""坏我""]","[""强她"",""弱她"",""强我"",""弱我""]","","","","","","","","","","","","","","","","","","","","","","","","","","","","","","feedback_test","","","","","","","",""
"669","","j","psychophysics","38","258484","0.0-8.0-1.0-1.0-0.0-0.14","5","5","4","3","2","2","4","3","5","4","5","-2","-2","-1","-1","0","0","-1","1","4","3","5","4","3","2","2","3","4","3","4","5","3","5","5","3","4","5","3","4","7","3","4","6","3","6","4","4","4","6","2","5","6","1","6","4","6","2","6","3","4","5","3","2","4","3","5","7","1","7","1","7","4","3","4","7","1","3","3","745755632388542465","吴","Female","[""好她"",""坏她"",""好我"",""坏我""]","[""强她"",""弱她"",""强我"",""弱我""]","","","","","","","","nonmatch","","","","","","","","","","key","j","16.666000000000057","735","456","f","false","match","img/pentagon.png","弱她","弱她","prac_ALT2_ability","practice_ability","","","","","","","",""
"null","<span style='color:red; font-size: 70px;'>错误! </span>","null","html-keyboard-response","39","258990","0.0-8.0-1.0-1.0-0.0-1.14","5","5","4","3","2","2","4","3","5","4","5","-2","-2","-1","-1","0","0","-1","1","4","3","5","4","3","2","2","3","4","3","4","5","3","5","5","3","4","5","3","4","7","3","4","6","3","6","4","4","4","6","2","5","6","1","6","4","6","2","6","3","4","5","3","2","4","3","5","7","1","7","1","7","4","3","4","7","1","3","3","745755632388542465","吴","Female","[""好她"",""坏她"",""好我"",""坏我""]","[""强她"",""弱她"",""强我"",""弱我""]","","","","","","","","","","","","","","","","","","","","","","","","","","","","","","feedback_test","","","","","","","",""
"256","","f","psychophysics","40","260254","0.0-8.0-1.0-1.0-0.0-0.15","5","5","4","3","2","2","4","3","5","4","5","-2","-2","-1","-1","0","0","-1","1","4","3","5","4","3","2","2","3","4","3","4","5","3","5","5","3","4","5","3","4","7","3","4","6","3","6","4","4","4","6","2","5","6","1","6","4","6","2","6","3","4","5","3","2","4","3","5","7","1","7","1","7","4","3","4","7","1","3","3","745755632388542465","吴","Female","[""好她"",""坏她"",""好我"",""坏我""]","[""强她"",""弱她"",""强我"",""弱我""]","","","","","","","","match","","","","","","","","","","key","f","16.665999999999766","735","456","f","true","match","img/circle.png","强她","强她","prac_ALT2_ability","practice_ability","","","","","","","",""
"null","<span style='color:GreenYellow; font-size: 70px;'>正确! </span>","null","html-keyboard-response","41","260758","0.0-8.0-1.0-1.0-0.0-1.15","5","5","4","3","2","2","4","3","5","4","5","-2","-2","-1","-1","0","0","-1","1","4","3","5","4","3","2","2","3","4","3","4","5","3","5","5","3","4","5","3","4","7","3","4","6","3","6","4","4","4","6","2","5","6","1","6","4","6","2","6","3","4","5","3","2","4","3","5","7","1","7","1","7","4","3","4","7","1","3","3","745755632388542465","吴","Female","[""好她"",""坏她"",""好我"",""坏我""]","[""强她"",""弱她"",""强我"",""弱我""]","","","","","","","","","","","","","","","","","","","","","","","","","","","","","","feedback_test","","","","","","","",""
"720","","f","psychophysics","42","262486","0.0-8.0-1.0-1.0-0.0-0.16","5","5","4","3","2","2","4","3","5","4","5","-2","-2","-1","-1","0","0","-1","1","4","3","5","4","3","2","2","3","4","3","4","5","3","5","5","3","4","5","3","4","7","3","4","6","3","6","4","4","4","6","2","5","6","1","6","4","6","2","6","3","4","5","3","2","4","3","5","7","1","7","1","7","4","3","4","7","1","3","3","745755632388542465","吴","Female","[""好她"",""坏她"",""好我"",""坏我""]","[""强她"",""弱她"",""强我"",""弱我""]","","","","","","","","match","","","","","","","","","","key","f","16.665999999999983","735","456","f","true","match","img/diamond.png","强我","强我","prac_ALT2_ability","practice_ability","","","","","","","",""
"null","<span style='color:GreenYellow; font-size: 70px;'>正确! </span>","null","html-keyboard-response","43","262993","0.0-8.0-1.0-1.0-0.0-1.16","5","5","4","3","2","2","4","3","5","4","5","-2","-2","-1","-1","0","0","-1","1","4","3","5","4","3","2","2","3","4","3","4","5","3","5","5","3","4","5","3","4","7","3","4","6","3","6","4","4","4","6","2","5","6","1","6","4","6","2","6","3","4","5","3","2","4","3","5","7","1","7","1","7","4","3","4","7","1","3","3","745755632388542465","吴","Female","[""好她"",""坏她"",""好我"",""坏我""]","[""强她"",""弱她"",""强我"",""弱我""]","","","","","","","","","","","","","","","","","","","","","","","","","","","","","","feedback_test","","","","","","","",""
"504","","f","psychophysics","44","264504","0.0-8.0-1.0-1.0-0.0-0.17","5","5","4","3","2","2","4","3","5","4","5","-2","-2","-1","-1","0","0","-1","1","4","3","5","4","3","2","2","3","4","3","4","5","3","5","5","3","4","5","3","4","7","3","4","6","3","6","4","4","4","6","2","5","6","1","6","4","6","2","6","3","4","5","3","2","4","3","5","7","1","7","1","7","4","3","4","7","1","3","3","745755632388542465","吴","Female","[""好她"",""坏她"",""好我"",""坏我""]","[""强她"",""弱她"",""强我"",""弱我""]","","","","","","","","match","","","","","","","","","","key","f","16.666000000000025","735","456","j","false","nonmatch","img/pentagon.png","弱我","弱她","prac_ALT2_ability","practice_ability","","","","","","","",""
"null","<span style='color:red; font-size: 70px;'>错误! </span>","null","html-keyboard-response","45","265007","0.0-8.0-1.0-1.0-0.0-1.17","5","5","4","3","2","2","4","3","5","4","5","-2","-2","-1","-1","0","0","-1","1","4","3","5","4","3","2","2","3","4","3","4","5","3","5","5","3","4","5","3","4","7","3","4","6","3","6","4","4","4","6","2","5","6","1","6","4","6","2","6","3","4","5","3","2","4","3","5","7","1","7","1","7","4","3","4","7","1","3","3","745755632388542465","吴","Female","[""好她"",""坏她"",""好我"",""坏我""]","[""强她"",""弱她"",""强我"",""弱我""]","","","","","","","","","","","","","","","","","","","","","","","","","","","","","","feedback_test","","","","","","","",""
"908","","j","psychophysics","46","266923","0.0-8.0-1.0-1.0-0.0-0.18","5","5","4","3","2","2","4","3","5","4","5","-2","-2","-1","-1","0","0","-1","1","4","3","5","4","3","2","2","3","4","3","4","5","3","5","5","3","4","5","3","4","7","3","4","6","3","6","4","4","4","6","2","5","6","1","6","4","6","2","6","3","4","5","3","2","4","3","5","7","1","7","1","7","4","3","4","7","1","3","3","745755632388542465","吴","Female","[""好她"",""坏她"",""好我"",""坏我""]","[""强她"",""弱她"",""强我"",""弱我""]","","","","","","","","nonmatch","","","","","","","","","","key","j","16.669078947368625","735","456","f","false","match","img/circle.png","强她","强她","prac_ALT2_ability","practice_ability","","","","","","","",""
"null","<span style='color:red; font-size: 70px;'>错误! </span>","null","html-keyboard-response","47","267430","0.0-8.0-1.0-1.0-0.0-1.18","5","5","4","3","2","2","4","3","5","4","5","-2","-2","-1","-1","0","0","-1","1","4","3","5","4","3","2","2","3","4","3","4","5","3","5","5","3","4","5","3","4","7","3","4","6","3","6","4","4","4","6","2","5","6","1","6","4","6","2","6","3","4","5","3","2","4","3","5","7","1","7","1","7","4","3","4","7","1","3","3","745755632388542465","吴","Female","[""好她"",""坏她"",""好我"",""坏我""]","[""强她"",""弱她"",""强我"",""弱我""]","","","","","","","","","","","","","","","","","","","","","","","","","","","","","","feedback_test","","","","","","","",""
"719","","j","psychophysics","48","269151","0.0-8.0-1.0-1.0-0.0-0.19","5","5","4","3","2","2","4","3","5","4","5","-2","-2","-1","-1","0","0","-1","1","4","3","5","4","3","2","2","3","4","3","4","5","3","5","5","3","4","5","3","4","7","3","4","6","3","6","4","4","4","6","2","5","6","1","6","4","6","2","6","3","4","5","3","2","4","3","5","7","1","7","1","7","4","3","4","7","1","3","3","745755632388542465","吴","Female","[""好她"",""坏她"",""好我"",""坏我""]","[""强她"",""弱她"",""强我"",""弱我""]","","","","","","","","nonmatch","","","","","","","","","","key","j","16.66600000000029","735","456","f","false","match","img/circle.png","强她","强她","prac_ALT2_ability","practice_ability","","","","","","","",""
"null","<span style='color:red; font-size: 70px;'>错误! </span>","null","html-keyboard-response","49","269657","0.0-8.0-1.0-1.0-0.0-1.19","5","5","4","3","2","2","4","3","5","4","5","-2","-2","-1","-1","0","0","-1","1","4","3","5","4","3","2","2","3","4","3","4","5","3","5","5","3","4","5","3","4","7","3","4","6","3","6","4","4","4","6","2","5","6","1","6","4","6","2","6","3","4","5","3","2","4","3","5","7","1","7","1","7","4","3","4","7","1","3","3","745755632388542465","吴","Female","[""好她"",""坏她"",""好我"",""坏我""]","[""强她"",""弱她"",""强我"",""弱我""]","","","","","","","","","","","","","","","","","","","","","","","","","","","","","","feedback_test","","","","","","","",""
"865","","j","psychophysics","50","271530","0.0-8.0-1.0-1.0-0.0-0.20","5","5","4","3","2","2","4","3","5","4","5","-2","-2","-1","-1","0","0","-1","1","4","3","5","4","3","2","2","3","4","3","4","5","3","5","5","3","4","5","3","4","7","3","4","6","3","6","4","4","4","6","2","5","6","1","6","4","6","2","6","3","4","5","3","2","4","3","5","7","1","7","1","7","4","3","4","7","1","3","3","745755632388542465","吴","Female","[""好她"",""坏她"",""好我"",""坏我""]","[""强她"",""弱她"",""强我"",""弱我""]","","","","","","","","nonmatch","","","","","","","","","","key","j","16.665999999999798","735","456","j","true","nonmatch","img/circle.png","弱我","强她","prac_ALT2_ability","practice_ability","","","","","","","",""
"null","<span style='color:GreenYellow; font-size: 70px;'>正确! </span>","null","html-keyboard-response","51","272038","0.0-8.0-1.0-1.0-0.0-1.20","5","5","4","3","2","2","4","3","5","4","5","-2","-2","-1","-1","0","0","-1","1","4","3","5","4","3","2","2","3","4","3","4","5","3","5","5","3","4","5","3","4","7","3","4","6","3","6","4","4","4","6","2","5","6","1","6","4","6","2","6","3","4","5","3","2","4","3","5","7","1","7","1","7","4","3","4","7","1","3","3","745755632388542465","吴","Female","[""好她"",""坏她"",""好我"",""坏我""]","[""强她"",""弱她"",""强我"",""弱我""]","","","","","","","","","","","","","","","","","","","","","","","","","","","","","","feedback_test","","","","","","","",""
"793","","f","psychophysics","52","273841","0.0-8.0-1.0-1.0-0.0-0.21","5","5","4","3","2","2","4","3","5","4","5","-2","-2","-1","-1","0","0","-1","1","4","3","5","4","3","2","2","3","4","3","4","5","3","5","5","3","4","5","3","4","7","3","4","6","3","6","4","4","4","6","2","5","6","1","6","4","6","2","6","3","4","5","3","2","4","3","5","7","1","7","1","7","4","3","4","7","1","3","3","745755632388542465","吴","Female","[""好她"",""坏她"",""好我"",""坏我""]","[""强她"",""弱她"",""强我"",""弱我""]","","","","","","","","match","","","","","","","","","","key","f","16.66600000000043","735","456","j","false","nonmatch","img/circle.png","弱她","强她","prac_ALT2_ability","practice_ability","","","","","","","",""
"null","<span style='color:red; font-size: 70px;'>错误! </span>","null","html-keyboard-response","53","274342","0.0-8.0-1.0-1.0-0.0-1.21","5","5","4","3","2","2","4","3","5","4","5","-2","-2","-1","-1","0","0","-1","1","4","3","5","4","3","2","2","3","4","3","4","5","3","5","5","3","4","5","3","4","7","3","4","6","3","6","4","4","4","6","2","5","6","1","6","4","6","2","6","3","4","5","3","2","4","3","5","7","1","7","1","7","4","3","4","7","1","3","3","745755632388542465","吴","Female","[""好她"",""坏她"",""好我"",""坏我""]","[""强她"",""弱她"",""强我"",""弱我""]","","","","","","","","","","","","","","","","","","","","","","","","","","","","","","feedback_test","","","","","","","",""
"1028","","f","psychophysics","54","276379","0.0-8.0-1.0-1.0-0.0-0.22","5","5","4","3","2","2","4","3","5","4","5","-2","-2","-1","-1","0","0","-1","1","4","3","5","4","3","2","2","3","4","3","4","5","3","5","5","3","4","5","3","4","7","3","4","6","3","6","4","4","4","6","2","5","6","1","6","4","6","2","6","3","4","5","3","2","4","3","5","7","1","7","1","7","4","3","4","7","1","3","3","745755632388542465","吴","Female","[""好她"",""坏她"",""好我"",""坏我""]","[""强她"",""弱她"",""强我"",""弱我""]","","","","","","","","match","","","","","","","","","","key","f","16.668900826446084","735","456","j","false","nonmatch","img/diamond.png","强她","强我","prac_ALT2_ability","practice_ability","","","","","","","",""
"null","<span style='color:red; font-size: 70px;'>错误! </span>","null","html-keyboard-response","55","276887","0.0-8.0-1.0-1.0-0.0-1.22","5","5","4","3","2","2","4","3","5","4","5","-2","-2","-1","-1","0","0","-1","1","4","3","5","4","3","2","2","3","4","3","4","5","3","5","5","3","4","5","3","4","7","3","4","6","3","6","4","4","4","6","2","5","6","1","6","4","6","2","6","3","4","5","3","2","4","3","5","7","1","7","1","7","4","3","4","7","1","3","3","745755632388542465","吴","Female","[""好她"",""坏她"",""好我"",""坏我""]","[""强她"",""弱她"",""强我"",""弱我""]","","","","","","","","","","","","","","","","","","","","","","","","","","","","","","feedback_test","","","","","","","",""
"474","","j","psychophysics","56","278370","0.0-8.0-1.0-1.0-0.0-0.23","5","5","4","3","2","2","4","3","5","4","5","-2","-2","-1","-1","0","0","-1","1","4","3","5","4","3","2","2","3","4","3","4","5","3","5","5","3","4","5","3","4","7","3","4","6","3","6","4","4","4","6","2","5","6","1","6","4","6","2","6","3","4","5","3","2","4","3","5","7","1","7","1","7","4","3","4","7","1","3","3","745755632388542465","吴","Female","[""好她"",""坏她"",""好我"",""坏我""]","[""强她"",""弱她"",""强我"",""弱我""]","","","","","","","","nonmatch","","","","","","","","","","key","j","16.666000000000086","735","456","j","true","nonmatch","img/pentagon.png","强她","弱她","prac_ALT2_ability","practice_ability","","","","","","","",""
"null","<span style='color:GreenYellow; font-size: 70px;'>正确! </span>","null","html-keyboard-response","57","278879","0.0-8.0-1.0-1.0-0.0-1.23","5","5","4","3","2","2","4","3","5","4","5","-2","-2","-1","-1","0","0","-1","1","4","3","5","4","3","2","2","3","4","3","4","5","3","5","5","3","4","5","3","4","7","3","4","6","3","6","4","4","4","6","2","5","6","1","6","4","6","2","6","3","4","5","3","2","4","3","5","7","1","7","1","7","4","3","4","7","1","3","3","745755632388542465","吴","Female","[""好她"",""坏她"",""好我"",""坏我""]","[""强她"",""弱她"",""强我"",""弱我""]","","","","","","","","","","","","","","","","","","","","","","","","","","","","","","feedback_test","","","","","","","",""
"287","","j","psychophysics","58","280172","0.0-8.0-1.0-1.0-0.0-0.24","5","5","4","3","2","2","4","3","5","4","5","-2","-2","-1","-1","0","0","-1","1","4","3","5","4","3","2","2","3","4","3","4","5","3","5","5","3","4","5","3","4","7","3","4","6","3","6","4","4","4","6","2","5","6","1","6","4","6","2","6","3","4","5","3","2","4","3","5","7","1","7","1","7","4","3","4","7","1","3","3","745755632388542465","吴","Female","[""好她"",""坏她"",""好我"",""坏我""]","[""强她"",""弱她"",""强我"",""弱我""]","","","","","","","","nonmatch","","","","","","","","","","key","j","16.666000000000086","735","456","f","false","match","img/pentagon.png","弱她","弱她","prac_ALT2_ability","practice_ability","","","","","","","",""
"null","<span style='color:red; font-size: 70px;'>错误! </span>","null","html-keyboard-response","59","280678","0.0-8.0-1.0-1.0-0.0-1.24","5","5","4","3","2","2","4","3","5","4","5","-2","-2","-1","-1","0","0","-1","1","4","3","5","4","3","2","2","3","4","3","4","5","3","5","5","3","4","5","3","4","7","3","4","6","3","6","4","4","4","6","2","5","6","1","6","4","6","2","6","3","4","5","3","2","4","3","5","7","1","7","1","7","4","3","4","7","1","3","3","745755632388542465","吴","Female","[""好她"",""坏她"",""好我"",""坏我""]","[""强她"",""弱她"",""强我"",""弱我""]","","","","","","","","","","","","","","","","","","","","","","","","","","","","","","feedback_test","","","","","","","",""
"265","","f","psychophysics","60","281947","0.0-8.0-1.0-1.0-0.0-0.25","5","5","4","3","2","2","4","3","5","4","5","-2","-2","-1","-1","0","0","-1","1","4","3","5","4","3","2","2","3","4","3","4","5","3","5","5","3","4","5","3","4","7","3","4","6","3","6","4","4","4","6","2","5","6","1","6","4","6","2","6","3","4","5","3","2","4","3","5","7","1","7","1","7","4","3","4","7","1","3","3","745755632388542465","吴","Female","[""好她"",""坏她"",""好我"",""坏我""]","[""强她"",""弱她"",""强我"",""弱我""]","","","","","","","","match","","","","","","","","","","key","f","16.666000000000157","735","456","j","false","nonmatch","img/hexagon.png","强我","弱我","prac_ALT2_ability","practice_ability","","","","","","","",""
"null","<span style='color:red; font-size: 70px;'>错误! </span>","null","html-keyboard-response","61","282457","0.0-8.0-1.0-1.0-0.0-1.25","5","5","4","3","2","2","4","3","5","4","5","-2","-2","-1","-1","0","0","-1","1","4","3","5","4","3","2","2","3","4","3","4","5","3","5","5","3","4","5","3","4","7","3","4","6","3","6","4","4","4","6","2","5","6","1","6","4","6","2","6","3","4","5","3","2","4","3","5","7","1","7","1","7","4","3","4","7","1","3","3","745755632388542465","吴","Female","[""好她"",""坏她"",""好我"",""坏我""]","[""强她"",""弱她"",""强我"",""弱我""]","","","","","","","","","","","","","","","","","","","","","","","","","","","","","","feedback_test","","","","","","","",""
"192","","j","psychophysics","62","283654","0.0-8.0-1.0-1.0-0.0-0.26","5","5","4","3","2","2","4","3","5","4","5","-2","-2","-1","-1","0","0","-1","1","4","3","5","4","3","2","2","3","4","3","4","5","3","5","5","3","4","5","3","4","7","3","4","6","3","6","4","4","4","6","2","5","6","1","6","4","6","2","6","3","4","5","3","2","4","3","5","7","1","7","1","7","4","3","4","7","1","3","3","745755632388542465","吴","Female","[""好她"",""坏她"",""好我"",""坏我""]","[""强她"",""弱她"",""强我"",""弱我""]","","","","","","","","nonmatch","","","","","","","","","","key","j","16.66600000000031","735","456","j","true","nonmatch","img/pentagon.png","强她","弱她","prac_ALT2_ability","practice_ability","","","","","","","",""
"null","<span style='color:yellow; font-size: 70px;'>过快! </span>","null","html-keyboard-response","63","284159","0.0-8.0-1.0-1.0-0.0-1.26","5","5","4","3","2","2","4","3","5","4","5","-2","-2","-1","-1","0","0","-1","1","4","3","5","4","3","2","2","3","4","3","4","5","3","5","5","3","4","5","3","4","7","3","4","6","3","6","4","4","4","6","2","5","6","1","6","4","6","2","6","3","4","5","3","2","4","3","5","7","1","7","1","7","4","3","4","7","1","3","3","745755632388542465","吴","Female","[""好她"",""坏她"",""好我"",""坏我""]","[""强她"",""弱她"",""强我"",""弱我""]","","","","","","","","","","","","","","","","","","","","","","","","","","","","","","feedback_test","","","","","","","",""
"788","","j","psychophysics","64","285954","0.0-8.0-1.0-1.0-0.0-0.27","5","5","4","3","2","2","4","3","5","4","5","-2","-2","-1","-1","0","0","-1","1","4","3","5","4","3","2","2","3","4","3","4","5","3","5","5","3","4","5","3","4","7","3","4","6","3","6","4","4","4","6","2","5","6","1","6","4","6","2","6","3","4","5","3","2","4","3","5","7","1","7","1","7","4","3","4","7","1","3","3","745755632388542465","吴","Female","[""好她"",""坏她"",""好我"",""坏我""]","[""强她"",""弱她"",""强我"",""弱我""]","","","","","","","","nonmatch","","","","","","","","","","key","j","16.669271028037052","735","456","j","true","nonmatch","img/circle.png","弱她","强她","prac_ALT2_ability","practice_ability","","","","","","","",""
"null","<span style='color:GreenYellow; font-size: 70px;'>正确! </span>","null","html-keyboard-response","65","286457","0.0-8.0-1.0-1.0-0.0-1.27","5","5","4","3","2","2","4","3","5","4","5","-2","-2","-1","-1","0","0","-1","1","4","3","5","4","3","2","2","3","4","3","4","5","3","5","5","3","4","5","3","4","7","3","4","6","3","6","4","4","4","6","2","5","6","1","6","4","6","2","6","3","4","5","3","2","4","3","5","7","1","7","1","7","4","3","4","7","1","3","3","745755632388542465","吴","Female","[""好她"",""坏她"",""好我"",""坏我""]","[""强她"",""弱她"",""强我"",""弱我""]","","","","","","","","","","","","","","","","","","","","","","","","","","","","","","feedback_test","","","","","","","",""
"725","","f","psychophysics","66","288188","0.0-8.0-1.0-1.0-0.0-0.28","5","5","4","3","2","2","4","3","5","4","5","-2","-2","-1","-1","0","0","-1","1","4","3","5","4","3","2","2","3","4","3","4","5","3","5","5","3","4","5","3","4","7","3","4","6","3","6","4","4","4","6","2","5","6","1","6","4","6","2","6","3","4","5","3","2","4","3","5","7","1","7","1","7","4","3","4","7","1","3","3","745755632388542465","吴","Female","[""好她"",""坏她"",""好我"",""坏我""]","[""强她"",""弱她"",""强我"",""弱我""]","","","","","","","","match","","","","","","","","","","key","f","16.665999999999983","735","456","f","true","match","img/hexagon.png","弱我","弱我","prac_ALT2_ability","practice_ability","","","","","","","",""
"null","<span style='color:GreenYellow; font-size: 70px;'>正确! </span>","null","html-keyboard-response","67","288696","0.0-8.0-1.0-1.0-0.0-1.28","5","5","4","3","2","2","4","3","5","4","5","-2","-2","-1","-1","0","0","-1","1","4","3","5","4","3","2","2","3","4","3","4","5","3","5","5","3","4","5","3","4","7","3","4","6","3","6","4","4","4","6","2","5","6","1","6","4","6","2","6","3","4","5","3","2","4","3","5","7","1","7","1","7","4","3","4","7","1","3","3","745755632388542465","吴","Female","[""好她"",""坏她"",""好我"",""坏我""]","[""强她"",""弱她"",""强我"",""弱我""]","","","","","","","","","","","","","","","","","","","","","","","","","","","","","","feedback_test","","","","","","","",""
"270","","j","psychophysics","68","289969","0.0-8.0-1.0-1.0-0.0-0.29","5","5","4","3","2","2","4","3","5","4","5","-2","-2","-1","-1","0","0","-1","1","4","3","5","4","3","2","2","3","4","3","4","5","3","5","5","3","4","5","3","4","7","3","4","6","3","6","4","4","4","6","2","5","6","1","6","4","6","2","6","3","4","5","3","2","4","3","5","7","1","7","1","7","4","3","4","7","1","3","3","745755632388542465","吴","Female","[""好她"",""坏她"",""好我"",""坏我""]","[""强她"",""弱她"",""强我"",""弱我""]","","","","","","","","nonmatch","","","","","","","","","","key","j","16.665999999999737","735","456","j","true","nonmatch","img/pentagon.png","弱我","弱她","prac_ALT2_ability","practice_ability","","","","","","","",""
"null","<span style='color:GreenYellow; font-size: 70px;'>正确! </span>","null","html-keyboard-response","69","290472","0.0-8.0-1.0-1.0-0.0-1.29","5","5","4","3","2","2","4","3","5","4","5","-2","-2","-1","-1","0","0","-1","1","4","3","5","4","3","2","2","3","4","3","4","5","3","5","5","3","4","5","3","4","7","3","4","6","3","6","4","4","4","6","2","5","6","1","6","4","6","2","6","3","4","5","3","2","4","3","5","7","1","7","1","7","4","3","4","7","1","3","3","745755632388542465","吴","Female","[""好她"",""坏她"",""好我"",""坏我""]","[""强她"",""弱她"",""强我"",""弱我""]","","","","","","","","","","","","","","","","","","","","","","","","","","","","","","feedback_test","","","","","","","",""
"250","","f","psychophysics","70","291728","0.0-8.0-1.0-1.0-0.0-0.30","5","5","4","3","2","2","4","3","5","4","5","-2","-2","-1","-1","0","0","-1","1","4","3","5","4","3","2","2","3","4","3","4","5","3","5","5","3","4","5","3","4","7","3","4","6","3","6","4","4","4","6","2","5","6","1","6","4","6","2","6","3","4","5","3","2","4","3","5","7","1","7","1","7","4","3","4","7","1","3","3","745755632388542465","吴","Female","[""好她"",""坏她"",""好我"",""坏我""]","[""强她"",""弱她"",""强我"",""弱我""]","","","","","","","","match","","","","","","","","","","key","f","16.665999999999798","735","456","f","true","match","img/circle.png","强她","强她","prac_ALT2_ability","practice_ability","","","","","","","",""
"null","<span style='color:GreenYellow; font-size: 70px;'>正确! </span>","null","html-keyboard-response","71","292230","0.0-8.0-1.0-1.0-0.0-1.30","5","5","4","3","2","2","4","3","5","4","5","-2","-2","-1","-1","0","0","-1","1","4","3","5","4","3","2","2","3","4","3","4","5","3","5","5","3","4","5","3","4","7","3","4","6","3","6","4","4","4","6","2","5","6","1","6","4","6","2","6","3","4","5","3","2","4","3","5","7","1","7","1","7","4","3","4","7","1","3","3","745755632388542465","吴","Female","[""好她"",""坏她"",""好我"",""坏我""]","[""强她"",""弱她"",""强我"",""弱我""]","","","","","","","","","","","","","","","","","","","","","","","","","","","","","","feedback_test","","","","","","","",""
"954","","f","psychophysics","72","294187","0.0-8.0-1.0-1.0-0.0-0.31","5","5","4","3","2","2","4","3","5","4","5","-2","-2","-1","-1","0","0","-1","1","4","3","5","4","3","2","2","3","4","3","4","5","3","5","5","3","4","5","3","4","7","3","4","6","3","6","4","4","4","6","2","5","6","1","6","4","6","2","6","3","4","5","3","2","4","3","5","7","1","7","1","7","4","3","4","7","1","3","3","745755632388542465","吴","Female","[""好她"",""坏她"",""好我"",""坏我""]","[""强她"",""弱她"",""强我"",""弱我""]","","","","","","","","match","","","","","","","","","","key","f","16.666000000000174","735","456","j","false","nonmatch","img/diamond.png","弱我","强我","prac_ALT2_ability","practice_ability","","","","","","","",""
"null","<span style='color:red; font-size: 70px;'>错误! </span>","null","html-keyboard-response","73","294695","0.0-8.0-1.0-1.0-0.0-1.31","5","5","4","3","2","2","4","3","5","4","5","-2","-2","-1","-1","0","0","-1","1","4","3","5","4","3","2","2","3","4","3","4","5","3","5","5","3","4","5","3","4","7","3","4","6","3","6","4","4","4","6","2","5","6","1","6","4","6","2","6","3","4","5","3","2","4","3","5","7","1","7","1","7","4","3","4","7","1","3","3","745755632388542465","吴","Female","[""好她"",""坏她"",""好我"",""坏我""]","[""强她"",""弱她"",""强我"",""弱我""]","","","","","","","","","","","","","","","","","","","","","","","","","","","","","","feedback_test","","","","","","","",""
"159","","f","psychophysics","74","295860","0.0-8.0-1.0-1.0-0.0-0.32","5","5","4","3","2","2","4","3","5","4","5","-2","-2","-1","-1","0","0","-1","1","4","3","5","4","3","2","2","3","4","3","4","5","3","5","5","3","4","5","3","4","7","3","4","6","3","6","4","4","4","6","2","5","6","1","6","4","6","2","6","3","4","5","3","2","4","3","5","7","1","7","1","7","4","3","4","7","1","3","3","745755632388542465","吴","Female","[""好她"",""坏她"",""好我"",""坏我""]","[""强她"",""弱她"",""强我"",""弱我""]","","","","","","","","match","","","","","","","","","","key","f","16.671086956521638","735","456","f","true","match","img/circle.png","强她","强她","prac_ALT2_ability","practice_ability","","","","","","","",""
"null","<span style='color:yellow; font-size: 70px;'>过快! </span>","null","html-keyboard-response","75","296366","0.0-8.0-1.0-1.0-0.0-1.32","5","5","4","3","2","2","4","3","5","4","5","-2","-2","-1","-1","0","0","-1","1","4","3","5","4","3","2","2","3","4","3","4","5","3","5","5","3","4","5","3","4","7","3","4","6","3","6","4","4","4","6","2","5","6","1","6","4","6","2","6","3","4","5","3","2","4","3","5","7","1","7","1","7","4","3","4","7","1","3","3","745755632388542465","吴","Female","[""好她"",""坏她"",""好我"",""坏我""]","[""强她"",""弱她"",""强我"",""弱我""]","","","","","","","","","","","","","","","","","","","","","","","","","","","","","","feedback_test","","","","","","","",""
"1046","","j","psychophysics","76","298414","0.0-8.0-1.0-1.0-0.0-0.33","5","5","4","3","2","2","4","3","5","4","5","-2","-2","-1","-1","0","0","-1","1","4","3","5","4","3","2","2","3","4","3","4","5","3","5","5","3","4","5","3","4","7","3","4","6","3","6","4","4","4","6","2","5","6","1","6","4","6","2","6","3","4","5","3","2","4","3","5","7","1","7","1","7","4","3","4","7","1","3","3","745755632388542465","吴","Female","[""好她"",""坏她"",""好我"",""坏我""]","[""强她"",""弱她"",""强我"",""弱我""]","","","","","","","","nonmatch","","","","","","","","","","key","j","16.666000000000086","735","456","j","true","nonmatch","img/hexagon.png","强她","弱我","prac_ALT2_ability","practice_ability","","","","","","","",""
"null","<span style='color:GreenYellow; font-size: 70px;'>正确! </span>","null","html-keyboard-response","77","298918","0.0-8.0-1.0-1.0-0.0-1.33","5","5","4","3","2","2","4","3","5","4","5","-2","-2","-1","-1","0","0","-1","1","4","3","5","4","3","2","2","3","4","3","4","5","3","5","5","3","4","5","3","4","7","3","4","6","3","6","4","4","4","6","2","5","6","1","6","4","6","2","6","3","4","5","3","2","4","3","5","7","1","7","1","7","4","3","4","7","1","3","3","745755632388542465","吴","Female","[""好她"",""坏她"",""好我"",""坏我""]","[""强她"",""弱她"",""强我"",""弱我""]","","","","","","","","","","","","","","","","","","","","","","","","","","","","","","feedback_test","","","","","","","",""
"728","","j","psychophysics","78","300655","0.0-8.0-1.0-1.0-0.0-0.34","5","5","4","3","2","2","4","3","5","4","5","-2","-2","-1","-1","0","0","-1","1","4","3","5","4","3","2","2","3","4","3","4","5","3","5","5","3","4","5","3","4","7","3","4","6","3","6","4","4","4","6","2","5","6","1","6","4","6","2","6","3","4","5","3","2","4","3","5","7","1","7","1","7","4","3","4","7","1","3","3","745755632388542465","吴","Female","[""好她"",""坏她"",""好我"",""坏我""]","[""强她"",""弱她"",""强我"",""弱我""]","","","","","","","","nonmatch","","","","","","","","","","key","j","16.665999999999983","735","456","j","true","nonmatch","img/circle.png","弱我","强她","prac_ALT2_ability","practice_ability","","","","","","","",""
"null","<span style='color:GreenYellow; font-size: 70px;'>正确! </span>","null","html-keyboard-response","79","301160","0.0-8.0-1.0-1.0-0.0-1.34","5","5","4","3","2","2","4","3","5","4","5","-2","-2","-1","-1","0","0","-1","1","4","3","5","4","3","2","2","3","4","3","4","5","3","5","5","3","4","5","3","4","7","3","4","6","3","6","4","4","4","6","2","5","6","1","6","4","6","2","6","3","4","5","3","2","4","3","5","7","1","7","1","7","4","3","4","7","1","3","3","745755632388542465","吴","Female","[""好她"",""坏她"",""好我"",""坏我""]","[""强她"",""弱她"",""强我"",""弱我""]","","","","","","","","","","","","","","","","","","","","","","","","","","","","","","feedback_test","","","","","","","",""
"754","","f","psychophysics","80","302920","0.0-8.0-1.0-1.0-0.0-0.35","5","5","4","3","2","2","4","3","5","4","5","-2","-2","-1","-1","0","0","-1","1","4","3","5","4","3","2","2","3","4","3","4","5","3","5","5","3","4","5","3","4","7","3","4","6","3","6","4","4","4","6","2","5","6","1","6","4","6","2","6","3","4","5","3","2","4","3","5","7","1","7","1","7","4","3","4","7","1","3","3","745755632388542465","吴","Female","[""好她"",""坏她"",""好我"",""坏我""]","[""强她"",""弱她"",""强我"",""弱我""]","","","","","","","","match","","","","","","","","","","key","f","16.666000000000487","735","456","f","true","match","img/hexagon.png","弱我","弱我","prac_ALT2_ability","practice_ability","","","","","","","",""
"null","<span style='color:GreenYellow; font-size: 70px;'>正确! </span>","null","html-keyboard-response","81","303423","0.0-8.0-1.0-1.0-0.0-1.35","5","5","4","3","2","2","4","3","5","4","5","-2","-2","-1","-1","0","0","-1","1","4","3","5","4","3","2","2","3","4","3","4","5","3","5","5","3","4","5","3","4","7","3","4","6","3","6","4","4","4","6","2","5","6","1","6","4","6","2","6","3","4","5","3","2","4","3","5","7","1","7","1","7","4","3","4","7","1","3","3","745755632388542465","吴","Female","[""好她"",""坏她"",""好我"",""坏我""]","[""强她"",""弱她"",""强我"",""弱我""]","","","","","","","","","","","","","","","","","","","","","","","","","","","","","","feedback_test","","","","","","","",""
"857","","j","psychophysics","82","305287","0.0-8.0-1.0-1.0-0.0-0.36","5","5","4","3","2","2","4","3","5","4","5","-2","-2","-1","-1","0","0","-1","1","4","3","5","4","3","2","2","3","4","3","4","5","3","5","5","3","4","5","3","4","7","3","4","6","3","6","4","4","4","6","2","5","6","1","6","4","6","2","6","3","4","5","3","2","4","3","5","7","1","7","1","7","4","3","4","7","1","3","3","745755632388542465","吴","Female","[""好她"",""坏她"",""好我"",""坏我""]","[""强她"",""弱她"",""强我"",""弱我""]","","","","","","","","nonmatch","","","","","","","","","","key","j","16.666000000000324","735","456","j","true","nonmatch","img/circle.png","强我","强她","prac_ALT2_ability","practice_ability","","","","","","","",""
"null","<span style='color:GreenYellow; font-size: 70px;'>正确! </span>","null","html-keyboard-response","83","305792","0.0-8.0-1.0-1.0-0.0-1.36","5","5","4","3","2","2","4","3","5","4","5","-2","-2","-1","-1","0","0","-1","1","4","3","5","4","3","2","2","3","4","3","4","5","3","5","5","3","4","5","3","4","7","3","4","6","3","6","4","4","4","6","2","5","6","1","6","4","6","2","6","3","4","5","3","2","4","3","5","7","1","7","1","7","4","3","4","7","1","3","3","745755632388542465","吴","Female","[""好她"",""坏她"",""好我"",""坏我""]","[""强她"",""弱她"",""强我"",""弱我""]","","","","","","","","","","","","","","","","","","","","","","","","","","","","","","feedback_test","","","","","","","",""
"812","","f","psychophysics","84","307611","0.0-8.0-1.0-1.0-0.0-0.37","5","5","4","3","2","2","4","3","5","4","5","-2","-2","-1","-1","0","0","-1","1","4","3","5","4","3","2","2","3","4","3","4","5","3","5","5","3","4","5","3","4","7","3","4","6","3","6","4","4","4","6","2","5","6","1","6","4","6","2","6","3","4","5","3","2","4","3","5","7","1","7","1","7","4","3","4","7","1","3","3","745755632388542465","吴","Female","[""好她"",""坏她"",""好我"",""坏我""]","[""强她"",""弱她"",""强我"",""弱我""]","","","","","","","","match","","","","","","","","","","key","f","16.665999999999595","735","456","f","true","match","img/hexagon.png","弱我","弱我","prac_ALT2_ability","practice_ability","","","","","","","",""
"null","<span style='color:GreenYellow; font-size: 70px;'>正确! </span>","null","html-keyboard-response","85","308119","0.0-8.0-1.0-1.0-0.0-1.37","5","5","4","3","2","2","4","3","5","4","5","-2","-2","-1","-1","0","0","-1","1","4","3","5","4","3","2","2","3","4","3","4","5","3","5","5","3","4","5","3","4","7","3","4","6","3","6","4","4","4","6","2","5","6","1","6","4","6","2","6","3","4","5","3","2","4","3","5","7","1","7","1","7","4","3","4","7","1","3","3","745755632388542465","吴","Female","[""好她"",""坏她"",""好我"",""坏我""]","[""强她"",""弱她"",""强我"",""弱我""]","","","","","","","","","","","","","","","","","","","","","","","","","","","","","","feedback_test","","","","","","","",""
"857","","j","psychophysics","86","309985","0.0-8.0-1.0-1.0-0.0-0.38","5","5","4","3","2","2","4","3","5","4","5","-2","-2","-1","-1","0","0","-1","1","4","3","5","4","3","2","2","3","4","3","4","5","3","5","5","3","4","5","3","4","7","3","4","6","3","6","4","4","4","6","2","5","6","1","6","4","6","2","6","3","4","5","3","2","4","3","5","7","1","7","1","7","4","3","4","7","1","3","3","745755632388542465","吴","Female","[""好她"",""坏她"",""好我"",""坏我""]","[""强她"",""弱她"",""强我"",""弱我""]","","","","","","","","nonmatch","","","","","","","","","","key","j","16.665999999999798","735","456","j","true","nonmatch","img/hexagon.png","弱她","弱我","prac_ALT2_ability","practice_ability","","","","","","","",""
"null","<span style='color:GreenYellow; font-size: 70px;'>正确! </span>","null","html-keyboard-response","87","310487","0.0-8.0-1.0-1.0-0.0-1.38","5","5","4","3","2","2","4","3","5","4","5","-2","-2","-1","-1","0","0","-1","1","4","3","5","4","3","2","2","3","4","3","4","5","3","5","5","3","4","5","3","4","7","3","4","6","3","6","4","4","4","6","2","5","6","1","6","4","6","2","6","3","4","5","3","2","4","3","5","7","1","7","1","7","4","3","4","7","1","3","3","745755632388542465","吴","Female","[""好她"",""坏她"",""好我"",""坏我""]","[""强她"",""弱她"",""强我"",""弱我""]","","","","","","","","","","","","","","","","","","","","","","","","","","","","","","feedback_test","","","","","","","",""
"677","","f","psychophysics","88","312172","0.0-8.0-1.0-1.0-0.0-0.39","5","5","4","3","2","2","4","3","5","4","5","-2","-2","-1","-1","0","0","-1","1","4","3","5","4","3","2","2","3","4","3","4","5","3","5","5","3","4","5","3","4","7","3","4","6","3","6","4","4","4","6","2","5","6","1","6","4","6","2","6","3","4","5","3","2","4","3","5","7","1","7","1","7","4","3","4","7","1","3","3","745755632388542465","吴","Female","[""好她"",""坏她"",""好我"",""坏我""]","[""强她"",""弱她"",""强我"",""弱我""]","","","","","","","","match","","","","","","","","","","key","f","16.665999999999766","735","456","f","true","match","img/pentagon.png","弱她","弱她","prac_ALT2_ability","practice_ability","","","","","","","",""
"null","<span style='color:GreenYellow; font-size: 70px;'>正确! </span>","null","html-keyboard-response","89","312678","0.0-8.0-1.0-1.0-0.0-1.39","5","5","4","3","2","2","4","3","5","4","5","-2","-2","-1","-1","0","0","-1","1","4","3","5","4","3","2","2","3","4","3","4","5","3","5","5","3","4","5","3","4","7","3","4","6","3","6","4","4","4","6","2","5","6","1","6","4","6","2","6","3","4","5","3","2","4","3","5","7","1","7","1","7","4","3","4","7","1","3","3","745755632388542465","吴","Female","[""好她"",""坏她"",""好我"",""坏我""]","[""强她"",""弱她"",""强我"",""弱我""]","","","","","","","","","","","","","","","","","","","","","","","","","","","","","","feedback_test","","","","","","","",""
"715","","f","psychophysics","90","314397","0.0-8.0-1.0-1.0-0.0-0.40","5","5","4","3","2","2","4","3","5","4","5","-2","-2","-1","-1","0","0","-1","1","4","3","5","4","3","2","2","3","4","3","4","5","3","5","5","3","4","5","3","4","7","3","4","6","3","6","4","4","4","6","2","5","6","1","6","4","6","2","6","3","4","5","3","2","4","3","5","7","1","7","1","7","4","3","4","7","1","3","3","745755632388542465","吴","Female","[""好她"",""坏她"",""好我"",""坏我""]","[""强她"",""弱她"",""强我"",""弱我""]","","","","","","","","match","","","","","","","","","","key","f","16.66600000000029","735","456","j","false","nonmatch","img/diamond.png","弱她","强我","prac_ALT2_ability","practice_ability","","","","","","","",""
"null","<span style='color:red; font-size: 70px;'>错误! </span>","null","html-keyboard-response","91","314905","0.0-8.0-1.0-1.0-0.0-1.40","5","5","4","3","2","2","4","3","5","4","5","-2","-2","-1","-1","0","0","-1","1","4","3","5","4","3","2","2","3","4","3","4","5","3","5","5","3","4","5","3","4","7","3","4","6","3","6","4","4","4","6","2","5","6","1","6","4","6","2","6","3","4","5","3","2","4","3","5","7","1","7","1","7","4","3","4","7","1","3","3","745755632388542465","吴","Female","[""好她"",""坏她"",""好我"",""坏我""]","[""强她"",""弱她"",""强我"",""弱我""]","","","","","","","","","","","","","","","","","","","","","","","","","","","","","","feedback_test","","","","","","","",""
"778","","f","psychophysics","92","316688","0.0-8.0-1.0-1.0-0.0-0.41","5","5","4","3","2","2","4","3","5","4","5","-2","-2","-1","-1","0","0","-1","1","4","3","5","4","3","2","2","3","4","3","4","5","3","5","5","3","4","5","3","4","7","3","4","6","3","6","4","4","4","6","2","5","6","1","6","4","6","2","6","3","4","5","3","2","4","3","5","7","1","7","1","7","4","3","4","7","1","3","3","745755632388542465","吴","Female","[""好她"",""坏她"",""好我"",""坏我""]","[""强她"",""弱她"",""强我"",""弱我""]","","","","","","","","match","","","","","","","","","","key","f","16.669415094339474","735","456","f","true","match","img/pentagon.png","弱她","弱她","prac_ALT2_ability","practice_ability","","","","","","","",""
"null","<span style='color:GreenYellow; font-size: 70px;'>正确! </span>","null","html-keyboard-response","93","317192","0.0-8.0-1.0-1.0-0.0-1.41","5","5","4","3","2","2","4","3","5","4","5","-2","-2","-1","-1","0","0","-1","1","4","3","5","4","3","2","2","3","4","3","4","5","3","5","5","3","4","5","3","4","7","3","4","6","3","6","4","4","4","6","2","5","6","1","6","4","6","2","6","3","4","5","3","2","4","3","5","7","1","7","1","7","4","3","4","7","1","3","3","745755632388542465","吴","Female","[""好她"",""坏她"",""好我"",""坏我""]","[""强她"",""弱她"",""强我"",""弱我""]","","","","","","","","","","","","","","","","","","","","","","","","","","","","","","feedback_test","","","","","","","",""
"746","","f","psychophysics","94","318947","0.0-8.0-1.0-1.0-0.0-0.42","5","5","4","3","2","2","4","3","5","4","5","-2","-2","-1","-1","0","0","-1","1","4","3","5","4","3","2","2","3","4","3","4","5","3","5","5","3","4","5","3","4","7","3","4","6","3","6","4","4","4","6","2","5","6","1","6","4","6","2","6","3","4","5","3","2","4","3","5","7","1","7","1","7","4","3","4","7","1","3","3","745755632388542465","吴","Female","[""好她"",""坏她"",""好我"",""坏我""]","[""强她"",""弱她"",""强我"",""弱我""]","","","","","","","","match","","","","","","","","","","key","f","16.66600000000024","735","456","f","true","match","img/diamond.png","强我","强我","prac_ALT2_ability","practice_ability","","","","","","","",""
"null","<span style='color:GreenYellow; font-size: 70px;'>正确! </span>","null","html-keyboard-response","95","319457","0.0-8.0-1.0-1.0-0.0-1.42","5","5","4","3","2","2","4","3","5","4","5","-2","-2","-1","-1","0","0","-1","1","4","3","5","4","3","2","2","3","4","3","4","5","3","5","5","3","4","5","3","4","7","3","4","6","3","6","4","4","4","6","2","5","6","1","6","4","6","2","6","3","4","5","3","2","4","3","5","7","1","7","1","7","4","3","4","7","1","3","3","745755632388542465","吴","Female","[""好她"",""坏她"",""好我"",""坏我""]","[""强她"",""弱她"",""强我"",""弱我""]","","","","","","","","","","","","","","","","","","","","","","","","","","","","","","feedback_test","","","","","","","",""
"658","","f","psychophysics","96","321120","0.0-8.0-1.0-1.0-0.0-0.43","5","5","4","3","2","2","4","3","5","4","5","-2","-2","-1","-1","0","0","-1","1","4","3","5","4","3","2","2","3","4","3","4","5","3","5","5","3","4","5","3","4","7","3","4","6","3","6","4","4","4","6","2","5","6","1","6","4","6","2","6","3","4","5","3","2","4","3","5","7","1","7","1","7","4","3","4","7","1","3","3","745755632388542465","吴","Female","[""好她"",""坏她"",""好我"",""坏我""]","[""强她"",""弱她"",""强我"",""弱我""]","","","","","","","","match","","","","","","","","","","key","f","16.666000000000086","735","456","j","false","nonmatch","img/diamond.png","强她","强我","prac_ALT2_ability","practice_ability","","","","","","","",""
"null","<span style='color:red; font-size: 70px;'>错误! </span>","null","html-keyboard-response","97","321624","0.0-8.0-1.0-1.0-0.0-1.43","5","5","4","3","2","2","4","3","5","4","5","-2","-2","-1","-1","0","0","-1","1","4","3","5","4","3","2","2","3","4","3","4","5","3","5","5","3","4","5","3","4","7","3","4","6","3","6","4","4","4","6","2","5","6","1","6","4","6","2","6","3","4","5","3","2","4","3","5","7","1","7","1","7","4","3","4","7","1","3","3","745755632388542465","吴","Female","[""好她"",""坏她"",""好我"",""坏我""]","[""强她"",""弱她"",""强我"",""弱我""]","","","","","","","","","","","","","","","","","","","","","","","","","","","","","","feedback_test","","","","","","","",""
"759","","j","psychophysics","98","323390","0.0-8.0-1.0-1.0-0.0-0.44","5","5","4","3","2","2","4","3","5","4","5","-2","-2","-1","-1","0","0","-1","1","4","3","5","4","3","2","2","3","4","3","4","5","3","5","5","3","4","5","3","4","7","3","4","6","3","6","4","4","4","6","2","5","6","1","6","4","6","2","6","3","4","5","3","2","4","3","5","7","1","7","1","7","4","3","4","7","1","3","3","745755632388542465","吴","Female","[""好她"",""坏她"",""好我"",""坏我""]","[""强她"",""弱她"",""强我"",""弱我""]","","","","","","","","nonmatch","","","","","","","","","","key","j","16.665999999999933","735","456","f","false","match","img/circle.png","强她","强她","prac_ALT2_ability","practice_ability","","","","","","","",""
"null","<span style='color:red; font-size: 70px;'>错误! </span>","null","html-keyboard-response","99","323895","0.0-8.0-1.0-1.0-0.0-1.44","5","5","4","3","2","2","4","3","5","4","5","-2","-2","-1","-1","0","0","-1","1","4","3","5","4","3","2","2","3","4","3","4","5","3","5","5","3","4","5","3","4","7","3","4","6","3","6","4","4","4","6","2","5","6","1","6","4","6","2","6","3","4","5","3","2","4","3","5","7","1","7","1","7","4","3","4","7","1","3","3","745755632388542465","吴","Female","[""好她"",""坏她"",""好我"",""坏我""]","[""强她"",""弱她"",""强我"",""弱我""]","","","","","","","","","","","","","","","","","","","","","","","","","","","","","","feedback_test","","","","","","","",""
"202","","f","psychophysics","100","325102","0.0-8.0-1.0-1.0-0.0-0.45","5","5","4","3","2","2","4","3","5","4","5","-2","-2","-1","-1","0","0","-1","1","4","3","5","4","3","2","2","3","4","3","4","5","3","5","5","3","4","5","3","4","7","3","4","6","3","6","4","4","4","6","2","5","6","1","6","4","6","2","6","3","4","5","3","2","4","3","5","7","1","7","1","7","4","3","4","7","1","3","3","745755632388542465","吴","Female","[""好她"",""坏她"",""好我"",""坏我""]","[""强她"",""弱她"",""强我"",""弱我""]","","","","","","","","match","","","","","","","","","","key","f","16.665999999999865","735","456","f","true","match","img/diamond.png","强我","强我","prac_ALT2_ability","practice_ability","","","","","","","",""
"null","<span style='color:GreenYellow; font-size: 70px;'>正确! </span>","null","html-keyboard-response","101","325606","0.0-8.0-1.0-1.0-0.0-1.45","5","5","4","3","2","2","4","3","5","4","5","-2","-2","-1","-1","0","0","-1","1","4","3","5","4","3","2","2","3","4","3","4","5","3","5","5","3","4","5","3","4","7","3","4","6","3","6","4","4","4","6","2","5","6","1","6","4","6","2","6","3","4","5","3","2","4","3","5","7","1","7","1","7","4","3","4","7","1","3","3","745755632388542465","吴","Female","[""好她"",""坏她"",""好我"",""坏我""]","[""强她"",""弱她"",""强我"",""弱我""]","","","","","","","","","","","","","","","","","","","","","","","","","","","","","","feedback_test","","","","","","","",""
"1135","","j","psychophysics","102","327751","0.0-8.0-1.0-1.0-0.0-0.46","5","5","4","3","2","2","4","3","5","4","5","-2","-2","-1","-1","0","0","-1","1","4","3","5","4","3","2","2","3","4","3","4","5","3","5","5","3","4","5","3","4","7","3","4","6","3","6","4","4","4","6","2","5","6","1","6","4","6","2","6","3","4","5","3","2","4","3","5","7","1","7","1","7","4","3","4","7","1","3","3","745755632388542465","吴","Female","[""好她"",""坏她"",""好我"",""坏我""]","[""强她"",""弱她"",""强我"",""弱我""]","","","","","","","","nonmatch","","","","","","","","","","key","j","16.6687421874999","735","456","j","true","nonmatch","img/pentagon.png","强我","弱她","prac_ALT2_ability","practice_ability","","","","","","","",""
"null","<span style='color:GreenYellow; font-size: 70px;'>正确! </span>","null","html-keyboard-response","103","328256","0.0-8.0-1.0-1.0-0.0-1.46","5","5","4","3","2","2","4","3","5","4","5","-2","-2","-1","-1","0","0","-1","1","4","3","5","4","3","2","2","3","4","3","4","5","3","5","5","3","4","5","3","4","7","3","4","6","3","6","4","4","4","6","2","5","6","1","6","4","6","2","6","3","4","5","3","2","4","3","5","7","1","7","1","7","4","3","4","7","1","3","3","745755632388542465","吴","Female","[""好她"",""坏她"",""好我"",""坏我""]","[""强她"",""弱她"",""强我"",""弱我""]","","","","","","","","","","","","","","","","","","","","","","","","","","","","","","feedback_test","","","","","","","",""
"831","","j","psychophysics","104","330093","0.0-8.0-1.0-1.0-0.0-0.47","5","5","4","3","2","2","4","3","5","4","5","-2","-2","-1","-1","0","0","-1","1","4","3","5","4","3","2","2","3","4","3","4","5","3","5","5","3","4","5","3","4","7","3","4","6","3","6","4","4","4","6","2","5","6","1","6","4","6","2","6","3","4","5","3","2","4","3","5","7","1","7","1","7","4","3","4","7","1","3","3","745755632388542465","吴","Female","[""好她"",""坏她"",""好我"",""坏我""]","[""强她"",""弱她"",""强我"",""弱我""]","","","","","","","","nonmatch","","","","","","","","","","key","j","16.66599999999984","735","456","f","false","match","img/diamond.png","强我","强我","prac_ALT2_ability","practice_ability","","","","","","","",""
"null","<span style='color:red; font-size: 70px;'>错误! </span>","null","html-keyboard-response","105","330597","0.0-8.0-1.0-1.0-0.0-1.47","5","5","4","3","2","2","4","3","5","4","5","-2","-2","-1","-1","0","0","-1","1","4","3","5","4","3","2","2","3","4","3","4","5","3","5","5","3","4","5","3","4","7","3","4","6","3","6","4","4","4","6","2","5","6","1","6","4","6","2","6","3","4","5","3","2","4","3","5","7","1","7","1","7","4","3","4","7","1","3","3","745755632388542465","吴","Female","[""好她"",""坏她"",""好我"",""坏我""]","[""强她"",""弱她"",""强我"",""弱我""]","","","","","","","","","","","","","","","","","","","","","","","","","","","","","","feedback_test","","","","","","","",""
"9668","<style>.context{color:white; font-size: 35px; line-height:40px}</style>                          <div><p class='context'>您正确回答了58% 的试次。</p><p class='context'>您的平均反应时为671毫秒。</p><p class='context'>恭喜您完成练习。按空格键继续。</p></div>"," ","html-keyboard-response","106","340269","0.0-8.0-1.0-1.0-1.0-0.0","5","5","4","3","2","2","4","3","5","4","5","-2","-2","-1","-1","0","0","-1","1","4","3","5","4","3","2","2","3","4","3","4","5","3","5","5","3","4","5","3","4","7","3","4","6","3","6","4","4","4","6","2","5","6","1","6","4","6","2","6","3","4","5","3","2","4","3","5","7","1","7","1","7","4","3","4","7","1","3","3","745755632388542465","吴","Female","[""好她"",""坏她"",""好我"",""坏我""]","[""强她"",""弱她"",""强我"",""弱我""]","","","","","","","","","","","","","","","","","","","","","","","","","","","","","","","","","","","","","",""
"61628","","","instructions","107","401901","0.0-8.0-1.0-1.0-1.0-1.0","5","5","4","3","2","2","4","3","5","4","5","-2","-2","-1","-1","0","0","-1","1","4","3","5","4","3","2","2","3","4","3","4","5","3","5","5","3","4","5","3","4","7","3","4","6","3","6","4","4","4","6","2","5","6","1","6","4","6","2","6","3","4","5","3","2","4","3","5","7","1","7","1","7","4","3","4","7","1","3","3","745755632388542465","吴","Female","[""好她"",""坏她"",""好我"",""坏我""]","[""强她"",""弱她"",""强我"",""弱我""]","","","","","","","","","","","","","","","","","[{""page_index"":0,""viewing_time"":2155},{""page_index"":1,""viewing_time"":57918},{""page_index"":2,""viewing_time"":1554}]","","","","","","","","","","","","","","","","","","","","",""
"null","","null","psychophysics","108","404111","0.0-8.0-1.0-1.1-0.1-0.48","5","5","4","3","2","2","4","3","5","4","5","-2","-2","-1","-1","0","0","-1","1","4","3","5","4","3","2","2","3","4","3","4","5","3","5","5","3","4","5","3","4","7","3","4","6","3","6","4","4","4","6","2","5","6","1","6","4","6","2","6","3","4","5","3","2","4","3","5","7","1","7","1","7","4","3","4","7","1","3","3","745755632388542465","吴","Female","[""好她"",""坏她"",""好我"",""坏我""]","[""强她"",""弱她"",""强我"",""弱我""]","","","","","","","","null","","","","","","","","","","key","null","16.665999999999883","735","456","f","false","match","img/hexagon.png","弱我","弱我","prac_ALT2_ability","practice_ability","","","","","","","",""
"null","<span class='add_' style='color:yellow; font-size: 70px;'> 太慢! </span>","null","html-keyboard-response","109","404615","0.0-8.0-1.0-1.1-0.1-1.48","5","5","4","3","2","2","4","3","5","4","5","-2","-2","-1","-1","0","0","-1","1","4","3","5","4","3","2","2","3","4","3","4","5","3","5","5","3","4","5","3","4","7","3","4","6","3","6","4","4","4","6","2","5","6","1","6","4","6","2","6","3","4","5","3","2","4","3","5","7","1","7","1","7","4","3","4","7","1","3","3","745755632388542465","吴","Female","[""好她"",""坏她"",""好我"",""坏我""]","[""强她"",""弱她"",""强我"",""弱我""]","","","","","","","","","","","","","","","","","","","","","","","","","","","","","","feedback_test","","","","","","","",""
"null","","null","psychophysics","110","406831","0.0-8.0-1.0-1.1-0.1-0.49","5","5","4","3","2","2","4","3","5","4","5","-2","-2","-1","-1","0","0","-1","1","4","3","5","4","3","2","2","3","4","3","4","5","3","5","5","3","4","5","3","4","7","3","4","6","3","6","4","4","4","6","2","5","6","1","6","4","6","2","6","3","4","5","3","2","4","3","5","7","1","7","1","7","4","3","4","7","1","3","3","745755632388542465","吴","Female","[""好她"",""坏她"",""好我"",""坏我""]","[""强她"",""弱她"",""强我"",""弱我""]","","","","","","","","null","","","","","","","","","","key","null","16.666000000000327","735","456","j","false","nonmatch","img/hexagon.png","强我","弱我","prac_ALT2_ability","practice_ability","","","","","","","",""
"null","<span class='add_' style='color:yellow; font-size: 70px;'> 太慢! </span>","null","html-keyboard-response","111","407337","0.0-8.0-1.0-1.1-0.1-1.49","5","5","4","3","2","2","4","3","5","4","5","-2","-2","-1","-1","0","0","-1","1","4","3","5","4","3","2","2","3","4","3","4","5","3","5","5","3","4","5","3","4","7","3","4","6","3","6","4","4","4","6","2","5","6","1","6","4","6","2","6","3","4","5","3","2","4","3","5","7","1","7","1","7","4","3","4","7","1","3","3","745755632388542465","吴","Female","[""好她"",""坏她"",""好我"",""坏我""]","[""强她"",""弱她"",""强我"",""弱我""]","","","","","","","","","","","","","","","","","","","","","","","","","","","","","","feedback_test","","","","","","","",""
"null","","null","psychophysics","112","409559","0.0-8.0-1.0-1.1-0.1-0.50","5","5","4","3","2","2","4","3","5","4","5","-2","-2","-1","-1","0","0","-1","1","4","3","5","4","3","2","2","3","4","3","4","5","3","5","5","3","4","5","3","4","7","3","4","6","3","6","4","4","4","6","2","5","6","1","6","4","6","2","6","3","4","5","3","2","4","3","5","7","1","7","1","7","4","3","4","7","1","3","3","745755632388542465","吴","Female","[""好她"",""坏她"",""好我"",""坏我""]","[""强她"",""弱她"",""强我"",""弱我""]","","","","","","","","null","","","","","","","","","","key","null","16.666000000000086","735","456","j","false","nonmatch","img/diamond.png","强她","强我","prac_ALT2_ability","practice_ability","","","","","","","",""
"null","<span class='add_' style='color:yellow; font-size: 70px;'> 太慢! </span>","null","html-keyboard-response","113","410062","0.0-8.0-1.0-1.1-0.1-1.50","5","5","4","3","2","2","4","3","5","4","5","-2","-2","-1","-1","0","0","-1","1","4","3","5","4","3","2","2","3","4","3","4","5","3","5","5","3","4","5","3","4","7","3","4","6","3","6","4","4","4","6","2","5","6","1","6","4","6","2","6","3","4","5","3","2","4","3","5","7","1","7","1","7","4","3","4","7","1","3","3","745755632388542465","吴","Female","[""好她"",""坏她"",""好我"",""坏我""]","[""强她"",""弱她"",""强我"",""弱我""]","","","","","","","","","","","","","","","","","","","","","","","","","","","","","","feedback_test","","","","","","","",""
"195","","j","psychophysics","114","411262","0.0-8.0-1.0-1.1-0.1-0.51","5","5","4","3","2","2","4","3","5","4","5","-2","-2","-1","-1","0","0","-1","1","4","3","5","4","3","2","2","3","4","3","4","5","3","5","5","3","4","5","3","4","7","3","4","6","3","6","4","4","4","6","2","5","6","1","6","4","6","2","6","3","4","5","3","2","4","3","5","7","1","7","1","7","4","3","4","7","1","3","3","745755632388542465","吴","Female","[""好她"",""坏她"",""好我"",""坏我""]","[""强她"",""弱她"",""强我"",""弱我""]","","","","","","","","nonmatch","","","","","","","","","","key","j","16.66600000000031","735","456","f","false","match","img/pentagon.png","弱她","弱她","prac_ALT2_ability","practice_ability","","","","","","","",""
"null","<span style='color:yellow; font-size: 70px;'>过快! </span>","null","html-keyboard-response","115","411767","0.0-8.0-1.0-1.1-0.1-1.51","5","5","4","3","2","2","4","3","5","4","5","-2","-2","-1","-1","0","0","-1","1","4","3","5","4","3","2","2","3","4","3","4","5","3","5","5","3","4","5","3","4","7","3","4","6","3","6","4","4","4","6","2","5","6","1","6","4","6","2","6","3","4","5","3","2","4","3","5","7","1","7","1","7","4","3","4","7","1","3","3","745755632388542465","吴","Female","[""好她"",""坏她"",""好我"",""坏我""]","[""强她"",""弱她"",""强我"",""弱我""]","","","","","","","","","","","","","","","","","","","","","","","","","","","","","","feedback_test","","","","","","","",""
"null","","null","psychophysics","116","413974","0.0-8.0-1.0-1.1-0.1-0.52","5","5","4","3","2","2","4","3","5","4","5","-2","-2","-1","-1","0","0","-1","1","4","3","5","4","3","2","2","3","4","3","4","5","3","5","5","3","4","5","3","4","7","3","4","6","3","6","4","4","4","6","2","5","6","1","6","4","6","2","6","3","4","5","3","2","4","3","5","7","1","7","1","7","4","3","4","7","1","3","3","745755632388542465","吴","Female","[""好她"",""坏她"",""好我"",""坏我""]","[""强她"",""弱她"",""强我"",""弱我""]","","","","","","","","null","","","","","","","","","","key","null","16.665999999999883","735","456","f","false","match","img/pentagon.png","弱她","弱她","prac_ALT2_ability","practice_ability","","","","","","","",""
"null","<span class='add_' style='color:yellow; font-size: 70px;'> 太慢! </span>","null","html-keyboard-response","117","414479","0.0-8.0-1.0-1.1-0.1-1.52","5","5","4","3","2","2","4","3","5","4","5","-2","-2","-1","-1","0","0","-1","1","4","3","5","4","3","2","2","3","4","3","4","5","3","5","5","3","4","5","3","4","7","3","4","6","3","6","4","4","4","6","2","5","6","1","6","4","6","2","6","3","4","5","3","2","4","3","5","7","1","7","1","7","4","3","4","7","1","3","3","745755632388542465","吴","Female","[""好她"",""坏她"",""好我"",""坏我""]","[""强她"",""弱她"",""强我"",""弱我""]","","","","","","","","","","","","","","","","","","","","","","","","","","","","","","feedback_test","","","","","","","",""
"null","","null","psychophysics","118","416684","0.0-8.0-1.0-1.1-0.1-0.53","5","5","4","3","2","2","4","3","5","4","5","-2","-2","-1","-1","0","0","-1","1","4","3","5","4","3","2","2","3","4","3","4","5","3","5","5","3","4","5","3","4","7","3","4","6","3","6","4","4","4","6","2","5","6","1","6","4","6","2","6","3","4","5","3","2","4","3","5","7","1","7","1","7","4","3","4","7","1","3","3","745755632388542465","吴","Female","[""好她"",""坏她"",""好我"",""坏我""]","[""强她"",""弱她"",""强我"",""弱我""]","","","","","","","","null","","","","","","","","","","key","null","16.665999999999883","735","456","f","false","match","img/diamond.png","强我","强我","prac_ALT2_ability","practice_ability","","","","","","","",""
"null","<span class='add_' style='color:yellow; font-size: 70px;'> 太慢! </span>","null","html-keyboard-response","119","417190","0.0-8.0-1.0-1.1-0.1-1.53","5","5","4","3","2","2","4","3","5","4","5","-2","-2","-1","-1","0","0","-1","1","4","3","5","4","3","2","2","3","4","3","4","5","3","5","5","3","4","5","3","4","7","3","4","6","3","6","4","4","4","6","2","5","6","1","6","4","6","2","6","3","4","5","3","2","4","3","5","7","1","7","1","7","4","3","4","7","1","3","3","745755632388542465","吴","Female","[""好她"",""坏她"",""好我"",""坏我""]","[""强她"",""弱她"",""强我"",""弱我""]","","","","","","","","","","","","","","","","","","","","","","","","","","","","","","feedback_test","","","","","","","",""
"550","","f","psychophysics","120","418747","0.0-8.0-1.0-1.1-0.1-0.54","5","5","4","3","2","2","4","3","5","4","5","-2","-2","-1","-1","0","0","-1","1","4","3","5","4","3","2","2","3","4","3","4","5","3","5","5","3","4","5","3","4","7","3","4","6","3","6","4","4","4","6","2","5","6","1","6","4","6","2","6","3","4","5","3","2","4","3","5","7","1","7","1","7","4","3","4","7","1","3","3","745755632388542465","吴","Female","[""好她"",""坏她"",""好我"",""坏我""]","[""强她"",""弱她"",""强我"",""弱我""]","","","","","","","","match","","","","","","","","","","key","f","16.66599999999997","735","456","j","false","nonmatch","img/circle.png","弱我","强她","prac_ALT2_ability","practice_ability","","","","","","","",""
"null","<span style='color:red; font-size: 70px;'>错误! </span>","null","html-keyboard-response","121","419255","0.0-8.0-1.0-1.1-0.1-1.54","5","5","4","3","2","2","4","3","5","4","5","-2","-2","-1","-1","0","0","-1","1","4","3","5","4","3","2","2","3","4","3","4","5","3","5","5","3","4","5","3","4","7","3","4","6","3","6","4","4","4","6","2","5","6","1","6","4","6","2","6","3","4","5","3","2","4","3","5","7","1","7","1","7","4","3","4","7","1","3","3","745755632388542465","吴","Female","[""好她"",""坏她"",""好我"",""坏我""]","[""强她"",""弱她"",""强我"",""弱我""]","","","","","","","","","","","","","","","","","","","","","","","","","","","","","","feedback_test","","","","","","","",""
"975","","f","psychophysics","122","421239","0.0-8.0-1.0-1.1-0.1-0.55","5","5","4","3","2","2","4","3","5","4","5","-2","-2","-1","-1","0","0","-1","1","4","3","5","4","3","2","2","3","4","3","4","5","3","5","5","3","4","5","3","4","7","3","4","6","3","6","4","4","4","6","2","5","6","1","6","4","6","2","6","3","4","5","3","2","4","3","5","7","1","7","1","7","4","3","4","7","1","3","3","745755632388542465","吴","Female","[""好她"",""坏她"",""好我"",""坏我""]","[""强她"",""弱她"",""强我"",""弱我""]","","","","","","","","match","","","","","","","","","","key","f","16.668966101694622","735","456","f","true","match","img/hexagon.png","弱我","弱我","prac_ALT2_ability","practice_ability","","","","","","","",""
"null","<span style='color:GreenYellow; font-size: 70px;'>正确! </span>","null","html-keyboard-response","123","421742","0.0-8.0-1.0-1.1-0.1-1.55","5","5","4","3","2","2","4","3","5","4","5","-2","-2","-1","-1","0","0","-1","1","4","3","5","4","3","2","2","3","4","3","4","5","3","5","5","3","4","5","3","4","7","3","4","6","3","6","4","4","4","6","2","5","6","1","6","4","6","2","6","3","4","5","3","2","4","3","5","7","1","7","1","7","4","3","4","7","1","3","3","745755632388542465","吴","Female","[""好她"",""坏她"",""好我"",""坏我""]","[""强她"",""弱她"",""强我"",""弱我""]","","","","","","","","","","","","","","","","","","","","","","","","","","","","","","feedback_test","","","","","","","",""
"958","","f","psychophysics","124","423709","0.0-8.0-1.0-1.1-0.1-0.56","5","5","4","3","2","2","4","3","5","4","5","-2","-2","-1","-1","0","0","-1","1","4","3","5","4","3","2","2","3","4","3","4","5","3","5","5","3","4","5","3","4","7","3","4","6","3","6","4","4","4","6","2","5","6","1","6","4","6","2","6","3","4","5","3","2","4","3","5","7","1","7","1","7","4","3","4","7","1","3","3","745755632388542465","吴","Female","[""好她"",""坏她"",""好我"",""坏我""]","[""强她"",""弱她"",""强我"",""弱我""]","","","","","","","","match","","","","","","","","","","key","f","16.666000000000174","735","456","j","false","nonmatch","img/circle.png","强我","强她","prac_ALT2_ability","practice_ability","","","","","","","",""
"null","<span style='color:red; font-size: 70px;'>错误! </span>","null","html-keyboard-response","125","424217","0.0-8.0-1.0-1.1-0.1-1.56","5","5","4","3","2","2","4","3","5","4","5","-2","-2","-1","-1","0","0","-1","1","4","3","5","4","3","2","2","3","4","3","4","5","3","5","5","3","4","5","3","4","7","3","4","6","3","6","4","4","4","6","2","5","6","1","6","4","6","2","6","3","4","5","3","2","4","3","5","7","1","7","1","7","4","3","4","7","1","3","3","745755632388542465","吴","Female","[""好她"",""坏她"",""好我"",""坏我""]","[""强她"",""弱她"",""强我"",""弱我""]","","","","","","","","","","","","","","","","","","","","","","","","","","","","","","feedback_test","","","","","","","",""
"null","","null","psychophysics","126","426420","0.0-8.0-1.0-1.1-0.1-0.57","5","5","4","3","2","2","4","3","5","4","5","-2","-2","-1","-1","0","0","-1","1","4","3","5","4","3","2","2","3","4","3","4","5","3","5","5","3","4","5","3","4","7","3","4","6","3","6","4","4","4","6","2","5","6","1","6","4","6","2","6","3","4","5","3","2","4","3","5","7","1","7","1","7","4","3","4","7","1","3","3","745755632388542465","吴","Female","[""好她"",""坏她"",""好我"",""坏我""]","[""强她"",""弱她"",""强我"",""弱我""]","","","","","","","","null","","","","","","","","","","key","null","16.666000000000327","735","456","j","false","nonmatch","img/hexagon.png","强她","弱我","prac_ALT2_ability","practice_ability","","","","","","","",""
"null","<span class='add_' style='color:yellow; font-size: 70px;'> 太慢! </span>","null","html-keyboard-response","127","426926","0.0-8.0-1.0-1.1-0.1-1.57","5","5","4","3","2","2","4","3","5","4","5","-2","-2","-1","-1","0","0","-1","1","4","3","5","4","3","2","2","3","4","3","4","5","3","5","5","3","4","5","3","4","7","3","4","6","3","6","4","4","4","6","2","5","6","1","6","4","6","2","6","3","4","5","3","2","4","3","5","7","1","7","1","7","4","3","4","7","1","3","3","745755632388542465","吴","Female","[""好她"",""坏她"",""好我"",""坏我""]","[""强她"",""弱她"",""强我"",""弱我""]","","","","","","","","","","","","","","","","","","","","","","","","","","","","","","feedback_test","","","","","","","",""
"175","","j","psychophysics","128","428105","0.0-8.0-1.0-1.1-0.1-0.58","5","5","4","3","2","2","4","3","5","4","5","-2","-2","-1","-1","0","0","-1","1","4","3","5","4","3","2","2","3","4","3","4","5","3","5","5","3","4","5","3","4","7","3","4","6","3","6","4","4","4","6","2","5","6","1","6","4","6","2","6","3","4","5","3","2","4","3","5","7","1","7","1","7","4","3","4","7","1","3","3","745755632388542465","吴","Female","[""好她"",""坏她"",""好我"",""坏我""]","[""强她"",""弱她"",""强我"",""弱我""]","","","","","","","","nonmatch","","","","","","","","","","key","j","16.665999999999933","735","456","f","false","match","img/circle.png","强她","强她","prac_ALT2_ability","practice_ability","","","","","","","",""
"null","<span style='color:yellow; font-size: 70px;'>过快! </span>","null","html-keyboard-response","129","428607","0.0-8.0-1.0-1.1-0.1-1.58","5","5","4","3","2","2","4","3","5","4","5","-2","-2","-1","-1","0","0","-1","1","4","3","5","4","3","2","2","3","4","3","4","5","3","5","5","3","4","5","3","4","7","3","4","6","3","6","4","4","4","6","2","5","6","1","6","4","6","2","6","3","4","5","3","2","4","3","5","7","1","7","1","7","4","3","4","7","1","3","3","745755632388542465","吴","Female","[""好她"",""坏她"",""好我"",""坏我""]","[""强她"",""弱她"",""强我"",""弱我""]","","","","","","","","","","","","","","","","","","","","","","","","","","","","","","feedback_test","","","","","","","",""
"null","","null","psychophysics","130","430831","0.0-8.0-1.0-1.1-0.1-0.59","5","5","4","3","2","2","4","3","5","4","5","-2","-2","-1","-1","0","0","-1","1","4","3","5","4","3","2","2","3","4","3","4","5","3","5","5","3","4","5","3","4","7","3","4","6","3","6","4","4","4","6","2","5","6","1","6","4","6","2","6","3","4","5","3","2","4","3","5","7","1","7","1","7","4","3","4","7","1","3","3","745755632388542465","吴","Female","[""好她"",""坏她"",""好我"",""坏我""]","[""强她"",""弱她"",""强我"",""弱我""]","","","","","","","","null","","","","","","","","","","key","null","16.668651515151865","735","456","f","false","match","img/hexagon.png","弱我","弱我","prac_ALT2_ability","practice_ability","","","","","","","",""
"null","<span class='add_' style='color:yellow; font-size: 70px;'> 太慢! </span>","null","html-keyboard-response","131","431335","0.0-8.0-1.0-1.1-0.1-1.59","5","5","4","3","2","2","4","3","5","4","5","-2","-2","-1","-1","0","0","-1","1","4","3","5","4","3","2","2","3","4","3","4","5","3","5","5","3","4","5","3","4","7","3","4","6","3","6","4","4","4","6","2","5","6","1","6","4","6","2","6","3","4","5","3","2","4","3","5","7","1","7","1","7","4","3","4","7","1","3","3","745755632388542465","吴","Female","[""好她"",""坏她"",""好我"",""坏我""]","[""强她"",""弱她"",""强我"",""弱我""]","","","","","","","","","","","","","","","","","","","","","","","","","","","","","","feedback_test","","","","","","","",""
"63","","f","psychophysics","132","432406","0.0-8.0-1.0-1.1-0.1-0.60","5","5","4","3","2","2","4","3","5","4","5","-2","-2","-1","-1","0","0","-1","1","4","3","5","4","3","2","2","3","4","3","4","5","3","5","5","3","4","5","3","4","7","3","4","6","3","6","4","4","4","6","2","5","6","1","6","4","6","2","6","3","4","5","3","2","4","3","5","7","1","7","1","7","4","3","4","7","1","3","3","745755632388542465","吴","Female","[""好她"",""坏她"",""好我"",""坏我""]","[""强她"",""弱她"",""强我"",""弱我""]","","","","","","","","match","","","","","","","","","","key","f","16.665999999999748","735","456","f","true","match","img/diamond.png","强我","强我","prac_ALT2_ability","practice_ability","","","","","","","",""
"null","<span style='color:yellow; font-size: 70px;'>过快! </span>","null","html-keyboard-response","133","432910","0.0-8.0-1.0-1.1-0.1-1.60","5","5","4","3","2","2","4","3","5","4","5","-2","-2","-1","-1","0","0","-1","1","4","3","5","4","3","2","2","3","4","3","4","5","3","5","5","3","4","5","3","4","7","3","4","6","3","6","4","4","4","6","2","5","6","1","6","4","6","2","6","3","4","5","3","2","4","3","5","7","1","7","1","7","4","3","4","7","1","3","3","745755632388542465","吴","Female","[""好她"",""坏她"",""好我"",""坏我""]","[""强她"",""弱她"",""强我"",""弱我""]","","","","","","","","","","","","","","","","","","","","","","","","","","","","","","feedback_test","","","","","","","",""
"null","","null","psychophysics","134","435127","0.0-8.0-1.0-1.1-0.1-0.61","5","5","4","3","2","2","4","3","5","4","5","-2","-2","-1","-1","0","0","-1","1","4","3","5","4","3","2","2","3","4","3","4","5","3","5","5","3","4","5","3","4","7","3","4","6","3","6","4","4","4","6","2","5","6","1","6","4","6","2","6","3","4","5","3","2","4","3","5","7","1","7","1","7","4","3","4","7","1","3","3","745755632388542465","吴","Female","[""好她"",""坏她"",""好我"",""坏我""]","[""强她"",""弱她"",""强我"",""弱我""]","","","","","","","","null","","","","","","","","","","key","null","16.666000000000086","735","456","j","false","nonmatch","img/pentagon.png","强我","弱她","prac_ALT2_ability","practice_ability","","","","","","","",""
"null","<span class='add_' style='color:yellow; font-size: 70px;'> 太慢! </span>","null","html-keyboard-response","135","435633","0.0-8.0-1.0-1.1-0.1-1.61","5","5","4","3","2","2","4","3","5","4","5","-2","-2","-1","-1","0","0","-1","1","4","3","5","4","3","2","2","3","4","3","4","5","3","5","5","3","4","5","3","4","7","3","4","6","3","6","4","4","4","6","2","5","6","1","6","4","6","2","6","3","4","5","3","2","4","3","5","7","1","7","1","7","4","3","4","7","1","3","3","745755632388542465","吴","Female","[""好她"",""坏她"",""好我"",""坏我""]","[""强她"",""弱她"",""强我"",""弱我""]","","","","","","","","","","","","","","","","","","","","","","","","","","","","","","feedback_test","","","","","","","",""
"null","","null","psychophysics","136","437836","0.0-8.0-1.0-1.1-0.1-0.62","5","5","4","3","2","2","4","3","5","4","5","-2","-2","-1","-1","0","0","-1","1","4","3","5","4","3","2","2","3","4","3","4","5","3","5","5","3","4","5","3","4","7","3","4","6","3","6","4","4","4","6","2","5","6","1","6","4","6","2","6","3","4","5","3","2","4","3","5","7","1","7","1","7","4","3","4","7","1","3","3","745755632388542465","吴","Female","[""好她"",""坏她"",""好我"",""坏我""]","[""强她"",""弱她"",""强我"",""弱我""]","","","","","","","","null","","","","","","","","","","key","null","16.666000000000327","735","456","f","false","match","img/pentagon.png","弱她","弱她","prac_ALT2_ability","practice_ability","","","","","","","",""
"null","<span class='add_' style='color:yellow; font-size: 70px;'> 太慢! </span>","null","html-keyboard-response","137","438343","0.0-8.0-1.0-1.1-0.1-1.62","5","5","4","3","2","2","4","3","5","4","5","-2","-2","-1","-1","0","0","-1","1","4","3","5","4","3","2","2","3","4","3","4","5","3","5","5","3","4","5","3","4","7","3","4","6","3","6","4","4","4","6","2","5","6","1","6","4","6","2","6","3","4","5","3","2","4","3","5","7","1","7","1","7","4","3","4","7","1","3","3","745755632388542465","吴","Female","[""好她"",""坏她"",""好我"",""坏我""]","[""强她"",""弱她"",""强我"",""弱我""]","","","","","","","","","","","","","","","","","","","","","","","","","","","","","","feedback_test","","","","","","","",""
"null","","null","psychophysics","138","440551","0.0-8.0-1.0-1.1-0.1-0.63","5","5","4","3","2","2","4","3","5","4","5","-2","-2","-1","-1","0","0","-1","1","4","3","5","4","3","2","2","3","4","3","4","5","3","5","5","3","4","5","3","4","7","3","4","6","3","6","4","4","4","6","2","5","6","1","6","4","6","2","6","3","4","5","3","2","4","3","5","7","1","7","1","7","4","3","4","7","1","3","3","745755632388542465","吴","Female","[""好她"",""坏她"",""好我"",""坏我""]","[""强她"",""弱她"",""强我"",""弱我""]","","","","","","","","null","","","","","","","","","","key","null","16.668679389313045","735","456","f","false","match","img/circle.png","强她","强她","prac_ALT2_ability","practice_ability","","","","","","","",""
"null","<span class='add_' style='color:yellow; font-size: 70px;'> 太慢! </span>","null","html-keyboard-response","139","441055","0.0-8.0-1.0-1.1-0.1-1.63","5","5","4","3","2","2","4","3","5","4","5","-2","-2","-1","-1","0","0","-1","1","4","3","5","4","3","2","2","3","4","3","4","5","3","5","5","3","4","5","3","4","7","3","4","6","3","6","4","4","4","6","2","5","6","1","6","4","6","2","6","3","4","5","3","2","4","3","5","7","1","7","1","7","4","3","4","7","1","3","3","745755632388542465","吴","Female","[""好她"",""坏她"",""好我"",""坏我""]","[""强她"",""弱她"",""强我"",""弱我""]","","","","","","","","","","","","","","","","","","","","","","","","","","","","","","feedback_test","","","","","","","",""
